time,seconds_elapsed,z,y,x
1696082072976179700,0.0531796875,0.06610393524169922,0.18873071670532227,0.21396338939666748
1696082072986179600,0.0631796875,0.0704641342163086,0.1759781837463379,0.2182713747024536
1696082072996179700,0.0731796875,0.16104793548583984,0.17277741432189941,0.332677960395813
1696082073006179600,0.0831796875,0.2229290008544922,0.11450600624084473,0.3798881471157074
1696082073016179700,0.0931796875,0.2732505798339844,0.05698680877685547,0.290361613035202
1696082073026179600,0.1031796875,0.16710186004638672,0.07131814956665039,0.27014151215553284
1696082073036179700,0.1131796875,0.017255783081054688,0.06128525733947754,0.30687215924263
1696082073046179600,0.1231796875,-0.13849353790283203,0.04042792320251465,0.3035740852355957
1696082073056179700,0.1331796875,-0.24588584899902344,0.0063092708587646484,0.2593710422515869
1696082073066179600,0.1431796875,-0.31049251556396484,0.021064043045043945,0.22605523467063904
1696082073076179700,0.1531796875,-0.3114662170410156,0.053179264068603516,0.2603377103805542
1696082073086179600,0.1631796875,-0.2180461883544922,0.07257747650146484,0.3162643313407898
1696082073096179700,0.1731796875,-0.07814979553222656,0.009845972061157227,0.27980056405067444
1696082073106179600,0.1831796875,0.13487625122070312,0.012468814849853516,0.24283945560455322
1696082073116179700,0.1931796875,0.3138132095336914,0.021592378616333008,0.28403687477111816
1696082073126179600,0.2031796875,0.41861534118652344,-0.019594430923461914,0.32363852858543396
1696082073136179700,0.2131796875,0.4139423370361328,0.011751174926757812,0.304676353931427
1696082073146179600,0.2231796875,0.3361082077026367,0.0498347282409668,0.3159273564815521
1696082073156179700,0.2331796875,0.20915699005126953,0.11347699165344238,0.1829395592212677
1696082073166179600,0.2431796875,0.039954185485839844,0.0719749927520752,0.14923787117004395
1696082073176179700,0.2531796875,-0.19095611572265625,0.03657388687133789,0.23914512991905212
1696082073186179600,0.2631796875,-0.1559772491455078,-0.02745962142944336,0.35707077383995056
1696082073196179700,0.2731796875,0.7359619140625,-0.7825875282287598,1.0787768363952637
1696082073206179600,0.2831796875,0.5629425048828125,-0.7190608978271484,0.8477119207382202
1696082073216179700,0.2931796875,0.0030384063720703125,-0.4596555233001709,0.7090649008750916
1696082073226179600,0.3031796875,-0.8438014984130859,-0.3646867275238037,0.6444955468177795
1696082073236179700,0.3131796875,-1.1626710891723633,-0.3720438480377197,0.08238023519515991
1696082073246179600,0.3231796875,-1.261399745941162,-0.012447834014892578,-0.4750989079475403
1696082073256179700,0.3331796875,-1.071258544921875,0.12618708610534668,-1.2458635568618774
1696082073266179600,0.3431796875,-0.45073795318603516,-0.2527272701263428,-1.1725847721099854
1696082073276179700,0.3531796875,-0.5104093551635742,-0.3434164524078369,-1.1730475425720215
1696082073286179600,0.3631796875,-0.7704524993896484,-0.7464616298675537,-1.3605879545211792
1696082073296179700,0.3731796875,-0.9664554595947266,-0.9716928005218506,-1.0287126302719116
1696082073306179600,0.3831796875,-1.2590713500976562,-0.8822124004364014,-0.19190728664398193
1696082073316179700,0.3931796875,-1.7422966957092285,-0.9202289581298828,-0.18157333135604858
1696082073326179600,0.4031796875,-2.2135701179504395,-1.131427526473999,-0.4110533595085144
1696082073336179700,0.4131796875,-2.334959030151367,-1.459263563156128,-0.8756902813911438
1696082073346179600,0.4231796875,-2.5206189155578613,-1.46787428855896,-0.8850440382957458
1696082073356179700,0.4331796875,-2.9328465461730957,-1.161754846572876,-0.9742483496665955
1696082073366179600,0.4431796875,-3.05499267578125,-0.8066120147705078,-0.9066059589385986
1696082073376179700,0.4531796875,-2.800689697265625,-1.1942815780639648,-1.148209571838379
1696082073386179600,0.4631796875,-2.3088769912719727,-1.2075059413909912,-0.8415069580078125
1696082073396179700,0.4731796875,-1.1400461196899414,-2.0483920574188232,-1.7549242973327637
1696082073406179600,0.4831796875,-0.4224863052368164,-1.8780686855316162,-1.7545164823532104
1696082073416179700,0.4931796875,0.40720176696777344,-1.5117084980010986,-1.702845573425293
1696082073426179600,0.5031796875,0.7855396270751953,-1.2357242107391357,-1.6303720474243164
1696082073436179700,0.5131796875,0.7642402648925781,-1.0152699947357178,-1.3406097888946533
1696082073446179600,0.5231796875,0.5994634628295898,-0.8358688354492188,-1.079473614692688
1696082073456179700,0.5331796875,0.22814083099365234,-0.6884326934814453,-0.9466447830200195
1696082073466179600,0.5431796875,-0.23180484771728516,-0.38559532165527344,-0.42224574089050293
1696082073476179700,0.5531796875,-0.4651217460632324,-0.21232104301452637,-0.15100741386413574
1696082073486179600,0.5631796875,-0.6902780532836914,-0.06433796882629395,-0.00669097900390625
1696082073496179700,0.5731796875,-0.8886852264404297,0.0030205249786376953,-0.1714310646057129
1696082073506179600,0.5831796875,-0.943936824798584,0.056960105895996094,-0.5784811973571777
1696082073516179700,0.5931796875,-0.9354686737060547,0.24697661399841309,-0.8941841125488281
1696082073526179600,0.6031796875,-0.7232451438903809,0.5269079208374023,-1.1415700912475586
1696082073536179700,0.6131796875,0.21885204315185547,0.48990416526794434,-2.175025224685669
1696082073546179600,0.6231796875,0.07462501525878906,-0.28930068016052246,-2.9773504734039307
1696082073556179700,0.6331796875,-2.5911951065063477,-0.7731003761291504,-2.9794483184814453
1696082073566179600,0.6431796875,-0.5139656066894531,-1.7201004028320312,-2.6594622135162354
1696082073576179700,0.6531796875,-1.7569594383239746,-2.6034185886383057,-2.390655994415283
1696082073586179600,0.6631796875,-3.175340175628662,-3.708411693572998,-2.237027645111084
1696082073596179700,0.6731796875,-4.143928050994873,-4.7743730545043945,-2.267568588256836
1696082073606179600,0.6831796875,-5.053508758544922,-5.801519393920898,-2.271580696105957
1696082073616179700,0.6931796875,-5.860867977142334,-6.494300842285156,-2.2825675010681152
1696082073626179600,0.7031796875,-6.346859455108643,-6.729592800140381,-2.6157026290893555
1696082073636179700,0.7131796875,-6.629907608032227,-7.12662410736084,-2.820807456970215
1696082073646179600,0.7231796875,-6.699406623840332,-7.664328575134277,-2.5602307319641113
1696082073656179700,0.7331796875,-6.365659713745117,-8.108898162841797,-2.19272518157959
1696082073666179600,0.7431796875,-5.3186140060424805,-8.116485595703125,-1.8674802780151367
1696082073676179700,0.7531796875,-3.6374008655548096,-7.93267822265625,-1.6400260925292969
1696082073686179600,0.7631796875,-1.7999796867370605,-7.930058479309082,-1.5934205055236816
1696082073696179700,0.7731796875,-0.8132839202880859,-7.829919338226318,-1.6888079643249512
1696082073706179600,0.7831796875,-0.12964963912963867,-7.516935348510742,-1.8045005798339844
1696082073716179700,0.7931796875,0.23643016815185547,-6.994649410247803,-1.9297828674316406
1696082073726179600,0.8031796875,-0.17547225952148438,-6.119424343109131,-1.4136457443237305
1696082073736179700,0.8131796875,-0.6872172355651855,-5.264870643615723,0.14812994003295898
1696082073746179800,0.823179931640625,-0.3689737319946289,-4.702829837799072,2.9631295204162598
1696082073756179700,0.8331796875,0.598480224609375,-4.5780792236328125,6.425736904144287
1696082073766179600,0.8431796875,2.1015076637268066,-4.9380316734313965,10.05038833618164
1696082073776179700,0.8531796875,3.850459098815918,-4.99105167388916,13.28152847290039
1696082073786179600,0.8631796875,5.767807960510254,-4.139989852905273,16.055400848388672
1696082073796179700,0.8731796875,7.7999114990234375,-2.9574015140533447,18.185379028320312
1696082073806179600,0.8831796875,9.285451889038086,-1.8528237342834473,19.812095642089844
1696082073816179700,0.8931796875,10.079324722290039,-1.2367017269134521,20.63591194152832
1696082073826179600,0.9031796875,10.370424270629883,-0.9883365631103516,20.617172241210938
1696082073836179700,0.9131796875,10.385048866271973,-0.5495777130126953,19.987628936767578
1696082073846179600,0.9231796875,9.325180053710938,0.12311649322509766,18.96575164794922
1696082073856179700,0.9331796875,8.2120361328125,0.35147762298583984,16.48578453063965
1696082073866179800,0.943179931640625,7.135074138641357,0.6777749061584473,14.712114334106445
1696082073876179700,0.9531796875,6.635478973388672,1.0399835109710693,14.45754337310791
1696082073886179800,0.963179931640625,6.403709411621094,0.9757330417633057,14.348686218261719
1696082073896179700,0.9731796875,6.191418647766113,0.5233736038208008,13.035806655883789
1696082073906179800,0.983179931640625,4.880794048309326,0.3235177993774414,12.091419219970703
1696082073916179700,0.9931796875,3.7845141887664795,0.24195384979248047,10.631085395812988
1696082073926179800,1.003179931640625,2.965249538421631,0.4045863151550293,8.57113265991211
1696082073936179700,1.0131796875,2.3662731647491455,0.43416476249694824,6.57520866394043
1696082073946179800,1.023179931640625,2.1655163764953613,0.2554495334625244,4.485440254211426
1696082073956179700,1.0331796875,2.1840879917144775,0.29623889923095703,2.0357799530029297
1696082073966179800,1.043179931640625,1.8439574241638184,0.49933362007141113,-0.30693626403808594
1696082073976179700,1.0531796875,1.2506035566329956,0.9042544364929199,-2.3677825927734375
1696082073986179800,1.063179931640625,0.8051958680152893,1.58050537109375,-4.263214111328125
1696082073996179700,1.0731796875,1.0179513692855835,2.387575387954712,-6.513787269592285
1696082074006179800,1.083179931640625,1.7589030265808105,3.032273769378662,-8.74120807647705
1696082074016179500,1.093179443359375,2.710893392562866,3.397104501724243,-10.823731422424316
1696082074026179600,1.1031796875,3.540510654449463,3.471959114074707,-12.60313892364502
1696082074036179500,1.113179443359375,4.1478376388549805,3.253401041030884,-14.30329704284668
1696082074046179300,1.123179443359375,4.539329528808594,3.1826915740966797,-15.541389465332031
1696082074056179500,1.133179443359375,4.559141159057617,3.1038198471069336,-16.060117721557617
1696082074066178600,1.143178466796875,4.225408554077148,3.0152604579925537,-16.08091163635254
1696082074076178400,1.153178466796875,3.6928462982177734,2.9422221183776855,-15.878103256225586
1696082074086178600,1.163178466796875,3.059309244155884,2.709449052810669,-15.452913284301758
1696082074096178400,1.173178466796875,2.3931286334991455,2.5644471645355225,-14.790498733520508
1696082074106179000,1.183178955078125,1.8799906969070435,2.4358811378479004,-14.030227661132812
1696082074116179200,1.19317919921875,1.4851748943328857,2.288452386856079,-12.991064071655273
1696082074126179000,1.203178955078125,1.2482675313949585,2.184319496154785,-11.801488876342773
1696082074136179200,1.21317919921875,1.2851287126541138,2.0218725204467773,-10.705589294433594
1696082074146179000,1.223178955078125,1.1883364915847778,1.440356969833374,-10.135759353637695
1696082074156178700,1.2331787109375,0.9414515495300293,0.7403624057769775,-9.93151569366455
1696082074166178600,1.243178466796875,0.7333593368530273,0.586835503578186,-9.188569068908691
1696082074176178700,1.2531787109375,0.039032697677612305,0.5617258548736572,-7.662087440490723
1696082074186178600,1.263178466796875,-0.6091008186340332,0.49161577224731445,-5.6428375244140625
1696082074196178700,1.2731787109375,-1.0996088981628418,0.3909109830856323,-3.6835694313049316
1696082074206178300,1.28317822265625,-1.7042300701141357,0.5913292169570923,-1.5986852645874023
1696082074216178400,1.293178466796875,-2.057448387145996,0.5071191787719727,-0.7909431457519531
1696082074226178300,1.30317822265625,-2.257237672805786,0.02826690673828125,-0.34802722930908203
1696082074236178400,1.313178466796875,-2.6873018741607666,-0.5330250263214111,0.3127584457397461
1696082074246178300,1.32317822265625,-3.2296223640441895,-1.25288987159729,1.3146677017211914
1696082074256178400,1.333178466796875,-3.827845573425293,-1.176257848739624,3.2258129119873047
1696082074266178300,1.34317822265625,-3.9678573608398438,-0.2754979133605957,5.609383583068848
1696082074276178400,1.353178466796875,-3.770369052886963,0.8337786197662354,8.202967643737793
1696082074286178300,1.36317822265625,-3.087415933609009,0.7311828136444092,9.863040924072266
1696082074296178400,1.373178466796875,-2.9320101737976074,0.10085487365722656,10.088151931762695
1696082074306178300,1.38317822265625,-3.7316458225250244,-0.7026267051696777,9.639730453491211
1696082074316178700,1.3931787109375,-5.188404083251953,-1.393369197845459,9.258167266845703
1696082074326178600,1.403178466796875,-6.0763421058654785,-1.8462815284729004,9.212966918945312
1696082074336178700,1.4131787109375,-5.817336082458496,-1.8607401847839355,8.159914016723633
1696082074346178600,1.423178466796875,-0.43511462211608887,-1.582707405090332,8.33263874053955
1696082074356178700,1.4331787109375,7.115331649780273,-0.7879147529602051,12.90662956237793
1696082074366179600,1.4431796875,8.942087173461914,0.3346679210662842,12.50586986541748
1696082074376179500,1.453179443359375,2.60715389251709,0.558077335357666,6.717339515686035
1696082074386179600,1.4631796875,0.5736315250396729,0.4232213497161865,1.2131786346435547
1696082074399830300,1.476830322265625,1.41383695602417,0.25375962257385254,-1.505622386932373
1696082074409829600,1.48682958984375,2.5580623149871826,-0.5323758125305176,-1.9068403244018555
1696082074419829500,1.49682958984375,2.683666229248047,-0.7631163597106934,-1.5181994438171387
1696082074429829600,1.50682958984375,1.1008511781692505,-1.124354600906372,-0.9108576774597168
1696082074439829500,1.51682958984375,-0.5365021228790283,-1.4601669311523438,-0.9724211692810059
1696082074449829600,1.52682958984375,-0.44366002082824707,-2.029712677001953,-1.1610407829284668
1696082074459830000,1.536830078125,0.284177303314209,-1.9307854175567627,-0.8196601867675781
1696082074469830000,1.546829833984375,0.701439619064331,-1.2929751873016357,-0.7443151473999023
1696082074479830000,1.556830078125,1.4596558809280396,-0.9004430770874023,-0.4154014587402344
1696082074489830000,1.566829833984375,1.0233343839645386,0.11477828025817871,-0.6543912887573242
1696082074499830000,1.576830078125,1.9215428829193115,1.1225407123565674,-1.8670015335083008
1696082074509830400,1.586830322265625,2.6003050804138184,1.7823002338409424,-2.9436893463134766
1696082074519830300,1.596830322265625,-0.7340190410614014,0.291140079498291,-0.8992986679077148
1696082074529830100,1.606830078125,-4.311866760253906,-0.8941752910614014,0.9374074935913086
1696082074539830300,1.616830322265625,-3.2754461765289307,-0.8593963384628296,0.03493213653564453
1696082074549830100,1.626830078125,-0.8104660511016846,2.628988742828369,-9.16511344909668
1696082074559830300,1.636830322265625,-9.286797523498535,5.836786270141602,-12.17856216430664
1696082074569830100,1.646830078125,-2.032557964324951,3.3353023529052734,-7.26955509185791
1696082074579830300,1.656830322265625,0.2451266050338745,0.4949287176132202,-0.6270961761474609
1696082074589830100,1.666830078125,-1.7072526216506958,-0.1630244255065918,2.613454818725586
1696082074599830300,1.676830322265625,-5.286342620849609,-1.0653719902038574,6.15190315246582
1696082074609830100,1.686830078125,-5.696163654327393,-0.5105342864990234,9.021963119506836
1696082074619830300,1.696830322265625,-3.531393527984619,1.4448416233062744,9.43582820892334
1696082074629830100,1.706830078125,-1.5478920936584473,3.554304599761963,7.8478498458862305
1696082074639830300,1.716830322265625,0.3799715042114258,4.335500717163086,8.06618595123291
1696082074649830100,1.726830078125,2.0353498458862305,4.358193397521973,10.270822525024414
1696082074659830300,1.736830322265625,2.7204277515411377,3.4942636489868164,11.319252967834473
1696082074669830100,1.746830078125,4.257502555847168,2.906034469604492,10.533998489379883
1696082074679830300,1.756830322265625,4.719976902008057,3.0012166500091553,6.683078765869141
1696082074689830400,1.766830322265625,3.543614625930786,3.781116485595703,-0.9177055358886719
1696082074699830300,1.776830322265625,1.927606463432312,3.020174741744995,-7.700654029846191
1696082074709830400,1.786830322265625,0.6630108952522278,1.9255098104476929,-8.723267555236816
1696082074719830300,1.796830322265625,0.14498379826545715,0.6967676877975464,-9.237580299377441
1696082074729830400,1.806830322265625,-3.012505531311035,-1.623429775238037,-10.526128768920898
1696082074739830300,1.816830322265625,-6.0904741287231445,-3.121298313140869,-10.275059700012207
1696082074749830400,1.826830322265625,-3.5145795345306396,-3.4542322158813477,-12.173799514770508
1696082074759830300,1.836830322265625,0.058060288429260254,-1.8824318647384644,-11.855472564697266
1696082074769830400,1.846830322265625,4.048445224761963,-0.5011997222900391,-12.21163272857666
1696082074779830300,1.856830322265625,4.49753999710083,-1.9968235492706299,-11.081236839294434
1696082074789830400,1.866830322265625,0.5911819934844971,-1.9313201904296875,-11.913398742675781
1696082074799830300,1.876830322265625,-0.09702932834625244,-2.16137433052063,-11.43080997467041
1696082074809830400,1.886830322265625,1.5744376182556152,-2.7071826457977295,-12.84430980682373
1696082074819830300,1.896830322265625,0.7819716930389404,-3.0209462642669678,-14.687433242797852
1696082074829830400,1.906830322265625,-2.648031711578369,-3.9988250732421875,-13.467767715454102
1696082074839830300,1.916830322265625,-3.568016529083252,-6.04265022277832,-10.84808349609375
1696082074849830400,1.926830322265625,-2.7774829864501953,-6.988602638244629,-9.288509368896484
1696082074859830300,1.936830322265625,-2.1429378986358643,-7.490976333618164,-4.2231903076171875
1696082074869830400,1.946830322265625,-1.7986868619918823,-10.219491004943848,2.7160825729370117
1696082074879830300,1.956830322265625,-2.0328359603881836,-14.50967025756836,8.32973575592041
1696082074889830400,1.966830322265625,-1.7742152214050293,-16.398597717285156,11.885527610778809
1696082074899830300,1.976830322265625,4.804351806640625,-18.326631546020508,17.490848541259766
1696082074909830400,1.986830322265625,8.115234375,-14.563962936401367,21.562641143798828
1696082074919830300,1.996830322265625,7.6309051513671875,-9.399513244628906,25.587566375732422
1696082074929830400,2.006830322265625,4.0293402671813965,-2.4224853515625,20.160608291625977
1696082074939830300,2.016830322265625,3.1697146892547607,1.1269855499267578,10.310164451599121
1696082074949830400,2.026830322265625,3.6525135040283203,1.2798094749450684,4.751982688903809
1696082074959830300,2.036830322265625,1.5370967388153076,2.6916942596435547,1.711336612701416
1696082074969830400,2.046830322265625,0.49138343334198,2.730759620666504,-1.4374520778656006
1696082074979830300,2.056830322265625,0.8246538639068604,2.3494606018066406,-3.2942631244659424
1696082074989830400,2.066830322265625,0.5460866689682007,2.178915023803711,-3.492438793182373
1696082074999830300,2.076830322265625,-0.25739920139312744,2.0290980339050293,-2.884810209274292
1696082075009830400,2.086830322265625,-1.1174557209014893,2.6501288414001465,-2.9232113361358643
1696082075019830300,2.096830322265625,-2.5786385536193848,3.3029651641845703,-1.304915189743042
1696082075029830100,2.106830078125,-3.3197484016418457,3.1078872680664062,0.6405234336853027
1696082075039830300,2.116830322265625,-2.762660026550293,2.474543571472168,2.0403800010681152
1696082075049830100,2.126830078125,-3.355926513671875,2.1990981101989746,1.9633631706237793
1696082075059830300,2.136830322265625,-3.1989333629608154,2.307399272918701,1.6593270301818848
1696082075069830100,2.146830078125,-2.6543726921081543,1.41021728515625,0.8384513854980469
1696082075079830300,2.156830322265625,-2.1767702102661133,1.1442961692810059,0.30725574493408203
1696082075089830100,2.166830078125,-1.8105772733688354,1.6001691818237305,-0.5110232830047607
1696082075099830300,2.176830322265625,-0.9173189997673035,1.9097528457641602,-1.3132376670837402
1696082075109830100,2.186830078125,0.09470093250274658,2.0919055938720703,-2.0601513385772705
1696082075119830300,2.196830322265625,1.0747840404510498,2.1551547050476074,-2.194934368133545
1696082075129830100,2.206830078125,1.647965431213379,1.9870014190673828,-2.3509573936462402
1696082075139830300,2.216830322265625,2.1181633472442627,1.2640533447265625,-2.507164239883423
1696082075149830100,2.226830078125,2.855170249938965,0.12310504913330078,-3.07688570022583
1696082075159830300,2.236830322265625,3.710791826248169,-0.9920940399169922,-3.7101571559906006
1696082075169830100,2.246830078125,3.825685739517212,-1.1832914352416992,-3.3223376274108887
1696082075179830300,2.256830322265625,2.4323062896728516,0.5325746536254883,-1.0636296272277832
1696082075189830100,2.266830078125,0.4846206307411194,4.619346618652344,0.3381319046020508
1696082075199830300,2.276830322265625,0.5999680161476135,7.644444465637207,-1.3633359670639038
1696082075209830100,2.286830078125,-0.6625884771347046,6.300140380859375,-0.13642668724060059
1696082075219830300,2.296830322265625,-1.9010040760040283,5.316167831420898,0.37943482398986816
1696082075229830400,2.306830322265625,-3.2369165420532227,5.217936038970947,0.2191077470779419
1696082075239830300,2.316830322265625,-3.9142985343933105,4.6221723556518555,-0.0603480339050293
1696082075249830400,2.326830322265625,-4.555892467498779,3.5947160720825195,-0.09154057502746582
1696082075259830300,2.336830322265625,-5.179625034332275,1.2888965606689453,0.34987926483154297
1696082075269830100,2.346830078125,-3.7078890800476074,-4.902942657470703,0.5281690359115601
1696082075279830300,2.356830322265625,-1.0000133514404297,-11.407963752746582,0.09841129183769226
1696082075289830100,2.366830078125,2.1760425567626953,-15.252218246459961,-1.8335506916046143
1696082075299830300,2.376830322265625,4.476167678833008,-17.582988739013672,-1.228209376335144
1696082075309830100,2.386830078125,5.440547466278076,-17.454795837402344,0.2853919267654419
1696082075319830300,2.396830322265625,4.102076053619385,-11.237836837768555,0.5676438212394714
1696082075329830100,2.406830078125,2.296488046646118,-2.6578540802001953,-0.19298261404037476
1696082075339830300,2.416830322265625,0.44073623418807983,0.947667121887207,0.30103403329849243
1696082075349830100,2.426830078125,0.12692995369434357,1.0181903839111328,0.9034227132797241
1696082075359830300,2.436830322265625,-0.7259646654129028,0.9835052490234375,-1.659440040588379
1696082075369830100,2.446830078125,-2.7909584045410156,1.8337616920471191,-0.4178510308265686
1696082075379830300,2.456830322265625,-2.2915444374084473,1.0316314697265625,0.8500853776931763
1696082075389830100,2.466830078125,-0.40910500288009644,0.8104124069213867,1.73025643825531
1696082075399830300,2.476830322265625,0.5596541166305542,0.9581384658813477,2.6453497409820557
1696082075409830100,2.486830078125,1.7987538576126099,1.4192180633544922,2.6057119369506836
1696082075419830300,2.496830322265625,2.002903461456299,1.7663636207580566,1.260035753250122
1696082075429830100,2.506830078125,1.5890381336212158,1.889925479888916,0.21520698070526123
1696082075439830300,2.516830322265625,1.6279709339141846,1.5991935729980469,-0.4998204708099365
1696082075449830100,2.526830078125,1.1288853883743286,1.0713376998901367,-0.7430410385131836
1696082075459830300,2.536830322265625,0.32963061332702637,0.6498584747314453,-0.4718666672706604
1696082075469830100,2.546830078125,-0.2713282108306885,0.42956066131591797,0.20979130268096924
1696082075479830300,2.556830322265625,-0.29921895265579224,0.28395557403564453,0.6287132501602173
1696082075489830400,2.566830322265625,-0.04963815212249756,0.017267227172851562,0.5689777135848999
1696082075499830300,2.576830322265625,0.12705212831497192,-0.33148670196533203,0.7703565955162048
1696082075509830100,2.586830078125,0.1967800259590149,-0.42503929138183594,1.118149757385254
1696082075519830300,2.596830322265625,0.21382324397563934,-0.5721731185913086,1.0634686946868896
1696082075529830100,2.606830078125,-0.008885025978088379,-0.6483116149902344,1.177398443222046
1696082075539830300,2.616830322265625,-0.2217380702495575,-0.5672874450683594,1.5689420700073242
1696082075549830100,2.626830078125,-0.5157148838043213,-0.3432302474975586,1.9559998512268066
1696082075559830300,2.636830322265625,-0.6201550960540771,-0.0593109130859375,2.0448622703552246
1696082075569830100,2.646830078125,-0.455573707818985,0.18431663513183594,1.8880271911621094
1696082075579830300,2.656830322265625,-0.09311437606811523,0.2630271911621094,1.738572359085083
1696082075589830100,2.666830078125,0.30474135279655457,0.16225910186767578,1.6685744524002075
1696082075599830300,2.676830322265625,0.6272256374359131,0.05185127258300781,1.474439263343811
1696082075609830100,2.686830078125,0.7785979509353638,0.06119060516357422,1.033369541168213
1696082075619830300,2.696830322265625,0.7950068116188049,0.21441650390625,0.54604572057724
1696082075629830100,2.706830078125,0.6963526606559753,0.3606882095336914,0.1330106258392334
1696082075639830300,2.716830322265625,0.5015460848808289,0.42073822021484375,-0.0668300986289978
1696082075649830100,2.726830078125,0.26148512959480286,0.3824119567871094,-0.1326373815536499
1696082075659830300,2.736830322265625,0.0031717419624328613,0.16663265228271484,-0.020673036575317383
1696082075669830100,2.746830078125,-0.24448764324188232,-0.06615924835205078,0.3076481819152832
1696082075679830300,2.756830322265625,-0.4957979917526245,-0.01425933837890625,0.6260474920272827
1696082075689830100,2.766830078125,-0.6536861062049866,0.20986652374267578,0.9587135314941406
1696082075699830300,2.776830322265625,-0.596619725227356,0.3332710266113281,1.1720850467681885
1696082075709830100,2.786830078125,-0.3176215887069702,0.3128204345703125,1.2427523136138916
1696082075719830300,2.796830322265625,0.039413392543792725,0.22043418884277344,1.236619472503662
1696082075729830400,2.806830322265625,0.3485639691352844,0.10410213470458984,1.1364976167678833
1696082075739830300,2.816830322265625,0.5096898078918457,0.033293724060058594,1.0012693405151367
1696082075749830400,2.826830322265625,0.5283405780792236,-0.0014829635620117188,0.9294339418411255
1696082075759830300,2.836830322265625,0.42751917243003845,0.0022373199462890625,0.8690277338027954
1696082075769830400,2.846830322265625,0.22850728034973145,0.027626991271972656,0.8521451950073242
1696082075779830300,2.856830322265625,0.044242024421691895,-0.06658744812011719,0.8669930100440979
1696082075789830400,2.866830322265625,-0.06213247776031494,-0.24939346313476562,0.9525003433227539
1696082075799830300,2.876830322265625,-0.05591684579849243,-0.28618621826171875,1.019147276878357
1696082075809830400,2.886830322265625,0.025111496448516846,-0.1506185531616211,1.073164939880371
1696082075819830300,2.896830322265625,0.19038599729537964,0.0616607666015625,1.1202993392944336
1696082075829830400,2.906830322265625,0.3824469745159149,0.18303298950195312,1.0356179475784302
1696082075839830300,2.916830322265625,0.5781249403953552,0.1900959014892578,0.38606125116348267
1696082075849830400,2.926830322265625,0.5877111554145813,0.10595035552978516,-0.119480662047863
1696082075859830300,2.936830322265625,0.5923016667366028,0.07993888854980469,-0.615715503692627
1696082075869830400,2.946830322265625,0.6944306492805481,0.16250324249267578,-1.0709446668624878
1696082075879830300,2.956830322265625,0.7509335279464722,0.23546981811523438,-1.3874092102050781
1696082075889830400,2.966830322265625,0.7072125673294067,0.25816917419433594,-1.5034558773040771
1696082075899830300,2.976830322265625,0.6412099003791809,0.25707530975341797,-1.4935123920440674
1696082075909830400,2.986830322265625,0.6147608160972595,0.42377758026123047,-1.4075673818588257
1696082075919830300,2.996830322265625,0.5837366580963135,0.6051082611083984,-1.1955721378326416
1696082075929830400,3.006830322265625,0.5089327692985535,0.7149124145507812,-0.8984615802764893
1696082075939830300,3.016830322265625,0.3306373357772827,0.7220325469970703,-0.512018084526062
1696082075949830400,3.026830322265625,0.12606936693191528,0.6024446487426758,-0.11946546286344528
1696082075959830300,3.036830322265625,-0.0861632227897644,0.4756202697753906,0.3248126804828644
1696082075969830400,3.046830322265625,-0.3542817234992981,0.31508731842041016,0.7353890538215637
1696082075979830300,3.056830322265625,-0.5249075293540955,0.22121334075927734,1.2049081325531006
1696082075989830400,3.066830322265625,-0.47172802686691284,0.12183284759521484,1.6997692584991455
1696082075999830300,3.076830322265625,-0.3040540814399719,0.033591270446777344,2.029515027999878
1696082076009830400,3.086830322265625,0.04490286111831665,0.006758689880371094,2.2660558223724365
1696082076019830300,3.096830322265625,0.4461267292499542,0.015117645263671875,2.3884265422821045
1696082076029830100,3.106830078125,0.8342226147651672,0.01818561553955078,2.3034706115722656
1696082076039830300,3.116830322265625,1.1423419713974,0.004151344299316406,2.056138277053833
1696082076049830100,3.126830078125,1.3211922645568848,0.10245323181152344,1.6355547904968262
1696082076059830300,3.136830322265625,1.455859899520874,0.21498680114746094,1.1393182277679443
1696082076069830100,3.146830078125,1.4334708452224731,0.3322486877441406,0.6996423006057739
1696082076079830300,3.156830322265625,1.2506331205368042,0.41843223571777344,0.2637910842895508
1696082076089830100,3.166830078125,0.9570608139038086,0.38745880126953125,-0.13077040016651154
1696082076099830300,3.176830322265625,0.6047735214233398,0.34241771697998047,-0.5221142172813416
1696082076109830100,3.186830078125,0.29258614778518677,0.32637596130371094,-0.9199629426002502
1696082076119830300,3.196830322265625,0.08812010288238525,0.3173952102661133,-1.3111968040466309
1696082076129830100,3.206830078125,0.09990561008453369,0.2528495788574219,-1.6108235120773315
1696082076139830300,3.216830322265625,0.29132890701293945,0.05820274353027344,-1.7409594058990479
1696082076149830100,3.226830078125,0.6384507417678833,-0.34323596954345703,-1.5969111919403076
1696082076159830300,3.236830322265625,1.0750298500061035,-0.8843355178833008,-1.2187219858169556
1696082076169830100,3.246830078125,1.5692989826202393,-1.4905147552490234,-0.7993995547294617
1696082076179830300,3.256830322265625,2.011016607284546,-1.9534997940063477,-0.3889630436897278
1696082076189830100,3.266830078125,2.4282257556915283,-2.137502670288086,-0.147466242313385
1696082076199830300,3.276830322265625,2.786046028137207,-2.0407276153564453,0.014712125062942505
1696082076209830100,3.286830078125,3.0934712886810303,-1.7337112426757812,0.33178824186325073
1696082076219830300,3.296830322265625,3.4097299575805664,-1.389277458190918,0.6850415468215942
1696082076229830100,3.306830078125,3.787402391433716,-1.323659896850586,1.2831255197525024
1696082076239830300,3.316830322265625,4.05001163482666,-1.598546028137207,2.0222272872924805
1696082076249830100,3.326830078125,4.174520015716553,-2.0282907485961914,2.644325017929077
1696082076259830300,3.336830322265625,3.834723472595215,-2.2543582916259766,3.2565903663635254
1696082076269830100,3.346830078125,3.2680182456970215,-2.3808536529541016,3.7004027366638184
1696082076279830300,3.356830322265625,2.699479103088379,-2.4128494262695312,4.072101593017578
1696082076289830100,3.366830078125,2.5217528343200684,-2.373340606689453,4.422965049743652
1696082076299830300,3.376830322265625,2.796398401260376,-2.4652700424194336,4.88368558883667
1696082076309830100,3.386830078125,3.1304831504821777,-2.706027030944824,5.344964027404785
1696082076319830300,3.396830322265625,3.339920997619629,-2.7643613815307617,5.62737512588501
1696082076329830100,3.406830078125,3.2110652923583984,-2.504587173461914,5.799994468688965
1696082076340155400,3.4171552734375,2.91387939453125,-2.2560720443725586,5.902652263641357
1696082076350155500,3.427155517578125,3.1507620811462402,-1.877638816833496,5.417954444885254
1696082076360155400,3.4371552734375,3.9850387573242188,-1.5015907287597656,4.991737365722656
1696082076370155500,3.447155517578125,4.959866523742676,-0.5990610122680664,3.780423641204834
1696082076380155400,3.4571552734375,6.073292255401611,0.5619258880615234,1.9448153972625732
1696082076390155500,3.467155517578125,6.734881401062012,1.241511344909668,0.3122985363006592
1696082076400155400,3.4771552734375,6.5166544914245605,0.745600700378418,-0.9318256974220276
1696082076410155500,3.487155517578125,5.533432483673096,-0.7704286575317383,-1.9155876636505127
1696082076420155400,3.4971552734375,3.7876248359680176,-2.6255874633789062,-2.376404285430908
1696082076430155500,3.507155517578125,1.2890610694885254,-4.446591377258301,-2.669299364089966
1696082076440155400,3.5171552734375,-1.298096776008606,-5.394390106201172,-2.931967258453369
1696082076450155500,3.527155517578125,-4.226513385772705,-5.637115478515625,-2.9255475997924805
1696082076460155400,3.5371552734375,-6.56497859954834,-5.330395698547363,-2.6875171661376953
1696082076470155500,3.547155517578125,-6.910439968109131,-4.341039657592773,-2.3029167652130127
1696082076480155400,3.5571552734375,-5.472695350646973,-3.407376289367676,-1.8248792886734009
1696082076490155500,3.567155517578125,-4.0379638671875,-2.7719297409057617,-1.4430906772613525
1696082076500155400,3.5771552734375,-2.978860855102539,-2.3668699264526367,-0.8913877010345459
1696082076510155500,3.587155517578125,-2.3628859519958496,-2.133059501647949,-0.4878349006175995
1696082076520155400,3.5971552734375,-1.795379400253296,-1.9469871520996094,-0.037353336811065674
1696082076530155500,3.607155517578125,-1.186821460723877,-1.7418270111083984,0.3374629020690918
1696082076540155400,3.6171552734375,-0.4337805509567261,-1.4003286361694336,0.3014337420463562
1696082076550155500,3.627155517578125,-0.79175865650177,-1.1526098251342773,0.1326940655708313
1696082076560155400,3.6371552734375,-2.091963768005371,-0.8123178482055664,-0.24465596675872803
1696082076570155500,3.647155517578125,-2.949598789215088,-0.6159744262695312,-1.0039844512939453
1696082076580155400,3.6571552734375,-2.7512283325195312,-0.12893009185791016,-1.8863766193389893
1696082076590155500,3.667155517578125,-2.0920825004577637,0.522669792175293,-2.8336429595947266
1696082076600155400,3.6771552734375,-1.4995906352996826,1.237320899963379,-3.556844472885132
1696082076610155500,3.687155517578125,-1.5736119747161865,1.9491252899169922,-3.952120780944824
1696082076620155400,3.6971552734375,-2.0577306747436523,2.513657569885254,-3.9953229427337646
1696082076630155500,3.707155517578125,-2.9087929725646973,2.941028594970703,-3.945423126220703
1696082076640155400,3.7171552734375,-3.5695273876190186,3.194194793701172,-3.8783011436462402
1696082076650155500,3.727155517578125,-3.80496883392334,3.1338376998901367,-3.823385715484619
1696082076660155400,3.7371552734375,-3.9662299156188965,2.878636360168457,-3.674610137939453
1696082076670155500,3.747155517578125,-4.054693222045898,2.6206469535827637,-3.6551873683929443
1696082076680155400,3.7571552734375,-4.163437843322754,2.333804130554199,-3.585890293121338
1696082076690155500,3.767155517578125,-4.361090183258057,2.172105312347412,-3.4227161407470703
1696082076700155400,3.7771552734375,-4.474286079406738,2.1459007263183594,-3.375840663909912
1696082076710155500,3.787155517578125,-4.579583168029785,2.287001609802246,-3.5860722064971924
1696082076720155400,3.7971552734375,-4.7417097091674805,2.5501956939697266,-4.063682556152344
1696082076730155500,3.807155517578125,-4.8831963539123535,2.8425841331481934,-4.696628570556641
1696082076740155600,3.81715576171875,-4.903685569763184,3.222907066345215,-5.26417875289917
1696082076750155500,3.827155517578125,-4.76068115234375,3.6878104209899902,-5.561074733734131
1696082076760155600,3.83715576171875,-4.322673797607422,4.188366889953613,-5.501018047332764
1696082076770155500,3.847155517578125,-3.6258463859558105,4.518673419952393,-5.298067092895508
1696082076780155400,3.8571552734375,-2.823911190032959,4.565849781036377,-4.822014808654785
1696082076790155500,3.867155517578125,-2.048849105834961,4.291371822357178,-3.8231678009033203
1696082076800155400,3.8771552734375,-1.2115955352783203,3.651566505432129,-1.9929215908050537
1696082076810155500,3.887155517578125,0.3333005905151367,2.686885356903076,0.5073757171630859
1696082076820155400,3.8971552734375,2.7867839336395264,1.4496369361877441,3.2460269927978516
1696082076830155500,3.907155517578125,5.743800163269043,-0.08461380004882812,5.826836109161377
1696082076840155400,3.9171552734375,6.579293251037598,-1.5420961380004883,7.149890899658203
1696082076850155500,3.927155517578125,7.132625102996826,-2.7798051834106445,7.760164260864258
1696082076860155400,3.9371552734375,8.83652114868164,-3.9615020751953125,7.749027729034424
1696082076870155500,3.947155517578125,9.413473129272461,-5.185522079467773,7.115232467651367
1696082076880155400,3.9571552734375,7.748907566070557,-6.1134748458862305,5.531796932220459
1696082076890155500,3.967155517578125,5.72259521484375,-6.131937026977539,3.6994359493255615
1696082076900155400,3.9771552734375,4.493538856506348,-4.745412826538086,1.8595157861709595
1696082076910155500,3.987155517578125,3.3955695629119873,-2.3059844970703125,0.2862844467163086
1696082076920155400,3.9971552734375,2.1210596561431885,-0.058635711669921875,-0.8548934459686279
1696082076930155500,4.007155517578125,1.1884245872497559,0.3557291030883789,-2.3964006900787354
1696082076940155400,4.0171552734375,-0.2911813259124756,-1.6292428970336914,-4.50001335144043
1696082076950155500,4.027155517578125,-0.946007251739502,-3.6056060791015625,-5.823635101318359
1696082076960155400,4.0371552734375,-0.17027783393859863,-5.083926200866699,-5.878599166870117
1696082076970155500,4.047155517578125,0.26284313201904297,-6.078195571899414,-4.538764953613281
1696082076980155600,4.05715576171875,2.543412685394287,-6.280874252319336,-1.6953281164169312
1696082076990155500,4.067155517578125,3.071889638900757,-4.3108673095703125,0.8262861967086792
1696082077000155400,4.0771552734375,0.23643994331359863,-0.603693962097168,0.3607981204986572
1696082077010155500,4.087155517578125,-5.998164176940918,3.1866602897644043,-1.889946699142456
1696082077020155400,4.0971552734375,-10.855548858642578,6.045409202575684,-2.913585662841797
1696082077030155500,4.107155517578125,-12.11513614654541,6.985225677490234,-3.10253643989563
1696082077040155400,4.1171552734375,-11.360240936279297,6.659543514251709,-3.111233711242676
1696082077050155500,4.127155517578125,-10.187990188598633,4.693141937255859,-3.8052725791931152
1696082077060155400,4.1371552734375,-9.567941665649414,2.0706777572631836,-5.135572910308838
1696082077070155500,4.147155517578125,-8.925284385681152,-0.26612186431884766,-5.7132768630981445
1696082077080155400,4.1571552734375,-8.006064414978027,-2.1969337463378906,-5.4716386795043945
1696082077090155500,4.167155517578125,-6.775960922241211,-3.845123291015625,-5.215295791625977
1696082077100155400,4.1771552734375,-5.521975517272949,-4.74564266204834,-4.8408708572387695
1696082077110155500,4.187155517578125,-3.9874207973480225,-4.412073135375977,-4.1801347732543945
1696082077120155400,4.1971552734375,-2.1411261558532715,-2.9174909591674805,-3.4720849990844727
1696082077130155500,4.207155517578125,-0.3617112636566162,-1.2391862869262695,-2.7992916107177734
1696082077140155400,4.2171552734375,1.0043039321899414,0.16190814971923828,-2.2496461868286133
1696082077150155500,4.227155517578125,1.6290342807769775,0.9619235992431641,-1.8542358875274658
1696082077160155400,4.2371552734375,1.3791707754135132,1.1711015701293945,-1.3053030967712402
1696082077170155500,4.247155517578125,0.5554714202880859,0.9200353622436523,-0.6430891752243042
1696082077180155400,4.2571552734375,0.6252543330192566,0.9403495788574219,-0.5229912996292114
1696082077190155500,4.267155517578125,-1.264182209968567,0.5052776336669922,0.44315946102142334
1696082077200155400,4.2771552734375,-1.7944306135177612,0.5587778091430664,0.8235733509063721
1696082077210155500,4.287155517578125,-2.0748674869537354,0.682098388671875,0.9755223989486694
1696082077220155400,4.2971552734375,-2.301826000213623,0.7053651809692383,1.0269602537155151
1696082077230155500,4.307155517578125,-2.105928421020508,0.7583255767822266,0.8542172312736511
1696082077240155400,4.3171552734375,-1.5320382118225098,0.779292106628418,0.849619448184967
1696082077250155500,4.327155517578125,-1.1660869121551514,0.7411041259765625,0.8960754871368408
1696082077260155400,4.3371552734375,-0.9956973791122437,0.8351526260375977,1.00806725025177
1696082077270155500,4.347155517578125,-1.1891597509384155,0.9179172515869141,0.9471515417098999
1696082077280155400,4.3571552734375,-1.6286152601242065,0.9897470474243164,0.8840762376785278
1696082077290155500,4.367155517578125,-2.1711838245391846,0.8954496383666992,0.8438292145729065
1696082077300155400,4.3771552734375,-2.1488020420074463,0.5969038009643555,0.7253118753433228
1696082077310155500,4.387155517578125,-1.5352332592010498,-0.002010345458984375,0.4856395125389099
1696082077320155400,4.3971552734375,-0.40976810455322266,-0.6147890090942383,0.10852131992578506
1696082077330155500,4.407155517578125,0.8308311700820923,-0.8045721054077148,0.08356412500143051
1696082077340155400,4.4171552734375,1.773049235343933,-0.4069509506225586,0.4672384560108185
1696082077350155500,4.427155517578125,2.0712969303131104,0.2594165802001953,1.0064059495925903
1696082077360155400,4.4371552734375,1.962120771408081,0.8446264266967773,1.0988072156906128
1696082077370155500,4.447155517578125,1.4690078496932983,1.1022109985351562,0.6235257983207703
1696082077380155400,4.4571552734375,1.1517913341522217,0.7696943283081055,-0.33644378185272217
1696082077390155500,4.467155517578125,1.7132432460784912,-0.08678436279296875,-1.202244758605957
1696082077400155400,4.4771552734375,3.124821901321411,-1.102346420288086,-1.5679599046707153
1696082077410155500,4.487155517578125,4.794142723083496,-1.9246644973754883,-1.3691236972808838
1696082077420155400,4.4971552734375,6.216884613037109,-2.006636619567871,-0.5703449845314026
1696082077430155500,4.507155517578125,6.636563777923584,-1.4322938919067383,0.5846369862556458
1696082077440155400,4.5171552734375,5.616004467010498,-0.9319314956665039,1.6878745555877686
1696082077450155000,4.527155029296875,3.732055187225342,-0.8488435745239258,2.373183488845825
1696082077460155100,4.537155029296875,1.8356541395187378,-1.1442899703979492,2.6872928142547607
1696082077470155300,4.5471552734375,0.6377537250518799,-1.5295133590698242,2.975942611694336
1696082077480155100,4.557155029296875,0.4679197072982788,-1.8967437744140625,3.482102394104004
1696082077490155300,4.5671552734375,0.9649443626403809,-2.052342414855957,4.204500675201416
1696082077500155100,4.577155029296875,1.5244479179382324,-2.1696224212646484,4.958926677703857
1696082077510155300,4.5871552734375,1.794104814529419,-2.259206771850586,5.616312503814697
1696082077520155100,4.597155029296875,2.1454238891601562,-2.175647735595703,5.938891410827637
1696082077530155000,4.607155029296875,2.630178451538086,-2.03249454498291,5.8771538734436035
1696082077540155100,4.617155029296875,3.009584426879883,-2.6162185668945312,5.800849437713623
1696082077550155000,4.627155029296875,2.810515880584717,-3.9990921020507812,5.740312576293945
1696082077560155100,4.637155029296875,2.5056703090667725,-5.060291290283203,5.466902732849121
1696082077570155000,4.647155029296875,2.8468964099884033,-5.473889350891113,4.804473400115967
1696082077580155100,4.657155029296875,4.470208168029785,-5.114738464355469,3.785015821456909
1696082077590155000,4.667155029296875,6.446285724639893,-4.309700012207031,2.384026050567627
1696082077600155100,4.677155029296875,7.406026840209961,-2.9010257720947266,0.4689246416091919
1696082077610155000,4.687155029296875,7.495638847351074,-1.7770719528198242,-1.3724219799041748
1696082077620155100,4.697155029296875,6.4381103515625,-1.6234989166259766,-2.355043888092041
1696082077630155000,4.707155029296875,4.751244068145752,-2.18572998046875,-2.588988780975342
1696082077640155100,4.717155029296875,2.3701164722442627,-3.062253952026367,-2.6669888496398926
1696082077650155000,4.727155029296875,2.093991994857788,-3.038084030151367,-2.8415772914886475
1696082077660155100,4.737155029296875,-1.6203080415725708,-5.414002418518066,-3.6675455570220947
1696082077670155000,4.747155029296875,-3.7006030082702637,-6.272684097290039,-4.730734825134277
1696082077680155100,4.757155029296875,-5.594801425933838,-6.246723175048828,-5.070340156555176
1696082077690155300,4.7671552734375,-6.374779224395752,-5.324248313903809,-4.85630989074707
1696082077700155100,4.777155029296875,-6.454583168029785,-4.176612854003906,-3.8753459453582764
1696082077710155300,4.7871552734375,-5.231019973754883,-3.0187149047851562,-3.1568968296051025
1696082077720155100,4.797155029296875,-3.730870246887207,-2.270895004272461,-2.260207176208496
1696082077730155300,4.8071552734375,-2.8983798027038574,-1.8825263977050781,-0.9603797197341919
1696082077740155100,4.817155029296875,-1.2426494359970093,-1.5051851272583008,-0.1418215036392212
1696082077750155500,4.827155517578125,0.9105572700500488,-0.8026590347290039,0.18249070644378662
1696082077760155600,4.83715576171875,1.3501458168029785,-0.18201732635498047,0.1022423505783081
1696082077770155500,4.847155517578125,0.333113431930542,0.4585895538330078,-0.4998798370361328
1696082077780155400,4.8571552734375,-1.2185320854187012,0.9066610336303711,-1.3480195999145508
1696082077790155500,4.867155517578125,-2.506535768508911,1.0822124481201172,-1.8775092363357544
1696082077800155400,4.8771552734375,-4.000525951385498,1.2825946807861328,-2.1046481132507324
1696082077810155500,4.887155517578125,-4.647974967956543,1.7680182456970215,-2.803823471069336
1696082077820155400,4.8971552734375,-4.205356597900391,2.184762477874756,-3.6805670261383057
1696082077830155500,4.907155517578125,-3.4454405307769775,2.459005355834961,-4.426263809204102
1696082077840155400,4.9171552734375,-3.4345107078552246,2.6596240997314453,-4.9333906173706055
1696082077850155500,4.927155517578125,-3.737781047821045,2.7865567207336426,-5.2692413330078125
1696082077860155400,4.9371552734375,-4.217140197753906,2.8196468353271484,-5.309416770935059
1696082077870155500,4.947155517578125,-4.507455348968506,2.7302393913269043,-5.144208908081055
1696082077880155400,4.9571552734375,-4.523499488830566,2.6213531494140625,-4.819697856903076
1696082077890155500,4.967155517578125,-4.452918529510498,2.4199042320251465,-4.395802974700928
1696082077900155400,4.9771552734375,-4.508779048919678,2.2816386222839355,-4.062991142272949
1696082077910155500,4.987155517578125,-4.559378623962402,2.220818042755127,-3.923297643661499
1696082077920155400,4.9971552734375,-4.710940361022949,2.3288941383361816,-3.9756276607513428
1696082077930155500,5.007155517578125,-4.8810272216796875,2.570949077606201,-4.310701847076416
1696082077940155400,5.0171552734375,-5.0941972732543945,2.9695887565612793,-4.823487758636475
1696082077950155500,5.027155517578125,-5.223019599914551,3.4562530517578125,-5.163576126098633
1696082077960155400,5.0371552734375,-5.029104232788086,4.092042446136475,-5.437582969665527
1696082077970155500,5.047155517578125,-4.590551376342773,4.7046098709106445,-5.683023452758789
1696082077980155400,5.0571552734375,-4.147611618041992,5.284836292266846,-5.965518951416016
1696082077990155500,5.067155517578125,-3.431192636489868,5.625041961669922,-5.975152015686035
1696082078000155400,5.0771552734375,-3.152688980102539,5.499516487121582,-5.196453094482422
1696082078010155500,5.087155517578125,-2.643080234527588,4.795794486999512,-3.1664419174194336
1696082078020155400,5.0971552734375,-1.326026201248169,3.506129741668701,-0.2788889408111572
1696082078030155500,5.107155517578125,2.2238235473632812,1.853525161743164,2.843244791030884
1696082078040155400,5.1171552734375,6.453093528747559,-0.40289783477783203,5.778299331665039
1696082078050155500,5.127155517578125,9.058978080749512,-3.1232824325561523,7.6266021728515625
1696082078060155400,5.1371552734375,11.786439895629883,-6.538117408752441,9.096160888671875
1696082078070155500,5.147155517578125,15.738411903381348,-11.076165199279785,9.56898021697998
1696082078080155400,5.1571552734375,16.17803955078125,-14.960188865661621,8.263477325439453
1696082078090155500,5.167155517578125,9.041032791137695,-15.366867065429688,5.128268241882324
1696082078100155400,5.1771552734375,3.419389247894287,-11.212739944458008,0.660975456237793
1696082078110155500,5.187155517578125,1.6227197647094727,-3.82919979095459,-1.5596230030059814
1696082078120155400,5.1971552734375,0.2552824020385742,2.276806354522705,-2.2779667377471924
1696082078130155500,5.207155517578125,0.16843700408935547,6.882793426513672,-2.1329121589660645
1696082078140155400,5.2171552734375,0.6062397956848145,9.992463111877441,-2.5710129737854004
1696082078150155500,5.227155517578125,-3.568657875061035,9.560977935791016,-4.001529693603516
1696082078160155400,5.2371552734375,-7.389020919799805,5.286691188812256,-4.913488388061523
1696082078170155500,5.247155517578125,-10.081457138061523,-0.22211265563964844,-5.064974308013916
1696082078180155400,5.2571552734375,-8.493002891540527,-5.838788986206055,-4.74643087387085
1696082078190155500,5.267155517578125,-3.605839252471924,-12.113454818725586,-3.2968626022338867
1696082078200155400,5.2771552734375,0.7811164855957031,-13.396085739135742,-1.5088809728622437
1696082078210155500,5.287155517578125,0.1514291763305664,-8.239171028137207,-1.5859098434448242
1696082078220155400,5.2971552734375,-3.1521356105804443,-3.3687009811401367,-2.9287915229797363
1696082078230155500,5.307155517578125,-5.073260307312012,-0.24419403076171875,-4.262221336364746
1696082078240155400,5.3171552734375,-6.1487531661987305,2.149670124053955,-4.8413190841674805
1696082078250155500,5.327155517578125,-7.576790809631348,3.462860107421875,-5.278098106384277
1696082078260155400,5.3371552734375,-8.715522766113281,3.078298568725586,-5.911271095275879
1696082078270155500,5.347155517578125,-9.2774019241333,1.878715991973877,-6.07236385345459
1696082078280155400,5.3571552734375,-8.964932441711426,0.4126749038696289,-5.96859884262085
1696082078290155500,5.367155517578125,-8.309671401977539,-0.8065471649169922,-5.461562633514404
1696082078300155400,5.3771552734375,-7.641388893127441,-1.574660301208496,-5.057512283325195
1696082078310155500,5.387155517578125,-6.975186347961426,-2.0136003494262695,-5.338899612426758
1696082078320155400,5.3971552734375,-5.843334197998047,-1.8140888214111328,-4.217625617980957
1696082078330155500,5.407155517578125,-4.597635746002197,-1.070582389831543,-2.9922447204589844
1696082078340155400,5.4171552734375,-3.0458340644836426,-0.0768423080444336,-1.9970062971115112
1696082078350155500,5.427155517578125,-1.5195634365081787,0.8776426315307617,-1.048351764678955
1696082078360155400,5.4371552734375,0.03809940814971924,1.5317468643188477,-0.31802892684936523
1696082078370155500,5.447155517578125,1.429994821548462,1.9644675254821777,0.3292207717895508
1696082078380155400,5.4571552734375,2.043944835662842,2.205310821533203,0.6781845092773438
1696082078390155500,5.467155517578125,1.525519609451294,2.263225555419922,0.7717757225036621
1696082078400155400,5.4771552734375,0.2503277063369751,2.0599889755249023,0.5649721622467041
1696082078410155500,5.487155517578125,-1.240744709968567,1.6690940856933594,0.323816180229187
1696082078420155400,5.4971552734375,-2.198573112487793,1.1425695419311523,0.22382310032844543
1696082078430155500,5.507155517578125,-2.7318079471588135,0.4841337203979492,0.15302792191505432
1696082078440155400,5.5171552734375,-2.680283784866333,-0.3532123565673828,0.3696989417076111
1696082078450155500,5.527155517578125,-1.9245803356170654,-1.01690673828125,0.6032858490943909
1696082078460155400,5.5371552734375,0.4591921269893646,-1.3201723098754883,0.3779512047767639
1696082078470155500,5.547155517578125,5.309295654296875,-1.6180219650268555,0.3017645478248596
1696082078480155400,5.5571552734375,9.42296028137207,-1.8423471450805664,1.058587908744812
1696082078490155500,5.567155517578125,10.543889045715332,-1.4692459106445312,2.1182639598846436
1696082078500155400,5.5771552734375,8.690105438232422,-0.6591119766235352,3.1635642051696777
1696082078510155500,5.587155517578125,5.048294544219971,0.4956836700439453,3.4148926734924316
1696082078520155400,5.5971552734375,1.0084385871887207,1.3311920166015625,2.855299949645996
1696082078530155500,5.607155517578125,-2.091949939727783,1.753164291381836,1.8487026691436768
1696082078540155400,5.6171552734375,-3.7682881355285645,1.9440593719482422,1.003470778465271
1696082078550155500,5.627155517578125,-4.275083541870117,1.7657556533813477,0.21497805416584015
1696082078560155400,5.6371552734375,-4.427388668060303,1.0090093612670898,-0.46707820892333984
1696082078570155300,5.6471552734375,-4.0101141929626465,0.09201812744140625,-0.9719865322113037
1696082078580155100,5.657155029296875,-2.769272804260254,-1.0125389099121094,-1.1311640739440918
1696082078590155300,5.6671552734375,-0.7145963907241821,-1.8677959442138672,-1.0895448923110962
1696082078600155100,5.677155029296875,2.144516944885254,-2.082139015197754,-0.760154128074646
1696082078610155300,5.6871552734375,5.178366661071777,-1.7494935989379883,-0.24331599473953247
1696082078620155100,5.697155029296875,7.5476460456848145,-1.2425317764282227,0.40501123666763306
1696082078630155300,5.7071552734375,8.328327178955078,-0.9865608215332031,1.234827995300293
1696082078640155100,5.717155029296875,7.20986795425415,-1.1847496032714844,1.9149117469787598
1696082078650155300,5.7271552734375,4.967076301574707,-1.628859519958496,2.1120665073394775
1696082078660155100,5.737155029296875,3.0590147972106934,-2.008665084838867,1.9177005290985107
1696082078670155300,5.7471552734375,2.1154701709747314,-2.171341896057129,2.0333402156829834
1696082078680155100,5.757155029296875,1.413216233253479,-2.281217575073242,2.5987987518310547
1696082078690155300,5.7671552734375,0.842184841632843,-2.29940128326416,3.450831413269043
1696082078700155100,5.777155029296875,0.8483607769012451,-2.164257049560547,4.286022186279297
1696082078710155300,5.7871552734375,2.0890164375305176,-1.9437627792358398,4.892046928405762
1696082078720155400,5.7971552734375,4.279096603393555,-1.9019451141357422,5.1313371658325195
1696082078730155300,5.8071552734375,6.1933722496032715,-2.51633358001709,5.223601341247559
1696082078740155400,5.8171552734375,6.704225063323975,-3.3689889907836914,5.133633613586426
1696082078750155300,5.8271552734375,5.834496974945068,-3.749187469482422,5.0784912109375
1696082078760155400,5.8371552734375,4.6258320808410645,-3.583568572998047,5.085720539093018
1696082078770155300,5.8471552734375,3.94645357131958,-3.1618757247924805,4.92594575881958
1696082078780155400,5.8571552734375,3.553640127182007,-2.7776145935058594,4.5226569175720215
1696082078790155300,5.8671552734375,2.691159963607788,-2.491497039794922,3.391417980194092
1696082078800155400,5.8771552734375,1.830499291419983,-2.511934280395508,1.9061490297317505
1696082078810155300,5.8871552734375,0.8376771807670593,-3.136089324951172,0.408099889755249
1696082078820155400,5.8971552734375,0.04740608483552933,-4.189390182495117,-1.3250192403793335
1696082078830155300,5.9071552734375,-0.3952178657054901,-5.648297309875488,-2.9938809871673584
1696082078840155400,5.9171552734375,-1.3507883548736572,-7.085648536682129,-4.254574298858643
1696082078850155300,5.9271552734375,-3.4462332725524902,-8.038434028625488,-5.6810784339904785
1696082078860155400,5.9371552734375,-5.549840927124023,-8.129076957702637,-6.774759292602539
1696082078870155500,5.947155517578125,-8.22494888305664,-6.979567527770996,-6.601119518280029
1696082078880155400,5.9571552734375,-7.969997882843018,-4.883430480957031,-6.1165266036987305
1696082078890155500,5.967155517578125,-5.221397876739502,-2.8883543014526367,-5.3556437492370605
1696082078900155400,5.9771552734375,-3.2259743213653564,-1.7083358764648438,-3.650279998779297
1696082078910155500,5.987155517578125,0.29674065113067627,-0.9341869354248047,-2.5689597129821777
1696082078920155400,5.9971552734375,2.566836357116699,-0.4263496398925781,-1.5691072940826416
1696082078930155500,6.007155517578125,2.3111796379089355,-0.09388446807861328,-1.1506483554840088
1696082078940155400,6.0171552734375,0.1431875228881836,0.2724590301513672,-1.6607669591903687
1696082078950155500,6.027155517578125,-2.3399837017059326,0.6476459503173828,-1.981863260269165
1696082078960155400,6.0371552734375,-4.576507568359375,1.2971148490905762,-2.1667873859405518
1696082078970155500,6.047155517578125,-5.700414657592773,1.8427367210388184,-1.931150197982788
1696082078980155600,6.05715576171875,-5.434825420379639,2.5658249855041504,-1.9543328285217285
1696082078990155500,6.067155517578125,-4.293903350830078,3.1193037033081055,-2.397165060043335
1696082079000155400,6.0771552734375,-3.8766989707946777,3.3730506896972656,-3.0139060020446777
1696082079010155500,6.087155517578125,-4.015523910522461,3.369246006011963,-3.672262191772461
1696082079020155400,6.0971552734375,-4.3508806228637695,3.240196704864502,-4.322422027587891
1696082079030155500,6.107155517578125,-4.617204189300537,3.050784111022949,-4.762030601501465
1696082079040155400,6.1171552734375,-4.772075653076172,2.7990994453430176,-4.896002292633057
1696082079050155500,6.127155517578125,-4.946952819824219,2.6061978340148926,-4.7567138671875
1696082079060155400,6.1371552734375,-4.965489387512207,2.510085105895996,-4.552521705627441
1696082079070155500,6.147155517578125,-4.9099202156066895,2.5104198455810547,-4.459456443786621
1696082079080155400,6.1571552734375,-4.9880266189575195,2.636776924133301,-4.439925193786621
1696082079090155500,6.167155517578125,-5.20217752456665,2.9053821563720703,-4.4651079177856445
1696082079100155400,6.1771552734375,-5.490365028381348,3.345820903778076,-4.603194713592529
1696082079110155500,6.187155517578125,-5.651242256164551,3.77335262298584,-4.827238082885742
1696082079120155400,6.1971552734375,-5.612403392791748,4.186867713928223,-5.140785217285156
1696082079130155300,6.2071552734375,-5.621581077575684,4.197664260864258,-5.096407413482666
1696082079140155400,6.2171552734375,-5.020880699157715,4.963151931762695,-5.585965633392334
1696082079150155300,6.2271552734375,-4.264680862426758,5.217392444610596,-5.621370315551758
1696082079160155400,6.2371552734375,-3.2383949756622314,5.290791034698486,-5.471137523651123
1696082079170155300,6.2471552734375,-2.2878284454345703,4.954466819763184,-4.720981121063232
1696082079180155400,6.2571552734375,-1.469236135482788,4.163388252258301,-2.8256900310516357
1696082079190155300,6.2671552734375,0.28879499435424805,2.7566051483154297,-0.32221221923828125
1696082079200155400,6.2771552734375,4.132689476013184,0.6807622909545898,2.3643271923065186
1696082079210155300,6.2871552734375,9.814620018005371,-2.305744171142578,5.3610687255859375
1696082079220155400,6.2971552734375,14.814977645874023,-6.158320426940918,8.808076858520508
1696082079230155300,6.3071552734375,15.266984939575195,-10.483551979064941,10.569271087646484
1696082079240155400,6.3171552734375,13.808993339538574,-14.096718788146973,10.51795482635498
1696082079250155300,6.3271552734375,10.654739379882812,-15.542048454284668,8.00191593170166
1696082079260155400,6.3371552734375,4.96502685546875,-13.499085426330566,2.5116047859191895
1696082079270155300,6.3471552734375,1.3298556804656982,-7.900269508361816,-1.156758427619934
1696082079280155400,6.3571552734375,0.6792323589324951,-1.1283702850341797,-1.7076375484466553
1696082079290155300,6.3671552734375,0.7315664291381836,4.032169818878174,-1.9410078525543213
1696082079300155400,6.3771552734375,0.9674413204193115,7.304276466369629,-2.6604740619659424
1696082079310155300,6.3871552734375,1.2455356121063232,6.577383995056152,-5.22537899017334
1696082079320155400,6.3971552734375,0.9015438556671143,3.200223445892334,-7.222184658050537
1696082079330155300,6.4071552734375,0.9336175918579102,3.2074427604675293,-7.233583450317383
1696082079340155400,6.4171552734375,-2.3616816997528076,-6.538792610168457,-4.232336521148682
1696082079350155300,6.4271552734375,-0.3100271224975586,-10.815543174743652,0.3209090232849121
1696082079360155400,6.4371552734375,0.161118745803833,-11.160664558410645,1.68125319480896
1696082079370155300,6.4471552734375,-6.802430629730225,-5.00816535949707,-0.464009165763855
1696082079380155400,6.4571552734375,-11.125033378601074,1.0585126876831055,-2.805238962173462
1696082079390155300,6.4671552734375,-11.101459503173828,4.991758823394775,-2.7898285388946533
1696082079400155400,6.4771552734375,-10.213420867919922,7.110108375549316,-2.662261724472046
1696082079410155300,6.4871552734375,-9.294893264770508,7.188232421875,-2.9596471786499023
1696082079420155400,6.4971552734375,-8.418327331542969,4.468929767608643,-4.084633827209473
1696082079430155500,6.507155517578125,-7.849084377288818,1.6399931907653809,-5.1536970138549805
1696082079440155400,6.5171552734375,-7.246378421783447,-0.9854059219360352,-5.597460746765137
1696082079450155500,6.527155517578125,-7.266544818878174,-3.350423812866211,-6.165312767028809
1696082079460155400,6.5371552734375,-7.502837181091309,-5.149784088134766,-6.898159980773926
1696082079470155500,6.547155517578125,-6.507360458374023,-5.516938209533691,-6.349428176879883
1696082079480155400,6.5571552734375,-5.02347993850708,-4.933393478393555,-4.98545503616333
1696082079490155500,6.567155517578125,-3.5798299312591553,-3.6605186462402344,-3.274341583251953
1696082079500155400,6.5771552734375,-2.519968271255493,-2.1225643157958984,-1.8486213684082031
1696082079510155500,6.587155517578125,-1.6476325988769531,-0.5285606384277344,-1.0769482851028442
1696082079520155400,6.5971552734375,-0.8883706331253052,0.7557878494262695,-0.6200278401374817
1696082079530155500,6.607155517578125,-0.13637125492095947,1.4350767135620117,0.040830016136169434
1696082079540155400,6.6171552734375,0.4954909086227417,1.5810413360595703,0.8603695631027222
1696082079550155500,6.627155517578125,1.069825291633606,1.5313663482666016,1.5198227167129517
1696082079560155400,6.6371552734375,1.1810805797576904,1.5910167694091797,1.7169604301452637
1696082079570155500,6.647155517578125,0.6253035068511963,1.7860016822814941,1.553551197052002
1696082079580155400,6.6571552734375,-0.2715739607810974,1.8255977630615234,1.194631576538086
1696082079590155500,6.667155517578125,-1.05720055103302,1.8581533432006836,0.5977439284324646
1696082079600155400,6.6771552734375,-1.2353910207748413,1.7324857711791992,0.15376213192939758
1696082079610155500,6.687155517578125,-1.0764141082763672,1.47100830078125,-0.004699915647506714
1696082079620155400,6.6971552734375,-1.2719907760620117,1.1743202209472656,-0.37367621064186096
1696082079630155500,6.707155517578125,-1.5859302282333374,1.0195283889770508,-0.6257884502410889
1696082079640155400,6.7171552734375,-1.8682163953781128,1.0212364196777344,-0.9567722082138062
1696082079650155500,6.727155517578125,-2.237600803375244,1.0671586990356445,-1.1244450807571411
1696082079660155400,6.7371552734375,-1.8584617376327515,1.0593366622924805,-1.2518784999847412
1696082079670155500,6.747155517578125,-0.34781911969184875,0.9329328536987305,-1.2931979894638062
1696082079680155400,6.7571552734375,2.0597612857818604,0.5218772888183594,-1.2231110334396362
1696082079690155500,6.767155517578125,4.147138595581055,-0.20584774017333984,-1.1293292045593262
1696082079700155400,6.7771552734375,4.929864883422852,-0.7308158874511719,-0.7311839461326599
1696082079710155500,6.787155517578125,4.290223121643066,-0.7195682525634766,-0.07616256177425385
1696082079720155400,6.7971552734375,3.15521240234375,-0.3242654800415039,0.7305929660797119
1696082079730155500,6.807155517578125,2.0247552394866943,0.0874166488647461,1.5835416316986084
1696082079740155600,6.81715576171875,1.2166446447372437,0.15228843688964844,2.155378818511963
1696082079750155500,6.827155517578125,1.1238820552825928,-0.3354625701904297,2.119771957397461
1696082079760155600,6.83715576171875,2.0217792987823486,-1.1015844345092773,1.7257444858551025
1696082079770155500,6.847155517578125,3.6800055503845215,-1.7743053436279297,1.4346678256988525
1696082079780155400,6.8571552734375,4.968847751617432,-2.277615547180176,1.5743458271026611
1696082079790155500,6.867155517578125,5.116477012634277,-2.537616729736328,2.0952916145324707
1696082079800155400,6.8771552734375,4.371371269226074,-2.5249013900756836,2.8576483726501465
1696082079810155500,6.887155517578125,3.4009194374084473,-2.213571548461914,3.568251371383667
1696082079820155400,6.8971552734375,2.4300293922424316,-1.941145896911621,4.148379325866699
1696082079830155500,6.907155517578125,1.4868413209915161,-1.8092279434204102,4.728621006011963
1696082079840155400,6.9171552734375,0.9288328886032104,-1.8124656677246094,5.524509429931641
1696082079850155500,6.927155517578125,0.865432858467102,-1.8900489807128906,6.259232044219971
1696082079860155400,6.9371552734375,1.4864871501922607,-1.893946647644043,6.844022750854492
1696082079870155500,6.947155517578125,2.638889789581299,-1.732834815979004,7.089481353759766
1696082079880155400,6.9571552734375,4.203714847564697,-1.6497802734375,7.013208389282227
1696082079890156500,6.967156494140625,5.568126678466797,-2.066555976867676,6.523495674133301
1696082079900156700,6.97715673828125,6.213451862335205,-2.8822097778320312,5.700068473815918
1696082079910156500,6.987156494140625,6.071621894836426,-3.4698572158813477,4.612520694732666
1696082079920156700,6.99715673828125,5.452013969421387,-3.738417625427246,3.48677659034729
1696082079930156500,7.007156494140625,5.039941310882568,-3.8865833282470703,2.6956934928894043
1696082079940156700,7.01715673828125,4.0692057609558105,-3.785752296447754,2.213050127029419
1696082079950156500,7.027156494140625,2.295748233795166,-3.943540573120117,2.160158157348633
1696082079960156700,7.03715673828125,0.032693058252334595,-4.429925918579102,2.1790099143981934
1696082079970156500,7.047156494140625,-1.5533092021942139,-5.0617265701293945,1.150572657585144
1696082079980156700,7.05715673828125,-1.961262822151184,-5.915579795837402,-0.8389103412628174
1696082079990156500,7.067156494140625,-1.7411091327667236,-7.492238998413086,-2.9867024421691895
1696082080000155600,7.07715576171875,-2.462033271789551,-9.266535758972168,-5.537881374359131
1696082080010155300,7.0871552734375,-3.7412657737731934,-9.970762252807617,-7.410706520080566
1696082080020155100,7.097155029296875,-5.368330478668213,-9.599958419799805,-8.605977058410645
1696082080030155000,7.107155029296875,-7.233801364898682,-7.687755584716797,-8.381668090820312
1696082080040155100,7.117155029296875,-5.431736946105957,-4.879936218261719,-7.8904805183410645
1696082080050155000,7.127155029296875,-2.0457305908203125,-2.7704410552978516,-7.191886901855469
1696082080060155100,7.137155029296875,0.3739265203475952,-1.5390844345092773,-5.0701422691345215
1696082080070155000,7.147155029296875,1.2980865240097046,-0.6657943725585938,-4.105556488037109
1696082080080155100,7.157155029296875,0.005602121353149414,-0.16461658477783203,-3.611783027648926
1696082080090155000,7.167155029296875,-1.9904747009277344,0.29375457763671875,-3.2494771480560303
1696082080100155100,7.177155029296875,-3.8759968280792236,0.7585811614990234,-3.0767195224761963
1696082080110155000,7.187155029296875,-5.150685787200928,1.480752944946289,-2.594465732574463
1696082080120155100,7.197155029296875,-5.488972187042236,2.1388397216796875,-1.787893295288086
1696082080130155000,7.207155029296875,-5.153563499450684,2.973453998565674,-0.9570260047912598
1696082080140155100,7.217155029296875,-4.277410984039307,3.842531204223633,-0.8204473257064819
1696082080150155000,7.227155029296875,-3.7948780059814453,4.380009651184082,-0.7789909839630127
1696082080160155100,7.237155029296875,-3.973629951477051,4.562999725341797,-1.283335566520691
1696082080170155000,7.247155029296875,-4.390382766723633,4.314842224121094,-2.1119985580444336
1696082080180155100,7.257155029296875,-5.122531414031982,3.648101806640625,-3.0151026248931885
1696082080190154000,7.267154052734375,-5.634492874145508,3.1466126441955566,-3.703538417816162
1696082080200154000,7.277154052734375,-5.8996968269348145,2.6203956604003906,-4.031348705291748
1696082080210154000,7.287154052734375,-5.843070030212402,2.2215447425842285,-4.220634460449219
1696082080220154000,7.297154052734375,-5.621025562286377,2.082448959350586,-4.480992317199707
1696082080230154000,7.307154052734375,-5.37897253036499,2.178215980529785,-4.762286186218262
1696082080240154000,7.317154052734375,-5.3896565437316895,2.400635242462158,-4.916791915893555
1696082080250154000,7.327154052734375,-5.516153812408447,2.685971260070801,-5.054859161376953
1696082080260154000,7.337154052734375,-5.678905487060547,3.055046558380127,-5.227461338043213
1696082080270154000,7.347154052734375,-5.803344249725342,3.423840045928955,-5.294853210449219
1696082080280154000,7.357154052734375,-5.777468681335449,3.806267738342285,-5.268339157104492
1696082080290154000,7.367154052734375,-5.308354377746582,4.311771392822266,-5.202075958251953
1696082080300155000,7.37715478515625,-4.571712493896484,4.867730140686035,-5.236204147338867
1696082080310155500,7.387155517578125,-3.919447422027588,5.037110328674316,-4.919694423675537
1696082080320155400,7.3971552734375,-3.454291343688965,4.631131649017334,-3.452239513397217
1696082080330155500,7.407155517578125,-2.3333818912506104,3.5232043266296387,-0.9303430318832397
1696082080340155400,7.4171552734375,0.3513026237487793,1.6405835151672363,1.995527982711792
1696082080350155500,7.427155517578125,3.7624690532684326,-0.5371236801147461,4.524749755859375
1696082080360155400,7.4371552734375,7.446987152099609,-2.1485891342163086,5.583305358886719
1696082080370155500,7.447155517578125,9.731934547424316,-3.343867301940918,6.001958847045898
1696082080380155400,7.4571552734375,11.946538925170898,-5.076672554016113,5.971378326416016
1696082080390155000,7.467155029296875,12.902705192565918,-6.994097709655762,5.776649475097656
1696082080400155100,7.477155029296875,10.030784606933594,-8.535799980163574,3.533967971801758
1696082080410155000,7.487155029296875,7.143989562988281,-8.627443313598633,0.36566591262817383
1696082080420155100,7.497155029296875,5.725403785705566,-5.914726257324219,-1.3712639808654785
1696082080430155000,7.507155029296875,3.8664236068725586,-1.5775671005249023,-2.2985289096832275
1696082080440155100,7.517155029296875,1.8777754306793213,2.2567615509033203,-2.746706008911133
1696082080450155000,7.527155029296875,1.2122468948364258,5.120802879333496,-3.5335636138916016
1696082080460155100,7.537155029296875,2.2740840911865234,6.343253135681152,-4.903988838195801
1696082080470155000,7.547155029296875,-0.8843815326690674,5.507130146026611,-6.20399284362793
1696082080480155100,7.557155029296875,-5.575780868530273,2.7075605392456055,-7.854207515716553
1696082080490155000,7.567155029296875,-9.204022407531738,-1.0207347869873047,-8.70465087890625
1696082080500155100,7.577155029296875,-11.160006523132324,-4.116310119628906,-8.539178848266602
1696082080510155000,7.587155029296875,-10.460906028747559,-7.347954750061035,-7.671979904174805
1696082080520155100,7.597155029296875,-4.681303024291992,-10.521047592163086,-5.733719825744629
1696082080530155000,7.607155029296875,2.4027862548828125,-12.895560264587402,-1.8155865669250488
1696082080540155100,7.617155029296875,6.166661739349365,-10.800891876220703,1.6981829404830933
1696082080550155000,7.627155029296875,1.3465263843536377,-5.768714904785156,1.101027488708496
1696082080560155100,7.637155029296875,-5.361477375030518,-1.5761041641235352,-1.755438208580017
1696082080570155000,7.647155029296875,-9.749818801879883,1.479773998260498,-3.377775192260742
1696082080580155100,7.657155029296875,-12.108075141906738,3.8544487953186035,-3.5812220573425293
1696082080590155000,7.667155029296875,-13.111078262329102,4.907498836517334,-3.011483669281006
1696082080600155100,7.677155029296875,-12.161408424377441,3.9340920448303223,-2.665332078933716
1696082080610155000,7.687155029296875,-9.6829833984375,1.575854778289795,-2.045517683029175
1696082080620155100,7.697155029296875,-7.381811141967773,-0.7162437438964844,-2.325690746307373
1696082080630155000,7.707155029296875,-5.901843070983887,-2.369915008544922,-2.9590306282043457
1696082080640155100,7.717155029296875,-5.138190269470215,-3.230597496032715,-2.5337061882019043
1696082080650155000,7.727155029296875,-4.490726947784424,-3.0325355529785156,-1.3059070110321045
1696082080660155100,7.737155029296875,-3.2053232192993164,-2.100174903869629,-0.21309661865234375
1696082080670155000,7.747155029296875,-1.548256278038025,-0.8724803924560547,0.41842007637023926
1696082080680155100,7.757155029296875,0.1502300500869751,0.4153881072998047,0.7664658427238464
1696082080690155500,7.767155517578125,1.6338609457015991,1.6085023880004883,0.8452069163322449
1696082080700155400,7.7771552734375,2.7036256790161133,2.3959197998046875,0.5695489048957825
1696082080710155500,7.787155517578125,3.1077303886413574,2.739713668823242,0.08609366416931152
1696082080720155400,7.7971552734375,2.7965259552001953,2.6124958992004395,-0.39323610067367554
1696082080730155500,7.807155517578125,1.9133845567703247,2.1956281661987305,-0.7674350142478943
1696082080740155400,7.8171552734375,0.77308189868927,1.7182207107543945,-1.131055235862732
1696082080750155500,7.827155517578125,-0.5717019438743591,0.9372777938842773,-1.156915545463562
1696082080760155400,7.8371552734375,-1.8958522081375122,0.5646486282348633,-1.2399134635925293
1696082080770155500,7.847155517578125,-2.6300151348114014,0.49313831329345703,-1.1539926528930664
1696082080780155400,7.8571552734375,-2.9054617881774902,0.849970817565918,-0.8971582055091858
1696082080790155500,7.867155517578125,-2.8889217376708984,1.2926502227783203,-0.483712375164032
1696082080800155400,7.8771552734375,-2.1108932495117188,1.4761734008789062,-0.11334770917892456
1696082080810155500,7.887155517578125,-0.13847646117210388,1.244460105895996,0.032796502113342285
1696082080820155400,7.8971552734375,2.367051124572754,0.426605224609375,0.4072874188423157
1696082080830155500,7.907155517578125,4.155760288238525,-0.5304908752441406,0.9807169437408447
1696082080840155400,7.9171552734375,4.714977264404297,-1.0809831619262695,1.6320821046829224
1696082080850155500,7.927155517578125,4.099198341369629,-1.0802545547485352,2.21087646484375
1696082080860155400,7.9371552734375,2.8105812072753906,-0.8717784881591797,2.69248104095459
1696082080870155500,7.947155517578125,1.1979314088821411,-0.4854717254638672,2.803581953048706
1696082080880155400,7.9571552734375,-0.058783113956451416,-0.25382423400878906,2.2052531242370605
1696082080890155500,7.967155517578125,-0.2687164545059204,-0.41475868225097656,1.2768042087554932
1696082080900155400,7.9771552734375,-0.20307165384292603,-0.4241609573364258,1.3322285413742065
1696082080910155500,7.987155517578125,2.277942180633545,-1.3347110748291016,0.017052114009857178
1696082080920155400,7.9971552734375,4.256924629211426,-1.377854347229004,-0.20465826988220215
1696082080930155500,8.007155517578125,5.931921482086182,-0.9720277786254883,0.03428918123245239
1696082080940155400,8.0171552734375,6.212061405181885,-0.6348705291748047,0.83396977186203
1696082080950155500,8.027155517578125,4.944769859313965,-0.6146812438964844,1.8510814905166626
1696082080960155400,8.0371552734375,2.9663209915161133,-0.7670021057128906,2.5349225997924805
1696082080970155500,8.047155517578124,1.18152916431427,-1.080801010131836,3.0198700428009033
1696082080980155400,8.0571552734375,-0.08743059635162354,-1.5286970138549805,3.6743597984313965
1696082080990155500,8.067155517578126,-0.6694365739822388,-2.053999900817871,4.6004638671875
1696082081000155400,8.0771552734375,-0.48968029022216797,-2.341158866882324,5.636074066162109
1696082081010155500,8.087155517578125,0.7771304249763489,-2.1593198776245117,6.449151515960693
1696082081020155400,8.0971552734375,2.9435882568359375,-1.5631999969482422,6.519822597503662
1696082081030155500,8.107155517578125,5.418983459472656,-1.0627250671386719,5.9070916175842285
1696082081040155400,8.1171552734375,7.044302940368652,-1.2814598083496094,5.204741477966309
1696082081050155500,8.127155517578124,7.285581111907959,-2.2893857955932617,4.53122615814209
1696082081060155400,8.1371552734375,6.493364334106445,-3.1812381744384766,4.053977012634277
1696082081070155500,8.147155517578126,5.116420745849609,-3.553220748901367,3.5667309761047363
1696082081080155400,8.1571552734375,4.045430660247803,-3.2391157150268555,3.209864616394043
1696082081090155500,8.167155517578125,3.7417855262756348,-2.868353843688965,3.168196201324463
1696082081100155400,8.1771552734375,3.237199544906616,-2.8717613220214844,3.1737937927246094
1696082081110155500,8.187155517578125,2.1729516983032227,-3.542020797729492,3.1707189083099365
1696082081120155400,8.1971552734375,0.26241832971572876,-4.447000503540039,2.403059720993042
1696082081130155500,8.207155517578125,-1.6805346012115479,-5.135132789611816,0.5919407606124878
1696082081140155400,8.2171552734375,-2.504606008529663,-6.153563499450684,-1.6625659465789795
1696082081150155500,8.227155517578124,-2.9990696907043457,-7.581826210021973,-3.4252572059631348
1696082081160155400,8.2371552734375,-3.9247031211853027,-8.54015064239502,-5.257937431335449
1696082081170155500,8.247155517578125,-4.353847026824951,-8.958494186401367,-6.672637462615967
1696082081180155400,8.2571552734375,-5.225864410400391,-8.47111988067627,-6.994607925415039
1696082081190155500,8.267155517578125,-6.213343620300293,-6.904440879821777,-6.32297420501709
1696082081200155400,8.2771552734375,-5.791823387145996,-5.225399971008301,-5.37471866607666
1696082081210155500,8.287155517578125,-2.151562213897705,-3.8656234741210938,-4.647812366485596
1696082081220155400,8.2971552734375,-0.5841549634933472,-3.030550956726074,-2.7952122688293457
1696082081230155500,8.307155517578124,-0.46520018577575684,-2.2922534942626953,-1.9510866403579712
1696082081240155400,8.3171552734375,-1.2906577587127686,-1.6053171157836914,-1.7465078830718994
1696082081250155500,8.327155517578126,-1.8223884105682373,-0.8647642135620117,-1.9130504131317139
1696082081260155400,8.3371552734375,-2.2377753257751465,0.08708000183105469,-2.1749329566955566
1696082081270155500,8.347155517578125,-2.7514212131500244,1.0875625610351562,-2.4350266456604004
1696082081280155400,8.3571552734375,-3.548950672149658,2.1514296531677246,-2.587006092071533
1696082081290155500,8.367155517578125,-4.189665794372559,3.1351475715637207,-2.917375087738037
1696082081300155400,8.3771552734375,-4.6606645584106445,3.962425708770752,-3.425431728363037
1696082081310155500,8.387155517578124,-4.677289009094238,4.498083591461182,-4.111729145050049
1696082081320155400,8.3971552734375,-4.312972545623779,4.557548522949219,-4.683155059814453
1696082081330155500,8.407155517578126,-4.3988356590271,4.454721450805664,-5.053379058837891
1696082081340155400,8.4171552734375,-4.798774242401123,4.324365139007568,-5.385698318481445
1696082081350155500,8.427155517578125,-5.0736494064331055,4.152307033538818,-5.389432907104492
1696082081360155400,8.4371552734375,-5.221906661987305,3.8483214378356934,-5.25179386138916
1696082081370155500,8.447155517578125,-5.263973712921143,3.43607759475708,-5.215807914733887
1696082081380155400,8.4571552734375,-5.240479469299316,3.025411605834961,-5.247352600097656
1696082081390155500,8.467155517578124,-5.4053473472595215,2.737773895263672,-5.459493637084961
1696082081400155400,8.4771552734375,-5.674643039703369,2.625375747680664,-6.043766975402832
1696082081410155500,8.487155517578126,-5.980220794677734,2.581387519836426,-6.506893157958984
1696082081420155400,8.4971552734375,-6.290110111236572,2.7323226928710938,-6.8335723876953125
1696082081430155500,8.507155517578125,-6.378449440002441,3.1684255599975586,-7.016212463378906
1696082081440155400,8.5171552734375,-5.887118339538574,3.836459159851074,-7.029196739196777
1696082081450155500,8.527155517578125,-5.212482452392578,4.579810619354248,-7.0969014167785645
1696082081460155400,8.5371552734375,-4.656052589416504,5.0669145584106445,-6.92234992980957
1696082081470155500,8.547155517578124,-4.222662448883057,4.934307098388672,-5.726846694946289
1696082081480155400,8.5571552734375,-2.6886343955993652,4.204911231994629,-2.8913800716400146
1696082081490155500,8.567155517578126,0.565565824508667,2.953859806060791,0.3576228618621826
1696082081500155400,8.5771552734375,5.042314529418945,0.9343791007995605,4.121442794799805
1696082081510155500,8.587155517578125,8.810224533081055,-1.6241874694824219,9.497499465942383
1696082081520155400,8.5971552734375,7.93595027923584,-3.5717544555664062,11.303316116333008
1696082081530155500,8.607155517578125,8.775325775146484,-5.468226432800293,11.556581497192383
1696082081540155400,8.6171552734375,11.351483345031738,-7.643475532531738,11.505292892456055
1696082081550155500,8.627155517578124,10.068366050720215,-9.679768562316895,9.306533813476562
1696082081560155400,8.6371552734375,6.757179260253906,-9.938617706298828,3.961430549621582
1696082081570155500,8.647155517578126,3.872807264328003,-6.679834365844727,-0.8481063842773438
1696082081580155400,8.6571552734375,2.283024549484253,-1.7882652282714844,-1.8864665031433105
1696082081590155500,8.667155517578125,1.942474126815796,2.047328472137451,-2.7372686862945557
1696082081600155400,8.6771552734375,1.6653656959533691,3.1654043197631836,-4.333174705505371
1696082081610155500,8.687155517578125,0.24056601524353027,0.5431203842163086,-6.363408088684082
1696082081620155400,8.6971552734375,0.2059922218322754,-3.177248001098633,-8.726377487182617
1696082081630155500,8.707155517578125,-1.971860647201538,-5.613284111022949,-9.567720413208008
1696082081640155400,8.7171552734375,-5.003693580627441,-6.643945693969727,-8.351181030273438
1696082081650155500,8.727155517578124,-3.4037961959838867,-7.51759147644043,-4.3061017990112305
1696082081660155400,8.7371552734375,-2.6785809993743896,-5.629096031188965,-1.4404886960983276
1696082081670155500,8.747155517578125,-2.811497449874878,-2.650777816772461,-1.1506112813949585
1696082081680155400,8.7571552734375,-2.3237459659576416,0.10816669464111328,-2.164355993270874
1696082081690155500,8.767155517578125,-5.25965690612793,1.9044857025146484,-2.7922942638397217
1696082081700155400,8.7771552734375,-7.7866058349609375,2.754939556121826,-3.45320987701416
1696082081710155500,8.787155517578125,-8.756043434143066,2.6727213859558105,-3.970581531524658
1696082081720155400,8.7971552734375,-9.284475326538086,2.097301483154297,-4.289118766784668
1696082081730155500,8.807155517578124,-9.847246170043945,1.1049728393554688,-5.03546142578125
1696082081740155400,8.8171552734375,-10.145666122436523,-0.21764659881591797,-6.224650859832764
1696082081750155500,8.827155517578126,-9.848596572875977,-1.5442523956298828,-6.316411018371582
1696082081760155400,8.8371552734375,-8.936046600341797,-2.6278209686279297,-5.079347610473633
1696082081770155500,8.847155517578125,-8.031882286071777,-3.197874069213867,-3.938337802886963
1696082081780155400,8.8571552734375,-7.0334930419921875,-3.29775333404541,-3.3345725536346436
1696082081790155500,8.867155517578125,-6.0888352394104,-2.427065849304199,-2.7785873413085938
1696082081800155400,8.8771552734375,-4.205276966094971,-1.1529674530029297,-1.8934221267700195
1696082081810155500,8.887155517578124,-1.3490841388702393,-0.11850738525390625,-1.0641502141952515
1696082081820155400,8.8971552734375,1.5636532306671143,0.7733125686645508,-0.2958104610443115
1696082081830155500,8.907155517578126,3.8473172187805176,1.4519424438476562,0.27007555961608887
1696082081840155400,8.9171552734375,4.996582984924316,1.8895440101623535,0.440768301486969
1696082081850155500,8.927155517578125,4.584621429443359,2.113971710205078,0.3974599242210388
1696082081860155400,8.9371552734375,2.8356783390045166,2.296825885772705,0.17466115951538086
1696082081870155500,8.947155517578125,0.5112991333007812,2.2158169746398926,0.007789254188537598
1696082081880155400,8.9571552734375,-1.6428301334381104,1.9048452377319336,-0.23663762211799622
1696082081890155500,8.967155517578124,-2.7527284622192383,1.4307537078857422,-0.5204364061355591
1696082081900155400,8.9771552734375,-3.1583709716796875,1.1181612014770508,-0.643246054649353
1696082081910155500,8.987155517578126,-3.661759376525879,0.883575439453125,-0.56904137134552
1696082081920155400,8.9971552734375,-4.299409866333008,0.8418998718261719,-0.2684306800365448
1696082081930155500,9.007155517578125,-4.12067985534668,1.0077667236328125,0.1114702969789505
1696082081940155400,9.0171552734375,-2.8999829292297363,0.9576797485351562,0.28360462188720703
1696082081950155500,9.027155517578125,-0.8565218448638916,0.4829130172729492,0.6923083662986755
1696082081960155400,9.0371552734375,2.176143169403076,-0.39366722106933594,1.2613564729690552
1696082081970155500,9.047155517578124,5.089311599731445,-1.1992502212524414,1.9669777154922485
1696082081980155400,9.0571552734375,6.702730178833008,-1.5921258926391602,2.987882137298584
1696082081990155500,9.067155517578126,6.541237831115723,-1.2842655181884766,3.9302637577056885
1696082082000155400,9.0771552734375,4.720162868499756,-0.41475677490234375,4.272622585296631
1696082082010155500,9.087155517578125,1.956987738609314,0.39675045013427734,3.5547537803649902
1696082082020155400,9.0971552734375,-0.8680880069732666,0.728184700012207,1.925979495048523
1696082082030155500,9.107155517578125,-2.696209192276001,0.47114086151123047,0.29086384177207947
1696082082040155400,9.1171552734375,-3.0788869857788086,-0.19017696380615234,-0.9831562638282776
1696082082050155500,9.127155517578124,-1.8122475147247314,-1.0096254348754883,-1.7585325241088867
1696082082060155400,9.1371552734375,0.8459950089454651,-1.6400575637817383,-2.0117368698120117
1696082082070155500,9.147155517578126,4.431061744689941,-1.9224395751953125,-1.7694213390350342
1696082082080155400,9.1571552734375,8.060057640075684,-1.911773681640625,-1.0403162240982056
1696082082090155500,9.167155517578125,9.746652603149414,-1.6777725219726562,0.24189811944961548
1696082082100155400,9.1771552734375,8.436738014221191,-1.21051025390625,1.718560814857483
1696082082110155500,9.187155517578125,5.124324798583984,-0.8051261901855469,3.045656204223633
1696082082120155400,9.1971552734375,1.9300352334976196,-0.6190805435180664,4.057102680206299
1696082082130155500,9.207155517578125,0.08438622951507568,-0.7247734069824219,5.222107887268066
1696082082140155400,9.2171552734375,-0.7888389825820923,-0.9866170883178711,6.608879089355469
1696082082150155500,9.227155517578124,-0.7952671051025391,-1.3912925720214844,8.03569221496582
1696082082160155400,9.2371552734375,0.4644119143486023,-1.4584007263183594,8.986349105834961
1696082082170155500,9.247155517578125,2.986264228820801,-1.072251319885254,9.047123908996582
1696082082180155400,9.2571552734375,6.0569562911987305,-0.7692089080810547,8.103348731994629
1696082082190155500,9.267155517578125,8.063913345336914,-1.2683124542236328,6.68341064453125
1696082082200155400,9.2771552734375,7.945997714996338,-2.3781614303588867,5.263766765594482
1696082082210155500,9.287155517578125,6.671529293060303,-3.3153371810913086,3.788644313812256
1696082082220155400,9.2971552734375,4.787266254425049,-3.667715072631836,2.3697333335876465
1696082082230155500,9.307155517578124,2.311652183532715,-4.001890182495117,1.6727418899536133
1696082082240155400,9.3171552734375,-0.6402342319488525,-4.920924186706543,2.2156431674957275
1696082082250155500,9.327155517578126,-3.2259364128112793,-6.175948143005371,2.296950340270996
1696082082260155400,9.3371552734375,-4.37438440322876,-7.474169731140137,1.3981987237930298
1696082082270155500,9.347155517578125,-4.0132927894592285,-8.292497634887695,-0.8887417316436768
1696082082280155400,9.3571552734375,-3.472294569015503,-9.370777130126953,-3.2482502460479736
1696082082290155500,9.367155517578125,-3.3564510345458984,-10.204182624816895,-5.5984930992126465
1696082082300155400,9.3771552734375,-3.12624454498291,-10.568316459655762,-7.236838340759277
1696082082310155500,9.387155517578124,-3.3367366790771484,-10.360204696655273,-8.743319511413574
1696082082320155400,9.3971552734375,-3.851850986480713,-8.973252296447754,-9.60480785369873
1696082082330155500,9.407155517578126,-4.330766677856445,-6.439852714538574,-8.76276969909668
1696082082340155400,9.4171552734375,-1.70648992061615,-4.143771171569824,-8.006349563598633
1696082082350155500,9.427155517578125,0.556755542755127,-2.7710304260253906,-6.2242631912231445
1696082082360155400,9.4371552734375,0.13293027877807617,-1.7394037246704102,-4.593839645385742
1696082082370155500,9.447155517578125,-1.5884374380111694,-1.094832420349121,-3.596590042114258
1696082082380155400,9.4571552734375,-3.218876361846924,-0.5408945083618164,-2.99269962310791
1696082082390155500,9.467155517578124,-3.8853931427001953,0.0017766952514648438,-2.4690725803375244
1696082082400155400,9.4771552734375,-4.067224502563477,0.6449861526489258,-1.978580355644226
1696082082410155500,9.487155517578126,-3.687532424926758,1.4490084648132324,-1.636118769645691
1696082082420155400,9.4971552734375,-3.5328402519226074,2.472256660461426,-1.463640809059143
1696082082430155500,9.507155517578125,-3.433159351348877,3.4893293380737305,-1.5572031736373901
1696082082440155400,9.5171552734375,-3.6864960193634033,4.328798770904541,-1.9421762228012085
1696082082450155500,9.527155517578125,-3.9163646697998047,4.808131694793701,-2.5314972400665283
1696082082460155400,9.5371552734375,-4.090887546539307,4.898493766784668,-3.282775640487671
1696082082470155500,9.547155517578124,-4.224789142608643,4.65994930267334,-4.102139949798584
1696082082480155400,9.5571552734375,-4.442008018493652,4.465513706207275,-4.956913948059082
1696082082490155500,9.567155517578126,-4.913954257965088,4.137563705444336,-5.482151508331299
1696082082500155400,9.5771552734375,-5.038429260253906,4.075578689575195,-5.521174430847168
1696082082510155500,9.587155517578125,-5.521671295166016,3.616497039794922,-5.96068000793457
1696082082520155400,9.5971552734375,-5.781522750854492,3.4609556198120117,-6.090849876403809
1696082082530155500,9.607155517578125,-6.060921669006348,3.500411033630371,-6.2596330642700195
1696082082540155400,9.6171552734375,-6.268452167510986,3.663175582885742,-6.605338096618652
1696082082550155500,9.627155517578124,-6.548352241516113,4.080577850341797,-6.944325923919678
1696082082560155400,9.6371552734375,-6.65778923034668,4.595971584320068,-7.298422813415527
1696082082570155500,9.647155517578126,-6.5187788009643555,5.122673988342285,-7.591187000274658
1696082082580155400,9.6571552734375,-6.142124176025391,5.670917510986328,-7.841117858886719
1696082082590155500,9.667155517578125,-5.454897880554199,6.188745498657227,-7.802825450897217
1696082082600155400,9.6771552734375,-4.780990123748779,6.293664932250977,-7.2785234451293945
1696082082610155500,9.687155517578125,-3.9237654209136963,5.842707633972168,-5.813342094421387
1696082082620155400,9.6971552734375,-2.273437976837158,5.102330207824707,-3.4031951427459717
1696082082630155500,9.707155517578125,-0.14785981178283691,4.0027265548706055,-0.8003530502319336
1696082082640155400,9.7171552734375,4.314220428466797,1.5600481033325195,1.8881044387817383
1696082082650155500,9.727155517578124,11.731328964233398,-2.191826820373535,5.490207672119141
1696082082660155100,9.737155029296876,11.90904426574707,-2.1027355194091797,5.606194972991943
1696082082670155000,9.747155029296875,11.813822746276855,-12.689169883728027,14.171977043151855
1696082082680155100,9.757155029296875,8.99023151397705,-16.968685150146484,15.172590255737305
1696082082690155000,9.767155029296875,8.376909255981445,-16.795562744140625,12.160358428955078
1696082082700155100,9.777155029296875,5.52290678024292,-11.932604789733887,7.0834126472473145
1696082082710155000,9.787155029296875,2.7059848308563232,-5.971238136291504,2.175560474395752
1696082082720155100,9.797155029296874,1.4921176433563232,-0.5581941604614258,0.20739984512329102
1696082082730155000,9.807155029296876,1.4838511943817139,3.5065293312072754,-0.7984557151794434
1696082082740155100,9.817155029296876,1.6043925285339355,4.829945087432861,-2.9744346141815186
1696082082750155000,9.827155029296875,0.8978233337402344,2.095522880554199,-5.511853218078613
1696082082760155100,9.837155029296875,-2.3612427711486816,-1.896214485168457,-6.312554359436035
1696082082770155000,9.847155029296875,-6.16267728805542,-4.876188278198242,-6.072466850280762
1696082082780155100,9.857155029296875,-6.103599548339844,-7.728350639343262,-6.053106307983398
1696082082790155000,9.867155029296875,0.35016727447509766,-10.021400451660156,-4.68466854095459
1696082082800155100,9.877155029296874,-2.309074878692627,-7.616847991943359,-5.20984411239624
1696082082810155000,9.887155029296874,-5.9676008224487305,-3.36639404296875,-5.881292343139648
1696082082820155100,9.897155029296876,-7.573473930358887,-0.34633445739746094,-6.434232711791992
1696082082830155000,9.907155029296876,-8.332097053527832,2.134243965148926,-7.399643898010254
1696082082840155100,9.917155029296875,-9.096909523010254,3.9475584030151367,-7.754642963409424
1696082082850155000,9.927155029296875,-9.458372116088867,3.853494644165039,-7.571042060852051
1696082082860155100,9.937155029296875,-9.387451171875,2.628396511077881,-7.416059494018555
1696082082870155000,9.947155029296875,-9.134000778198242,1.0921220779418945,-7.22828483581543
1696082082880155100,9.957155029296874,-8.539966583251953,-0.5681848526000977,-6.4515275955200195
1696082082890155000,9.967155029296874,-7.9137468338012695,-1.7874116897583008,-4.908468246459961
1696082082900155100,9.977155029296876,-8.112313270568848,-2.3996315002441406,-4.799781322479248
1696082082910155000,9.987155029296876,-8.324799537658691,-2.5264806747436523,-4.509585380554199
1696082082920155100,9.997155029296875,-7.250463485717773,-2.576040267944336,-3.632958173751831
1696082082930155000,10.007155029296875,-5.368853569030762,-2.171121597290039,-2.3421478271484375
1696082082940155100,10.017155029296875,-3.0525360107421875,-1.4321413040161133,-0.9402194023132324
1696082082950155000,10.027155029296875,-0.2695810794830322,-0.5499429702758789,0.43091440200805664
1696082082960155400,10.0371552734375,2.7944555282592773,0.43929386138916016,1.5162465572357178
1696082082970155500,10.047155517578124,3.0300631523132324,0.4874544143676758,1.6820076704025269
1696082082980155400,10.0571552734375,5.512454986572266,1.7994976043701172,2.016191244125366
1696082082990155500,10.067155517578126,4.772435665130615,2.1372995376586914,1.442009687423706
1696082083000155400,10.0771552734375,3.243760347366333,2.2192306518554688,0.4387282133102417
1696082083010155500,10.087155517578125,1.6332491636276245,2.19455623626709,-0.6176133751869202
1696082083020155400,10.0971552734375,0.047700703144073486,1.8217988014221191,-1.3972933292388916
1696082083030155500,10.107155517578125,-1.5582935810089111,1.1672773361206055,-1.9111003875732422
1696082083040155400,10.1171552734375,-3.0075020790100098,0.7131481170654297,-2.2185304164886475
1696082083050155500,10.127155517578124,-3.9870598316192627,0.7186374664306641,-2.217373847961426
1696082083060155400,10.1371552734375,-4.295647144317627,0.9446821212768555,-1.9292733669281006
1696082083070155500,10.147155517578126,-3.7528562545776367,1.135004997253418,-1.092949390411377
1696082083080155400,10.1571552734375,-2.0249507427215576,0.8700714111328125,-0.24861903488636017
1696082083090155500,10.167155517578125,0.6367965936660767,0.16061782836914062,0.5858961939811707
1696082083100155400,10.1771552734375,3.2802441120147705,-0.7983732223510742,1.420013427734375
1696082083110155500,10.187155517578125,4.788853645324707,-1.44525146484375,2.419696569442749
1696082083120155400,10.1971552734375,4.905135631561279,-1.320028305053711,3.298007011413574
1696082083130155500,10.207155517578125,3.815966844558716,-0.6101808547973633,3.9336836338043213
1696082083140155400,10.2171552734375,1.8729662895202637,0.009108543395996094,3.826092004776001
1696082083150155500,10.227155517578124,0.09796488285064697,0.2759389877319336,3.060729742050171
1696082083160155400,10.2371552734375,-0.46878916025161743,-0.0019044876098632812,2.0825273990631104
1696082083170155500,10.247155517578125,0.6815485954284668,-0.4940366744995117,1.153450608253479
1696082083180155400,10.2571552734375,2.832493305206299,-0.9681940078735352,0.570938229560852
1696082083190155500,10.267155517578125,4.925833702087402,-1.419987678527832,0.2502124011516571
1696082083200155400,10.2771552734375,6.050530433654785,-1.5243968963623047,0.12246942520141602
1696082083210155500,10.287155517578125,5.567288398742676,-1.1827764511108398,0.17888736724853516
1696082083220155400,10.2971552734375,3.8347764015197754,-0.657923698425293,0.42112481594085693
1696082083230155500,10.307155517578124,1.9372425079345703,-0.5967531204223633,0.917073130607605
1696082083240155400,10.3171552734375,0.5175134539604187,-1.3497438430786133,1.9707996845245361
1696082083250155500,10.327155517578126,-0.3406764268875122,-2.30426025390625,3.3309454917907715
1696082083260155400,10.3371552734375,-0.5474456548690796,-2.912299156188965,4.789808750152588
1696082083270155500,10.347155517578125,0.4651185870170593,-2.723433494567871,6.2744951248168945
1696082083280155400,10.3571552734375,2.553267002105713,-1.836782455444336,7.237258434295654
1696082083290155500,10.367155517578125,4.898035049438477,-0.9278554916381836,7.29262638092041
1696082083300155400,10.3771552734375,6.74315071105957,-0.6817741394042969,6.830601215362549
1696082083310155500,10.387155517578124,7.168087959289551,-1.340245246887207,6.1823601722717285
1696082083320155400,10.3971552734375,6.186836242675781,-2.4114532470703125,5.507384777069092
1696082083330155500,10.407155517578126,5.083641529083252,-3.2013015747070312,4.8035359382629395
1696082083340155400,10.4171552734375,4.679892063140869,-3.728337287902832,4.3895721435546875
1696082083350155500,10.427155517578125,4.256857872009277,-3.6170949935913086,4.324225902557373
1696082083360155400,10.4371552734375,2.6010987758636475,-3.2921571731567383,4.303232669830322
1696082083370155500,10.447155517578125,0.08728805184364319,-3.780035972595215,3.935171365737915
1696082083380155400,10.4571552734375,-1.756624698638916,-4.86508846282959,2.816248893737793
1696082083390155500,10.467155517578124,-2.6999473571777344,-6.094898223876953,0.8924260139465332
1696082083400155400,10.4771552734375,-3.1170642375946045,-7.617491722106934,-1.2634013891220093
1696082083410155500,10.487155517578126,-4.031268119812012,-9.03087329864502,-3.4226696491241455
1696082083420155400,10.4971552734375,-4.680214881896973,-10.329188346862793,-5.561470031738281
1696082083430155500,10.507155517578125,-5.3525071144104,-10.728652000427246,-6.90754508972168
1696082083440155400,10.5171552734375,-6.346899032592773,-9.881363868713379,-7.425363063812256
1696082083450155500,10.527155517578125,-6.419869899749756,-7.623788833618164,-6.622060298919678
1696082083460155400,10.5371552734375,-4.739614486694336,-5.439579963684082,-5.835816383361816
1696082083470155500,10.547155517578124,0.07312881946563721,-3.6556997299194336,-5.45613956451416
1696082083480155400,10.5571552734375,1.7545682191848755,-2.414896011352539,-3.57453989982605
1696082083490155500,10.567155517578126,0.8792507648468018,-1.384714126586914,-2.6073660850524902
1696082083500155400,10.5771552734375,-0.7572077512741089,-0.49330902099609375,-2.6789772510528564
1696082083510155500,10.587155517578125,-2.312553882598877,0.1785287857055664,-3.204951286315918
1696082083520155400,10.5971552734375,-3.425445079803467,0.9272708892822266,-3.121732711791992
1696082083530155500,10.607155517578125,-4.0115156173706055,1.751986026763916,-3.1214499473571777
1696082083540155400,10.6171552734375,-4.497045993804932,2.625551223754883,-3.3110244274139404
1696082083550155500,10.627155517578124,-4.52039909362793,3.553335189819336,-3.4334940910339355
1696082083560155400,10.6371552734375,-4.084928512573242,4.280066967010498,-3.487046241760254
1696082083570155500,10.647155517578126,-3.7654895782470703,4.67966365814209,-3.799037456512451
1696082083580155400,10.6571552734375,-3.927614450454712,4.762882232666016,-4.013782501220703
1696082083590155500,10.667155517578125,-4.522861957550049,4.482393741607666,-4.244936466217041
1696082083600155400,10.6771552734375,-5.124014854431152,4.1724629402160645,-4.472739219665527
1696082083610155500,10.687155517578125,-5.486830711364746,3.7848153114318848,-4.804436206817627
1696082083620155400,10.6971552734375,-5.76962947845459,3.3702244758605957,-4.938089370727539
1696082083630155500,10.707155517578125,-5.807137966156006,3.0895748138427734,-5.0905632972717285
1696082083640155400,10.7171552734375,-5.671843528747559,2.9819259643554688,-5.329655647277832
1696082083650155500,10.727155517578124,-5.791390419006348,2.9928078651428223,-5.509722709655762
1696082083660155400,10.7371552734375,-6.115869522094727,3.175943374633789,-5.717714309692383
1696082083670155500,10.747155517578125,-6.500454902648926,3.459042549133301,-5.932624340057373
1696082083680155400,10.7571552734375,-6.832772254943848,3.746217727661133,-6.266169548034668
1696082083690155500,10.767155517578125,-6.8350677490234375,4.029600143432617,-6.635563850402832
1696082083700155400,10.7771552734375,-6.447982311248779,4.366206645965576,-7.04429817199707
1696082083710155500,10.787155517578125,-5.789572715759277,4.740386962890625,-7.3950300216674805
1696082083720155400,10.7971552734375,-4.749035835266113,5.124488830566406,-7.456902027130127
1696082083730155500,10.807155517578124,-3.6970319747924805,5.028682231903076,-6.78056526184082
1696082083740155400,10.8171552734375,-2.3443353176116943,4.306421279907227,-5.035166263580322
1696082083750155500,10.827155517578126,-0.5014026165008545,3.4760260581970215,-2.3523058891296387
1696082083760155400,10.8371552734375,2.3901877403259277,2.0936498641967773,0.48924756050109863
1696082083770155500,10.847155517578125,7.970621585845947,-0.527226448059082,3.950705051422119
1696082083780155400,10.8571552734375,10.715559005737305,-3.768117904663086,8.109345436096191
1696082083790155500,10.867155517578125,10.15276050567627,-7.461106300354004,12.212751388549805
1696082083800155400,10.8771552734375,10.59073257446289,-11.598665237426758,14.736154556274414
1696082083810155500,10.887155517578124,10.696796417236328,-11.560436248779297,14.742889404296875
1696082083820155400,10.8971552734375,10.479541778564453,-13.61669921875,8.13643741607666
1696082083830155500,10.907155517578126,5.931961536407471,-10.352738380432129,3.209415912628174
1696082083840155400,10.9171552734375,2.184483051300049,-5.22833251953125,-0.6595504283905029
1696082083850155500,10.927155517578125,1.0156354904174805,-0.046230316162109375,-2.0852878093719482
1696082083860155400,10.9371552734375,0.9856481552124023,-0.06692886352539062,-2.1255486011505127
1696082083870155500,10.947155517578125,1.4442064762115479,4.751736164093018,-4.078555583953857
1696082083880155400,10.9571552734375,0.3732631206512451,1.6969237327575684,-5.9819512367248535
1696082083890155500,10.967155517578124,-1.4345711469650269,-2.005247116088867,-7.535242080688477
1696082083900155400,10.9771552734375,-5.177985191345215,-4.51080322265625,-8.221100807189941
1696082083910155500,10.987155517578126,-6.3604888916015625,-7.100530624389648,-8.882405281066895
1696082083920155400,10.9971552734375,-2.4247899055480957,-9.192876815795898,-7.164577960968018
1696082083930155500,11.007155517578125,-6.499965667724609,-5.73225212097168,-5.950748920440674
1696082083940155400,11.0171552734375,-9.594326972961426,-1.7555932998657227,-5.127801895141602
1696082083950155500,11.027155517578125,-9.428069114685059,0.8316898345947266,-4.423713207244873
1696082083960155400,11.0371552734375,-8.813678741455078,2.687987804412842,-4.42091178894043
1696082083970155500,11.047155517578124,-9.039985656738281,3.4000000953674316,-4.545699119567871
1696082083980155400,11.0571552734375,-9.864255905151367,2.9868006706237793,-4.232083320617676
1696082083990155500,11.067155517578126,-10.244600296020508,1.509087085723877,-4.384367942810059
1696082084000155400,11.0771552734375,-9.622119903564453,-0.39684486389160156,-4.781373977661133
1696082084010155500,11.087155517578125,-8.72817611694336,-2.294565200805664,-5.023143291473389
1696082084020155400,11.0971552734375,-8.534605979919434,-3.9481887817382812,-5.404301643371582
1696082084030155500,11.107155517578125,-8.292656898498535,-4.644940376281738,-4.472517013549805
1696082084040155400,11.1171552734375,-7.418835639953613,-4.407587051391602,-3.2120256423950195
1696082084050155500,11.127155517578124,-5.973575115203857,-3.5096797943115234,-1.9333317279815674
1696082084060155400,11.1371552734375,-4.158302307128906,-2.172806739807129,-0.8960615396499634
1696082084070155500,11.147155517578126,-1.835084080696106,-0.7233867645263672,-0.06144535541534424
1696082084080155400,11.1571552734375,0.8566997051239014,0.6501789093017578,0.691275954246521
1696082084090155500,11.167155517578125,3.164029359817505,1.6748147010803223,1.2806308269500732
1696082084100155400,11.1771552734375,4.363747596740723,2.2669262886047363,1.4634968042373657
1696082084110155500,11.187155517578125,4.247881889343262,2.545259952545166,1.3291394710540771
1696082084120155400,11.1971552734375,3.172801971435547,2.5398244857788086,1.017540693283081
1696082084130155500,11.207155517578125,1.588687539100647,2.3416028022766113,0.5651921629905701
1696082084140155400,11.2171552734375,0.28580766916275024,2.0732383728027344,0.039374589920043945
1696082084150155500,11.227155517578124,-0.508445143699646,1.7897124290466309,-0.651153564453125
1696082084160155400,11.2371552734375,-1.2848167419433594,1.1786994934082031,-1.0859692096710205
1696082084170155500,11.247155517578125,-2.456021308898926,0.39646244049072266,-1.2552539110183716
1696082084180155400,11.2571552734375,-3.2014808654785156,0.20728683471679688,-1.4173896312713623
1696082084190155500,11.267155517578125,-3.4673099517822266,0.5040912628173828,-1.4650529623031616
1696082084200155400,11.2771552734375,-3.4320619106292725,0.8299827575683594,-1.3148047924041748
1696082084210155500,11.287155517578125,-2.5016775131225586,1.053487777709961,-1.3238272666931152
1696082084220155400,11.2971552734375,-0.22967618703842163,0.5924663543701172,-1.309908151626587
1696082084230155500,11.307155517578124,2.56498646736145,-0.43233776092529297,-0.8021845817565918
1696082084240155400,11.3171552734375,4.577997207641602,-1.2344255447387695,-0.13208937644958496
1696082084250155500,11.327155517578126,5.051396369934082,-1.3499526977539062,0.4190780520439148
1696082084260155400,11.3371552734375,3.9527859687805176,-0.6776485443115234,1.0747056007385254
1696082084270155500,11.347155517578125,1.9229958057403564,0.33612728118896484,1.6713716983795166
1696082084280155400,11.3571552734375,-0.11349061131477356,1.0579137802124023,1.7507485151290894
1696082084290155500,11.367155517578125,-1.4721145629882812,0.9705934524536133,1.4031294584274292
1696082084300155400,11.3771552734375,-1.361968755722046,0.14757537841796875,0.7605903148651123
1696082084310155500,11.387155517578124,0.37514591217041016,-0.8857717514038086,0.06668642163276672
1696082084320155400,11.3971552734375,2.8835976123809814,-1.7309904098510742,-0.18235644698143005
1696082084330155500,11.407155517578126,4.919518947601318,-2.2063465118408203,0.07174035906791687
1696082084340155400,11.4171552734375,5.638736724853516,-2.2121458053588867,0.8195550441741943
1696082084350155500,11.427155517578125,5.734128952026367,-2.2272605895996094,0.90256267786026
1696082084360155400,11.4371552734375,3.578214168548584,-0.9447803497314453,2.6335983276367188
1696082084370155500,11.447155517578125,1.6745562553405762,-0.6355876922607422,3.3815083503723145
1696082084380155400,11.4571552734375,-0.027257561683654785,-0.8593406677246094,4.288178443908691
1696082084390155500,11.467155517578124,-1.3065401315689087,-1.4307918548583984,5.422025203704834
1696082084400155400,11.4771552734375,-1.7857180833816528,-1.9259061813354492,6.561614036560059
1696082084410155500,11.487155517578126,-0.8923044204711914,-2.0711231231689453,7.669241905212402
1696082084420155400,11.4971552734375,1.2699840068817139,-1.7037944793701172,8.076308250427246
1696082084430155500,11.507155517578125,3.852329730987549,-1.2454004287719727,7.580565929412842
1696082084440155400,11.5171552734375,5.801112174987793,-1.2696256637573242,6.730029106140137
1696082084450155500,11.527155517578125,6.597496032714844,-1.9432764053344727,5.683740615844727
1696082084460155400,11.5371552734375,6.571223735809326,-1.9331045150756836,5.6279520988464355
1696082084470155500,11.547155517578124,6.081287384033203,-3.449774742126465,3.12898325920105
1696082084480155400,11.5571552734375,5.744302272796631,-3.652249336242676,2.0539939403533936
1696082084490155500,11.567155517578126,5.797662258148193,-3.4923715591430664,1.2302358150482178
1696082084500155400,11.5771552734375,5.611140727996826,-3.4705724716186523,1.1093292236328125
1696082084510155500,11.587155517578125,2.600630283355713,-3.413877487182617,1.4802004098892212
1696082084520155400,11.5971552734375,-0.1176031231880188,-3.9233436584472656,2.045830249786377
1696082084530155500,11.607155517578125,-2.3151025772094727,-4.479722023010254,1.5247987508773804
1696082084540155400,11.6171552734375,-3.519021511077881,-5.63175106048584,0.019125819206237793
1696082084550155500,11.627155517578124,-4.040497779846191,-7.454814910888672,-2.1369221210479736
1696082084560155400,11.6371552734375,-4.515779495239258,-9.167271614074707,-4.204100608825684
1696082084570155500,11.647155517578126,-5.070770740509033,-9.924419403076172,-6.215297698974609
1696082084580155400,11.6571552734375,-6.248595237731934,-9.41121768951416,-7.346377372741699
1696082084590155500,11.667155517578125,-7.127510070800781,-7.665000915527344,-7.323711395263672
1696082084600155400,11.6771552734375,-6.057990074157715,-5.530631065368652,-6.882526874542236
1696082084610155500,11.687155517578125,-2.307988405227661,-3.837160110473633,-6.1978440284729
1696082084620155400,11.6971552734375,1.174781322479248,-2.848236083984375,-4.76207160949707
1696082084630155500,11.707155517578125,1.7799396514892578,-2.281097412109375,-2.960559368133545
1696082084640155400,11.7171552734375,0.3374147415161133,-1.8921775817871094,-2.623354434967041
1696082084650155500,11.727155517578124,-1.614342451095581,-1.4968109130859375,-2.627795696258545
1696082084660155400,11.7371552734375,-2.656526565551758,-0.6981258392333984,-2.773561716079712
1696082084670155500,11.747155517578125,-3.3054685592651367,0.15966129302978516,-2.949552536010742
1696082084680155400,11.7571552734375,-3.377876043319702,1.1124310493469238,-3.140282392501831
1696082084690155500,11.767155517578125,-3.354125738143921,1.9707059860229492,-3.4643924236297607
1696082084700155400,11.7771552734375,-4.25208044052124,2.7180752754211426,-3.6485414505004883
1696082084710155500,11.787155517578125,-5.113801002502441,3.4428844451904297,-3.8360798358917236
1696082084720155400,11.7971552734375,-4.768983840942383,3.902033805847168,-4.328943252563477
1696082084730155500,11.807155517578124,-3.9585039615631104,3.827031135559082,-4.883995056152344
1696082084740155400,11.8171552734375,-3.997586250305176,3.6649532318115234,-5.371154308319092
1696082084750155500,11.827155517578126,-4.390722751617432,3.5594730377197266,-5.799489974975586
1696082084760155400,11.8371552734375,-4.778231620788574,3.3226876258850098,-5.885887622833252
1696082084770155500,11.847155517578125,-5.12637186050415,3.032381534576416,-5.816370010375977
1696082084780155400,11.8571552734375,-5.387145042419434,2.8657937049865723,-5.672457218170166
1696082084790155500,11.867155517578125,-5.530511856079102,2.7358765602111816,-5.591850280761719
1696082084800155400,11.8771552734375,-5.793359756469727,2.722062110900879,-5.545942306518555
1696082084810155500,11.887155517578124,-5.93139123916626,2.9230079650878906,-5.740694999694824
1696082084820155400,11.8971552734375,-6.006502151489258,3.263453960418701,-6.0267229080200195
1696082084830155500,11.907155517578126,-6.067520618438721,3.6633410453796387,-6.356852054595947
1696082084840155400,11.9171552734375,-6.050012588500977,4.096454620361328,-6.777858734130859
1696082084850155500,11.927155517578125,-5.751851558685303,4.512002944946289,-7.021805286407471
1696082084860155400,11.9371552734375,-5.279715538024902,4.914615154266357,-7.0800604820251465
1696082084870155500,11.947155517578125,-4.674405574798584,5.218895435333252,-6.856673240661621
1696082084880155400,11.9571552734375,-3.851518392562866,5.281014442443848,-6.216624736785889
1696082084890155500,11.967155517578124,-2.789686918258667,4.903743743896484,-4.699103355407715
1696082084900155400,11.9771552734375,-1.2276203632354736,3.9796528816223145,-2.329136848449707
1696082084910155500,11.987155517578126,1.4496498107910156,2.25042724609375,0.49266958236694336
1696082084920155400,11.9971552734375,5.83225679397583,-0.40848255157470703,3.8107502460479736
1696082084930155500,12.007155517578125,9.152990341186523,-3.63449764251709,7.667654991149902
1696082084940155000,12.01715478515625,9.166606903076172,-7.227121353149414,11.173615455627441
1696082084950155000,12.027155029296875,8.568020820617676,-10.786230087280273,13.505651473999023
1696082084960155000,12.03715478515625,8.738144874572754,-12.939126014709473,14.122151374816895
1696082084970155000,12.047155029296874,8.51620101928711,-12.99172306060791,12.204207420349121
1696082084980155100,12.057155029296876,5.772563457489014,-10.877960205078125,6.779260635375977
1696082084990155000,12.067155029296876,2.246284008026123,-6.781765937805176,1.4673185348510742
1696082085000155100,12.077155029296875,0.5495758056640625,-2.202803611755371,-1.4009476900100708
1696082085010155000,12.087155029296875,0.3028557300567627,1.822312831878662,-2.5632073879241943
1696082085446729000,12.52372900390625,1.2670570611953735,0.2711648941040039,-0.5877404808998108
1696082085456729000,12.53372900390625,0.9115949869155884,0.7579851150512695,0.4685363173484802
1696082085466730000,12.54372998046875,-0.5701574683189392,1.1794157028198242,0.16625584661960602
1696082085476729900,12.553729736328124,-1.6892340183258057,0.9587593078613281,-0.20429521799087524
1696082085486730000,12.56372998046875,-2.218153476715088,0.3833198547363281,-0.6302169561386108
1696082085496730000,12.573730224609376,-1.6279106140136719,-0.2646913528442383,-1.1018284559249878
1696082085506730000,12.58372998046875,-0.08220970630645752,-0.9954242706298828,-1.429497480392456
1696082085516729900,12.593729736328125,2.0670714378356934,-1.3547649383544922,-1.4226940870285034
1696082085526730000,12.60372998046875,4.232132911682129,-1.3338146209716797,-0.9058337211608887
1696082085536730000,12.613730224609375,5.500541687011719,-1.0978374481201172,0.29068800806999207
1696082085546730000,12.62372998046875,5.059567928314209,-0.7198257446289062,1.749426245689392
1696082085556729900,12.633729736328124,3.414043426513672,-0.48468589782714844,2.7982709407806396
1696082085566730000,12.64372998046875,1.513725996017456,-0.5124969482421875,3.5367581844329834
1696082085576730000,12.653730224609374,-0.09399086236953735,-0.7910327911376953,4.140709400177002
1696082085586730000,12.66372998046875,-1.3321521282196045,-1.1393070220947266,4.875391006469727
1696082085596729900,12.673729736328125,-1.8431965112686157,-1.355545997619629,5.734957218170166
1696082085606730000,12.68372998046875,-1.0394055843353271,-1.2618093490600586,6.149744510650635
1696082085616730000,12.693730224609375,0.7784566283226013,-0.8007106781005859,5.7619194984436035
1696082085626730000,12.70372998046875,2.657133102416992,-0.5048646926879883,5.119361877441406
1696082085636729900,12.713729736328125,3.9466335773468018,-0.6743087768554688,4.6454033851623535
1696082085646730000,12.72372998046875,4.215513229370117,-1.6304616928100586,4.5998125076293945
1696082085656730000,12.733730224609374,3.686643600463867,-2.8854808807373047,4.4495530128479
1696082085666730000,12.74372998046875,3.258171319961548,-4.199150085449219,4.093356609344482
1696082085676729900,12.753729736328125,3.562150716781616,-5.077885627746582,3.275270938873291
1696082085686730000,12.76372998046875,5.004433631896973,-5.298832893371582,2.2038769721984863
1696082085696730000,12.773730224609375,6.583267688751221,-4.689309120178223,1.0412625074386597
1696082085706730000,12.78372998046875,6.005066871643066,-3.7751998901367188,0.3795299530029297
1696082085716730000,12.793730224609375,3.0991098880767822,-3.2157888412475586,0.4074244797229767
1696082085726730000,12.80372998046875,0.28481361269950867,-3.0761327743530273,0.1702016294002533
1696082085736730000,12.813730224609374,-1.6195415258407593,-3.4150333404541016,-1.102689266204834
1696082085746730000,12.82372998046875,-3.07661509513855,-4.723777770996094,-2.65002703666687
1696082085756730000,12.833730224609376,-4.181317329406738,-6.218371391296387,-4.187595367431641
1696082085766730000,12.84372998046875,-4.265368461608887,-7.799609184265137,-6.309869766235352
1696082085776730000,12.853730224609375,-5.051016807556152,-8.672110557556152,-8.06944751739502
1696082085786730000,12.86372998046875,-6.1956634521484375,-8.580437660217285,-9.071321487426758
1696082085796730000,12.873730224609375,-5.981273651123047,-7.33647346496582,-9.373825073242188
1696082085806730000,12.88372998046875,-4.324063301086426,-5.606722831726074,-7.8139777183532715
1696082085816730000,12.893730224609374,-3.1404972076416016,-4.311448097229004,-5.934451580047607
1696082085826730000,12.90372998046875,-0.7060196399688721,-3.0456104278564453,-4.926337242126465
1696082085836730000,12.913730224609376,-0.007012844085693359,-2.0600128173828125,-4.082084655761719
1696082085846730000,12.92372998046875,-1.4698166847229004,-1.2855854034423828,-3.3041388988494873
1696082085856730000,12.933730224609375,-2.992426633834839,-0.5475893020629883,-2.7011570930480957
1696082085866730000,12.94372998046875,-3.9009110927581787,0.1761951446533203,-2.2049942016601562
1696082085876730000,12.953730224609375,-4.319311618804932,1.0761899948120117,-1.8674167394638062
1696082085886730000,12.96372998046875,-4.116166114807129,2.0424695014953613,-1.8419402837753296
1696082085896730000,12.973730224609374,-3.611419439315796,2.696503162384033,-1.8148958683013916
1696082085906730000,12.98372998046875,-3.623560667037964,3.2653355598449707,-1.8892509937286377
1696082085916730000,12.993730224609376,-3.7050793170928955,3.5761098861694336,-1.9890460968017578
1696082085926730000,13.00372998046875,-3.797102928161621,3.6649818420410156,-2.4842207431793213
1696082085936730000,13.013730224609375,-3.7985363006591797,3.520270824432373,-3.3662686347961426
1696082085946730000,13.02372998046875,-3.8665926456451416,3.3149166107177734,-4.273053169250488
1696082085956730000,13.033730224609375,-4.020444869995117,3.096250057220459,-4.874188423156738
1696082085966730000,13.04372998046875,-4.151398658752441,2.8494997024536133,-5.25098991394043
1696082085976730000,13.053730224609374,-4.185366153717041,2.5802836418151855,-5.451983451843262
1696082085986730000,13.06372998046875,-4.386577606201172,2.3233532905578613,-5.467377185821533
1696082085996730000,13.073730224609376,-4.728344917297363,2.1512856483459473,-5.438218116760254
1696082086006730000,13.08372998046875,-5.023836135864258,1.9446492195129395,-5.422367095947266
1696082086016730000,13.093730224609375,-5.294971466064453,1.8378372192382812,-5.443230628967285
1696082086026730000,13.10372998046875,-5.60637092590332,1.854776382446289,-5.539567947387695
1696082086036730000,13.113730224609375,-5.747526168823242,2.0653152465820312,-5.629524230957031
1696082086046730000,13.12372998046875,-5.452874660491943,2.572023868560791,-5.676089286804199
1696082086056730000,13.133730224609375,-4.952290058135986,3.158839702606201,-5.745968341827393
1696082086066730000,13.14372998046875,-4.5147480964660645,3.5383358001708984,-5.591994285583496
1696082086076730000,13.153730224609374,-4.010647296905518,3.532437801361084,-4.949614524841309
1696082086086730000,13.16372998046875,-3.332399845123291,3.2124147415161133,-3.8112785816192627
1696082086096730000,13.173730224609375,-2.3482017517089844,2.4573564529418945,-2.2072277069091797
