time,seconds_elapsed,z,y,x
1695713676297660400,0.183660400390625,-1.19384765625,-0.922088623046875,0.707550048828125
1695713676307212300,0.19321240234375,-1.318511962890625,-1.035614013671875,0.5487060546875
1695713676316764400,0.202764404296875,-1.49505615234375,-0.5096435546875,0.324554443359375
1695713676326316300,0.21231640625,-1.605377197265625,-0.33966064453125,0.1446533203125
1695713676335838000,0.221837890625,-1.613616943359375,-0.644073486328125,-0.041961669921875
1695713676345420300,0.231420166015625,-1.59332275390625,-1.048431396484375,-0.357513427734375
1695713676354972400,0.240972412109375,-1.59637451171875,-1.245880126953125,-0.756683349609375
1695713676364524300,0.250524169921875,-1.621551513671875,-1.12579345703125,-1.16607666015625
1695713676374076400,0.260076416015625,-1.617584228515625,-1.015472412109375,-1.55975341796875
1695713676383597800,0.269597900390625,-1.513671875,-1.304779052734375,-1.90521240234375
1695713676393150000,0.27914990234375,-1.284942626953125,-1.968536376953125,-2.181549072265625
1695713676402701800,0.288701904296875,-0.933380126953125,-2.711029052734375,-2.431793212890625
1695713676412254000,0.29825390625,-0.45013427734375,-3.37615966796875,-2.70111083984375
1695713676421775400,0.307775390625,0.174407958984375,-3.554534912109375,-2.820587158203125
1695713676431327500,0.317327392578125,0.58380126953125,-2.743988037109375,-2.756805419921875
1695713676440879400,0.32687939453125,0.66497802734375,-1.9036865234375,-2.532501220703125
1695713676450431500,0.336431396484375,0.824432373046875,-1.238555908203125,-2.050933837890625
1695713676459983400,0.3459833984375,1.245574951171875,-0.7049560546875,-1.363067626953125
1695713676469504800,0.3555048828125,1.756591796875,-0.532379150390625,-0.673065185546875
1695713676479057000,0.365056884765625,2.334747314453125,-0.50018310546875,-0.10650634765625
1695713676488608800,0.37460888671875,2.82806396484375,-0.731201171875,0.302886962890625
1695713676498161000,0.384160888671875,3.06732177734375,-1.396636962890625,0.56854248046875
1695713676507712800,0.393712646484375,3.042755126953125,-2.313690185546875,0.730438232421875
1695713676517234400,0.403234375,2.937469482421875,-3.046112060546875,0.761566162109375
1695713676526786300,0.412786376953125,2.864990234375,-3.33038330078125,0.711822509765625
1695713676536338400,0.42233837890625,2.649383544921875,-2.9998779296875,0.62744140625
1695713676545890300,0.431890380859375,2.281036376953125,-2.265625,0.49224853515625
1695713676555412000,0.441411865234375,1.77337646484375,-1.43280029296875,0.325164794921875
1695713676564963800,0.4509638671875,1.202545166015625,-0.75775146484375,0.092010498046875
1695713676574516000,0.460515869140625,0.799713134765625,-0.593414306640625,-0.18646240234375
1695713676584067800,0.47006787109375,0.61004638671875,-0.80841064453125,-0.376434326171875
1695713676593620000,0.479619873046875,0.531768798828125,-1.06689453125,-0.346527099609375
1695713676603141400,0.489141357421875,0.54534912109375,-1.320343017578125,-0.016937255859375
1695713676612693200,0.498693359375,0.65185546875,-1.634674072265625,0.5987548828125
1695713676622245400,0.508245361328125,0.825042724609375,-2.123870849609375,1.425323486328125
1695713676631828000,0.517827880859375,0.94085693359375,-2.772979736328125,2.35443115234375
1695713676641379800,0.5273798828125,0.9075927734375,-3.174591064453125,3.15032958984375
1695713676650901200,0.5369013671875,0.6866455078125,-3.326416015625,3.50860595703125
1695713676660453400,0.546453369140625,0.21759033203125,-3.62945556640625,2.74749755859375
1695713676670005200,0.556005126953125,-0.266876220703125,-3.477020263671875,0.4931640625
1695713676679557400,0.565557373046875,-0.0152587890625,-2.345733642578125,-0.85968017578125
1695713676689078800,0.575078857421875,0.447540283203125,-1.47003173828125,-1.29364013671875
1695713676698631000,0.584630859375,0.72052001953125,-1.20330810546875,-1.398773193359375
1695713676708182800,0.594182861328125,0.92742919921875,-0.7452392578125,-1.079254150390625
1695713676717735000,0.60373486328125,0.896148681640625,0.023345947265625,-0.58624267578125
1695713676727286800,0.613286865234375,0.771026611328125,0.512847900390625,-0.292205810546875
1695713676736808400,0.622808349609375,0.849151611328125,0.562286376953125,-0.22552490234375
1695713676746360300,0.6323603515625,0.898590087890625,0.081634521484375,-0.1971435546875
1695713676755912400,0.641912353515625,0.9771728515625,-0.78216552734375,-0.16387939453125
1695713676765464300,0.65146435546875,1.150360107421875,-1.716766357421875,0.008697509765625
1695713676775016400,0.661016357421875,1.161956787109375,-1.994171142578125,0.301971435546875
1695713676784537900,0.670537841796875,1.05224609375,-1.50665283203125,0.390777587890625
1695713676794089700,0.68008984375,1.070556640625,-0.745849609375,0.23468017578125
1695713676803641900,0.689641845703125,1.188507080078125,-0.12176513671875,-0.103759765625
1695713676813193700,0.69919384765625,1.217193603515625,0.152435302734375,-0.391082763671875
1695713676822745900,0.708745849609375,1.177520751953125,-0.1031494140625,-0.44586181640625
1695713676832267300,0.718267333984375,1.163787841796875,-0.72357177734375,-0.268096923828125
1695713676841819400,0.7278193359375,1.183013916015625,-1.434326171875,0.043792724609375
1695713676851371300,0.737371337890625,1.234283447265625,-2.068328857421875,0.425872802734375
1695713676860923400,0.74692333984375,1.39801025390625,-2.5628662109375,0.84075927734375
1695713676870444800,0.75644482421875,1.71600341796875,-2.93701171875,1.26617431640625
1695713676879997000,0.765996826171875,2.190399169921875,-3.34869384765625,1.69036865234375
1695713676889548800,0.775548828125,2.83416748046875,-3.820648193359375,2.135467529296875
1695713676899101000,0.785100830078125,3.5601806640625,-4.172515869140625,2.63397216796875
1695713676908652800,0.79465283203125,4.19158935546875,-4.32769775390625,3.13629150390625
1695713676918205000,0.804204833984375,4.688873291015625,-4.31640625,3.513641357421875
1695713676927756800,0.8137568359375,5.23162841796875,-4.246368408203125,3.701171875
1695713676937309000,0.823308837890625,5.473785400390625,-4.0362548828125,3.787841796875
1695713676946860800,0.83286083984375,5.472564697265625,-3.819732666015625,3.7054443359375
1695713676956413000,0.842412841796875,5.322265625,-3.56903076171875,3.590850830078125
1695713676965934300,0.851934326171875,5.068511962890625,-3.383026123046875,3.508453369140625
1695713676975486200,0.861486328125,4.741668701171875,-3.373870849609375,3.4442138671875
1695713676985038300,0.871038330078125,4.444122314453125,-3.436431884765625,3.47320556640625
1695713676994590200,0.880590087890625,4.2791748046875,-3.470611572265625,3.597564697265625
1695713677004142300,0.890142333984375,4.15496826171875,-3.421783447265625,3.73077392578125
1695713677013663700,0.899663818359375,4.013214111328125,-3.24188232421875,3.81591796875
1695713677023215900,0.9092158203125,3.88397216796875,-3.042449951171875,3.8409423828125
1695713677032767700,0.918767822265625,3.753204345703125,-2.8485107421875,3.829345703125
1695713677042320000,0.92831982421875,3.583984375,-2.697906494140625,3.80950927734375
1695713677051841300,0.93784130859375,3.384552001953125,-2.64556884765625,3.7640380859375
1695713677061393400,0.947393310546875,3.13934326171875,-2.5537109375,3.650054931640625
1695713677070945300,0.9569453125,2.83203125,-2.402191162109375,3.503570556640625
1695713677080497400,0.966497314453125,2.4615478515625,-2.330474853515625,3.42864990234375
1695713677090049300,0.97604931640625,2.02728271484375,-2.27203369140625,3.47198486328125
1695713677099570700,0.98557080078125,1.542205810546875,-2.095794677734375,3.635711669921875
1695713677109122800,0.995122802734375,1.0699462890625,-1.717376708984375,3.84307861328125
1695713677118674700,1.0046748046875,0.796661376953125,-1.40594482421875,4.009552001953125
1695713677128226800,1.014226806640625,0.731964111328125,-1.314239501953125,4.1949462890625
1695713677137778700,1.02377880859375,0.5889892578125,-1.52740478515625,4.4598388671875
1695713677147300400,1.03330029296875,0.417022705078125,-2.12646484375,4.86358642578125
1695713677156852200,1.042852294921875,0.135345458984375,-2.90252685546875,5.345611572265625
1695713677166404400,1.052404296875,-0.167388916015625,-3.55804443359375,5.467681884765625
1695713677175956200,1.061956298828125,-0.288848876953125,-4.510650634765625,4.5355224609375
1695713677185477600,1.0714775390625,0.0018310546875,-5.47149658203125,1.99859619140625
1695713677195029800,1.08102978515625,0.9002685546875,-3.771820068359375,0.037994384765625
1695713677204612400,1.0906123046875,1.71051025390625,-0.654144287109375,-0.363922119140625
1695713677214164200,1.100164306640625,2.175445556640625,1.36138916015625,-0.259246826171875
1695713677223716400,1.10971630859375,2.1002197265625,1.67938232421875,-0.16204833984375
1695713677233237800,1.11923779296875,1.504364013671875,0.97412109375,-0.08575439453125
1695713677242790000,1.128789794921875,0.90423583984375,0.0054931640625,0.066375732421875
1695713677252341800,1.138341796875,0.66009521484375,-0.662689208984375,0.387420654296875
1695713677261894000,1.147893798828125,0.66680908203125,-0.848388671875,0.768890380859375
1695713677271445800,1.15744580078125,0.726318359375,-0.728759765625,1.035919189453125
1695713677280967200,1.16696728515625,0.774688720703125,-0.69671630859375,1.077117919921875
1695713677290519300,1.176519287109375,0.777435302734375,-0.881500244140625,0.98876953125
1695713677300071200,1.1860712890625,0.812530517578125,-1.2255859375,0.90423583984375
1695713677309623300,1.195623291015625,0.96466064453125,-1.50421142578125,0.84228515625
1695713677319144700,1.205144775390625,1.233978271484375,-1.5582275390625,0.767059326171875
1695713677328696800,1.21469677734375,1.489105224609375,-1.268157958984375,0.64178466796875
1695713677338248700,1.224248779296875,1.75384521484375,-0.81756591796875,0.49560546875
1695713677347800800,1.23380078125,2.10784912109375,-0.46356201171875,0.362701416015625
1695713677357352700,1.243352783203125,2.4517822265625,-0.37078857421875,0.294952392578125
1695713677366874400,1.252874267578125,2.7056884765625,-0.48858642578125,0.260009765625
1695713677376426200,1.26242626953125,2.899017333984375,-0.641937255859375,0.23284912109375
1695713677385978400,1.271978271484375,3.10546875,-0.74188232421875,0.185546875
1695713677395530200,1.2815302734375,3.366851806640625,-0.77423095703125,0.14617919921875
1695713677405082400,1.291082275390625,3.634796142578125,-0.79193115234375,0.11749267578125
1695713677414603800,1.300603759765625,3.84033203125,-0.80841064453125,0.15350341796875
1695713677424155600,1.31015576171875,4.008636474609375,-0.82000732421875,0.28106689453125
1695713677433707800,1.319707763671875,4.15435791015625,-0.86883544921875,0.442047119140625
1695713677443259600,1.329259765625,4.081573486328125,-1.004791259765625,0.5413818359375
1695713677452811800,1.338811767578125,3.8031005859375,-1.20880126953125,0.56884765625
1695713677462333200,1.348333251953125,3.52996826171875,-1.385345458984375,0.56121826171875
1695713677471915800,1.357915771484375,3.310699462890625,-1.4459228515625,0.49896240234375
1695713677481528800,1.36752880859375,3.238677978515625,-1.20758056640625,0.402679443359375
1695713677491142000,1.377141845703125,3.330535888671875,-0.77606201171875,0.2410888671875
1695713677500755000,1.3867548828125,3.426513671875,-0.42877197265625,0.075225830078125
1695713677510368000,1.396367919921875,3.50738525390625,-0.0262451171875,-0.08270263671875
1695713677519981000,1.40598095703125,3.612823486328125,0.388031005859375,-0.257110595703125
1695713677529593900,1.41559375,3.734283447265625,0.640869140625,-0.4644775390625
1695713677539237600,1.425237548828125,3.84124755859375,0.68206787109375,-0.634918212890625
1695713677557761800,1.44376171875,3.964691162109375,-0.279083251953125,-0.718231201171875
1695713677567344000,1.45334423828125,4.114837646484375,-0.75927734375,-0.8343505859375
1695713677576926700,1.4629267578125,4.23553466796875,-0.693359375,-1.121063232421875
1695713677586478800,1.472478759765625,4.337005615234375,-0.258941650390625,-1.397552490234375
1695713677596000300,1.482000244140625,4.475250244140625,0.283203125,-1.5216064453125
1695713677605552000,1.49155224609375,4.65179443359375,0.94482421875,-1.572265625
1695713677615104300,1.501104248046875,4.855194091796875,1.69464111328125,-1.6583251953125
1695713677624656100,1.51065625,5.056610107421875,2.237091064453125,-1.716156005859375
1695713677634208300,1.520208251953125,5.114898681640625,1.72332763671875,-1.56402587890625
1695713677643729700,1.529729736328125,5.03173828125,0.058441162109375,-1.16973876953125
1695713677653281800,1.53928173828125,4.88494873046875,-1.09130859375,-0.959930419921875
1695713677662833700,1.548833740234375,4.703521728515625,-1.138916015625,-1.072235107421875
1695713677672385800,1.5583857421875,4.410247802734375,-0.638275146484375,-1.428985595703125
1695713677681907200,1.5679072265625,3.84765625,-0.612335205078125,-1.477813720703125
1695713677691459300,1.577459228515625,3.317718505859375,0.172576904296875,-1.484527587890625
1695713677701011200,1.58701123046875,2.80059814453125,1.840057373046875,-1.749725341796875
1695713677710563300,1.596563232421875,2.12982177734375,4.038543701171875,-2.532501220703125
1695713677720115200,1.606115234375,1.898956298828125,4.395904541015625,-2.26165771484375
1695713677729636600,1.61563671875,1.75994873046875,4.90936279296875,-1.95404052734375
1695713677739188700,1.625188720703125,1.542510986328125,5.39581298828125,-1.450347900390625
1695713677748740600,1.63474072265625,0.90087890625,4.91973876953125,-0.671234130859375
1695713677758292700,1.644292724609375,0.26092529296875,4.53338623046875,0.008697509765625
1695713677767844600,1.6538447265625,0.2044677734375,4.927978515625,0.654144287109375
1695713677777396700,1.663396728515625,0.127716064453125,5.33111572265625,0.91705322265625
1695713677786948600,1.672948486328125,-0.211639404296875,5.04913330078125,0.8770751953125
1695713677796500700,1.682500732421875,-0.622406005859375,3.85345458984375,0.418548583984375
1695713677806052600,1.692052490234375,-1.364288330078125,2.280731201171875,0.033416748046875
1695713677815574300,1.70157421875,-2.5823974609375,1.02630615234375,0.1123046875
1695713677825126100,1.711126220703125,-3.184356689453125,0.68389892578125,0.5218505859375
1695713677834678300,1.72067822265625,-2.091827392578125,0.99639892578125,0.92193603515625
1695713677844230100,1.730230224609375,-0.78460693359375,0.874481201171875,1.047515869140625
1695713677853782300,1.7397822265625,-0.04547119140625,0.494842529296875,0.85693359375
1695713677863303700,1.7493037109375,0.2978515625,0.138397216796875,0.48095703125
1695713677872855800,1.758855712890625,0.474090576171875,0.045623779296875,0.064239501953125
1695713677882407700,1.76840771484375,0.526885986328125,0.313720703125,-0.301055908203125
1695713677891959800,1.777959716796875,0.413360595703125,0.784149169921875,-0.53192138671875
1695713677901511700,1.78751171875,0.26702880859375,0.850982666015625,-0.636749267578125
1695713677911033000,1.797033203125,0.153656005859375,0.532073974609375,-0.629425048828125
1695713677920585200,1.806585205078125,0.070343017578125,0.169219970703125,-0.5010986328125
1695713677930137000,1.81613720703125,0.009918212890625,-0.06439208984375,-0.291290283203125
1695713677939689200,1.825689208984375,-0.0299072265625,-0.137176513671875,-0.058746337890625
1695713677949241000,1.835240966796875,-0.035400390625,-0.09002685546875,0.14984130859375
1695713677958762800,1.8447626953125,0.023040771484375,-0.042724609375,0.308380126953125
1695713677968314600,1.854314697265625,0.133514404296875,-0.0689697265625,0.398406982421875
1695713677977866800,1.86386669921875,0.1959228515625,-0.07476806640625,0.428009033203125
1695713677987418600,1.873418701171875,0.2874755859375,-0.152435302734375,0.386199951171875
1695713677996940300,1.882940185546875,0.32958984375,-0.194854736328125,0.279693603515625
1695713678006492200,1.8924921875,0.402069091796875,-0.276031494140625,0.096435546875
1695713678016044300,1.902044189453125,0.521392822265625,-0.39093017578125,-0.167236328125
1695713678025596200,1.91159619140625,0.6158447265625,-0.41107177734375,-0.5108642578125
1695713678035148300,1.921148193359375,0.491485595703125,0.060882568359375,-0.702972412109375
1695713678044669700,1.930669677734375,0.30548095703125,0.444488525390625,-0.766143798828125
1695713678054221600,1.9402216796875,0.19561767578125,0.2197265625,-0.9429931640625
1695713678063804200,1.94980419921875,0.144195556640625,-0.39276123046875,-1.3311767578125
1695713678073356300,1.959356201171875,-0.05035400390625,-0.4022216796875,-1.371612548828125
1695713678082908200,1.968908203125,-0.0933837890625,-0.3265380859375,-1.31378173828125
1695713678092429600,1.9784296875,-0.01983642578125,-0.182952880859375,-1.077117919921875
1695713678101981700,1.987981689453125,-0.0048828125,0.077362060546875,-0.729522705078125
1695713678111533600,1.997533447265625,-0.015869140625,0.3546142578125,-0.345001220703125
1695713678121085700,2.007085693359375,-0.0653076171875,0.542755126953125,0.033721923828125
1695713678130637600,2.016637451171875,-0.1263427734375,0.6072998046875,0.383758544921875
1695713678140159200,2.0261591796875,-0.162200927734375,0.545501708984375,0.709075927734375
1695713678149711000,2.035711181640625,-0.177459716796875,0.396881103515625,1.012420654296875
1695713678159263200,2.04526318359375,-0.215301513671875,0.142669677734375,1.26953125
1695713678168815000,2.054815185546875,-0.272674560546875,-0.299530029296875,1.457672119140625
1695713678178336800,2.064336669921875,-0.315093994140625,-1.14105224609375,1.53289794921875
1695713678187888600,2.073888671875,-0.283355712890625,-2.1673583984375,1.25762939453125
1695713678197440800,2.083440673828125,-0.0848388671875,-2.5787353515625,0.410614013671875
1695713678206992600,2.09299267578125,0.2484130859375,-1.667633056640625,-0.53466796875
1695713678216544800,2.102544677734375,0.59539794921875,-0.32684326171875,-1.047821044921875
1695713678226066200,2.112066162109375,0.799407958984375,-0.183258056640625,-0.614776611328125
1695713678235618000,2.1216181640625,0.740814208984375,-1.243743896484375,0.56121826171875
1695713678245170200,2.131170166015625,0.487518310546875,-2.53204345703125,1.517181396484375
1695713678254722000,2.14072216796875,0.059051513671875,-2.786102294921875,1.810760498046875
1695713678264274200,2.150274169921875,-0.35888671875,-1.861572265625,1.610107421875
1695713678273795600,2.159795654296875,-0.652008056640625,-0.4010009765625,1.180419921875
1695713678283347700,2.16934765625,-0.8282470703125,0.72723388671875,0.93048095703125
1695713678292899600,2.178899658203125,-0.8270263671875,0.71044921875,0.94085693359375
1695713678302451700,2.18845166015625,-0.634918212890625,-0.40985107421875,1.160736083984375
1695713678311973000,2.19797314453125,-0.277557373046875,-1.614532470703125,1.442718505859375
1695713678321525200,2.207525146484375,0.129852294921875,-1.975555419921875,1.5789794921875
1695713678331077000,2.2170771484375,0.472869873046875,-1.581878662109375,1.470489501953125
1695713678340629200,2.226629150390625,0.530548095703125,-0.879058837890625,1.2493896484375
1695713678350211600,2.236211669921875,0.313720703125,-0.211639404296875,1.056060791015625
1695713678359733200,2.245733154296875,-0.015869140625,0.242919921875,0.94329833984375
1695713678369285000,2.25528515625,-0.312957763671875,0.32257080078125,0.90667724609375
1695713678378837200,2.264837158203125,-0.478515625,0.065765380859375,0.950927734375
1695713678388389000,2.27438916015625,-0.531158447265625,-0.559539794921875,0.982666015625
1695713678397941200,2.283941162109375,-0.4742431640625,-1.254730224609375,1.0015869140625
1695713678407462700,2.293462646484375,-0.302581787109375,-1.684417724609375,1.042327880859375
1695713678417014500,2.3030146484375,-0.09735107421875,-1.633148193359375,1.088714599609375
1695713678426566700,2.312566650390625,0.076446533203125,-1.224517822265625,1.054840087890625
1695713678436118500,2.322118408203125,0.18707275390625,-0.70281982421875,0.96527099609375
1695713678445670700,2.331670654296875,0.147857666015625,-0.288543701171875,0.892333984375
1695713678455192000,2.341192138671875,0.030059814453125,-0.09490966796875,0.87127685546875
1695713678464744200,2.350744140625,-0.0604248046875,-0.10955810546875,0.89141845703125
1695713678474296000,2.360296142578125,-0.068359375,-0.186920166015625,0.95184326171875
1695713678483848200,2.36984814453125,-0.06988525390625,-0.274200439453125,1.015167236328125
1695713678493369600,2.37936962890625,-0.05950927734375,-0.37689208984375,1.049346923828125
1695713678502921700,2.388921630859375,-0.035400390625,-0.43670654296875,1.080474853515625
1695713678512473600,2.3984736328125,-0.0146484375,-0.4437255859375,1.121368408203125
1695713678522025700,2.408025634765625,-0.00762939453125,-0.44647216796875,1.143646240234375
1695713678531577600,2.41757763671875,-0.02532958984375,-0.45654296875,1.139373779296875
1695713678541099000,2.42709912109375,-0.05462646484375,-0.4638671875,1.111907958984375
1695713678550651100,2.436651123046875,-0.08941650390625,-0.48309326171875,1.066436767578125
1695713678560203000,2.446203125,-0.12664794921875,-0.520477294921875,1.015777587890625
1695713678569755100,2.455755126953125,-0.187835693359375,-0.559234619140625,0.9771728515625
1695713678579307000,2.46530712890625,-0.253448486328125,-0.598602294921875,0.94818115234375
1695713678588828700,2.47482861328125,-0.307464599609375,-0.665130615234375,0.91644287109375
1695713678598380500,2.484380615234375,-0.36346435546875,-0.74005126953125,0.872802734375
1695713678607932700,2.4939326171875,-0.40740966796875,-0.7781982421875,0.806121826171875
1695713678617484500,2.503484619140625,-0.406494140625,-0.7928466796875,0.742340087890625
1695713678627036700,2.51303662109375,-0.3857421875,-0.80810546875,0.670318603515625
1695713678636588500,2.522588623046875,-0.3497314453125,-0.838623046875,0.58074951171875
1695713678646140700,2.532140625,-0.306243896484375,-0.866546630859375,0.4779052734375
1695713678655692500,2.541692626953125,-0.269012451171875,-0.891265869140625,0.377349853515625
1695713678665244700,2.55124462890625,-0.261688232421875,-0.881195068359375,0.27679443359375
1695713678674766000,2.56076611328125,-0.263214111328125,-0.80963134765625,0.1837158203125
1695713678684318200,2.570318115234375,-0.276336669921875,-0.7159423828125,0.100555419921875
1695713678693870000,2.5798701171875,-0.317230224609375,-0.652923583984375,0.029144287109375
1695713678703422200,2.589422119140625,-0.4296875,-0.648040771484375,-0.054473876953125
1695713678712974000,2.59897412109375,-0.538482666015625,-0.634918212890625,-0.159912109375
1695713678722495500,2.60849560546875,-0.572967529296875,-0.531768798828125,-0.258636474609375
1695713678732047600,2.618047607421875,-0.51910400390625,-0.32928466796875,-0.334625244140625
1695713678741599500,2.627599609375,-0.4095458984375,-0.145721435546875,-0.408782958984375
1695713678751151600,2.637151611328125,-0.254364013671875,-0.07080078125,-0.5133056640625
1695713678760703500,2.646703369140625,-0.07232666015625,-0.02227783203125,-0.645294189453125
1695713678770225200,2.65622509765625,0.063323974609375,0.151214599609375,-0.78399658203125
1695713678779777000,2.665777099609375,0.119171142578125,0.481719970703125,-0.92681884765625
1695713678789329200,2.6753291015625,0.181732177734375,0.872344970703125,-1.084747314453125
1695713678798881000,2.684881103515625,0.25177001953125,1.208343505859375,-1.2945556640625
1695713678808402700,2.694402587890625,0.260009765625,1.431884765625,-1.572265625
1695713678817954600,2.70395458984375,0.2618408203125,1.510772705078125,-1.94549560546875
1695713678827506700,2.713506591796875,0.27618408203125,1.42303466796875,-2.416839599609375
1695713678837058600,2.72305859375,0.32318115234375,1.139678955078125,-2.906951904296875
1695713678846610700,2.732610595703125,0.364532470703125,0.71044921875,-3.281402587890625
1695713678856132000,2.742132080078125,0.409393310546875,0.2410888671875,-3.4637451171875
1695713678865684000,2.75168408203125,0.430450439453125,-0.11138916015625,-3.42987060546875
1695713678875236000,2.761236083984375,0.410614013671875,-0.236663818359375,-3.267059326171875
1695713678884788000,2.7707880859375,0.377349853515625,-0.09674072265625,-3.07708740234375
1695713678894340000,2.780340087890625,0.388336181640625,0.25604248046875,-2.879791259765625
1695713678903861500,2.789861572265625,0.383758544921875,0.34576416015625,-2.799835205078125
1695713678913413600,2.79941357421875,0.30120849609375,0.180511474609375,-2.812347412109375
1695713678922996000,2.808995849609375,0.18218994140625,0.410003662109375,-2.615966796875
1695713678932548000,2.818548095703125,0.079498291015625,1.02783203125,-2.25860595703125
1695713678942069500,2.828069580078125,0.041961669921875,1.746826171875,-1.94366455078125
1695713678951621600,2.83762158203125,0.052947998046875,2.37823486328125,-1.780548095703125
1695713678961173500,2.847173583984375,0.088043212890625,2.562408447265625,-1.90185546875
1695713678970725600,2.8567255859375,0.100250244140625,2.356414794921875,-2.194671630859375
1695713678980277500,2.866277587890625,0.068817138671875,2.06512451171875,-2.3126220703125
1695713678989799200,2.875799072265625,0.037994384765625,1.75537109375,-2.188568115234375
1695713678999351000,2.88535107421875,0.067901611328125,1.484527587890625,-1.95709228515625
1695713679008903200,2.894903076171875,0.155792236328125,1.336669921875,-1.708221435546875
1695713679018455000,2.904455078125,0.2752685546875,1.31072998046875,-1.483612060546875
1695713679028007200,2.914007080078125,0.383453369140625,1.34368896484375,-1.292724609375
1695713679037528600,2.923528564453125,0.465545654296875,1.41632080078125,-1.135406494140625
1695713679047080400,2.93308056640625,0.516510009765625,1.491546630859375,-0.997772216796875
1695713679056632600,2.942632568359375,0.528717041015625,1.543426513671875,-0.87738037109375
1695713679066184400,2.952184326171875,0.523834228515625,1.592864990234375,-0.753936767578125
1695713679075736600,2.961736572265625,0.512542724609375,1.601715087890625,-0.625152587890625
1695713679085258000,2.971258056640625,0.489654541015625,1.528778076171875,-0.49468994140625
1695713679094810000,2.98081005859375,0.451507568359375,1.38336181640625,-0.366973876953125
1695713679104362000,2.990362060546875,0.397186279296875,1.194915771484375,-0.21942138671875
1695713679113914000,2.9999140625,0.3436279296875,0.9490966796875,-0.028839111328125
1695713679123435500,3.009435546875,0.3125,0.6585693359375,0.2130126953125
1695713679132987600,3.018987548828125,0.31280517578125,0.35491943359375,0.5029296875
1695713679142539500,3.02853955078125,0.34576416015625,0.100250244140625,0.826416015625
1695713679152091600,3.038091552734375,0.400848388671875,-0.08148193359375,1.154632568359375
1695713679161643500,3.0476435546875,0.460052490234375,-0.202789306640625,1.467132568359375
1695713679171165000,3.0571650390625,0.529022216796875,-0.275421142578125,1.746063232421875
1695713679180717000,3.066717041015625,0.6134033203125,-0.309906005859375,1.96624755859375
1695713679190269000,3.07626904296875,0.70159912109375,-0.279388427734375,2.07122802734375
1695713679199821000,3.085821044921875,0.788116455078125,-0.10345458984375,1.98028564453125
1695713679209373000,3.095373046875,0.841522216796875,0.233154296875,1.639404296875
1695713679218925000,3.104925048828125,0.845794677734375,0.66802978515625,1.083831787109375
1695713679228477000,3.114476806640625,0.797576904296875,1.207122802734375,0.417022705078125
1695713679238029000,3.124029052734375,0.70343017578125,1.74591064453125,-0.369720458984375
1695713679247581000,3.133580810546875,0.6597900390625,1.824188232421875,-1.038970947265625
1695713679257133000,3.143133056640625,0.68878173828125,1.1004638671875,-1.29547119140625
1695713679266654500,3.152654541015625,0.737152099609375,-0.02716064453125,-1.180419921875
1695713679276206600,3.16220654296875,0.6854248046875,-0.69122314453125,-0.919189453125
1695713679285758500,3.171758544921875,0.458831787109375,-0.518341064453125,-0.654754638671875
1695713679295310600,3.181310546875,0.182037353515625,-0.08209228515625,-0.433502197265625
1695713679304832000,3.19083203125,0.011138916015625,0.31341552734375,-0.21026611328125
1695713679314384100,3.200384033203125,0.0042724609375,0.73944091796875,0.027618408203125
1695713679323936000,3.20993603515625,-0.0384521484375,0.99517822265625,0.417327880859375
1695713679333488000,3.219488037109375,-0.227813720703125,0.9637451171875,1.013031005859375
1695713679343040000,3.2290400390625,-0.44464111328125,0.195465087890625,1.745452880859375
1695713679352561400,3.2385615234375,-0.616912841796875,-1.5155029296875,1.61376953125
1695713679362113500,3.248113525390625,-0.49774169921875,-2.53814697265625,0.275115966796875
1695713679371665400,3.25766552734375,-0.10772705078125,-0.665435791015625,-0.975341796875
1695713679381217500,3.267217529296875,0.418853759765625,0.387725830078125,-0.724945068359375
1695713679390769400,3.276769287109375,0.68634033203125,-1.14105224609375,0.53253173828125
1695713679400291000,3.286291015625,0.534515380859375,-2.12646484375,1.6278076171875
1695713679409843000,3.295843017578125,0.085906982421875,-1.594390869140625,1.89056396484375
1695713679419395000,3.30539501953125,-0.3466796875,-0.214996337890625,1.382904052734375
1695713679428947000,3.314947021484375,-0.678863525390625,0.434112548828125,0.8807373046875
1695713679438468600,3.324468505859375,-0.85540771484375,-0.224151611328125,1.065826416015625
1695713679448020500,3.3340205078125,-0.905609130859375,-1.349029541015625,1.5936279296875
1695713679457572600,3.343572509765625,-0.81817626953125,-2.169189453125,2.101287841796875
1695713679467124500,3.35312451171875,-0.4583740234375,-2.433929443359375,2.327880859375
1695713679476676600,3.362676513671875,0.048980712890625,-1.951446533203125,2.142486572265625
1695713679486198000,3.372197998046875,0.461273193359375,-1.12030029296875,1.690673828125
1695713679495780600,3.381780517578125,0.61798095703125,-0.678558349609375,1.33392333984375
1695713679505332500,3.39133251953125,0.532073974609375,-0.606231689453125,1.20391845703125
1695713679514884600,3.400884521484375,0.33721923828125,-0.71197509765625,1.24298095703125
1695713679524436500,3.4104365234375,0.126495361328125,-0.959320068359375,1.346588134765625
1695713679533958000,3.4199580078125,-0.0555419921875,-1.302337646484375,1.428070068359375
1695713679543510000,3.429510009765625,-0.168609619140625,-1.572723388671875,1.480560302734375
1695713679553062000,3.439061767578125,-0.188751220703125,-1.622772216796875,1.498870849609375
1695713679562614000,3.448614013671875,-0.10772705078125,-1.46820068359375,1.459503173828125
1695713679572166000,3.458165771484375,0.006561279296875,-1.288604736328125,1.364898681640625
1695713679581687600,3.4676875,0.055389404296875,-1.16424560546875,1.2652587890625
1695713679591239400,3.477239501953125,0.0018310546875,-1.1376953125,1.19354248046875
1695713679600791600,3.48679150390625,-0.10772705078125,-1.1126708984375,1.143951416015625
1695713679610343400,3.496343505859375,-0.213165283203125,-1.094970703125,1.094512939453125
1695713679619865000,3.505864990234375,-0.267486572265625,-1.109619140625,1.037139892578125
1695713679629417000,3.5154169921875,-0.279998779296875,-1.09039306640625,0.997161865234375
1695713679638969000,3.524968994140625,-0.264739990234375,-1.017303466796875,0.991058349609375
1695713679648521000,3.53452099609375,-0.238800048828125,-0.907440185546875,1.027984619140625
1695713679658073000,3.544072998046875,-0.225372314453125,-0.81268310546875,1.085052490234375
1695713679667594500,3.553594482421875,-0.237579345703125,-0.7373046875,1.137542724609375
1695713679677146400,3.563146484375,-0.272674560546875,-0.67657470703125,1.1737060546875
1695713679686698500,3.572698486328125,-0.325469970703125,-0.636138916015625,1.20391845703125
1695713679696250400,3.58225048828125,-0.37933349609375,-0.604705810546875,1.2432861328125
1695713679705802500,3.591802490234375,-0.418701171875,-0.613555908203125,1.280517578125
1695713679715324000,3.601323974609375,-0.43914794921875,-0.663604736328125,1.29241943359375
1695713679724876000,3.6108759765625,-0.45074462890625,-0.73150634765625,1.253662109375
1695713679734428000,3.620427978515625,-0.46630859375,-0.7476806640625,1.147613525390625
1695713679743980000,3.62997998046875,-0.47515869140625,-0.70220947265625,0.9893798828125
1695713679753532000,3.639531982421875,-0.477294921875,-0.69915771484375,0.807342529296875
1695713679763053600,3.649053466796875,-0.47515869140625,-0.7537841796875,0.6378173828125
1695713679772605400,3.65860546875,-0.43914794921875,-0.84625244140625,0.47821044921875
1695713679782188000,3.66818798828125,-0.3692626953125,-0.84869384765625,0.363616943359375
1695713679791740000,3.677739990234375,-0.296173095703125,-0.69091796875,0.299835205078125
1695713679801261600,3.687261474609375,-0.247650146484375,-0.514678955078125,0.2490234375
1695713679810813400,3.6968134765625,-0.235748291015625,-0.48065185546875,0.1690673828125
1695713679820365600,3.706365478515625,-0.260162353515625,-0.560150146484375,0.058746337890625
1695713679829917400,3.71591748046875,-0.294952392578125,-0.646209716796875,-0.07110595703125
1695713679839469600,3.725469482421875,-0.34637451171875,-0.667266845703125,-0.18829345703125
1695713679848991000,3.734990966796875,-0.338897705078125,-0.669708251953125,-0.296478271484375
1695713679858542800,3.74454296875,-0.262603759765625,-0.6890869140625,-0.41656494140625
1695713679868095000,3.754094970703125,-0.162200927734375,-0.643463134765625,-0.54290771484375
1695713679877646800,3.763646728515625,-0.040283203125,-0.4742431640625,-0.689544677734375
1695713679887199000,3.773198974609375,0.079498291015625,-0.175018310546875,-0.83099365234375
1695713679896720400,3.782720458984375,0.126190185546875,0.190277099609375,-0.973968505859375
1695713679906272500,3.7922724609375,0.139312744140625,0.61370849609375,-1.15753173828125
1695713679915824400,3.801824462890625,0.172576904296875,1.03240966796875,-1.411590576171875
1695713679925376500,3.81137646484375,0.24200439453125,1.2994384765625,-1.714935302734375
1695713679934898000,3.82089794921875,0.3265380859375,1.36199951171875,-2.032623291015625
1695713679944450000,3.830449951171875,0.380401611328125,1.267547607421875,-2.390594482421875
1695713679954002000,3.840001953125,0.368804931640625,1.0565185546875,-2.841644287109375
1695713679963554000,3.849553955078125,0.3240966796875,0.6634521484375,-3.2904052734375
1695713679973106000,3.85910595703125,0.2630615234375,0.203399658203125,-3.548126220703125
1695713679982627300,3.86862744140625,0.20599365234375,-0.13214111328125,-3.549652099609375
1695713679992179500,3.878179443359375,0.183868408203125,-0.341796875,-3.4234619140625
1695713680001731300,3.8877314453125,0.166168212890625,-0.35858154296875,-3.239593505859375
1695713680011283500,3.897283447265625,0.153961181640625,-0.276641845703125,-3.038330078125
1695713680020835300,3.90683544921875,0.158538818359375,-0.40008544921875,-2.901763916015625
1695713680030357000,3.91635693359375,0.149078369140625,-0.568389892578125,-2.823944091796875
1695713680039908900,3.925908935546875,0.085601806640625,-0.136871337890625,-2.531280517578125
1695713680049461000,3.9354609375,0.019073486328125,0.772857666015625,-2.100067138671875
1695713680059012900,3.945012939453125,0.005645751953125,1.830902099609375,-1.758270263671875
1695713680068565000,3.95456494140625,0.066375732421875,2.668304443359375,-1.703033447265625
1695713680078116900,3.964116943359375,0.090789794921875,2.83233642578125,-2.079620361328125
1695713680087669000,3.9736689453125,0.047760009765625,2.617340087890625,-2.437896728515625
1695713680097220900,3.983220947265625,-0.028076171875,2.41546630859375,-2.478790283203125
1695713680106773000,3.99277294921875,-0.06683349609375,2.181396484375,-2.3443603515625
1695713680116294400,4.00229443359375,-0.02105712890625,1.906280517578125,-2.160491943359375
1695713680125846500,4.011846435546875,0.079803466796875,1.6815185546875,-1.93359375
1695713680135398400,4.0213984375,0.194091796875,1.512908935546875,-1.695709228515625
1695713680144950500,4.030950439453125,0.31829833984375,1.368408203125,-1.465301513671875
1695713680154502400,4.04050244140625,0.421905517578125,1.243743896484375,-1.27166748046875
1695713680164023800,4.05002392578125,0.499420166015625,1.208953857421875,-1.096038818359375
1695713680173576000,4.059575927734375,0.540008544921875,1.254730224609375,-0.93292236328125
1695713680183127800,4.0691279296875,0.565185546875,1.33575439453125,-0.77392578125
1695713680192680000,4.078679931640625,0.58135986328125,1.41082763671875,-0.614776611328125
1695713680202231800,4.088231689453125,0.5804443359375,1.4105224609375,-0.4718017578125
1695713680211753500,4.09775341796875,0.56640625,1.3372802734375,-0.332794189453125
1695713680221305300,4.107305419921875,0.540313720703125,1.194610595703125,-0.17791748046875
1695713680230857500,4.116857421875,0.520477294921875,1.0101318359375,0.008697509765625
1695713680240409300,4.126409423828125,0.512237548828125,0.792083740234375,0.2392578125
1695713680249931000,4.135930908203125,0.516815185546875,0.551910400390625,0.5181884765625
1695713680259483000,4.14548291015625,0.523223876953125,0.2947998046875,0.82855224609375
1695713680269035000,4.155034912109375,0.537872314453125,0.040740966796875,1.157684326171875
1695713680278587000,4.1645869140625,0.55145263671875,-0.190277099609375,1.493988037109375
1695713680288139000,4.174138916015625,0.5706787109375,-0.3839111328125,1.825714111328125
1695713680297660400,4.183660400390625,0.60882568359375,-0.533599853515625,2.125701904296875
1695713680307212300,4.19321240234375,0.65338134765625,-0.611114501953125,2.3370361328125
1695713680316764400,4.202764404296875,0.68817138671875,-0.529327392578125,2.3504638671875
1695713680326316300,4.21231640625,0.70098876953125,-0.220794677734375,2.077178955078125
1695713680335868400,4.221868408203125,0.675048828125,0.206146240234375,1.5380859375
1695713680345389800,4.231389892578125,0.596923828125,0.746307373046875,0.786285400390625
1695713680354972400,4.240972412109375,0.452728271484375,1.39617919921875,-0.301971435546875
1695713680364524300,4.250524169921875,0.31494140625,1.7236328125,-1.384429931640625
1695713680374076400,4.260076416015625,0.3387451171875,0.873870849609375,-1.748809814453125
1695713680383628300,4.269628173828125,0.497283935546875,-0.572357177734375,-1.54083251953125
1695713680393150000,4.27914990234375,0.6005859375,-1.15142822265625,-1.21307373046875
1695713680402701800,4.288701904296875,0.391693115234375,-0.80413818359375,-0.89263916015625
1695713680412254000,4.29825390625,0.065765380859375,-0.266265869140625,-0.59967041015625
1695713680421805800,4.307805908203125,-0.0604248046875,0.26611328125,-0.295867919921875
1695713680431327500,4.317327392578125,-0.0006103515625,0.871429443359375,0.1446533203125
1695713680440879400,4.32687939453125,0.010223388671875,1.46484375,0.757904052734375
1695713680450431500,4.336431396484375,-0.1202392578125,1.462249755859375,1.6162109375
1695713680459983400,4.3459833984375,-0.259552001953125,0.034332275390625,2.472686767578125
1695713680469535500,4.355535400390625,-0.360107421875,-2.99957275390625,2.34466552734375
1695713680479057000,4.365056884765625,-0.4498291015625,-4.872283935546875,0.8489990234375
1695713680488608800,4.37460888671875,-0.71807861328125,-1.653289794921875,-1.144561767578125
1695713680498161000,4.384160888671875,-0.224456787109375,1.502532958984375,-1.29425048828125
1695713680507712800,4.393712646484375,0.540618896484375,0.023193359375,0.16845703125
1695713680517265000,4.403264892578125,0.740814208984375,-1.721954345703125,1.6204833984375
1695713680526786300,4.412786376953125,0.487213134765625,-1.600494384765625,2.166290283203125
1695713680536338400,4.42233837890625,0.077056884765625,-0.37689208984375,1.634521484375
1695713680545890300,4.431890380859375,-0.37109375,0.32623291015625,0.790863037109375
1695713680555442400,4.4414423828125,-0.75347900390625,-0.542755126953125,0.88226318359375
1695713680564963800,4.4509638671875,-0.988311767578125,-1.681976318359375,1.462249755859375
1695713680574516000,4.460515869140625,-1.050872802734375,-2.48626708984375,2.05841064453125
1695713680584067800,4.47006787109375,-0.79437255859375,-2.93304443359375,2.42095947265625
1695713680593620000,4.479619873046875,-0.268402099609375,-2.751617431640625,2.32452392578125
1695713680603171800,4.489171875,0.2496337890625,-1.7755126953125,1.796722412109375
1695713680612693200,4.498693359375,0.55877685546875,-0.8306884765625,1.32232666015625
1695713680622245400,4.508245361328125,0.601806640625,-0.3607177734375,1.158599853515625
1695713680631828000,4.517827880859375,0.453948974609375,-0.3216552734375,1.19873046875
1695713680641379800,4.5273798828125,0.2581787109375,-0.554046630859375,1.2835693359375
1695713680650932000,4.536931884765625,0.078277587890625,-0.962982177734375,1.356048583984375
1695713680660453400,4.546453369140625,-0.0677490234375,-1.351776123046875,1.401519775390625
1695713680670005200,4.556005126953125,-0.15472412109375,-1.51947021484375,1.435699462890625
1695713680679557400,4.565557373046875,-0.142822265625,-1.424560546875,1.428680419921875
1695713680689109200,4.575109130859375,-0.052490234375,-1.21307373046875,1.381683349609375
1695713680698661400,4.584661376953125,0.014495849609375,-1.09039306640625,1.319580078125
1695713680708182800,4.594182861328125,-0.02410888671875,-1.08062744140625,1.26708984375
1695713680717735000,4.60373486328125,-0.13031005859375,-1.10809326171875,1.21826171875
1695713680727286800,4.613286865234375,-0.214691162109375,-1.138916015625,1.153411865234375
1695713680736839000,4.6228388671875,-0.233917236328125,-1.153564453125,1.126251220703125
1695713680746360300,4.6323603515625,-0.213775634765625,-1.129150390625,1.161651611328125
1695713680755912400,4.641912353515625,-0.191192626953125,-1.06231689453125,1.2261962890625
1695713680765464300,4.65146435546875,-0.172576904296875,-0.939178466796875,1.30035400390625
1695713680775016400,4.661016357421875,-0.179595947265625,-0.79193115234375,1.347198486328125
1695713680784568300,4.670568359375,-0.223236083984375,-0.644683837890625,1.357269287109375
1695713680794089700,4.68008984375,-0.289154052734375,-0.545501708984375,1.34796142578125
1695713680803641900,4.689641845703125,-0.3582763671875,-0.523834228515625,1.3427734375
1695713680813193700,4.69919384765625,-0.41412353515625,-0.587310791015625,1.33941650390625
1695713680822745900,4.708745849609375,-0.45196533203125,-0.6976318359375,1.30889892578125
1695713680832297700,4.718297607421875,-0.46539306640625,-0.780029296875,1.24786376953125
1695713680841819400,4.7278193359375,-0.4608154296875,-0.8154296875,1.150665283203125
1695713680851371300,4.737371337890625,-0.455322265625,-0.80963134765625,1.025238037109375
1695713680860923400,4.74692333984375,-0.4656982421875,-0.78399658203125,0.872802734375
1695713680870475300,4.756475341796875,-0.49346923828125,-0.7635498046875,0.704803466796875
1695713680880027400,4.76602734375,-0.523529052734375,-0.79864501953125,0.53131103515625
1695713680889548800,4.775548828125,-0.533294677734375,-0.910797119140625,0.363311767578125
1695713680899101000,4.785100830078125,-0.487060546875,-0.980072021484375,0.24078369140625
1695713680908652800,4.79465283203125,-0.40069580078125,-0.908966064453125,0.1873779296875
1695713680918205000,4.804204833984375,-0.331268310546875,-0.76690673828125,0.16998291015625
1695713680927756800,4.8137568359375,-0.310211181640625,-0.67901611328125,0.1513671875
1695713680937309000,4.823308837890625,-0.321197509765625,-0.72235107421875,0.090484619140625
1695713680946860800,4.83286083984375,-0.37017822265625,-0.83404541015625,-0.005645751953125
1695713680956413000,4.842412841796875,-0.45074462890625,-0.869293212890625,-0.118408203125
1695713680965964800,4.85196484375,-0.51177978515625,-0.79345703125,-0.2337646484375
1695713680975486200,4.861486328125,-0.536651611328125,-0.659332275390625,-0.330963134765625
1695713680985038300,4.871038330078125,-0.532684326171875,-0.522918701171875,-0.423431396484375
1695713680994590200,4.880590087890625,-0.465087890625,-0.37841796875,-0.56732177734375
1695713681004142300,4.890142333984375,-0.335540771484375,-0.217132568359375,-0.770416259765625
1695713681013694200,4.899694091796875,-0.186920166015625,0.009765625,-0.987396240234375
1695713681023215900,4.9092158203125,-0.06683349609375,0.3436279296875,-1.1773681640625
1695713681032767700,4.918767822265625,0.066986083984375,0.762176513671875,-1.363677978515625
1695713681042320000,4.92831982421875,0.2490234375,1.175689697265625,-1.60125732421875
1695713681051871700,4.937871826171875,0.402069091796875,1.476287841796875,-1.87774658203125
1695713681061393400,4.947393310546875,0.476226806640625,1.566619873046875,-2.148590087890625
1695713681070945300,4.9569453125,0.496063232421875,1.501312255859375,-2.452239990234375
1695713681080497400,4.966497314453125,0.470123291015625,1.31134033203125,-2.799530029296875
1695713681090049300,4.97604931640625,0.382843017578125,0.95184326171875,-3.10028076171875
1695713681099601400,4.985601318359375,0.252685546875,0.58624267578125,-3.242034912109375
1695713681109122800,4.995122802734375,0.102386474609375,0.36651611328125,-3.248748779296875
1695713681118674700,5.0046748046875,-0.0030517578125,0.392913818359375,-3.196868896484375
1695713681128226800,5.014226806640625,-0.02166748046875,0.5828857421875,-3.0731201171875
1695713681137778700,5.02377880859375,0.015716552734375,0.631103515625,-2.899932861328125
1695713681147330800,5.033330810546875,-0.0067138671875,0.28228759765625,-2.781829833984375
1695713681156852200,5.042852294921875,-0.05126953125,-0.176239013671875,-2.718505859375
1695713681166404400,5.052404296875,-0.1239013671875,-0.259246826171875,-2.555694580078125
1695713681175956200,5.061956298828125,-0.225677490234375,0.31524658203125,-2.184906005859375
1695713681185508400,5.07150830078125,-0.257110595703125,1.223297119140625,-1.808929443359375
1695713681195029800,5.08102978515625,-0.200042724609375,2.190399169921875,-1.64764404296875
1695713681204612400,5.0906123046875,-0.106201171875,2.705535888671875,-1.93450927734375
1695713681214164200,5.100164306640625,-0.07843017578125,2.73284912109375,-2.34649658203125
1695713681223716400,5.10971630859375,-0.1068115234375,2.602691650390625,-2.481842041015625
1695713681233268200,5.119268310546875,-0.11810302734375,2.37091064453125,-2.393646240234375
1695713681242790000,5.128789794921875,-0.08270263671875,2.01263427734375,-2.2186279296875
1695713681252341800,5.138341796875,0.005035400390625,1.68212890625,-1.968994140625
1695713681261894000,5.147893798828125,0.150909423828125,1.4263916015625,-1.704559326171875
1695713681271445800,5.15744580078125,0.31219482421875,1.252593994140625,-1.453704833984375
1695713681280967200,5.16696728515625,0.463104248046875,1.187286376953125,-1.21795654296875
1695713681290519300,5.176519287109375,0.57525634765625,1.210174560546875,-0.999603271484375
1695713681300071200,5.1860712890625,0.655517578125,1.254119873046875,-0.7977294921875
1695713681309623300,5.195623291015625,0.7122802734375,1.28814697265625,-0.608367919921875
1695713681319175200,5.205175048828125,0.744476318359375,1.302490234375,-0.4443359375
1695713681328727300,5.214727294921875,0.753631591796875,1.30401611328125,-0.313873291015625
1695713681338248700,5.224248779296875,0.741729736328125,1.272430419921875,-0.20111083984375
1695713681347800800,5.23380078125,0.723724365234375,1.180572509765625,-0.081787109375
1695713681357352700,5.243352783203125,0.7122802734375,1.011962890625,0.067291259765625
1695713681366904800,5.25290478515625,0.70709228515625,0.776824951171875,0.26275634765625
1695713681376426200,5.26242626953125,0.70587158203125,0.507354736328125,0.50872802734375
1695713681385978400,5.271978271484375,0.72052001953125,0.2459716796875,0.793914794921875
1695713681395530200,5.2815302734375,0.752716064453125,0.028228759765625,1.107330322265625
1695713681405082400,5.291082275390625,0.789031982421875,-0.1263427734375,1.428680419921875
1695713681414634200,5.30063427734375,0.831146240234375,-0.198516845703125,1.734161376953125
1695713681424155600,5.31015576171875,0.879974365234375,-0.187835693359375,1.98333740234375
1695713681433707800,5.319707763671875,0.90972900390625,-0.06500244140625,2.092132568359375
1695713681443259600,5.329259765625,0.893096923828125,0.162811279296875,1.95709228515625
1695713681452811800,5.338811767578125,0.831146240234375,0.38299560546875,1.5716552734375
1695713681462363600,5.34836376953125,0.731658935546875,0.63507080078125,0.98052978515625
1695713681471885300,5.35788525390625,0.57220458984375,1.117706298828125,0.1190185546875
1695713681481437200,5.367437255859375,0.3460693359375,1.6851806640625,-0.9271240234375
1695713681491019800,5.377019775390625,0.180206298828125,1.553802490234375,-1.58203125
1695713681500571600,5.386571533203125,0.176544189453125,0.489044189453125,-1.60247802734375
1695713681510123800,5.396123779296875,0.28900146484375,-0.589141845703125,-1.2652587890625
1695713681519645200,5.405645263671875,0.32623291015625,-0.924835205078125,-0.897216796875
1695713681529197300,5.415197265625,0.1898193359375,-0.619659423828125,-0.601654052734375
1695713681538749200,5.424749267578125,0.068206787109375,-0.025634765625,-0.388946533203125
1695713681548301300,5.43430126953125,0.034332275390625,0.72998046875,-0.1470947265625
1695713681557822700,5.44382275390625,-0.08697509765625,1.561126708984375,0.2667236328125
1695713681567374800,5.453374755859375,-0.334320068359375,1.933441162109375,0.836181640625
1695713681576926700,5.4629267578125,-0.565948486328125,0.794830322265625,1.580810546875
1695713681586478800,5.472478759765625,-0.643463134765625,-1.90093994140625,1.737518310546875
1695713681596030700,5.48203076171875,-0.37994384765625,-3.56658935546875,0.57373046875
1695713681605552000,5.49155224609375,-0.171051025390625,-1.4306640625,-1.056365966796875
1695713681615104300,5.501104248046875,0.2435302734375,0.901947021484375,-1.372528076171875
1695713681624656100,5.51065625,0.66192626953125,0.528106689453125,0.095977783203125
1695713681634208300,5.520208251953125,0.784149169921875,-0.938873291015625,1.70074462890625
1695713681643760000,5.529760009765625,0.520172119140625,-1.630401611328125,2.215728759765625
1695713681653281800,5.53928173828125,0.054473876953125,-1.1474609375,1.742095947265625
1695713681662833700,5.548833740234375,-0.4443359375,-0.213775634765625,1.018829345703125
1695713681672385800,5.5583857421875,-0.7904052734375,-0.279693603515625,1.054840087890625
1695713681681937700,5.567937744140625,-0.953216552734375,-0.911407470703125,1.499176025390625
1695713681691459300,5.577459228515625,-0.970306396484375,-1.8060302734375,2.02850341796875
1695713681701011200,5.58701123046875,-0.644989013671875,-2.663726806640625,2.36328125
1695713681710563300,5.596563232421875,-0.130615234375,-2.782135009765625,2.33001708984375
1695713681720115200,5.606115234375,0.387725830078125,-1.734771728515625,1.91162109375
1695713681729667300,5.615667236328125,0.752716064453125,-0.519866943359375,1.453094482421875
1695713681739188700,5.625188720703125,0.813751220703125,-0.04913330078125,1.2774658203125
1695713681748740600,5.63474072265625,0.61279296875,-0.018310546875,1.2750244140625
1695713681758292700,5.644292724609375,0.3314208984375,-0.128173828125,1.307373046875
1695713681767844600,5.6538447265625,0.071868896484375,-0.45379638671875,1.373138427734375
1695713681777396700,5.663396728515625,-0.11993408203125,-0.942840576171875,1.474456787109375
1695713681786948600,5.672948486328125,-0.213165283203125,-1.348114013671875,1.5814208984375
1695713681796500700,5.682500732421875,-0.174102783203125,-1.48712158203125,1.6253662109375
1695713681806052600,5.692052490234375,-0.04150390625,-1.363983154296875,1.5789794921875
1695713681815604700,5.701604736328125,0.075225830078125,-1.114501953125,1.476898193359375
1695713681825156600,5.711156494140625,0.084991455078125,-0.953521728515625,1.372528076171875
1695713681834678300,5.72067822265625,0.013580322265625,-0.940704345703125,1.298828125
1695713681844230100,5.730230224609375,-0.08331298828125,-1.005706787109375,1.23687744140625
1695713681853782300,5.7397822265625,-0.161285400390625,-1.032562255859375,1.1895751953125
1695713681863334100,5.749334228515625,-0.192718505859375,-0.986480712890625,1.173858642578125
1695713681872855800,5.758855712890625,-0.182342529296875,-0.882110595703125,1.20758056640625
1695713681882407700,5.76840771484375,-0.171661376953125,-0.76934814453125,1.2530517578125
1695713681891959800,5.777959716796875,-0.178070068359375,-0.660858154296875,1.2835693359375
1695713681901511700,5.78751171875,-0.194854736328125,-0.569000244140625,1.2982177734375
1695713681911063800,5.797063720703125,-0.229949951171875,-0.508880615234375,1.2872314453125
1695713681920585200,5.806585205078125,-0.279998779296875,-0.465087890625,1.27288818359375
1695713681930137000,5.81613720703125,-0.334320068359375,-0.418701171875,1.27716064453125
1695713681939689200,5.825689208984375,-0.37994384765625,-0.42144775390625,1.28631591796875
1695713681949241000,5.835240966796875,-0.40679931640625,-0.495452880859375,1.2847900390625
1695713681958793200,5.844793212890625,-0.421142578125,-0.598907470703125,1.25762939453125
1695713681968314600,5.854314697265625,-0.4315185546875,-0.68023681640625,1.2127685546875
1695713681977866800,5.86386669921875,-0.43365478515625,-0.7501220703125,1.140289306640625
1695713681987418600,5.873418701171875,-0.42999267578125,-0.814208984375,1.036834716796875
1695713681996970800,5.882970703125,-0.430908203125,-0.855560302734375,0.899658203125
1695713682006522600,5.892522705078125,-0.43609619140625,-0.854949951171875,0.739288330078125
1695713682016044300,5.902044189453125,-0.42755126953125,-0.78643798828125,0.5706787109375
1695713682025596200,5.91159619140625,-0.4034423828125,-0.67657470703125,0.418853759765625
1695713682035148300,5.921148193359375,-0.3729248046875,-0.543975830078125,0.305633544921875
1695713682044700200,5.9307001953125,-0.35369873046875,-0.43060302734375,0.2374267578125
1695713682054221600,5.9402216796875,-0.3521728515625,-0.42144775390625,0.1898193359375
1695713682063804200,5.94980419921875,-0.3594970703125,-0.526275634765625,0.128173828125
1695713682073356300,5.959356201171875,-0.36163330078125,-0.652313232421875,0.038604736328125
1695713682082908200,5.968908203125,-0.3607177734375,-0.69488525390625,-0.06988525390625
1695713682092460300,5.978460205078125,-0.3656005859375,-0.638580322265625,-0.1898193359375
1695713682101981700,5.987981689453125,-0.3472900390625,-0.570831298828125,-0.319061279296875
1695713682111533600,5.997533447265625,-0.306549072265625,-0.512847900390625,-0.44586181640625
1695713682121085700,6.007085693359375,-0.242462158203125,-0.4345703125,-0.57647705078125
1695713682130637600,6.016637451171875,-0.166168212890625,-0.303802490234375,-0.751190185546875
1695713682140189700,6.026189697265625,-0.10833740234375,-0.0787353515625,-0.967559814453125
1695713682149711000,6.035711181640625,-0.0799560546875,0.24444580078125,-1.21795654296875
1695713682159263200,6.04526318359375,-0.03509521484375,0.6414794921875,-1.474761962890625
1695713682168815000,6.054815185546875,0.052947998046875,1.04217529296875,-1.750335693359375
1695713682178367200,6.0643671875,0.152740478515625,1.3214111328125,-2.03125
1695713682187888600,6.073888671875,0.25299072265625,1.3958740234375,-2.29400634765625
1695713682197440800,6.083440673828125,0.31982421875,1.290740966796875,-2.591552734375
1695713682206992600,6.09299267578125,0.313720703125,1.06414794921875,-2.95623779296875
1695713682216544800,6.102544677734375,0.28045654296875,0.6500244140625,-3.281097412109375
1695713682226096600,6.1120966796875,0.250244140625,0.182342529296875,-3.41949462890625
1695713682235618000,6.1216181640625,0.185699462890625,-0.160064697265625,-3.39202880859375
1695713682245170200,6.131170166015625,0.113677978515625,-0.3173828125,-3.284759521484375
1695713682254722000,6.14072216796875,0.093231201171875,-0.275421142578125,-3.136138916015625
1695713682264274200,6.150274169921875,0.122833251953125,-0.3131103515625,-2.98919677734375
1695713682273826000,6.159825927734375,0.054473876953125,-0.624237060546875,-2.869720458984375
1695713682283347700,6.16934765625,-0.03265380859375,-0.83099365234375,-2.718505859375
1695713682292899600,6.178899658203125,-0.111083984375,-0.47576904296875,-2.37152099609375
1695713682302451700,6.18845166015625,-0.12237548828125,0.380859375,-1.923828125
1695713682312003600,6.198003662109375,-0.06622314453125,1.472320556640625,-1.63299560546875
1695713682321525200,6.207525146484375,0.007476806640625,2.334442138671875,-1.744842529296875
1695713682331077000,6.2170771484375,0.017242431640625,2.54119873046875,-2.186431884765625
1695713682340629200,6.226629150390625,-0.01129150390625,2.481689453125,-2.488861083984375
1695713682350181000,6.23618115234375,-0.0640869140625,2.36724853515625,-2.512969970703125
1695713682359763700,6.245763671875,-0.08544921875,2.1343994140625,-2.38739013671875
1695713682369285000,6.25528515625,-0.04486083984375,1.81640625,-2.199249267578125
1695713682378837200,6.264837158203125,0.034637451171875,1.513824462890625,-1.9732666015625
1695713682388389000,6.27438916015625,0.140533447265625,1.280059814453125,-1.712799072265625
1695713682397941200,6.283941162109375,0.27374267578125,1.119232177734375,-1.438140869140625
1695713682407493000,6.2934931640625,0.410919189453125,1.0357666015625,-1.1798095703125
1695713682417014500,6.3030146484375,0.516815185546875,0.999755859375,-0.9564208984375
1695713682426566700,6.312566650390625,0.5841064453125,0.9979248046875,-0.760650634765625
1695713682436118500,6.322118408203125,0.61553955078125,1.03424072265625,-0.58746337890625
1695713682445670700,6.331670654296875,0.61859130859375,1.118927001953125,-0.4400634765625
1695713682455222500,6.341222412109375,0.60272216796875,1.183013916015625,-0.318145751953125
1695713682464744200,6.350744140625,0.5828857421875,1.168975830078125,-0.19561767578125
1695713682474296000,6.360296142578125,0.555419921875,1.092529296875,-0.045928955078125
1695713682483848200,6.36984814453125,0.525054931640625,0.94451904296875,0.1385498046875
1695713682493400000,6.379400146484375,0.502777099609375,0.74188232421875,0.368194580078125
1695713682502921700,6.388921630859375,0.499420166015625,0.523223876953125,0.644073486328125
1695713682512473600,6.3984736328125,0.526885986328125,0.311279296875,0.95428466796875
1695713682522025700,6.408025634765625,0.56976318359375,0.120697021484375,1.28570556640625
1695713682531577600,6.41757763671875,0.61614990234375,-0.04058837890625,1.62322998046875
1695713682541129700,6.427129638671875,0.6817626953125,-0.157623291015625,1.94793701171875
1695713682550651100,6.436651123046875,0.762786865234375,-0.215606689453125,2.229766845703125
1695713682560203000,6.446203125,0.825653076171875,-0.165252685546875,2.38861083984375
1695713682569755100,6.455755126953125,0.843963623046875,0.067901611328125,2.31201171875
1695713682579307000,6.46530712890625,0.810699462890625,0.426483154296875,1.882476806640625
1695713682588859100,6.474859130859375,0.7244873046875,0.790252685546875,1.028289794921875
1695713682598380500,6.484380615234375,0.543212890625,1.183929443359375,-0.17333984375
1695713682607932700,6.4939326171875,0.3057861328125,1.511688232421875,-1.469268798828125
1695713682617484500,6.503484619140625,0.19561767578125,1.120758056640625,-2.114410400390625
1695713682627036700,6.51303662109375,0.27557373046875,-0.04180908203125,-1.95953369140625
1695713682636588500,6.522588623046875,0.447235107421875,-0.883636474609375,-1.509246826171875
1695713682646140700,6.532140625,0.495147705078125,-0.84381103515625,-1.117401123046875
1695713682655692500,6.541692626953125,0.2862548828125,-0.301055908203125,-0.780792236328125
1695713682665244700,6.55124462890625,0.075531005859375,0.250244140625,-0.48095703125
1695713682674796500,6.560796630859375,0.023040771484375,0.838165283203125,-0.128173828125
1695713682684318200,6.570318115234375,-0.00274658203125,1.605072021484375,0.322113037109375
1695713682693870000,6.5798701171875,-0.158538818359375,2.1331787109375,0.9619140625
1695713682703422200,6.589422119140625,-0.328826904296875,1.597137451171875,1.827850341796875
1695713682712974000,6.59897412109375,-0.38177490234375,-0.77362060546875,2.197723388671875
1695713682722526200,6.608526123046875,-0.189666748046875,-3.69384765625,1.103363037109375
1695713682732047600,6.618047607421875,-0.206451416015625,-3.086090087890625,-0.487060546875
1695713682741599500,6.627599609375,0.106658935546875,-0.0299072265625,-1.104888916015625
1695713682751151600,6.637151611328125,0.776519775390625,0.32928466796875,0.005645751953125
1695713682760703500,6.646703369140625,1.0345458984375,-0.909271240234375,1.471405029296875
1695713682770255600,6.656255615234375,0.822296142578125,-1.197509765625,2.138214111328125
1695713682779785700,6.66578564453125,0.264892578125,-0.276947021484375,1.793060302734375
1695713682789337900,6.675337890625,-0.302581787109375,0.818939208984375,1.053619384765625
1695713682798889700,6.6848896484375,-0.673065185546875,0.57281494140625,0.992584228515625
1695713682808441900,6.69444189453125,-0.82427978515625,-0.4010009765625,1.451263427734375
1695713682817963300,6.70396337890625,-0.794677734375,-1.49444580078125,1.98455810546875
1695713682827515400,6.713515380859375,-0.550994873046875,-2.445831298828125,2.2998046875
1695713682837067300,6.7230673828125,-0.162506103515625,-2.658843994140625,2.2796630859375
1695713682846619400,6.732619384765625,0.18218994140625,-1.81396484375,1.9091796875
1695713682856171300,6.742171142578125,0.382232666015625,-0.72784423828125,1.54266357421875
1695713682865693000,6.75169287109375,0.442962646484375,-0.06927490234375,1.368865966796875
1695713682875244800,6.761244873046875,0.402984619140625,0.122833251953125,1.33544921875
1695713682884797000,6.770796875,0.33416748046875,0.021514892578125,1.377716064453125
1695713682894348800,6.780348876953125,0.23712158203125,-0.35430908203125,1.447601318359375
1695713682903901000,6.78990087890625,0.118255615234375,-0.821533203125,1.551513671875
1695713682913422300,6.79942236328125,0.024261474609375,-1.1566162109375,1.6571044921875
1695713682923005000,6.8090048828125,0.00152587890625,-1.20880126953125,1.6876220703125
1695713682932556800,6.818556884765625,0.045928955078125,-1.05804443359375,1.61956787109375
1695713682942109000,6.82810888671875,0.092620849609375,-0.918731689453125,1.465301513671875
1695713682951630300,6.83763037109375,0.056610107421875,-0.81024169921875,1.307373046875
1695713682961182200,6.84718212890625,-0.06500244140625,-0.72906494140625,1.19354248046875
1695713682970734300,6.856734375,-0.197296142578125,-0.668182373046875,1.112518310546875
1695713682980286200,6.8662861328125,-0.281219482421875,-0.660552978515625,1.062774658203125
1695713682989838300,6.87583837890625,-0.314483642578125,-0.72357177734375,1.043243408203125
1695713682999359700,6.88535986328125,-0.303192138671875,-0.74554443359375,1.074676513671875
1695713683008912000,6.894911865234375,-0.258636474609375,-0.71441650390625,1.133270263671875
1695713683018463700,6.904463623046875,-0.211029052734375,-0.634613037109375,1.18438720703125
1695713683028015900,6.914015869140625,-0.203399658203125,-0.532073974609375,1.20880126953125
1695713683037567700,6.923567626953125,-0.244598388671875,-0.44921875,1.20330810546875
1695713683047089400,6.93308935546875,-0.312957763671875,-0.3985595703125,1.18896484375
1695713683056641300,6.942641357421875,-0.38665771484375,-0.38726806640625,1.2054443359375
1695713683066193400,6.952193359375,-0.44097900390625,-0.4071044921875,1.24786376953125
1695713683075745300,6.961745361328125,-0.46905517578125,-0.46142578125,1.28570556640625
1695713683085297400,6.97129736328125,-0.478515625,-0.527801513671875,1.2957763671875
1695713683094818800,6.98081884765625,-0.48248291015625,-0.597686767578125,1.25152587890625
1695713683104370700,6.99037060546875,-0.48736572265625,-0.641937255859375,1.150665283203125
1695713683113922800,6.9999228515625,-0.4827880859375,-0.630950927734375,1.018524169921875
1695713683123474700,7.009474609375,-0.46966552734375,-0.623016357421875,0.8575439453125
1695713683132996400,7.018996337890625,-0.43792724609375,-0.645294189453125,0.694732666015625
1695713683142548200,7.02854833984375,-0.38604736328125,-0.649261474609375,0.54412841796875
1695713683152100400,7.038100341796875,-0.321197509765625,-0.574188232421875,0.433502197265625
1695713683161652200,7.04765234375,-0.282745361328125,-0.44677734375,0.359954833984375
1695713683171204400,7.057204345703125,-0.281524658203125,-0.41656494140625,0.299835205078125
1695713683180725800,7.066725830078125,-0.298614501953125,-0.524139404296875,0.235595703125
1695713683190278000,7.07627783203125,-0.308074951171875,-0.66986083984375,0.1470947265625
1695713683199829800,7.085829833984375,-0.302581787109375,-0.74005126953125,0.045928955078125
1695713683209382000,7.0953818359375,-0.283660888671875,-0.71044921875,-0.0579833984375
1695713683218964200,7.104964111328125,-0.263824462890625,-0.632781982421875,-0.1531982421875
1695713683228486000,7.11448583984375,-0.251007080078125,-0.556182861328125,-0.248870849609375
1695713683238037800,7.124037841796875,-0.233001708984375,-0.47119140625,-0.375518798828125
1695713683247590000,7.13358984375,-0.189056396484375,-0.379638671875,-0.55908203125
1695713683257141800,7.143141845703125,-0.1092529296875,-0.223846435546875,-0.764312744140625
1695713683266694000,7.15269384765625,-0.03875732421875,0.046844482421875,-0.986175537109375
1695713683276215300,7.16221533203125,0.022430419921875,0.424346923828125,-1.21826171875
1695713683285767200,7.17176708984375,0.089569091796875,0.826263427734375,-1.471710205078125
1695713683295319300,7.1813193359375,0.164031982421875,1.138458251953125,-1.749114990234375
1695713683304871200,7.19087109375,0.24261474609375,1.29547119140625,-2.0361328125
1695713683314392800,7.200392822265625,0.302734375,1.319580078125,-2.35382080078125
1695713683323944700,7.20994482421875,0.30975341796875,1.239471435546875,-2.730712890625
1695713683333496800,7.219496826171875,0.26580810546875,1.0015869140625,-3.10882568359375
1695713683343048700,7.229048583984375,0.24200439453125,0.609130859375,-3.3349609375
1695713683352600800,7.238600830078125,0.22247314453125,0.21484375,-3.33251953125
1695713683362122200,7.248122314453125,0.1861572265625,-0.015869140625,-3.198394775390625
1695713683371674400,7.25767431640625,0.134735107421875,-0.0299072265625,-3.03924560546875
1695713683381226200,7.267226318359375,0.107574462890625,0.0140380859375,-2.894744873046875
1695713683390778400,7.2767783203125,0.086822509765625,-0.190887451171875,-2.806243896484375
1695713683400330200,7.286330322265625,0.016937255859375,-0.643768310546875,-2.766571044921875
1695713683409851600,7.2958515625,-0.0701904296875,-0.934600830078125,-2.66082763671875
1695713683419403800,7.30540380859375,-0.200653076171875,-0.604095458984375,-2.315673828125
1695713683428955600,7.31495556640625,-0.293121337890625,0.2764892578125,-1.8658447265625
1695713683438507800,7.3245078125,-0.242156982421875,1.257476806640625,-1.670074462890625
1695713683448029200,7.334029296875,-0.11749267578125,2.07305908203125,-1.808624267578125
1695713683457581300,7.343581298828125,-0.0146484375,2.264251708984375,-2.194061279296875
1695713683467133200,7.35313330078125,-0.01678466796875,2.217864990234375,-2.444305419921875
1695713683476685300,7.362685302734375,-0.05584716796875,2.14019775390625,-2.446441650390625
1695713683486237200,7.3722373046875,-0.06622314453125,1.965789794921875,-2.33062744140625
1695713683495789300,7.381789306640625,-0.02777099609375,1.68060302734375,-2.167816162109375
1695713683505341200,7.391341064453125,0.048980712890625,1.3787841796875,-1.97784423828125
1695713683514893300,7.400893310546875,0.161285400390625,1.174163818359375,-1.735382080078125
1695713683524445200,7.410445068359375,0.3094482421875,1.0748291015625,-1.451263427734375
1695713683533997300,7.419997314453125,0.453338623046875,1.02203369140625,-1.18927001953125
1695713683543518700,7.429518798828125,0.57281494140625,1.06353759765625,-0.95428466796875
1695713683553070800,7.43907080078125,0.6427001953125,1.163787841796875,-0.756988525390625
1695713683562622700,7.448622802734375,0.67352294921875,1.280364990234375,-0.606842041015625
1695713683572174800,7.4581748046875,0.68328857421875,1.3946533203125,-0.49407958984375
1695713683581726700,7.467726806640625,0.67779541015625,1.4556884765625,-0.393524169921875
1695713683591248100,7.477248046875,0.66986083984375,1.42730712890625,-0.275115966796875
1695713683600800300,7.48680029296875,0.6500244140625,1.30889892578125,-0.12115478515625
1695713683610352000,7.49635205078125,0.62530517578125,1.127471923828125,0.083160400390625
1695713683619904300,7.505904296875,0.61248779296875,0.9332275390625,0.338287353515625
1695713683629425700,7.51542578125,0.6158447265625,0.7275390625,0.6329345703125
1695713683638977800,7.524977783203125,0.65277099609375,0.525360107421875,0.94451904296875
1695713683648529700,7.53452978515625,0.7080078125,0.34698486328125,1.26434326171875
1695713683658081800,7.544081787109375,0.766143798828125,0.21759033203125,1.57501220703125
1695713683667633700,7.553633544921875,0.842132568359375,0.147857666015625,1.852874755859375
1695713683677155300,7.5631552734375,0.9283447265625,0.162811279296875,2.04864501953125
1695713683686707200,7.572707275390625,0.97320556640625,0.34088134765625,2.0556640625
1695713683696259300,7.58225927734375,0.94451904296875,0.706787109375,1.751556396484375
1695713683705811200,7.591811279296875,0.852508544921875,1.02783203125,1.164093017578125
1695713683715363300,7.60136328125,0.66436767578125,1.3043212890625,0.403289794921875
1695713683724884700,7.610884765625,0.355224609375,1.548919677734375,-0.58746337890625
1695713683734436600,7.6204365234375,0.023651123046875,1.504974365234375,-1.475677490234375
1695713683743988700,7.62998876953125,-0.10223388671875,0.706787109375,-1.710357666015625
1695713683753540600,7.63954052734375,0.015411376953125,-0.46783447265625,-1.410064697265625
1695713683763062300,7.649062255859375,0.21697998046875,-1.06719970703125,-1.086883544921875
1695713683772614100,7.6586142578125,0.24993896484375,-1.0430908203125,-0.887451171875
1695713683782196700,7.66819677734375,0.076141357421875,-0.72998046875,-0.721893310546875
1695713683791748600,7.67774853515625,-0.107421875,-0.270538330078125,-0.545654296875
1695713683801300700,7.68730078125,-0.282135009765625,0.541839599609375,-0.24261474609375
1695713683810822100,7.696822265625,-0.588836669921875,1.501312255859375,0.213623046875
1695713683820374300,7.706374267578125,-0.930328369140625,1.69952392578125,0.8489990234375
1695713683829926100,7.715926025390625,-1.036834716796875,0.58349609375,1.3360595703125
1695713683839478300,7.725478271484375,-0.655670166015625,-1.278228759765625,0.8221435546875
1695713683849030100,7.735030029296875,-0.171051025390625,-1.86767578125,-0.24139404296875
1695713683858551800,7.7445517578125,0.082244873046875,-0.532684326171875,-0.802001953125
1695713683868103700,7.754103759765625,0.502471923828125,-0.529022216796875,-0.1519775390625
1695713683877655800,7.76365576171875,0.897674560546875,-1.915283203125,1.54571533203125
1695713683887207700,7.773207763671875,0.845794677734375,-2.2589111328125,2.502899169921875
1695713683896759800,7.782759765625,0.372161865234375,-1.4013671875,2.241363525390625
1695713683906281200,7.79228125,-0.179901123046875,-0.12054443359375,1.394805908203125
1695713683915833000,7.8018330078125,-0.516510009765625,0.2752685546875,1.26190185546875
1695713683925385200,7.81138525390625,-0.601654052734375,-0.186614990234375,1.70166015625
1695713683934937000,7.82093701171875,-0.568389892578125,-1.07757568359375,2.093963623046875
1695713683944458800,7.830458740234375,-0.40924072265625,-1.78924560546875,2.203826904296875
1695713683954010600,7.8400107421875,-0.176849365234375,-1.85272216796875,2.01171875
1695713683963562800,7.849562744140625,0.113677978515625,-1.15936279296875,1.61834716796875
1695713683973114600,7.859114501953125,0.3558349609375,-0.43365478515625,1.3397216796875
1695713683982666800,7.868666748046875,0.482025146484375,-0.153961181640625,1.25946044921875
1695713683992188200,7.878188232421875,0.480804443359375,-0.08514404296875,1.3116455078125
1695713684001740300,7.887740234375,0.421905517578125,-0.173492431640625,1.458892822265625
1695713684011292200,7.897292236328125,0.33660888671875,-0.47515869140625,1.6278076171875
1695713684020844300,7.90684423828125,0.23284912109375,-0.889129638671875,1.761932373046875
1695713684030396200,7.916396240234375,0.137176513671875,-1.246185302734375,1.846771240234375
1695713684039917600,7.92591748046875,0.084686279296875,-1.364898681640625,1.839141845703125
1695713684049469700,7.9354697265625,0.100250244140625,-1.215667724609375,1.754302978515625
1695713684059021600,7.945021484375,0.164031982421875,-0.951385498046875,1.6302490234375
1695713684068573700,7.95457373046875,0.1959228515625,-0.71685791015625,1.521148681640625
1695713684078125600,7.96412548828125,0.161895751953125,-0.584564208984375,1.444244384765625
1695713684087677700,7.973677734375,0.084075927734375,-0.537872314453125,1.389312744140625
1695713684097229600,7.9832294921875,-0.02777099609375,-0.590362548828125,1.31256103515625
1695713684106781700,7.99278173828125,-0.12969970703125,-0.6732177734375,1.22650146484375
1695713684116333600,8.00233349609375,-0.172576904296875,-0.677490234375,1.18133544921875
1695713684125855200,8.011855224609375,-0.175018310546875,-0.626678466796875,1.2054443359375
1695713684135407000,8.021406982421874,-0.16021728515625,-0.558319091796875,1.2640380859375
1695713684144959200,8.030959228515625,-0.15045166015625,-0.516204833984375,1.3031005859375
1695713684154511000,8.040510986328124,-0.167694091796875,-0.514068603515625,1.29913330078125
1695713684164063200,8.050063232421875,-0.218048095703125,-0.512847900390625,1.275634765625
1695713684173584600,8.059584716796875,-0.287017822265625,-0.491943359375,1.27655029296875
1695713684183136800,8.06913671875,-0.35491943359375,-0.47149658203125,1.328125
1695713684192688600,8.078688720703125,-0.4046630859375,-0.487213134765625,1.404876708984375
1695713684202240800,8.08824072265625,-0.43121337890625,-0.562591552734375,1.462554931640625
1695713684211762200,8.09776220703125,-0.4351806640625,-0.69000244140625,1.462249755859375
1695713684221314000,8.10731396484375,-0.426025390625,-0.82305908203125,1.380767822265625
1695713684230866200,8.1168662109375,-0.40252685546875,-0.886077880859375,1.22161865234375
1695713684240418000,8.12641796875,-0.37628173828125,-0.885467529296875,1.030426025390625
1695713684249970200,8.13597021484375,-0.355224609375,-0.915985107421875,0.8355712890625
1695713684259491600,8.14549169921875,-0.333709716796875,-0.936737060546875,0.661468505859375
1695713684269043700,8.155043701171875,-0.307464599609375,-0.863189697265625,0.5181884765625
1695713684278595600,8.164595703125,-0.285491943359375,-0.70068359375,0.412445068359375
1695713684288147700,8.174147705078125,-0.290985107421875,-0.555267333984375,0.327606201171875
1695713684297699600,8.183699462890624,-0.305023193359375,-0.571441650390625,0.2337646484375
1695713684307221200,8.19322119140625,-0.286407470703125,-0.726318359375,0.11566162109375
1695713684316773000,8.202773193359375,-0.241851806640625,-0.872955322265625,-0.014495849609375
1695713684326325200,8.2123251953125,-0.188751220703125,-0.872650146484375,-0.13580322265625
1695713684335877000,8.221877197265625,-0.1446533203125,-0.70770263671875,-0.23834228515625
1695713684345429200,8.23142919921875,-0.10986328125,-0.4534912109375,-0.315399169921875
1695713684354981000,8.240981201171875,-0.06103515625,-0.244903564453125,-0.418548583984375
1695713684364533200,8.250533203125,0.009918212890625,-0.140228271484375,-0.58624267578125
1695713684374085000,8.260085205078125,0.078887939453125,-0.05615234375,-0.8148193359375
1695713684383637200,8.26963720703125,0.138397216796875,0.099639892578125,-1.061248779296875
1695713684393158700,8.27915869140625,0.175933837890625,0.399932861328125,-1.30584716796875
1695713684402710500,8.28871044921875,0.177764892578125,0.770416259765625,-1.5618896484375
1695713684412262700,8.2982626953125,0.1898193359375,1.06842041015625,-1.822967529296875
1695713684421814500,8.307814453125,0.2593994140625,1.199188232421875,-2.123870849609375
1695713684431366700,8.31736669921875,0.28839111328125,1.156463623046875,-2.519683837890625
1695713684440888000,8.32688818359375,0.23223876953125,0.96588134765625,-2.9913330078125
1695713684450440200,8.336440185546875,0.159759521484375,0.6121826171875,-3.3331298828125
1695713684459992000,8.345991943359374,0.161285400390625,0.2099609375,-3.42254638671875
1695713684469544200,8.355544189453125,0.187530517578125,-0.09185791015625,-3.298187255859375
1695713684479096000,8.365095947265624,0.170440673828125,-0.200042724609375,-3.09173583984375
1695713684488617700,8.37461767578125,0.128021240234375,-0.183868408203125,-2.909088134765625
1695713684498169600,8.384169677734375,0.113983154296875,-0.243377685546875,-2.822418212890625
1695713684507721700,8.3937216796875,0.084381103515625,-0.601959228515625,-2.831573486328125
1695713684517273600,8.403273681640625,0.013580322265625,-1.036376953125,-2.835235595703125
1695713684526825700,8.41282568359375,-0.15106201171875,-1.004180908203125,-2.65960693359375
1695713684536347100,8.42234716796875,-0.338134765625,-0.281829833984375,-2.201690673828125
1695713684545899000,8.43189892578125,-0.3924560546875,0.706787109375,-1.830596923828125
1695713684555451100,8.441451171875,-0.295867919921875,1.71356201171875,-1.753387451171875
1695713684565003000,8.4510029296875,-0.09857177734375,2.1624755859375,-2.083282470703125
1695713684574524700,8.460524658203125,-0.0164794921875,2.0391845703125,-2.495269775390625
1695713684584076500,8.47007666015625,-0.05859375,1.887969970703125,-2.63885498046875
1695713684593628700,8.479628662109375,-0.09033203125,1.69830322265625,-2.565155029296875
1695713684603180500,8.4891806640625,-0.0762939453125,1.4532470703125,-2.39532470703125
1695713684612732700,8.498732666015625,-0.02410888671875,1.251068115234375,-2.172393798828125
1695713684622254000,8.508254150390625,0.073394775390625,1.0870361328125,-1.92962646484375
1695713684631806200,8.51780615234375,0.20294189453125,0.94635009765625,-1.6741943359375
1695713684641388500,8.527388427734374,0.33721923828125,0.885772705078125,-1.422882080078125
1695713684650940700,8.536940673828125,0.451507568359375,0.94329833984375,-1.1920166015625
1695713684660492500,8.546492431640624,0.527801513671875,1.064453125,-0.989532470703125
1695713684670014200,8.55601416015625,0.58258056640625,1.212615966796875,-0.81451416015625
1695713684679566000,8.565566162109375,0.615234375,1.3336181640625,-0.666046142578125
1695713684689118200,8.5751181640625,0.62652587890625,1.375732421875,-0.533447265625
1695713684698670000,8.584670166015625,0.62286376953125,1.36749267578125,-0.389862060546875
1695713684708191500,8.59419140625,0.606689453125,1.30615234375,-0.2166748046875
1695713684717743600,8.60374365234375,0.58502197265625,1.166229248046875,-0.014190673828125
1695713684727295500,8.61329541015625,0.5621337890625,0.966796875,0.23040771484375
1695713684736847600,8.62284765625,0.550689697265625,0.7373046875,0.5224609375
1695713684746399500,8.6323994140625,0.56884765625,0.497894287109375,0.8526611328125
1695713684755921200,8.641921142578125,0.60943603515625,0.27740478515625,1.2078857421875
1695713684765473000,8.65147314453125,0.6463623046875,0.091400146484375,1.56646728515625
1695713684775025200,8.661025146484375,0.70098876953125,-0.0445556640625,1.900634765625
1695713684784577000,8.670576904296874,0.783233642578125,-0.1129150390625,2.171783447265625
1695713684794129200,8.680129150390625,0.863494873046875,-0.05340576171875,2.28546142578125
1695713684803650600,8.689650634765625,0.902862548828125,0.2252197265625,2.098846435546875
1695713684813202700,8.69920263671875,0.861663818359375,0.6634521484375,1.511688232421875
1695713684822754600,8.708754638671875,0.7135009765625,1.126556396484375,0.61614990234375
1695713684832306700,8.718306640625,0.447235107421875,1.598358154296875,-0.54229736328125
1695713684841828000,8.727828125,0.104827880859375,1.839447021484375,-1.791229248046875
1695713684851380000,8.7373798828125,-0.05157470703125,1.286773681640625,-2.3382568359375
1695713684860932000,8.74693212890625,0.140228271484375,-0.0384521484375,-2.059478759765625
1695713684870484000,8.75648388671875,0.437469482421875,-0.890350341796875,-1.54022216796875
1695713684880036000,8.7660361328125,0.461273193359375,-0.82183837890625,-1.092681884765625
1695713684889557500,8.7755576171875,0.262451171875,-0.40802001953125,-0.750274658203125
1695713684899109600,8.785109619140625,0.126190185546875,0.084075927734375,-0.49224853515625
1695713684908661500,8.79466162109375,0.060577392578125,0.790557861328125,-0.11627197265625
1695713684918213600,8.804213623046875,-0.13763427734375,1.6485595703125,0.4547119140625
1695713684927765500,8.813765625,-0.474853515625,1.872100830078125,1.2860107421875
1695713684937317600,8.823317626953125,-0.7403564453125,0.672607421875,2.137908935546875
1695713684946869500,8.832869384765624,-0.610809326171875,-1.962738037109375,1.840667724609375
1695713684956421600,8.842421630859375,-0.282440185546875,-3.31634521484375,0.252685546875
1695713684965973500,8.851973388671874,-0.203094482421875,-0.904998779296875,-1.126861572265625
1695713684975525600,8.861525634765625,0.303955078125,0.757598876953125,-0.91064453125
1695713684985047000,8.871047119140625,0.869293212890625,-0.575408935546875,0.88165283203125
1695713684994599200,8.88059912109375,1.111602783203125,-1.86676025390625,2.3284912109375
1695713685004151000,8.890151123046875,0.789642333984375,-1.703033447265625,2.499237060546875
1695713685013703200,8.899703125,0.2105712890625,-0.72174072265625,1.68548583984375
1695713685023255000,8.909255126953125,-0.266876220703125,-0.43212890625,1.240234375
1695713685032776400,8.9187763671875,-0.528717041015625,-0.78857421875,1.57806396484375
1695713685042328600,8.92832861328125,-0.570220947265625,-1.380157470703125,2.094573974609375
1695713685051880400,8.93788037109375,-0.4119873046875,-2.020721435546875,2.39898681640625
1695713685061432600,8.9474326171875,-0.0897216796875,-2.298431396484375,2.359619140625
1695713685070954000,8.9569541015625,0.24688720703125,-1.743927001953125,1.943359375
1695713685080506000,8.966506103515625,0.475921630859375,-0.859832763671875,1.493377685546875
1695713685090058000,8.97605810546875,0.57281494140625,-0.301971435546875,1.31317138671875
1695713685099610000,8.985610107421875,0.55145263671875,-0.02197265625,1.312255859375
1695713685109162000,8.995161865234374,0.460662841796875,0.02410888671875,1.415557861328125
1695713685118683600,9.00468359375,0.34515380859375,-0.243988037109375,1.56494140625
1695713685128235500,9.014235595703125,0.2239990234375,-0.7623291015625,1.68853759765625
1695713685137787600,9.02378759765625,0.131683349609375,-1.307525634765625,1.763763427734375
1695713685147339500,9.033339599609375,0.092620849609375,-1.620330810546875,1.794891357421875
1695713685156891600,9.0428916015625,0.113983154296875,-1.573638916015625,1.772308349609375
1695713685166413000,9.0524130859375,0.169219970703125,-1.300201416015625,1.676025390625
1695713685175965000,9.06196484375,0.19317626953125,-1.05438232421875,1.5447998046875
1695713685185517000,9.07151708984375,0.149993896484375,-0.937347412109375,1.434173583984375
1695713685195069000,9.08106884765625,0.041351318359375,-0.907745361328125,1.348419189453125
1695713685204590600,9.090590576171875,-0.091552734375,-0.993194580078125,1.240234375
1695713685214173000,9.1001728515625,-0.193634033203125,-1.064453125,1.149139404296875
1695713685223725000,9.10972509765625,-0.235137939453125,-1.04736328125,1.123199462890625
1695713685233277000,9.11927685546875,-0.242767333984375,-0.977325439453125,1.151885986328125
1695713685242829000,9.1288291015625,-0.242767333984375,-0.872955322265625,1.1962890625
1695713685252350500,9.1383505859375,-0.258026123046875,-0.7550048828125,1.224365234375
1695713685261902600,9.147902587890625,-0.295867919921875,-0.658416748046875,1.21917724609375
1695713685271454500,9.157454345703124,-0.35430908203125,-0.613861083984375,1.21673583984375
1695713685281006600,9.167006591796875,-0.413818359375,-0.634613037109375,1.2530517578125
1695713685290558500,9.176558349609374,-0.46295166015625,-0.68817138671875,1.32568359375
1695713685300080000,9.186080078125,-0.48919677734375,-0.7440185546875,1.401824951171875
1695713685309632000,9.195632080078125,-0.49468994140625,-0.7904052734375,1.431121826171875
1695713685319184100,9.20518408203125,-0.48919677734375,-0.8148193359375,1.380767822265625
1695713685328736000,9.214736083984375,-0.48736572265625,-0.80810546875,1.23565673828125
1695713685338257400,9.22425732421875,-0.49224853515625,-0.7684326171875,1.005706787109375
1695713685347809500,9.2338095703125,-0.496826171875,-0.74859619140625,0.765228271484375
1695713685357361400,9.243361328125,-0.48736572265625,-0.78369140625,0.57708740234375
1695713685366913500,9.25291357421875,-0.43609619140625,-0.81451416015625,0.431060791015625
1695713685376465400,9.26246533203125,-0.36529541015625,-0.7598876953125,0.305633544921875
1695713685385987000,9.271987060546875,-0.326080322265625,-0.580902099609375,0.20538330078125
1695713685395539000,9.2815390625,-0.333404541015625,-0.3826904296875,0.130615234375
1695713685405091000,9.291091064453125,-0.35614013671875,-0.3302001953125,0.070953369140625
1695713685414643000,9.300642822265624,-0.34912109375,-0.4327392578125,0.013580322265625
1695713685424195000,9.310195068359375,-0.307464599609375,-0.565643310546875,-0.051422119140625
1695713685433716500,9.319716552734375,-0.246124267578125,-0.6793212890625,-0.12542724609375
1695713685443268600,9.3292685546875,-0.189971923828125,-0.75714111328125,-0.20294189453125
1695713685452820500,9.338820556640625,-0.173797607421875,-0.72113037109375,-0.294036865234375
1695713685462372600,9.34837255859375,-0.178375244140625,-0.554962158203125,-0.410308837890625
1695713685471894000,9.35789404296875,-0.161590576171875,-0.3485107421875,-0.57037353515625
1695713685481446000,9.36744580078125,-0.11138916015625,-0.151824951171875,-0.786285400390625
1695713685490998000,9.376998046875,-0.06561279296875,0.080413818359375,-1.040496826171875
1695713685500550000,9.3865498046875,-0.04058837890625,0.393218994140625,-1.31134033203125
1695713685510132500,9.396132568359375,-0.009765625,0.743408203125,-1.59027099609375
1695713685519654000,9.40565380859375,0.021514892578125,1.05560302734375,-1.88079833984375
1695713685529206000,9.4152060546875,0.027008056640625,1.3665771484375,-2.177276611328125
1695713685538758000,9.4247578125,0.040435791015625,1.626434326171875,-2.504730224609375
1695713685548310000,9.43431005859375,0.048065185546875,1.626129150390625,-2.881927490234375
1695713685557862000,9.44386181640625,0.005950927734375,1.4300537109375,-3.159942626953125
1695713685567383600,9.453383544921875,-0.023193359375,1.07391357421875,-3.285675048828125
1695713685576935400,9.462935302734374,0.004730224609375,0.59967041015625,-3.244781494140625
1695713685586487600,9.472487548828125,0.025482177734375,0.211181640625,-3.09539794921875
1695713685596039400,9.482039306640624,0.016937255859375,-0.07415771484375,-2.932586669921875
1695713685605591600,9.491591552734375,-0.00152587890625,-0.38238525390625,-2.805938720703125
1695713685615113000,9.501113037109375,-0.0244140625,-0.79742431640625,-2.72216796875
1695713685624665000,9.5106650390625,-0.09063720703125,-1.306610107421875,-2.6513671875
1695713685634217000,9.520217041015625,-0.1373291015625,-1.591644287109375,-2.510833740234375
1695713685643769000,9.52976904296875,-0.183563232421875,-1.2115478515625,-2.149505615234375
1695713685653290500,9.53929052734375,-0.173187255859375,-0.164642333984375,-1.729583740234375
1695713685662842400,9.54884228515625,-0.072021484375,1.193695068359375,-1.5289306640625
1695713685672394500,9.55839453125,0.078582763671875,2.323455810546875,-1.697235107421875
1695713685681946400,9.5679462890625,0.179290771484375,2.680511474609375,-2.171173095703125
1695713685691498500,9.57749853515625,0.18890380859375,2.50030517578125,-2.551422119140625
1695713685701020000,9.58702001953125,0.153350830078125,2.13836669921875,-2.6300048828125
1695713685710572000,9.596572021484375,0.141143798828125,1.78436279296875,-2.489166259765625
1695713685720124000,9.6061240234375,0.20050048828125,1.4520263671875,-2.2235107421875
1695713685729676000,9.615676025390625,0.289306640625,1.245269775390625,-1.949462890625
1695713685739228000,9.625227783203124,0.378265380859375,1.133880615234375,-1.680755615234375
1695713685748749600,9.63474951171875,0.466461181640625,1.06201171875,-1.443939208984375
1695713685758301400,9.644301513671875,0.527801513671875,1.043701171875,-1.25396728515625
1695713685767853600,9.653853515625,0.56488037109375,1.070556640625,-1.078948974609375
1695713685777405400,9.663405517578125,0.60882568359375,1.0931396484375,-0.885009765625
1695713685786988000,9.672988037109375,0.65277099609375,1.115570068359375,-0.685272216796875
1695713685796509400,9.682509521484375,0.68084716796875,1.156158447265625,-0.50750732421875
1695713685806061600,9.6920615234375,0.689697265625,1.204376220703125,-0.358123779296875
1695713685815613400,9.701613525390625,0.68572998046875,1.226959228515625,-0.2203369140625
1695713685825165600,9.71116552734375,0.68023681640625,1.191864013671875,-0.068359375
1695713685834687000,9.72068701171875,0.67779541015625,1.0760498046875,0.123291015625
1695713685844238800,9.73023876953125,0.6817626953125,0.895538330078125,0.361785888671875
1695713685853791000,9.739791015625,0.7086181640625,0.69000244140625,0.64544677734375
1695713685863342800,9.7493427734375,0.760345458984375,0.505523681640625,0.9698486328125
1695713685872895000,9.75889501953125,0.822296142578125,0.37933349609375,1.31866455078125
1695713685882416400,9.76841650390625,0.893402099609375,0.322265625,1.6632080078125
1695713685891968500,9.777968505859375,0.96435546875,0.323486328125,1.95465087890625
1695713685901520400,9.787520263671874,0.99609375,0.426788330078125,2.098846435546875
1695713685911072500,9.797072509765625,0.9442138671875,0.64971923828125,1.96380615234375
1695713685920624400,9.806624267578124,0.826263427734375,0.855560302734375,1.511077880859375
1695713685930146000,9.81614599609375,0.66253662109375,0.97900390625,0.8538818359375
1695713685939698000,9.825697998046875,0.413665771484375,1.222381591796875,0.025177001953125
1695713685949250000,9.83525,0.088653564453125,1.456298828125,-0.9576416015625
1695713685958802000,9.844802001953125,-0.186614990234375,1.207122802734375,-1.61865234375
1695713685968323300,9.8543232421875,-0.194854736328125,0.131683349609375,-1.60552978515625
1695713685977875500,9.86387548828125,0.028839111328125,-0.959014892578125,-1.28936767578125
1695713685987427300,9.87342724609375,0.166168212890625,-1.328277587890625,-1.011505126953125
1695713685996979500,9.8829794921875,0.073394775390625,-1.09375,-0.80230712890625
1695713686006531300,9.89253125,-0.07171630859375,-0.576324462890625,-0.664825439453125
1695713686016053000,9.902052978515625,-0.202789306640625,0.28411865234375,-0.47088623046875
1695713686025604900,9.91160498046875,-0.48675537109375,1.280975341796875,-0.10406494140625
1695713686035157000,9.921156982421875,-0.80596923828125,1.72454833984375,0.50537109375
1695713686044708900,9.930708984375,-0.974578857421875,1.193084716796875,1.153106689453125
1695713686054261000,9.940260986328125,-0.81085205078125,-0.224456787109375,1.088714599609375
1695713686063782400,9.949782470703125,-0.3424072265625,-1.366119384765625,0.126953125
1695713686073365000,9.959364990234375,0.005035400390625,-1.003265380859375,-0.672454833984375
1695713686082916900,9.968916748046874,0.445709228515625,-0.4095458984375,-0.521240234375
1695713686092469000,9.978468994140625,0.966796875,-1.08673095703125,0.8734130859375
1695713686101990400,9.987990478515625,1.167449951171875,-2.083892822265625,2.27996826171875
1695713686111542500,9.99754248046875,0.819244384765625,-2.244873046875,2.63641357421875
1695713686121094400,10.007094482421875,0.19378662109375,-1.52374267578125,2.099456787109375
1695713686130646500,10.016646484375,-0.285797119140625,-0.73211669921875,1.61224365234375
1695713686140198400,10.026198486328125,-0.3753662109375,-0.489349365234375,1.71142578125
1695713686149719800,10.0357197265625,-0.294647216796875,-0.76385498046875,2.0404052734375
1695713686159272000,10.04527197265625,-0.1312255859375,-1.272125244140625,2.233428955078125
1695713686168823800,10.05482373046875,0.138397216796875,-1.4312744140625,2.095184326171875
1695713686178376000,10.0643759765625,0.409088134765625,-1.017913818359375,1.7156982421875
1695713686187927800,10.073927734375,0.530548095703125,-0.529022216796875,1.417083740234375
1695713686197449500,10.083449462890625,0.527801513671875,-0.49041748046875,1.3214111328125
1695713686207001300,10.09300146484375,0.438690185546875,-0.532379150390625,1.34002685546875
1695713686216553500,10.102553466796875,0.32135009765625,-0.4473876953125,1.427154541015625
1695713686226105300,10.112105224609374,0.20172119140625,-0.560150146484375,1.57012939453125
1695713686235657500,10.121657470703125,0.076141357421875,-0.895538330078125,1.7034912109375
1695713686245179000,10.131178955078125,-0.0360107421875,-1.294403076171875,1.793365478515625
1695713686254731000,10.14073095703125,-0.078125,-1.5521240234375,1.826019287109375
1695713686264283000,10.150282958984375,-0.0213623046875,-1.553955078125,1.807098388671875
1695713686273835000,10.1598349609375,0.093231201171875,-1.332855224609375,1.755523681640625
1695713686283356400,10.1693564453125,0.18768310546875,-1.05804443359375,1.685791015625
1695713686292908300,10.178908203125,0.19073486328125,-0.935821533203125,1.59332275390625
1695713686302460400,10.18846044921875,0.130767822265625,-0.917816162109375,1.510162353515625
1695713686312012300,10.19801220703125,0.045318603515625,-0.900115966796875,1.436920166015625
1695713686321564400,10.207564453125,-0.0439453125,-0.876312255859375,1.361083984375
1695713686331085800,10.2170859375,-0.1104736328125,-0.802001953125,1.31134033203125
1695713686340638000,10.226637939453125,-0.13580322265625,-0.69427490234375,1.29608154296875
1695713686350189800,10.23618994140625,-0.137939453125,-0.606231689453125,1.30126953125
1695713686359772400,10.2457724609375,-0.13519287109375,-0.589447021484375,1.29608154296875
1695713686369324300,10.25532421875,-0.1531982421875,-0.654754638671875,1.26708984375
1695713686378846000,10.264845947265625,-0.196685791015625,-0.750732421875,1.24267578125
1695713686388397800,10.274397705078124,-0.257110595703125,-0.79986572265625,1.260986328125
1695713686397950000,10.283949951171875,-0.315399169921875,-0.7794189453125,1.30279541015625
1695713686407501800,10.293501708984374,-0.36285400390625,-0.71624755859375,1.331787109375
1695713686417054000,10.303053955078125,-0.41656494140625,-0.662384033203125,1.34674072265625
1695713686426575400,10.312575439453125,-0.46173095703125,-0.644989013671875,1.32904052734375
1695713686436127500,10.32212744140625,-0.4833984375,-0.689849853515625,1.278076171875
1695713686445679400,10.331679443359375,-0.47454833984375,-0.7904052734375,1.20697021484375
1695713686455231500,10.3412314453125,-0.44281005859375,-0.905609130859375,1.100616455078125
1695713686464753000,10.3507529296875,-0.40130615234375,-0.999603271484375,0.9320068359375
1695713686474304800,10.3603046875,-0.36346435546875,-1.040496826171875,0.705108642578125
1695713686483857000,10.36985693359375,-0.329437255859375,-0.988616943359375,0.4754638671875
1695713686493408800,10.37940869140625,-0.306549072265625,-0.87005615234375,0.301055908203125
1695713686502961000,10.3889609375,-0.307159423828125,-0.7415771484375,0.1898193359375
1695713686512482300,10.398482421875,-0.329132080078125,-0.655670166015625,0.12969970703125
1695713686522034400,10.408034423828125,-0.3485107421875,-0.70037841796875,0.079803466796875
1695713686531586300,10.41758642578125,-0.34454345703125,-0.85113525390625,0.012664794921875
1695713686541138400,10.427138427734375,-0.309906005859375,-0.976715087890625,-0.08758544921875
1695713686550690300,10.436690185546874,-0.257110595703125,-0.978240966796875,-0.208740234375
1695713686560212000,10.4462119140625,-0.207061767578125,-0.8404541015625,-0.352325439453125
1695713686569763800,10.455763916015625,-0.166168212890625,-0.604095458984375,-0.51910400390625
1695713686579316000,10.46531591796875,-0.11444091796875,-0.3759765625,-0.673370361328125
1695713686588867800,10.474867919921875,-0.025634765625,-0.212554931640625,-0.843505859375
1695713686598389200,10.48438916015625,0.077667236328125,-0.0347900390625,-1.066131591796875
1695713686607941400,10.49394140625,0.165863037109375,0.20294189453125,-1.341400146484375
1695713686617493200,10.5034931640625,0.2490234375,0.487213134765625,-1.64337158203125
1695713686627045400,10.51304541015625,0.31707763671875,0.807037353515625,-1.951904296875
1695713686636597200,10.52259716796875,0.366973876953125,1.116485595703125,-2.23236083984375
1695713686646149400,10.5321494140625,0.406646728515625,1.30126953125,-2.536163330078125
1695713686655701200,10.541701171875,0.407257080078125,1.222991943359375,-2.915191650390625
1695713686665253400,10.55125341796875,0.375823974609375,0.846710205078125,-3.211822509765625
1695713686674805200,10.56080517578125,0.3582763671875,0.32196044921875,-3.3062744140625
1695713686684357400,10.570357421875,0.31158447265625,-0.0225830078125,-3.237762451171875
1695713686693878800,10.579878662109374,0.205078125,-0.04913330078125,-3.134613037109375
1695713686703431000,10.589430908203125,0.106353759765625,0.182647705078125,-3.05908203125
1695713686712982800,10.598982666015624,0.059967041015625,0.3167724609375,-2.99713134765625
1695713686722535000,10.608534912109375,-0.0140380859375,0.070343017578125,-2.9559326171875
1695713686732056300,10.618056396484375,-0.1263427734375,-0.4547119140625,-2.894439697265625
1695713686741608400,10.6276083984375,-0.227203369140625,-0.74188232421875,-2.6690673828125
1695713686751160300,10.637160400390625,-0.318756103515625,-0.40374755859375,-2.206573486328125
1695713686760712400,10.64671240234375,-0.341644287109375,0.284423828125,-1.775970458984375
1695713686770264300,10.656264404296875,-0.187225341796875,1.068115234375,-1.634521484375
1695713686779785700,10.66578564453125,0.073699951171875,1.543426513671875,-1.91986083984375
1695713686789337900,10.675337890625,0.177154541015625,1.697998046875,-2.30804443359375
1695713686798889700,10.6848896484375,0.128326416015625,1.853790283203125,-2.469024658203125
1695713686808441900,10.69444189453125,0.070953369140625,1.885528564453125,-2.460174560546875
1695713686817993700,10.70399365234375,0.063629150390625,1.7578125,-2.36541748046875
1695713686827515400,10.713515380859375,0.119476318359375,1.546173095703125,-2.208099365234375
1695713686837067300,10.7230673828125,0.2325439453125,1.43829345703125,-1.99615478515625
1695713686846619400,10.732619384765625,0.35919189453125,1.40960693359375,-1.752777099609375
1695713686856171300,10.742171142578124,0.451507568359375,1.38763427734375,-1.52099609375
1695713686865723400,10.751723388671875,0.517120361328125,1.35833740234375,-1.318511962890625
1695713686875244800,10.761244873046875,0.56915283203125,1.32781982421875,-1.124420166015625
1695713686884797000,10.770796875,0.6182861328125,1.33056640625,-0.927734375
1695713686894348800,10.780348876953125,0.6610107421875,1.3677978515625,-0.734710693359375
1695713686903901000,10.78990087890625,0.6866455078125,1.38885498046875,-0.55755615234375
1695713686913422300,10.79942236328125,0.69122314453125,1.35162353515625,-0.382843017578125
1695713686922974200,10.80897412109375,0.68817138671875,1.244049072265625,-0.18890380859375
1695713686932556800,10.818556884765625,0.68389892578125,1.06414794921875,0.048980712890625
1695713686942109000,10.82810888671875,0.6793212890625,0.834197998046875,0.336456298828125
1695713686951660800,10.837660888671875,0.692138671875,0.62408447265625,0.663299560546875
1695713686961182200,10.84718212890625,0.726165771484375,0.455474853515625,1.013031005859375
1695713686970734300,10.856734375,0.767364501953125,0.302734375,1.374359130859375
1695713686980286200,10.8662861328125,0.805511474609375,0.159454345703125,1.740875244140625
1695713686989838300,10.87583837890625,0.833282470703125,0.02716064453125,2.08221435546875
1695713686999390200,10.88539013671875,0.832061767578125,-0.04974365234375,2.32513427734375
1695713687008912000,10.894911865234375,0.774383544921875,0.020751953125,2.35931396484375
1695713687018463700,10.904463623046874,0.66802978515625,0.26458740234375,2.107391357421875
1695713687028015900,10.914015869140625,0.532073974609375,0.551910400390625,1.525421142578125
1695713687037567700,10.923567626953124,0.378265380859375,0.888214111328125,0.5816650390625
1695713687047120000,10.933119873046875,0.21728515625,1.219024658203125,-0.658111572265625
1695713687056641300,10.942641357421875,0.056304931640625,1.36260986328125,-1.65130615234375
1695713687066193400,10.952193359375,0.066680908203125,0.736083984375,-1.94580078125
1695713687075745300,10.961745361328125,0.3094482421875,-0.290374755859375,-1.719207763671875
1695713687085297400,10.97129736328125,0.54931640625,-0.78216552734375,-1.389923095703125
1695713687094818800,10.98081884765625,0.526275634765625,-0.7647705078125,-1.035614013671875
1695713687104370700,10.99037060546875,0.347900390625,-0.516815185546875,-0.738067626953125
1695713687113922800,10.9999228515625,0.20111083984375,0.028533935546875,-0.462646484375
1695713687123474700,11.009474609375,-0.0494384765625,0.900115966796875,-0.05218505859375
1695713687133026800,11.01902685546875,-0.4278564453125,1.577301025390625,0.49530029296875
1695713687142548200,11.02854833984375,-0.6976318359375,1.43157958984375,1.113433837890625
1695713687152100400,11.038100341796875,-0.626373291015625,-0.12298583984375,1.479339599609375
1695713687161652200,11.04765234375,-0.263214111328125,-2.388153076171875,0.84259033203125
1695713687171204400,11.057204345703125,0.001220703125,-2.5909423828125,-0.42236328125
1695713687180756200,11.066756103515624,0.136260986328125,-0.618438720703125,-1.057891845703125
1695713687190278000,11.07627783203125,0.496368408203125,-0.00091552734375,-0.18524169921875
1695713687199829800,11.085829833984375,0.839080810546875,-0.83221435546875,1.18865966796875
1695713687209382000,11.0953818359375,0.875396728515625,-1.397552490234375,1.889190673828125
1695713687218964200,11.104964111328124,0.486907958984375,-1.1102294921875,1.751861572265625
1695713687228486000,11.11448583984375,0.00091552734375,-0.531768798828125,1.36199951171875
1695713687238037800,11.124037841796875,-0.258636474609375,-0.37322998046875,1.34185791015625
1695713687247590000,11.13358984375,-0.251007080078125,-0.653533935546875,1.62933349609375
1695713687257141800,11.143141845703125,-0.10711669921875,-1.2213134765625,1.887664794921875
1695713687266694000,11.15269384765625,0.033111572265625,-1.656951904296875,1.867523193359375
1695713687276215300,11.16221533203125,0.130462646484375,-1.617279052734375,1.62353515625
1695713687285767200,11.17176708984375,0.131683349609375,-1.240997314453125,1.399383544921875
1695713687295319300,11.1813193359375,0.065765380859375,-0.86822509765625,1.35009765625
1695713687304871200,11.19087109375,-0.018310546875,-0.592803955078125,1.398773193359375
1695713687314423300,11.20042333984375,-0.10589599609375,-0.4754638671875,1.485748291015625
1695713687323944700,11.20994482421875,-0.175018310546875,-0.556793212890625,1.6119384765625
1695713687333496800,11.219496826171875,-0.214080810546875,-0.85205078125,1.734466552734375
1695713687343048700,11.229048583984374,-0.213775634765625,-1.2115478515625,1.806793212890625
1695713687352600800,11.238600830078125,-0.171051025390625,-1.44012451171875,1.837310791015625
1695713687362122200,11.248122314453125,-0.0885009765625,-1.43463134765625,1.840667724609375
1695713687371674400,11.25767431640625,0.008087158203125,-1.276702880859375,1.799468994140625
1695713687381226200,11.267226318359375,0.052337646484375,-1.0577392578125,1.747894287109375
1695713687390778400,11.2767783203125,0.026092529296875,-0.8587646484375,1.689453125
1695713687400330200,11.286330322265625,-0.0439453125,-0.74920654296875,1.61651611328125
1695713687409851600,11.2958515625,-0.11932373046875,-0.6964111328125,1.55426025390625
1695713687419403800,11.30540380859375,-0.198516845703125,-0.630340576171875,1.533966064453125
1695713687428955600,11.31495556640625,-0.263519287109375,-0.50079345703125,1.5631103515625
1695713687438507800,11.3245078125,-0.270843505859375,-0.38482666015625,1.62628173828125
1695713687448059600,11.3340595703125,-0.244903564453125,-0.34576416015625,1.71417236328125
1695713687457581300,11.343581298828125,-0.232391357421875,-0.330352783203125,1.802520751953125
1695713687467133200,11.35313330078125,-0.259246826171875,-0.322113037109375,1.869659423828125
1695713687476685300,11.362685302734375,-0.330047607421875,-0.34576416015625,1.9097900390625
1695713687486237200,11.3722373046875,-0.42205810546875,-0.33935546875,1.91070556640625
1695713687495758800,11.3817587890625,-0.50201416015625,-0.250091552734375,1.857757568359375
1695713687505341200,11.391341064453124,-0.540924072265625,-0.212554931640625,1.759796142578125
1695713687514893300,11.400893310546875,-0.543365478515625,-0.280609130859375,1.644287109375
1695713687524445200,11.410445068359374,-0.521697998046875,-0.355224609375,1.493988037109375
1695713687533997300,11.419997314453125,-0.4791259765625,-0.396728515625,1.27288818359375
1695713687543518700,11.429518798828125,-0.42694091796875,-0.575714111328125,1.022796630859375
1695713687553070800,11.43907080078125,-0.37139892578125,-0.906524658203125,0.791168212890625
1695713687562622700,11.448622802734375,-0.297393798828125,-1.1810302734375,0.5859375
1695713687572174800,11.4581748046875,-0.226287841796875,-1.221923828125,0.415191650390625
1695713687581726700,11.467726806640625,-0.199432373046875,-1.034088134765625,0.289459228515625
1695713687591248100,11.477248046875,-0.225067138671875,-0.797119140625,0.1947021484375
1695713687600800300,11.48680029296875,-0.261383056640625,-0.686492919921875,0.1214599609375
1695713687610352000,11.49635205078125,-0.279998779296875,-0.70892333984375,0.065155029296875
1695713687619904300,11.505904296875,-0.275726318359375,-0.7733154296875,0.010528564453125
1695713687629425700,11.51542578125,-0.265655517578125,-0.74981689453125,-0.043487548828125
1695713687638977800,11.524977783203125,-0.277252197265625,-0.595245361328125,-0.08697509765625
1695713687648529700,11.53452978515625,-0.326995849609375,-0.379638671875,-0.12908935546875
1695713687658081800,11.544081787109375,-0.38848876953125,-0.192718505859375,-0.19561767578125
1695713687667633700,11.553633544921874,-0.40252685546875,-0.03753662109375,-0.329437255859375
1695713687677155300,11.5631552734375,-0.337066650390625,0.056304931640625,-0.5780029296875
1695713687686707200,11.572707275390625,-0.187225341796875,0.105743408203125,-0.86090087890625
1695713687696259300,11.58225927734375,-0.00518798828125,0.21209716796875,-1.096038818359375
1695713687705811200,11.591811279296875,0.153961181640625,0.438079833984375,-1.2823486328125
1695713687715363300,11.60136328125,0.247802734375,0.752410888671875,-1.4923095703125
1695713687724884700,11.610884765625,0.34271240234375,1.03515625,-1.753082275390625
1695713687734436600,11.6204365234375,0.465850830078125,1.201324462890625,-2.057037353515625
1695713687743988700,11.62998876953125,0.505828857421875,1.255340576171875,-2.402191162109375
1695713687753540600,11.63954052734375,0.455169677734375,1.189727783203125,-2.792816162109375
1695713687763092700,11.6490927734375,0.340576171875,0.96038818359375,-3.118438720703125
1695713687772614100,11.6586142578125,0.2435302734375,0.59814453125,-3.241119384765625
1695713687782166300,11.668166259765625,0.173492431640625,0.26641845703125,-3.210296630859375
1695713687791748600,11.67774853515625,0.114288330078125,0.133514404296875,-3.134002685546875
1695713687801300700,11.68730078125,0.088348388671875,0.131683349609375,-3.0401611328125
1695713687810852600,11.6968525390625,0.126800537109375,-0.02288818359375,-2.908172607421875
1695713687820374300,11.706374267578125,0.154266357421875,-0.45806884765625,-2.786712646484375
1695713687829926100,11.715926025390624,0.108795166015625,-0.937042236328125,-2.69378662109375
1695713687839478300,11.725478271484375,-0.00335693359375,-0.950164794921875,-2.507476806640625
1695713687849030100,11.735030029296874,-0.12298583984375,-0.272674560546875,-2.145538330078125
1695713687858551800,11.7445517578125,-0.162200927734375,0.736541748046875,-1.827545166015625
1695713687868103700,11.754103759765625,-0.108642578125,1.69281005859375,-1.747283935546875
1695713687877655800,11.76365576171875,0.028228759765625,2.212066650390625,-1.9915771484375
1695713687887207700,11.773207763671875,0.079498291015625,2.190399169921875,-2.349853515625
1695713687896759800,11.782759765625,0.005035400390625,2.008056640625,-2.494049072265625
1695713687906281200,11.79228125,-0.06927490234375,1.80572509765625,-2.419586181640625
1695713687915833000,11.8018330078125,-0.076904296875,1.558074951171875,-2.24456787109375
1695713687925385200,11.81138525390625,0.0018310546875,1.331787109375,-2.021484375
1695713687934937000,11.82093701171875,0.146942138671875,1.175384521484375,-1.775054931640625
1695713687944489200,11.8304892578125,0.30914306640625,1.07940673828125,-1.5350341796875
1695713687954010600,11.8400107421875,0.467376708984375,1.0137939453125,-1.30523681640625
1695713687963562800,11.849562744140625,0.61370849609375,0.9527587890625,-1.079559326171875
1695713687973114600,11.859114501953124,0.711669921875,0.904388427734375,-0.86151123046875
1695713687982666800,11.868666748046875,0.747222900390625,0.919189453125,-0.670623779296875
1695713687992188200,11.878188232421875,0.750579833984375,0.9613037109375,-0.509033203125
1695713688001740300,11.887740234375,0.738983154296875,0.975341796875,-0.369415283203125
1695713688011292200,11.897292236328125,0.703125,0.96282958984375,-0.2276611328125
1695713688020844300,11.90684423828125,0.64788818359375,0.9100341796875,-0.0634765625
1695713688030396200,11.916396240234375,0.5889892578125,0.815887451171875,0.13946533203125
1695713688039917600,11.92591748046875,0.536346435546875,0.68817138671875,0.387725830078125
1695713688049469700,11.9354697265625,0.497894287109375,0.546722412109375,0.688629150390625
1695713688059021600,11.945021484375,0.498504638671875,0.405426025390625,1.038665771484375
1695713688068573700,11.95457373046875,0.529937744140625,0.27679443359375,1.414642333984375
1695713688078156300,11.96415625,0.560302734375,0.154571533203125,1.779327392578125
1695713688087677700,11.973677734375,0.58135986328125,0.089874267578125,2.103424072265625
1695713688097229600,11.9832294921875,0.59844970703125,0.19622802734375,2.3077392578125
1695713688106781700,11.99278173828125,0.63262939453125,0.419769287109375,2.254486083984375
1695713688116333600,12.00233349609375,0.657958984375,0.512237548828125,1.807403564453125
1695713688125855200,12.011855224609375,0.56671142578125,0.406951904296875,0.805206298828125
1695713688135407000,12.021406982421874,0.27679443359375,0.508880615234375,-0.693511962890625
1695713688144959200,12.030959228515625,-0.01495361328125,1.05224609375,-2.105865478515625
1695713688154511000,12.040510986328124,0.026397705078125,0.99212646484375,-2.58056640625
1695713688164063200,12.050063232421875,0.34454345703125,0.079803466796875,-2.133331298828125
1695713688173584600,12.059584716796875,0.634765625,-0.76507568359375,-1.313323974609375
1695713688183136800,12.06913671875,0.6597900390625,-0.876922607421875,-0.631866455078125
1695713688192688600,12.078688720703125,0.488739013671875,-0.4254150390625,-0.297088623046875
1695713688202240800,12.08824072265625,0.24444580078125,0.26519775390625,-0.1422119140625
1695713688211792600,12.097792724609375,-0.161590576171875,1.083221435546875,0.043792724609375
1695713688221314000,12.10731396484375,-0.579071044921875,1.524505615234375,0.372772216796875
1695713688230866200,12.1168662109375,-0.687713623046875,0.796661376953125,0.781097412109375
1695713688240418000,12.12641796875,-0.4364013671875,-1.204833984375,0.774078369140625
1695713688249970200,12.13597021484375,-0.111083984375,-2.28912353515625,0.452728271484375
1695713688259522000,12.14552197265625,0.107269287109375,-1.265716552734375,0.11627197265625
1695713688269043700,12.155043701171875,0.421600341796875,-0.666656494140625,0.373687744140625
1695713688278595600,12.164595703125,0.60028076171875,-1.017608642578125,1.2255859375
1695713688288147700,12.174147705078125,0.518341064453125,-1.16912841796875,1.871795654296875
1695713688297699600,12.183699462890624,0.20416259765625,-0.606231689453125,1.883087158203125
1695713688307221200,12.19322119140625,-0.09918212890625,-0.226287841796875,1.70074462890625
1695713688316773000,12.202773193359375,-0.241851806640625,-0.558319091796875,1.884918212890625
1695713688326325200,12.2123251953125,-0.175323486328125,-1.045379638671875,2.174835205078125
1695713688335877000,12.221877197265625,-0.06500244140625,-1.660308837890625,2.191009521484375
1695713688345429200,12.23142919921875,-0.01495361328125,-1.998138427734375,1.90948486328125
1695713688354950700,12.24095068359375,0.00396728515625,-1.678314208984375,1.55120849609375
1695713688364533200,12.250533203125,-0.00091552734375,-1.001739501953125,1.3397216796875
1695713688374085000,12.260085205078125,-0.03662109375,-0.37628173828125,1.33209228515625
1695713688383637200,12.26963720703125,-0.07568359375,-0.0115966796875,1.400604248046875
1695713688393189000,12.279189208984375,-0.12115478515625,0.072784423828125,1.474456787109375
1695713688402710500,12.28871044921875,-0.159149169921875,-0.08880615234375,1.5594482421875
1695713688412262700,12.2982626953125,-0.171966552734375,-0.3680419921875,1.64642333984375
1695713688421814500,12.307814453125,-0.157318115234375,-0.684356689453125,1.742095947265625
1695713688431366700,12.31736669921875,-0.098876953125,-0.916900634765625,1.806182861328125
1695713688440888000,12.32688818359375,0.008697509765625,-0.965728759765625,1.795196533203125
1695713688450440200,12.336440185546875,0.122528076171875,-0.86090087890625,1.72027587890625
1695713688459992000,12.345991943359374,0.179595947265625,-0.648956298828125,1.6192626953125
1695713688469544200,12.355544189453125,0.141754150390625,-0.472412109375,1.510467529296875
1695713688479096000,12.365095947265624,0.014190673828125,-0.3564453125,1.416778564453125
1695713688488617700,12.37461767578125,-0.13397216796875,-0.39642333984375,1.28997802734375
1695713688498169600,12.384169677734375,-0.214691162109375,-0.41839599609375,1.177825927734375
1695713688507721700,12.3937216796875,-0.259552001953125,-0.39459228515625,1.129302978515625
1695713688517273600,12.403273681640625,-0.311737060546875,-0.329132080078125,1.138763427734375
1695713688526825700,12.41282568359375,-0.334014892578125,-0.218353271484375,1.1810302734375
1695713688536347100,12.42234716796875,-0.298309326171875,-0.172882080078125,1.197509765625
1695713688545899000,12.43189892578125,-0.265960693359375,-0.197906494140625,1.168060302734375
1695713688555451100,12.441451171875,-0.260772705078125,-0.235137939453125,1.114654541015625
1695713688565003000,12.4510029296875,-0.257415771484375,-0.232086181640625,1.071319580078125
1695713688574555100,12.46055517578125,-0.245208740234375,-0.243682861328125,1.038360595703125
1695713688584076500,12.47007666015625,-0.230255126953125,-0.293426513671875,0.987548828125
1695713688593628700,12.479628662109375,-0.222015380859375,-0.325469970703125,0.9075927734375
1695713688603180500,12.4891806640625,-0.226593017578125,-0.3704833984375,0.798797607421875
1695713688612732700,12.498732666015625,-0.235443115234375,-0.478515625,0.658721923828125
1695713688622254000,12.508254150390625,-0.236663818359375,-0.591888427734375,0.52093505859375
1695713688631806200,12.51780615234375,-0.228729248046875,-0.638885498046875,0.401153564453125
1695713688641358000,12.527358154296875,-0.222015380859375,-0.578765869140625,0.289459228515625
1695713688650940700,12.536940673828125,-0.241851806640625,-0.484619140625,0.17608642578125
1695713688660492500,12.546492431640624,-0.281219482421875,-0.4766845703125,0.046539306640625
1695713688670014200,12.55601416015625,-0.312347412109375,-0.574493408203125,-0.09979248046875
1695713688679566000,12.565566162109375,-0.307159423828125,-0.7183837890625,-0.256195068359375
1695713688689118200,12.5751181640625,-0.256500244140625,-0.7867431640625,-0.414276123046875
1695713688698670000,12.584670166015625,-0.176849365234375,-0.665740966796875,-0.56243896484375
1695713688708222200,12.59422216796875,-0.0921630859375,-0.39337158203125,-0.702056884765625
1695713688717743600,12.60374365234375,-0.01129150390625,-0.159454345703125,-0.83465576171875
1695713688727295500,12.61329541015625,0.089874267578125,-0.05645751953125,-0.982208251953125
1695713688736847600,12.62284765625,0.19744873046875,0.027008056640625,-1.2091064453125
1695713688746399500,12.6323994140625,0.2490234375,0.2093505859375,-1.5362548828125
1695713688755921200,12.641921142578125,0.22003173828125,0.503692626953125,-1.94061279296875
1695713688765473000,12.65147314453125,0.117340087890625,0.805816650390625,-2.401275634765625
1695713688775025200,12.661025146484375,-0.0335693359375,0.9991455078125,-2.842559814453125
1695713688784577000,12.670576904296874,-0.157318115234375,1.0455322265625,-3.204803466796875
1695713688794129200,12.680129150390625,-0.222015380859375,0.985107421875,-3.472747802734375
1695713688803650600,12.689650634765625,-0.200958251953125,0.846099853515625,-3.580474853515625
1695713688813202700,12.69920263671875,-0.160369873046875,0.515289306640625,-3.496856689453125
1695713688822754600,12.708754638671875,-0.160369873046875,0.022125244140625,-3.265228271484375
1695713688832306700,12.718306640625,-0.248260498046875,-0.33538818359375,-2.928009033203125
1695713688841858600,12.727858642578125,-0.326995849609375,-0.14129638671875,-2.549591064453125
1695713688851380000,12.7373798828125,-0.38543701171875,0.482330322265625,-2.125091552734375
1695713688860932000,12.74693212890625,-0.46478271484375,1.106414794921875,-1.65557861328125
1695713688870484000,12.75648388671875,-0.477294921875,1.096343994140625,-1.439971923828125
1695713688880036000,12.7660361328125,-0.3704833984375,0.6268310546875,-1.408233642578125
1695713688889557500,12.7755576171875,-0.182952880859375,0.27679443359375,-1.448516845703125
1695713688899109600,12.785109619140625,0.0018310546875,0.408172607421875,-1.463775634765625
1695713688908661500,12.79466162109375,0.112152099609375,0.794219970703125,-1.457366943359375
1695713688918213600,12.804213623046875,0.150909423828125,1.144561767578125,-1.462249755859375
1695713688927765500,12.813765625,0.145111083984375,1.30523681640625,-1.457977294921875
1695713688937317600,12.823317626953125,0.140838623046875,1.34307861328125,-1.381988525390625
1695713688946869500,12.832869384765624,0.164947509765625,1.30889892578125,-1.224365234375
1695713688956421600,12.842421630859375,0.22369384765625,1.190338134765625,-1.026458740234375
1695713688965973500,12.851973388671874,0.2923583984375,1.0400390625,-0.8184814453125
1695713688975525600,12.861525634765625,0.35797119140625,0.849456787109375,-0.614776611328125
1695713688985047000,12.871047119140625,0.419158935546875,0.6524658203125,-0.400848388671875
1695713688994599200,12.88059912109375,0.465240478515625,0.494232177734375,-0.18280029296875
1695713689004151000,12.890151123046875,0.508880615234375,0.36041259765625,0.012969970703125
1695713689013703200,12.899703125,0.540313720703125,0.26397705078125,0.1739501953125
1695713689023255000,12.909255126953125,0.528717041015625,0.24017333984375,0.307464599609375
1695713689032776400,12.9187763671875,0.503387451171875,0.30914306640625,0.459747314453125
1695713689042328600,12.92832861328125,0.485076904296875,0.457611083984375,0.686492919921875
1695713689051880400,12.93788037109375,0.477142333984375,0.6878662109375,1.015777587890625
