time,seconds_elapsed,z,y,x
1695712775812775200,0.120775146484375,-0.3410175144672394,-0.2516685426235199,1.207076907157898
1695712775822801200,0.13080126953125,-0.6094639897346497,-0.39441385865211487,0.9046751260757446
1695712775832850400,0.140850341796875,-0.6946850419044495,-0.480567067861557,0.5797697305679321
1695712775842886400,0.150886474609375,-0.6946850419044495,-0.47950178384780884,0.2667153775691986
1695712775852901000,0.160901123046875,-0.6936197876930237,-0.2751043438911438,-0.003861580742523074
1695712775862925300,0.17092529296875,-0.6936197876930237,0.09880319982767105,-0.2689790725708008
1695712775873140500,0.181140380859375,-0.5945502519607544,0.4193144142627716,-0.5470128655433655
1695712775882990800,0.190990966796875,-0.36658385396003723,0.3724428117275238,-0.6705834865570068
1695712775893015000,0.20101513671875,-0.08548741042613983,0.25206801295280457,-0.6183855533599854
1695712775903209200,0.211209228515625,0.1808284968137741,0.04767054691910744,-0.44581282138824463
1695712775913109800,0.22110986328125,0.3596596419811249,-0.20160114765167236,-0.24234747886657715
1695712775923078100,0.231078125,0.41718387603759766,-0.4432828426361084,-0.043276336044073105
1695712775933144300,0.241144287109375,0.336223840713501,-0.6360955238342285,0.12716585397720337
1695712775943154200,0.251154296875,0.14993585646152496,-0.8182556629180908,0.2432795912027359
1695712775953218300,0.26121826171875,-0.07376950979232788,-0.9789772629737854,0.30186909437179565
1695712775963251000,0.2712509765625,-0.24101589620113373,-1.0929604768753052,0.31571751832962036
1695712775973289200,0.281289306640625,-0.2781669795513153,-1.1163963079452515,0.3050648868083954
1695712775983324200,0.29132421875,-0.19414429366588593,-1.0993521213531494,0.2656501233577728
1695712775993371000,0.301370849609375,-0.032224226742982864,-0.6787061095237732,0.20706062018871307
1695712776003411000,0.311410888671875,0.1531316488981247,-0.37630438804626465,0.18149429559707642
1695712776013386800,0.32138671875,0.3032006621360779,-0.303866446018219,0.17616797983646393
1695712776023399400,0.3313994140625,0.35220280289649963,-0.39015281200408936,0.15699322521686554
1695712776033475000,0.34147509765625,0.26391905546188354,-0.48908916115760803,0.12503531575202942
1695712776043514400,0.351514404296875,0.0913463607430458,-0.46565335988998413,0.11757847666740417
1695712776053546500,0.36154638671875,-0.056725289672613144,-0.4304996728897095,0.14207953214645386
1695712776063582500,0.37158251953125,-0.15686006844043732,-0.508263885974884,0.20493009686470032
1695712776073583600,0.38158349609375,-0.171773761510849,-0.7266429662704468,0.28802067041397095
1695712776083605000,0.39160498046875,-0.105727419257164,-0.9864341020584106,0.3689807057380676
1695712776093683000,0.401682861328125,-0.06631266325712204,-1.1568763256072998,0.43702441453933716
1695712776103728400,0.411728271484375,-0.15899059176445007,-1.0908299684524536,0.492418110370636
1695712776113747700,0.421747802734375,-0.2601906359195709,-0.9715204238891602,0.49454864859580994
1695712776123782000,0.431781982421875,-0.19840535521507263,-0.93117356300354,0.3945470154285431
1695712776133794600,0.441794677734375,-0.09294424951076508,-0.8747146129608154,0.24008379876613617
1695712776143819800,0.45181982421875,-0.0492684431374073,-0.8299735188484192,0.06857634335756302
1695712776153878000,0.4618779296875,-0.023702116683125496,-0.7990809082984924,-0.10719215124845505
1695712776163917300,0.471917236328125,-0.0141147430986166,-0.8598009347915649,-0.297741174697876
1695712776173960200,0.481960205078125,-0.0141147430986166,-1.0247836112976074,-0.43516018986701965
1695712776184001000,0.4920009765625,0.05086633935570717,-1.2048131227493286,-0.49161916971206665
1695712776193994800,0.501994873046875,0.16911059617996216,-1.31453537940979,-0.5150549411773682
1695712776204015600,0.512015625,0.2914827764034271,-1.453019618988037,-0.5874928832054138
1695712776214089000,0.5220888671875,0.42677125334739685,-1.6020233631134033,-0.7609977126121521
1695712776224131800,0.5321318359375,0.5215796828269958,-1.6765917539596558,-0.9985514879226685
1695712776234132500,0.542132568359375,0.5865607857704163,-1.7650086879730225,-1.296692132949829
1695712776244171300,0.552171142578125,0.6739124059677124,-1.8129456043243408,-1.6727302074432373
1695712776254191000,0.562191162109375,0.7442198395729065,-1.7287896871566772,-2.0763320922851562
1695712776264227800,0.572227783203125,0.7878956198692322,-1.6062843799591064,-2.4021694660186768
1695712776274259500,0.582259521484375,0.8378298282623291,-1.5732612609863281,-2.594982147216797
1695712776284295700,0.592295654296875,0.9539436101913452,-1.7266591787338257,-2.6407885551452637
1695712776294312200,0.602312255859375,1.1893668174743652,-2.050366163253784,-2.4788684844970703
1695712776304346400,0.612346435546875,1.57912015914917,-2.481797933578491,-2.033721446990967
1695712776314403800,0.62240380859375,2.121206283569336,-3.1718225479125977,-1.3989574909210205
1695712776324440600,0.632440673828125,2.832669258117676,-3.989811897277832,-0.7322356104850769
1695712776334469600,0.6424697265625,3.578087329864502,-4.64162015914917,-0.1699095517396927
1695712776344505300,0.65250537109375,4.239482879638672,-4.987697601318359,0.16125428676605225
1695712776354523400,0.6625234375,4.844419479370117,-5.043091297149658,0.17403744161128998
1695712776364557600,0.6725576171875,5.350286483764648,-4.9823713302612305,-0.07097318768501282
1695712776374591700,0.682591796875,5.677189350128174,-4.964261531829834,-0.3062632977962494
1695712776384626000,0.6926259765625,6.07133674621582,-5.471194267272949,-0.3850927948951721
1695712776394660000,0.70266015625,6.509027004241943,-6.716220855712891,-0.0997353047132492
1695712776404694300,0.7126943359375,6.9765448570251465,-8.042075157165527,0.4956139028072357
1695712776414724000,0.72272412109375,7.527153015136719,-8.877108573913574,0.8833698630332947
1695712776424757800,0.7327578125,8.050064086914062,-8.79082202911377,0.9620662331581116
1695712776434783000,0.742782958984375,8.3716402053833,-7.794001579284668,0.6990792751312256
1695712776444816000,0.75281591796875,8.259921073913574,-6.262551784515381,0.12929637730121613
1695712776454849800,0.762849853515625,7.724226474761963,-4.849213123321533,-0.39787596464157104
1695712776464882700,0.772882568359375,6.934999465942383,-3.8683717250823975,-0.28389275074005127
1695712776474916900,0.782916748046875,5.965875625610352,-3.7288222312927246,0.4785696864128113
1695712776484950000,0.792949951171875,4.970120906829834,-4.34121561050415,1.6628764867782593
1695712776494967000,0.802967041015625,4.1223039627075195,-5.066526889801025,2.9515793323516846
1695712776504998400,0.812998291015625,3.529085397720337,-5.611808776855469,4.0804924964904785
1695712776515051500,0.823051513671875,3.0818076133728027,-6.036715984344482,4.833367347717285
1695712776525085000,0.8330849609375,2.7335996627807617,-6.210353851318359,5.16786003112793
1695712776535109600,0.843109619140625,2.493915319442749,-6.258290767669678,5.250817775726318
1695712776545296000,0.8532958984375,2.2586252689361572,-6.251899242401123,5.142293930053711
1695712776555331000,0.8633310546875,1.9571555852890015,-6.03991174697876,4.9260454177856445
1695712776565364000,0.873364013671875,1.5599454641342163,-5.496760368347168,4.604468822479248
1695712776575396900,0.88339697265625,1.005076289176941,-4.48396110534668,4.164648056030273
1695712776585281000,0.893281005859375,0.2872216999530792,-3.3997888565063477,3.6278884410858154
1695712776595301600,0.903301513671875,-0.4571312665939331,-1.8129456043243408,2.252899408340454
1695712776605335600,0.91333544921875,-0.8044071793556213,0.9624657034873962,-0.8803072571754456
1695712776615357400,0.923357421875,-1.415602207183838,1.6803202629089355,-2.251035213470459
1695712776625411300,0.933411376953125,-2.3017683029174805,0.6696513295173645,-1.5939006805419922
1695712776635436300,0.943436279296875,-2.6659553050994873,-0.4858933687210083,-1.0347704887390137
1695712776645473500,0.9534736328125,-2.2090904712677,-1.2676637172698975,-0.6768419146537781
1695712776655499800,0.963499755859375,-1.6052191257476807,-1.6488949060440063,-0.43409493565559387
1695712776665524700,0.973524658203125,-1.4422338008880615,-2.091911554336548,-0.19121482968330383
1695712776675550700,0.98355078125,-1.569000244140625,-2.687260627746582,0.1399490088224411
1695712776685598000,0.993597900390625,-1.7181371450424194,-3.1366686820983887,0.4828307330608368
1695712776695626200,1.003626220703125,-1.6861791610717773,-3.3198940753936768,0.7960182428359985
1695712776705664000,1.0136640625,-1.653156042098999,-3.2676961421966553,1.0877673625946045
1695712776715693300,1.023693359375,-1.6403728723526,-2.906704902648926,1.2752537727355957
1695712776725721900,1.033721923828125,-1.6925708055496216,-2.373141050338745,1.3785842657089233
1695712776735751000,1.0437509765625,-1.69044029712677,-1.5647391080856323,1.3263863325119019
1695712776745796000,1.053796142578125,-1.4933664798736572,-0.6648576855659485,1.3338432312011719
1695712776755826700,1.06382666015625,-1.1760510206222534,0.3127880394458771,1.2880369424819946
1695712776765854700,1.073854736328125,-0.763927161693573,1.0700572729110718,1.2656663656234741
1695712776775885300,1.08388525390625,-0.28988486528396606,1.674993872642517,1.152748465538025
1695712776785916200,1.093916259765625,0.07856319099664688,2.0690083503723145,0.7044056057929993
1695712776795946800,1.10394677734375,0.14141374826431274,2.1819262504577637,0.32637014985084534
1695712776805989000,1.113989013671875,0.15845796465873718,2.135054588317871,0.17829850316047668
1695712776816021000,1.12402099609375,0.18828535079956055,1.8548903465270996,-0.0294279083609581
1695712776826024200,1.134024169921875,0.3436806797981262,1.185105800628662,-0.2966759204864502
1695712776836053200,1.14405322265625,0.5567334294319153,0.8847014307975769,-0.5715139508247375
1695712776846106600,1.154106689453125,0.8111982345581055,0.7494129538536072,-0.8685893416404724
1695712776856138000,1.164137939453125,1.3182637691497803,0.8623309135437012,-1.1956253051757812
1695712776866176000,1.174176025390625,2.0796608924865723,1.1211899518966675,-1.4777870178222656
1695712776876208000,1.1842080078125,2.885932445526123,1.6622107028961182,-1.5470291376113892
1695712776886241000,1.194240966796875,3.4461278915405273,2.0583555698394775,-1.4255890846252441
1695712776896273200,1.204273193359375,3.8284244537353516,1.8090839385986328,-1.2167973518371582
1695712776906292000,1.2142919921875,4.297007083892822,1.1797795295715332,-0.9452883005142212
1695712776916322800,1.22432275390625,4.872116565704346,0.10839057713747025,-0.6715155839920044
1695712776926376000,1.2343759765625,5.341764450073242,-0.6478134393692017,-0.3105243444442749
1695712776936409000,1.2444091796875,5.626189708709717,-0.8480830192565918,0.04833633825182915
1695712776946440400,1.2544404296875,5.61021089553833,-0.7564703226089478,0.2805638015270233
1695712776956473000,1.26447314453125,5.2565436363220215,-0.3645864725112915,0.4125233590602875
1695712776966498600,1.27449853515625,4.692086696624756,0.15512901544570923,0.406131774187088
1695712776976530700,1.28453076171875,4.180893421173096,0.5301018357276917,0.3647196292877197
1695712776986564000,1.294564208984375,3.9615824222564697,0.6483460664749146,0.3753722608089447
1695712776996596200,1.30459619140625,3.8092496395111084,0.3202448785305023,0.3008038103580475
1695712777006601000,1.31460107421875,3.6409380435943604,0.011451584286987782,0.34874069690704346
1695712777016630500,1.324630615234375,3.3992562294006348,-0.09294424951076508,0.49348339438438416
1695712777026690800,1.33469091796875,3.1372013092041016,-0.15153375267982483,0.5808349847793579
1695712777036723500,1.344723388671875,2.886997699737549,-0.027963170781731606,0.5510076284408569
1695712777046728400,1.354728515625,2.746382713317871,0.14341111481189728,0.40932756662368774
1695712777056758300,1.36475830078125,2.7335996627807617,0.1519332230091095,0.34447962045669556
1695712777066818300,1.374818359375,2.8188207149505615,-0.07909582555294037,0.34980595111846924
1695712777076851200,1.384851318359375,2.801776647567749,-0.621181845664978,0.41891491413116455
1695712777086889200,1.39488916015625,2.557831048965454,-1.6595475673675537,0.48496127128601074
1695712777096922600,1.404922607421875,2.648378610610962,-2.2037642002105713,0.3242396116256714
1695712777106951400,1.414951416015625,2.9391956329345703,-1.9535603523254395,0.285890132188797
1695712777116984300,1.424984375,2.961432933807373,-1.448758602142334,0.11118689179420471
1695712777127015700,1.435015625,2.7538397312164307,-0.5551354885101318,-0.42024651169776917
1695712777137048300,1.44504833984375,2.518416404724121,0.34794172644615173,-0.8973514437675476
1695712777147079400,1.455079345703125,2.1094882488250732,0.6854971647262573,-0.9122651219367981
1695712777157111800,1.46511181640625,1.5503580570220947,0.5194491744041443,-0.5214465260505676
1695712777167146000,1.47514599609375,0.9965541362762451,0.21584904193878174,-0.1411474347114563
1695712777177178600,1.4851787109375,0.43209755420684814,0.03169159218668938,0.03555317223072052
1695712777187188700,1.495188720703125,-0.05779055133461952,-0.07803056389093399,0.12823110818862915
1695712777197219000,1.505218994140625,-0.3016027808189392,-0.37736964225769043,0.3285006880760193
1695712777207268400,1.515268310546875,-0.3261038362979889,-0.8800409436225891,0.58403080701828
1695712777217300500,1.525300537109375,-0.21758009493350983,-0.9576719999313354,0.6106624007225037
1695712777227339500,1.535339599609375,-0.12064110487699509,-0.8917587995529175,0.416784405708313
1695712777237372400,1.545372314453125,-0.09507478028535843,-0.7010766267776489,0.12290479242801666
1695712777247403000,1.555403076171875,-0.10892320424318314,-0.39121806621551514,-0.22423799335956573
1695712777257435600,1.565435546875,-0.14620743691921234,-0.14940322935581207,-0.42557281255722046
1695712777267462000,1.5754619140625,-0.19734008610248566,0.035952646285295486,-0.4596612751483917
1695712777277494000,1.585493896484375,-0.22929799556732178,-0.07483477145433426,-0.3424822688102722
1695712777287520800,1.595520751953125,-0.31864699721336365,-0.16325165331363678,-0.2689790725708008
1695712777297552100,1.60555224609375,-0.39321544766426086,-0.10466215014457703,-0.2828274965286255
1695712777307597800,1.615597900390625,-0.4432828426361084,-0.04394212365150452,-0.28069695830345154
1695712777317630700,1.625630615234375,-0.4677838981151581,0.10412952303886414,-0.287088543176651
1695712777327644000,1.635643798828125,-0.45073968172073364,0.29574382305145264,-0.2785664498806
1695712777337674800,1.6456748046875,-0.37084490060806274,0.45020705461502075,-0.2402169555425644
1695712777347695000,1.655695068359375,-0.25912538170814514,0.4938828647136688,-0.2167811542749405
1695712777357725000,1.665724853515625,-0.19307903945446014,0.38522595167160034,-0.28815382719039917
1695712777367777500,1.675777587890625,-0.0023968431632965803,0.49281758069992065,-0.41598546504974365
1695712777377809700,1.6858095703125,0.03275685757398605,0.7163897752761841,-0.4990760087966919
1695712777387837000,1.6958369140625,-0.15472954511642456,0.6876276731491089,-0.5789707899093628
1695712777397868500,1.70586865234375,-0.1675127148628235,0.7259771823883057,-0.5566002726554871
1695712777407897000,1.71589697265625,-0.13981585204601288,0.4917523264884949,-0.4713791608810425
1695712777417928400,1.725928466796875,-0.15899059176445007,0.14767217636108398,-0.45326969027519226
1695712777427955200,1.735955078125,-0.21012325584888458,0.08815056830644608,-0.45859599113464355
1695712777437986000,1.745986083984375,-0.27710169553756714,0.26272064447402954,-0.4383559823036194
1695712777448030700,1.75603076171875,-0.29201540350914,0.4672512710094452,-0.42024651169776917
1695712777458063000,1.76606298828125,-0.27177539467811584,0.5631250143051147,-0.43089914321899414
1695712777468088000,1.776088134765625,-0.24314641952514648,0.4949481189250946,-0.48309704661369324
1695712777478119400,1.786119384765625,-0.2047969400882721,0.42783650755882263,-0.5416865348815918
1695712777488148500,1.7961484375,-0.2186453640460968,0.28189539909362793,-0.6002760529518127
1695712777498179600,1.8061796875,-0.28988486528396606,0.11265163123607635,-0.6514087319374084
1695712777508215000,1.816215087890625,-0.2749711871147156,0.06471476703882217,-0.6503434777259827
1695712777518246700,1.82624658203125,-0.23888537287712097,0.04980107396841049,-0.5906887054443359
1695712777528306400,1.836306396484375,-0.3069290816783905,0.05512739345431328,-0.5704486966133118
1695712777538340900,1.8463408203125,-0.4059986174106598,0.3106575012207031,-0.5789707899093628
1695712777548374300,1.856374267578125,-0.3921501636505127,1.4907033443450928,-0.26045694947242737
1695712777558408700,1.86640869140625,-0.3207775056362152,4.348139762878418,0.05685844644904137
1695712777568442400,1.8764423828125,-0.3207775056362152,3.338536262512207,-0.5118591785430908
1695712777578476500,1.8864765625,-0.17283903062343597,1.7749955654144287,-0.65353924036026
1695712777588480000,1.89647998046875,-0.10359688848257065,1.0977542400360107,-0.44581282138824463
1695712777598511000,1.906510986328125,-0.21331904828548431,1.209473729133606,-0.21038956940174103
1695712777608572200,1.916572265625,-0.29095011949539185,1.3468927145004272,-0.08056056499481201
1695712777618606300,1.9266064453125,-0.2569948434829712,1.0423604249954224,-0.011318426579236984
1695712777628643000,1.93664306640625,-0.2324937880039215,0.5087965726852417,0.02383527345955372
1695712777638677500,1.946677490234375,-0.26338642835617065,-0.013049479573965073,0.033422645181417465
1695712777648650800,1.956650634765625,-0.33356067538261414,-0.5029376149177551,-0.02090579830110073
1695712777658678800,1.9666787109375,-0.378301739692688,-0.8022766709327698,-0.0954742506146431
1695712777668748800,1.976748779296875,-0.3996070325374603,-0.8171903491020203,-0.13795164227485657
1695712777678781200,1.98678125,-0.378301739692688,-0.6680534482002258,-0.154995858669281
1695712777688824600,1.996824462890625,-0.3261038362979889,-0.49335023760795593,-0.15712638199329376
1695712777698858000,2.00685791015625,-0.2824280261993408,-0.3177148699760437,-0.21571588516235352
1695712777708852500,2.0168525390625,-0.28668907284736633,-0.08442214131355286,-0.31372013688087463
1695712777718882000,2.026882080078125,-0.2739059031009674,0.27230802178382874,-0.38402754068374634
1695712777728921300,2.03692138671875,-0.18242639303207397,0.5407544374465942,-0.38722333312034607
1695712777738951700,2.04695166015625,-0.056725289672613144,0.6600639820098877,-0.3190464675426483
1695712777748973800,2.056973876953125,0.06258423626422882,0.5982787013053894,-0.24554327130317688
1695712777759003400,2.06700341796875,0.16165375709533691,0.392682820558548,-0.20612850785255432
1695712777769074700,2.07707470703125,0.22130851447582245,0.21478378772735596,-0.19547587633132935
1695712777779108600,2.087108642578125,0.21491694450378418,0.0774979293346405,-0.18908429145812988
1695712777789138700,2.097138671875,0.16804534196853638,-0.0684431865811348,-0.18162745237350464
1695712777799172400,2.10717236328125,0.10199899226427078,-0.24953800439834595,-0.13795164227485657
1695712777809195300,2.1171953125,0.040213704109191895,-0.4581965208053589,-0.06032055243849754
1695712777819227600,2.1272275390625,-0.004527370445430279,-0.5103944540023804,-0.01664474420249462
1695712777829260800,2.1372607421875,-0.02263685315847397,-0.6542050242424011,0.004660528618842363
1695712777839293200,2.147293212890625,-0.0141147430986166,-0.8502135276794434,0.009986846707761288
1695712777849326600,2.15732666015625,0.0636495053768158,-1.0120004415512085,-0.005992108024656773
1695712777859359200,2.167359130859375,0.08602003753185272,-1.034371018409729,-0.04966791719198227
1695712777869378000,2.1773779296875,0.044474758207798004,-0.9789772629737854,-0.050733182579278946
1695712777879409200,2.1874091796875,0.0018642114009708166,-0.8672577738761902,-0.030493171885609627
1695712777889443600,2.197443603515625,-0.0588558167219162,-0.6062681674957275,-0.009187898598611355
1695712777899475000,2.207474853515625,-0.07376950979232788,-0.5423523783683777,0.007856319658458233
1695712777909508600,2.217508544921875,0.012516847811639309,-0.4858933687210083,-0.04540686309337616
1695712777919540200,2.227540283203125,0.0679105594754219,-0.24527695775032043,-0.07523424178361893
1695712777929560000,2.23756005859375,0.09773793816566467,-0.07376950979232788,-0.06884266436100006
1695712777939590400,2.24759033203125,0.12543480098247528,0.03701791167259216,-0.06990792602300644
1695712777949658600,2.25765869140625,0.14141374826431274,0.1615206003189087,-0.052863709628582
1695712777959692800,2.26769287109375,0.13608743250370026,0.1657816469669342,-0.03262370079755783
1695712777969713000,2.277712890625,0.1296958476305008,0.19134798645973206,-0.018775271251797676
1695712777979745800,2.287745849609375,0.12223900109529495,0.24248063564300537,-0.01771000772714615
1695712777989777400,2.29777734375,0.09773793816566467,0.23821958899497986,-0.02090579830110073
1695712777999810000,2.30781005859375,0.06684529036283493,0.36498594284057617,-0.04540686309337616
1695712778009828600,2.31782861328125,0.0679105594754219,0.6430197358131409,-0.06777740269899368
1695712778019860000,2.32785986328125,0.14460954070091248,0.8804404139518738,-0.04966791719198227
1695712778029925400,2.33792529296875,0.24154852330684662,1.3053474426269531,-0.043276336044073105
1695712778039960000,2.3479599609375,0.32344067096710205,1.7218655347824097,-0.06351634114980698
1695712778049979600,2.357979736328125,0.447011262178421,1.8101491928100586,-0.04966791719198227
1695712778060012800,2.3680126953125,0.4757733643054962,1.541835904121399,-0.028362644836306572
1695712778070025700,2.378025634765625,0.3916175365447998,1.0487520694732666,-0.026232117787003517
1695712778080056800,2.388056884765625,0.33196279406547546,0.457663893699646,-0.01771000772714615
1695712778090104600,2.3981044921875,0.3532680571079254,-0.03755054250359535,-0.0017310534603893757
1695712778100137500,2.408137451171875,0.38948702812194824,-0.3304980397224426,0.028096329420804977
1695712778110175700,2.41817578125,0.3767038583755493,-0.5178512930870056,0.0739026665687561
1695712778120209200,2.428209228515625,0.41718387603759766,-0.7064029574394226,0.09946899116039276
1695712778130245600,2.43824560546875,0.5077312588691711,-0.9747162461280823,0.12183953076601028
1695712778140279300,2.448279296875,0.6323671340942383,-1.1824426651000977,0.16018901765346527
1695712778150275800,2.45827587890625,0.6994787454605103,-1.269794225692749,0.20812588930130005
1695712778160305700,2.4683056640625,0.7633945345878601,-1.5700654983520508,0.30719539523124695
1695712778170338600,2.478338623046875,0.7367629408836365,-1.9247982501983643,0.3753722608089447
1695712778180368600,2.48836865234375,0.7239798307418823,-2.0791282653808594,0.42743703722953796
1695712778190430000,2.498429931640625,0.700543999671936,-1.8704698085784912,0.4828307330608368
1695712778200463400,2.50846337890625,0.6696513295173645,-1.3763206005096436,0.5531381368637085
1695712778210477600,2.5184775390625,0.6579334735870361,-0.9205209612846375,0.5872265696525574
1695712778220509000,2.528509033203125,0.6728471517562866,-0.499741792678833,0.5520728826522827
1695712778230549800,2.5385498046875,0.6749776601791382,-0.29214856028556824,0.5552686452865601
1695712778240582100,2.54858203125,0.654737651348114,-0.31878015398979187,0.5957486629486084
1695712778250607000,2.558607177734375,0.6036050319671631,-0.3965443968772888,0.5829655528068542
1695712778260638700,2.568638671875,0.5322323441505432,-0.434760719537735,0.5179844498634338
1695712778270671000,2.578671142578125,0.43103229999542236,-0.508263885974884,0.46152547001838684
1695712778280702700,2.58870263671875,0.344745934009552,-0.5817670822143555,0.41465386748313904
1695712778290743600,2.59874365234375,0.26285380125045776,-0.6659229397773743,0.37856805324554443
1695712778300776200,2.608776123046875,0.21065588295459747,-0.7756450772285461,0.3743070065975189
1695712778310815500,2.6188154296875,0.15100112557411194,-0.8182556629180908,0.32104381918907166
1695712778320848600,2.6288486328125,0.09241162240505219,-0.8321040868759155,0.26991117000579834
1695712778330884600,2.638884521484375,0.07536740601062775,-0.9576719999313354,0.24008379876613617
1695712778340918000,2.64891796875,0.044474758207798004,-1.1121352910995483,0.17510271072387695
1695712778350954800,2.658954833984375,-0.010918952524662018,-1.1771162748336792,0.04620581120252609
1695712778360988700,2.66898876953125,-0.08655267208814621,-1.2112047672271729,-0.08695214241743088
1695712778370984000,2.67898388671875,-0.16005586087703705,-1.2538152933120728,-0.18588849902153015
1695712778381014000,2.689013916015625,-0.23675484955310822,-1.2665984630584717,-0.25619590282440186
1695712778391068200,2.699068115234375,-0.31864699721336365,-1.2495542764663696,-0.297741174697876
1695712778401100500,2.7091005859375,-0.3910849094390869,-1.245293140411377,-0.34993910789489746
1695712778411145200,2.719145263671875,-0.4773712754249573,-1.2165310382843018,-0.44581282138824463
1695712778421179000,2.729178955078125,-0.5647228956222534,-1.198421597480774,-0.5448823571205139
1695712778431182800,2.739182861328125,-0.6574008464813232,-1.135571002960205,-0.6247771382331848
1695712778441213700,2.749213623046875,-0.7490134835243225,-0.9917604327201843,-0.6588655710220337
1695712778451272700,2.759272705078125,-0.8245140314102173,-0.8139945864677429,-0.6567350625991821
1695712778461306400,2.769306396484375,-0.8969519734382629,-0.6819018721580505,-0.6705834865570068
1695712778471340500,2.779340576171875,-0.988564670085907,-0.6563355326652527,-0.7833682298660278
1695712778481374200,2.789374267578125,-1.1110700368881226,-0.8427566885948181,-1.0049431324005127
1695712778491395300,2.799395263671875,-1.2325100898742676,-1.3092089891433716,-1.230645775794983
1695712778501427700,2.809427734375,-1.2740553617477417,-1.9535603523254395,-1.3680648803710938
1695712782975874000,7.2838740234375,-0.5689839720726013,1.4704632759094238,-2.1093552112579346
1695712782985888300,7.29388818359375,-0.48802390694618225,0.5482112765312195,-2.161553144454956
1695712782995902200,7.303902099609375,-0.4677838981151581,-0.3880222737789154,-2.225468873977661
1695712783005916400,7.31391650390625,-0.5040028691291809,-1.004543662071228,-2.316948413848877
1695712783015930400,7.323930419921875,-0.5572660565376282,-1.172855257987976,-2.4639546871185303
1695712783025962000,7.3339619140625,-0.6073334217071533,-0.9077377915382385,-2.719618082046509
1695712783035993000,7.3439931640625,-0.6456829309463501,-0.7053377032279968,-2.933602809906006
1695712783046024200,7.354024169921875,-0.7202513813972473,-0.8587356805801392,-3.08273983001709
1695712783056055300,7.36405517578125,-0.8266445994377136,-1.290034294128418,-3.1722218990325928
1695712783066086700,7.374086669921875,-0.9203878045082092,-1.750095009803772,-3.1498513221740723
1695712783076117800,7.38411767578125,-0.9768467545509338,-2.155827283859253,-3.0198893547058105
1695712783086148900,7.39414892578125,-0.9651288390159607,-2.402968406677246,-2.844120740890503
1695712783096180000,7.404179931640625,-0.8767119646072388,-2.4668843746185303,-2.654637098312378
1695712783106211000,7.414211181640625,-0.7436871528625488,-2.4445137977600098,-2.4767379760742188
1695712783116242200,7.4242421875,-0.6030724048614502,-2.447709560394287,-2.312687397003174
1695712783126274300,7.4342744140625,-0.46884915232658386,-2.5094947814941406,-2.166879415512085
1695712783136308200,7.44430810546875,-0.3314301371574402,-2.6148228645324707,-2.013481378555298
1695712783146342400,7.45434228515625,-0.21012325584888458,-2.7053701877593994,-1.8334518671035767
1695712783156376300,7.464376220703125,-0.12170637398958206,-2.7383933067321777,-1.615206003189087
1695712783166410200,7.47441015625,-0.08335687965154648,-2.691521644592285,-1.3382374048233032
1695712783176444400,7.4844443359375,-0.105727419257164,-2.589256525039673,-0.9942904710769653
1695712783186478300,7.494478271484375,-0.171773761510849,-2.4114906787872314,-0.5949497222900391
1695712783196512500,7.504512451171875,-0.228232741355896,-2.1526315212249756,-0.1699095517396927
1695712783206546400,7.51454638671875,-0.23355905711650848,-1.9152108430862427,0.285890132188797
1695712783216580600,7.52458056640625,-0.23568958044052124,-1.7490297555923462,0.7363634705543518
1695712783226612200,7.5346123046875,-0.24847275018692017,-1.5828486680984497,1.1410305500030518
1695712783236642000,7.54464208984375,-0.2569948434829712,-1.386973261833191,1.5094785690307617
1695712783246672100,7.554672119140625,-0.2516685426235199,-1.1398321390151978,1.8162745237350464
1695712783256702000,7.564701904296875,-0.18455693125724792,-0.8065377473831177,1.989912509918213
1695712783266732000,7.57473193359375,-0.017310533672571182,-0.45606598258018494,2.014413595199585
1695712783276761900,7.584761962890625,0.2649843394756317,-0.2143843024969101,1.952628254890442
1695712783286791700,7.594791748046875,0.5950828790664673,0.0540621280670166,1.622396469116211
1695712783296821800,7.60482177734375,0.8697877526283264,0.30426591634750366,0.5744433999061584
1695712783306851600,7.6148515625,1.0338383913040161,-0.052464235574007034,-0.7247787714004517
1695712783316881400,7.62488134765625,0.9592698812484741,-1.2005521059036255,-1.594965934753418
1695712783326918400,7.63491845703125,0.5844302773475647,-2.2570273876190186,-2.1743361949920654
1695712783336979000,7.64497900390625,0.1712411344051361,-2.5105600357055664,-2.3691463470458984
1695712783347039700,7.655039794921875,-0.16857796907424927,-2.268745183944702,-2.0997676849365234
1695712783357100300,7.665100341796875,-0.5071986317634583,-1.7852487564086914,-1.66207754611969
1695712783367161000,7.6751611328125,-0.7181208729743958,-1.0961562395095825,-1.296692132949829
1695712783377222000,7.685221923828125,-0.6637924313545227,-0.5146554708480835,-0.9687241315841675
1695712783387282400,7.695282470703125,-0.27603644132614136,-0.1994706094264984,-0.7183871865272522
1695712783397343200,7.70534326171875,0.07004108279943466,-0.21544957160949707,-0.6386255621910095
1695712783407403800,7.71540380859375,0.14674006402492523,-0.21651484072208405,-0.4703139066696167
1695712783417417200,7.725417236328125,-0.09400951862335205,-0.10253162682056427,0.053662657737731934
1695712783427430700,7.7354306640625,-0.5498092174530029,-0.1621863842010498,0.7544729709625244
1695712783437443800,7.74544384765625,-0.8820382952690125,-0.4336954653263092,1.1314431428909302
1695712783447457300,7.755457275390625,-0.997086763381958,-0.43156492710113525,1.3136032819747925
1695712783457470700,7.765470703125,-0.9992172718048096,-0.15899059176445007,1.4839122295379639
1695712783467484000,7.77548388671875,-0.8799077868461609,0.17323850095272064,1.5275880098342896
1695712783477497300,7.785497314453125,-0.6233124136924744,0.5854955315589905,1.500956416130066
1695712783487510800,7.7955107421875,-0.2930806577205658,1.0487520694732666,1.7534239292144775
1695712783497524000,7.80552392578125,0.023169483989477158,1.5844465494155884,2.307227849960327
1695712783507537400,7.815537353515625,0.2882869839668274,2.106292486190796,2.8631622791290283
1695712783517550800,7.82555078125,0.4949481189250946,2.5077638626098633,3.19858717918396
1695712783527582200,7.835582275390625,0.5908218622207642,2.671814441680908,3.2646336555480957
1695712783537611500,7.845611572265625,0.5386239290237427,2.5152206420898438,3.149585008621216
1695712783547640800,7.855640869140625,0.39481332898139954,2.1084229946136475,3.0059077739715576
1695712783557670100,7.865670166015625,0.23089589178562164,1.690972924232483,2.924947738647461
1695712783567699500,7.875699462890625,0.05193160101771355,1.3831117153167725,2.8961856365203857
1695712783577728800,7.885728759765625,-0.16431692242622375,1.246757984161377,2.8972508907318115
1695712783587758000,7.895758056640625,-0.2739059031009674,1.3032169342041016,2.8525097370147705
1695712783597787400,7.905787353515625,-0.2739059031009674,1.4076128005981445,2.7470486164093018
1695712783607817000,7.91581689453125,-0.2559295892715454,1.4161348342895508,2.582998037338257
1695712783617846300,7.92584619140625,-0.26338642835617065,1.2606064081192017,2.3764700889587402
1695712783627878100,7.935878173828125,-0.26764747500419617,0.972053050994873,2.1431772708892822
1695712783637912300,7.945912353515625,-0.22610220313072205,0.6078660488128662,1.9259966611862183
1695712783647946800,7.95594677734375,-0.09827057272195816,0.27656906843185425,1.7097481489181519
1695712783657981200,7.965981201171875,0.044474758207798004,0.015712639316916466,1.520131230354309
1695712783668015600,7.976015625,0.12756532430648804,-0.11211899667978287,1.3530179262161255
1695712783678050000,7.986050048828125,0.1627190262079239,-0.10679268091917038,1.2262516021728516
1695712783688084200,7.996084228515625,0.16591481864452362,0.06684529036283493,1.1932284832000732
1695712783698118700,8.00611865234375,0.14034847915172577,0.3777691125869751,1.2976242303848267
1695712783708153000,8.016153076171875,0.09880319982767105,0.7430213689804077,1.4807164669036865
1695712783718187500,8.0261875,0.06151897460222244,1.123320460319519,1.6362450122833252
1695712783728220000,8.036219970703126,0.04234423115849495,1.3735243082046509,1.738510251045227
1695712783738255400,8.04625537109375,0.08175898343324661,1.3660674095153809,1.7736639976501465
1695712783748290600,8.05629052734375,0.18295903503894806,1.156343698501587,1.745967149734497
1695712783758326000,8.066325927734376,0.33728909492492676,0.8282424807548523,1.6777902841567993
1695712783768361500,8.076361572265625,0.4906870722770691,0.457663893699646,1.6085480451583862
1695712783778396700,8.086396728515625,0.5950828790664673,0.12756532430648804,1.579785943031311
1695712783788432100,8.09643212890625,0.6600639820098877,-0.14088112115859985,1.6202659606933594
1695712783798467300,8.10646728515625,0.6749776601791382,-0.2559295892715454,1.7150744199752808
1695712783808502800,8.116502685546875,0.6483460664749146,-0.032224226742982864,1.781120777130127
1695712783818538000,8.1265380859375,0.5599291920661926,0.4374238848686218,1.6575502157211304
1695712783828577000,8.136576904296875,0.38416069746017456,0.7803056240081787,1.2944284677505493
1695712783838672400,8.14667236328125,0.1339569091796875,0.7866972088813782,0.8205193281173706
1695712783848768000,8.15676806640625,-0.08548741042613983,0.6643250584602356,0.5105276107788086
1695712783858807000,8.16680712890625,-0.22929799556732178,0.7760445475578308,0.45193809270858765
1695712783868840700,8.1768408203125,-0.3346259295940399,1.1179941892623901,0.481765478849411
1695712783878874600,8.18687451171875,-0.4145207107067108,1.4140043258666992,0.4668518006801605
1695712783888749600,8.19674951171875,-0.4763059914112091,1.5578149557113647,0.40506649017333984
1695712783898774500,8.2067744140625,-0.491219699382782,1.5333138704299927,0.3455449044704437
1695712783908774000,8.21677392578125,-0.46991443634033203,1.4417011737823486,0.14207953214645386
1695712783918796500,8.226796630859376,-0.3910849094390869,1.380981206893921,-0.3211769759654999
1695712783928863500,8.236863525390625,-0.30905961990356445,1.1574089527130127,-0.9143956899642944
1695712783938890500,8.246890380859375,-0.28136277198791504,0.7909582257270813,-1.4373070001602173
1695712783948930300,8.256930419921876,-0.34740909934043884,0.6323671340942383,-1.9016287326812744
1695712783958958600,8.26695849609375,-0.545548141002655,0.909202516078949,-2.4021694660186768
1695712783968984800,8.27698486328125,-0.8415582776069641,1.494964361190796,-2.844120740890503
1695712783979012900,8.287012939453126,-1.0918952226638794,1.9699387550354004,-3.1551778316497803
1695712783989066800,8.297066650390626,-1.1877689361572266,2.061551570892334,-3.300053596496582
1695712783999097300,8.307097412109375,-1.094025731086731,1.895370364189148,-3.1253504753112793
1695712784009134000,8.317134033203125,-0.9544762372970581,1.6078822612762451,-2.6770074367523193
1695712784019165200,8.327165283203126,-0.8586025238037109,1.2297136783599854,-2.306295871734619
1695712784029204500,8.33720458984375,-0.8064045906066895,0.5407544374465942,-2.146639347076416
1695712784039236600,8.347236572265626,-0.7213166356086731,-0.5625923871994019,-2.146639347076416
1695712784269950200,8.5779501953125,-0.14727269113063812,-1.8971014022827148,-0.028362644836306572
1695712784279980000,8.58797998046875,-0.056725289672613144,-1.784183382987976,0.3380880355834961
1695712784290012000,8.598011962890626,0.018908429890871048,-1.6872444152832031,0.7118624448776245
1695712784300043800,8.608043701171875,0.0774979293346405,-1.5828486680984497,1.0845715999603271
1695712784310075600,8.61807568359375,0.13289164006710052,-1.4231922626495361,1.4318474531173706
1695712784320107500,8.628107421875,0.20852535963058472,-1.1653984785079956,1.7406407594680786
1695712784330139400,8.638139404296876,0.2978743314743042,-0.8438219428062439,2.024933099746704
1695712784340171300,8.648171142578125,0.3543333113193512,-0.5402218103408813,2.224137306213379
1695712784350203100,8.658203125,0.3820301592350006,-0.29640960693359375,2.1527645587921143
1695712784360235000,8.668235107421875,0.42677125334739685,-0.13022847473621368,1.4712622165679932
1695712784370267000,8.678266845703124,0.5556681752204895,-0.06205160543322563,0.296542763710022
1695712784380298800,8.688298828125,0.7399587631225586,-0.5306344628334045,-0.698147177696228
1695712784390341000,8.698341064453125,0.8900277614593506,-1.2239879369735718,-1.5683343410491943
1695712784400547600,8.708547607421876,0.554602861404419,-1.554086446762085,-1.9815235137939453
1695712784410560800,8.718560791015625,-0.06950845569372177,-1.2847079038619995,-1.7748624086380005
1695712784420574000,8.728573974609375,-0.6179860830307007,-0.8054724931716919,-1.485243797302246
1695712784430587100,8.738587158203124,-1.0631331205368042,-0.6542050242424011,-1.275386929512024
1695712784440600600,8.7486005859375,-1.1323752403259277,-0.7564703226089478,-0.8419577479362488
1695712784450613800,8.75861376953125,-0.6488786935806274,-0.746882975101471,-0.15393058955669403
1695712784460627000,8.768626953125,-0.20266640186309814,-0.5263733863830566,0.28908592462539673
1695712784470640000,8.77864013671875,-0.12596742808818817,-0.25806012749671936,0.5254412889480591
1695712784480653300,8.7886533203125,-0.36019226908683777,-0.052464235574007034,0.8588688373565674
1695712784490666800,8.798666748046875,-0.7884282469749451,-0.18881797790527344,1.321060061454773
1695712784500680000,8.808679931640626,-1.0631331205368042,-0.521047055721283,1.5286533832550049
1695712784510716200,8.818716064453126,-1.0524804592132568,-0.09614004194736481,1.1420958042144775
1695712784520751900,8.828751953125,-0.755405068397522,0.5396891832351685,0.6032055616378784
1695712784530787800,8.838787841796876,-0.4155859649181366,0.5514070987701416,0.3796333372592926
1695712784540823800,8.84882373046875,-0.24953800439834595,0.19773955643177032,0.5243760347366333
1695712784550859500,8.858859619140626,-0.2665822207927704,-0.2804306447505951,1.022786259651184
1695712784560895500,8.8688955078125,-0.1760348230600357,-0.27723485231399536,1.9046913385391235
1695712784570931500,8.878931396484376,0.09560741484165192,0.6323671340942383,2.8024423122406006
1695712784580967400,8.888967529296876,0.3351585865020752,1.9113492965698242,3.4180314540863037
1695712784591003100,8.899003173828126,0.4757733643054962,2.8177554607391357,3.853591203689575
1695712784601039000,8.9090390625,0.4672512710094452,3.190464496612549,4.150799751281738
1695712784611075000,8.919074951171876,0.3021354079246521,3.2756857872009277,4.157191276550293
1695712784621110500,8.929110595703126,0.15419691801071167,3.204313039779663,3.8780922889709473
1695712784631142100,8.93914208984375,0.09347688406705856,2.8889949321746826,3.4947304725646973
1695712784641173800,8.949173828125,-0.08868319541215897,2.344778537750244,3.149585008621216
1695712784651205400,8.959205322265625,-0.3079943358898163,1.5269222259521484,2.8280086517333984
1695712784661237000,8.969237060546876,-0.46458810567855835,0.8761793375015259,2.492583751678467
1695712784671268600,8.9792685546875,-0.5359607934951782,0.6451503038406372,2.1815266609191895
1695712784681300500,8.989300537109376,-0.46884915232658386,0.6504766345024109,1.9217356443405151
1695712784691332000,8.99933203125,-0.3271690905094147,0.7590003609657288,1.7001607418060303
1695712784701363700,9.00936376953125,-0.1760348230600357,0.8442214131355286,1.532914400100708
1695712784711395300,9.019395263671875,-0.04500738903880119,0.812263548374176,1.4350433349609375
1695712784721430300,9.02943017578125,0.0870852991938591,0.6440850496292114,1.4318474531173706
1695712784731462700,9.039462646484376,0.16165375709533691,0.48429548740386963,1.4998911619186401
1695712784741495000,9.0494951171875,0.16911059617996216,0.4938828647136688,1.6309186220169067
1695712784751527400,9.05952734375,0.1712411344051361,0.7803056240081787,1.775794506072998
1695712784761559800,9.069559814453125,0.1478053331375122,1.1989542245864868,1.8769944906234741
1695712784771592400,9.079592529296875,0.1296958476305008,1.5620759725570679,1.9366493225097656
1695712784781624800,9.089624755859376,0.15526217222213745,1.7218655347824097,1.9036260843276978
1695712784791657200,9.0996572265625,0.20106850564479828,1.6217306852340698,1.7949692010879517
1695712784801689600,9.109689697265624,0.3021354079246521,1.355414867401123,1.6479628086090088
1695712784811722000,9.119721923828125,0.4619249403476715,1.0029456615447998,1.5105438232421875
1695712784821759200,9.12975927734375,0.6291713118553162,0.5183839201927185,1.429716944694519
1695712784831806500,9.139806396484374,0.7197187542915344,-0.024767380207777023,1.4148032665252686
1695712784841853700,9.149853759765625,0.6994787454605103,-0.46032705903053284,1.462740182876587
1695712784851901000,9.15990087890625,0.6025397181510925,-0.5018723607063293,1.5211964845657349
1695712784861948200,9.1699482421875,0.5024049878120422,-0.10146636515855789,1.455283284187317
1695712784871995400,9.179995361328125,0.3724428117275238,0.4949481189250946,1.2006852626800537
1695712784882043000,9.19004296875,0.17017586529254913,0.9560741186141968,0.8194540739059448
1695712784892090000,9.200090087890626,-0.05992107838392258,1.1510173082351685,0.4444812536239624
1695712784902137300,9.210137451171875,-0.23036326467990875,1.1744531393051147,0.24967116117477417
1695712784912170500,9.22017041015625,-0.28562381863594055,1.1659311056137085,0.2528669536113739
1695712784922188500,9.2301884765625,-0.2665822207927704,1.213734745979309,0.296542763710022
1695712784932206800,9.240206787109376,-0.2984069883823395,1.221191644668579,0.2241048365831375
1695712784942225000,9.250224853515626,-0.3814975321292877,1.1169289350509644,0.09946899116039276
1695712784952243200,9.2602431640625,-0.508263885974884,0.8825709223747253,-0.010253162123262882
1695712784962261200,9.27026123046875,-0.6360955238342285,0.6046702861785889,-0.16777902841567993
1695712784972279600,9.280279541015625,-0.6819018721580505,0.4917523264884949,-0.5193160176277161
1695712784982297600,9.290297607421875,-0.6914892792701721,0.6440850496292114,-1.055010437965393
1695712784992316000,9.30031591796875,-0.7756450772285461,0.9805752038955688,-1.6258586645126343
1695712785002334000,9.310333984375,-0.9278446435928345,1.2776505947113037,-2.142378330230713
1695712785012352300,9.320352294921875,-1.105743646621704,1.420395851135254,-2.5566327571868896
1695712785022388000,9.330387939453125,-1.215465784072876,1.4374401569366455,-2.8995144367218018
1695712785032437500,9.3404375,-1.2271836996078491,1.3671327829360962,-3.1093714237213135
1695712785042487300,9.3504873046875,-1.135571002960205,1.213734745979309,-2.973017692565918
1695712785052537000,9.360537109375,-1.0077394247055054,1.068992018699646,-2.6120264530181885
1695712785062587000,9.3705869140625,-0.9118656516075134,1.0626004934310913,-2.28086256980896
1695712785072636400,9.380636474609375,-0.8044071793556213,1.1510173082351685,-2.0848541259765625
1695712785082686200,9.390686279296874,-0.6765755414962769,1.1339731216430664,-2.107224702835083
1695712785092736000,9.400736083984375,-0.5945502519607544,0.774979293346405,-2.3350579738616943
1695712785102785800,9.410785888671874,-0.554070234298706,-0.20266640186309814,-2.426670551300049
1695712785112835600,9.420835693359376,-0.5018723607063293,-1.3326448202133179,-2.45649790763855
1695712785122871300,9.430871337890625,-0.4326302111148834,-2.1323914527893066,-2.554502248764038
1695712785132906500,9.440906494140625,-0.4198470413684845,-2.304964303970337,-2.8664913177490234
1695712785142941700,9.450941650390625,-0.48695865273475647,-1.7788571119308472,-3.3426642417907715
1695712785152834600,9.46083447265625,-0.6169208288192749,-1.2612721920013428,-3.679154396057129
1695712785162857200,9.470857177734375,-0.8223835229873657,-1.1547458171844482,-3.8357479572296143
1695712785173039000,9.4810390625,-1.0705899000167847,-1.3954954147338867,-3.8655755519866943
1695712785183059000,9.491058837890625,-1.269794225692749,-1.8246634006500244,-3.7910070419311523
1695712785193081300,9.501081298828124,-1.3708611726760864,-2.378467321395874,-3.6056511402130127
1695712785203146800,9.511146728515625,-1.3463600873947144,-2.875812292098999,-3.3266851902008057
1695712785213169200,9.521169189453126,-1.202682614326477,-3.0983192920684814,-3.0294766426086426
1695712785223211800,9.531211669921875,-1.002413034439087,-3.1121678352355957,-2.7814033031463623
1695712785233246200,9.54124609375,-0.7958850860595703,-3.083538770675659,-2.5630242824554443
1695712785243268600,9.5512685546875,-0.5902892351150513,-3.0579724311828613,-2.390451669692993
1695712785253279500,9.561279541015624,-0.43156492710113525,-3.185670852661133,-2.2180120944976807
1695712785263318500,9.571318603515625,-0.311190128326416,-3.2506520748138428,-1.9996329545974731
1695712785273341200,9.581341064453126,-0.25060325860977173,-3.09618878364563,-1.6972312927246094
1695712785283368400,9.591368408203126,-0.24953800439834595,-2.781003952026367,-1.2913658618927002
1695712785293393000,9.601392822265625,-0.2474074810743332,-2.432795763015747,-0.8185219764709473
1695712785303441400,9.61144140625,-0.2090579867362976,-2.1174778938293457,-0.3105243444442749
1695712785313465900,9.6214658203125,-0.16431692242622375,-1.854490876197815,0.2006690353155136
1695712785323496400,9.631496337890624,-0.14727269113063812,-1.653156042098999,0.7033402919769287
1695712785333526800,9.64152685546875,-0.1430116444826126,-1.4093438386917114,1.203881025314331
1695712785343437300,9.651437255859374,-0.14940322935581207,-1.1323752403259277,1.704421877861023
1695712785353601000,9.66160107421875,-0.10679268091917038,-0.8161250948905945,2.1719393730163574
1695712785363654700,9.671654541015625,-0.0023968431632965803,-0.4198470413684845,2.5181500911712646
1695712785373668900,9.6816689453125,0.1723063886165619,-0.001331579522229731,2.726808547973633
1695712785383711700,9.691711669921874,0.3862912356853485,0.5205144286155701,2.6788716316223145
1695712785393765000,9.70176513671875,0.6323671340942383,1.046621561050415,1.8610155582427979
1695712785403779000,9.711779052734375,1.0189247131347656,1.1456910371780396,0.2635195851325989
1695712785413800400,9.721800537109376,1.3745895624160767,0.008255792781710625,-1.0347704887390137
1695712785423849000,9.731848876953125,1.3214595317840576,-1.2932300567626953,-1.9772624969482422
1695712785433863200,9.74186328125,0.7325019240379333,-1.7266591787338257,-2.530001163482666
1695712785443893200,9.751893310546874,0.07004108279943466,-1.489105463027954,-2.291382074356079
1695712785453910500,9.76191064453125,-0.4059986174106598,-1.1739205121994019,-1.6429028511047363
1695712785463924700,9.7719248046875,-0.763927161693573,-0.9119988083839417,-1.0645978450775146
1695712785473942500,9.781942626953125,-0.9374319911003113,-0.5253081321716309,-0.6215813159942627
1695712785483993000,9.7919931640625,-0.6840324401855469,0.04340949282050133,-0.15180006623268127
1695712785494043400,9.80204345703125,-0.10359688848257065,0.616388201713562,0.25073641538619995
1695712785504061200,9.812061279296875,0.1723063886165619,0.9230509400367737,0.5542033910751343
1695712785514062000,9.82206201171875,0.1339569091796875,0.9922930598258972,1.0867021083831787
1695712785523982000,9.831982177734375,-0.08335687965154648,0.6366282105445862,1.7843165397644043
1695712785533990000,9.841989990234374,-0.28136277198791504,0.13595427572727203,2.1975057125091553
1695712785544039400,9.852039306640625,-0.434760719537735,0.45127230882644653,1.696964979171753
1695712785554051300,9.86205126953125,-0.4198470413684845,0.9731183648109436,0.810931921005249
1695712785564105000,9.87210498046875,-0.23142851889133453,0.6313018798828125,0.38602492213249207
1695712785574121000,9.882120849609375,-0.20160114765167236,0.0007989477599039674,0.5147886276245117
1695712785584189200,9.892189208984375,-0.3495396375656128,-0.3848264813423157,1.0270472764968872
1695712785594210600,9.90221044921875,-0.40386807918548584,-0.08548741042613983,1.9654114246368408
1695712785604259000,9.912259033203124,-0.21544957160949707,1.1595394611358643,3.029343366622925
1695712785614283000,9.922282958984376,0.019973693415522575,2.6611616611480713,3.8365468978881836
1695712785624294100,9.932294189453126,0.2553969621658325,3.557847499847412,4.390350818634033
1695712785634317000,9.942317138671875,0.29467856884002686,3.800727605819702,4.574641704559326
1695712785644391700,9.9523916015625,0.25965800881385803,3.657982110977173,4.334957122802734
1695712785654419700,9.962419677734376,0.336223840713501,3.2234878540039062,4.014446258544922
1695712785664448500,9.972448486328124,0.411857545375824,2.6899237632751465,3.750260591506958
1695712785674476800,9.982476806640625,0.22024326026439667,1.9134798049926758,3.525623083114624
1695712785684513800,9.992513671875,-0.10040109604597092,0.9294425249099731,3.3093745708465576
1695712785694542600,10.00254248046875,-0.37936702370643616,0.30426591634750366,3.018690824508667
1695712785704579300,10.012579345703125,-0.4858933687210083,0.16791218519210815,2.5288026332855225
1695712785714609200,10.022609130859376,-0.4155859649181366,0.2914827764034271,2.0080220699310303
1695712785724791000,10.032791015625,-0.25912538170814514,0.49814391136169434,1.6053522825241089
1695712785734837000,10.0428369140625,-0.10679268091917038,0.7888277173042297,1.3221253156661987
1695712785744866800,10.05286669921875,0.002929474925622344,0.9283772706985474,1.1793800592422485
1695712785754907400,10.062907470703125,0.07643266767263412,0.9379646182060242,1.1719231605529785
1695712785764952600,10.07295263671875,0.07217161357402802,0.8186551332473755,1.3061463832855225
1695712785774982400,10.082982421875,-0.0034621069207787514,0.7675224542617798,1.646897554397583
1695712785785001200,10.093001220703124,-0.05139897018671036,1.2021499872207642,2.035585641860962
1695712785795017000,10.103016845703126,-0.08016108721494675,1.8005619049072266,2.229463577270508
1695712785805046800,10.113046875,-0.07803056389093399,2.1574251651763916,2.188983678817749
1695712785815089700,10.123089599609376,-0.017310533672571182,2.1670124530792236,1.9877820014953613
1695712785825120000,10.1331201171875,0.12543480098247528,1.882587194442749,1.6990954875946045
1695712785835152600,10.143152587890626,0.344745934009552,1.3767200708389282,1.4286516904830933
1695712785845185300,10.153185302734375,0.5929523706436157,0.6940192580223083,1.2656663656234741
1695712785855218000,10.163218017578124,0.7857651114463806,-0.00985368900001049,1.2571442127227783
1695712785865250600,10.17325048828125,0.8143940567970276,-0.46884915232658386,1.3359737396240234
1695712785875283200,10.183283203125,0.7335671782493591,-0.5764408111572266,1.4286516904830933
1695712785885315800,10.19331591796875,0.6451503038406372,-0.3731085956096649,1.46700119972229
1695712785895348500,10.203348388671875,0.5641902685165405,-0.03009369783103466,1.3785842657089233
1695712785905381000,10.213381103515625,0.4619249403476715,0.2680469751358032,1.1133337020874023
1695712785915411500,10.223411376953125,0.3074617087841034,0.48323023319244385,0.6905571818351746
1695712785925432300,10.233432373046876,0.06897582113742828,0.6131923794746399,0.32530489563941956
1695712785935303400,10.243303466796876,-0.18349166214466095,0.7238466143608093,0.23795326054096222
1695712785945317400,10.2533173828125,-0.31438592076301575,0.9166593551635742,0.3945470154285431
1695712785955444000,10.26344384765625,-0.37084490060806274,1.0956236124038696,0.4775044322013855
1695712785965570600,10.273570556640625,-0.43156492710113525,1.1520826816558838,0.38282912969589233
1695712785975637200,10.28363720703125,-0.5146554708480835,1.0604699850082397,0.2102564126253128
1695712785985651500,10.2936513671875,-0.6414218544960022,0.8868319988250732,0.021704746410250664
1695712785995682600,10.3036826171875,-0.7383608818054199,0.6291713118553162,-0.21571588516235352
1695712786005722600,10.31372265625,-0.6829671263694763,0.3735080659389496,-0.6215813159942627
1695712786015736800,10.32373681640625,-0.5721797347068787,0.35539859533309937,-1.2052125930786133
1695712786025782000,10.333781982421876,-0.642487108707428,0.616388201713562,-1.8174729347229004
1695712786035821600,10.343821533203124,-0.845819354057312,0.9603351950645447,-2.2776668071746826
1695712786045835800,10.353835693359375,-1.0780467987060547,1.1456910371780396,-2.600308656692505
1695712786055833300,10.363833251953125,-1.235705852508545,1.1041457653045654,-2.872882843017578
1695712786065853200,10.373853271484375,-1.294295310974121,1.0189247131347656,-3.0252156257629395
1695712786075935500,10.383935546875,-1.198421597480774,0.8815056681632996,-2.9154934883117676
1695712786085955600,10.39395556640625,-1.0226531028747559,0.7355645298957825,-2.679137945175171
1695712786095980300,10.403980224609375,-0.845819354057312,0.8005456328392029,-2.45649790763855
1695712786105874700,10.413874755859375,-0.696815550327301,0.9315730333328247,-2.3393189907073975
1695712786988705300,11.296705322265625,-0.07057371735572815,0.7888277173042297,0.36152383685112
1695712786998718000,11.306718017578126,-0.12064110487699509,0.8282424807548523,0.1964079886674881
1695712787008745500,11.316745361328126,-0.14194637537002563,0.9379646182060242,0.17190691828727722
1695712787018779600,11.326779541015625,-0.23142851889133453,1.0412951707839966,0.1399490088224411
1695712787028813600,11.3368134765625,-0.3921501636505127,0.9901625514030457,0.07603318989276886
1695712787038847700,11.34684765625,-0.5892239809036255,0.7675224542617798,0.011052110232412815
1695712787048881700,11.356881591796874,-0.7319692969322205,0.46405547857284546,-0.2018674612045288
1695712787058915800,11.366915771484376,-0.7053377032279968,0.2169143110513687,-0.6407560706138611
1695712787068950000,11.376949951171875,-0.5924197435379028,0.2701774835586548,-1.2317110300064087
1695712787078984000,11.38698388671875,-0.6297039985656738,0.6621944904327393,-1.8014940023422241
1695712787089018000,11.39701806640625,-0.7894935011863708,1.093493103981018,-2.2648837566375732
1695712787099052000,11.407052001953126,-0.9896299242973328,1.4214612245559692,-2.6205484867095947
1695712787109080600,11.41708056640625,-1.1377015113830566,1.6196001768112183,-2.864360809326172
1695712787119112700,11.42711279296875,-1.1813774108886719,1.6100128889083862,-2.9794092178344727
1695712787129144800,11.437144775390625,-1.1377015113830566,1.420395851135254,-2.8909924030303955
1695712787139177000,11.447177001953126,-1.034371018409729,1.2105389833450317,-2.6418538093566895
1695712787149209000,11.457208984375,-0.9321056604385376,1.123320460319519,-2.3840601444244385
1695712787159241200,11.4672412109375,-0.8213182687759399,1.100950002670288,-2.211620569229126
1695712787169273300,11.4772734375,-0.6989461183547974,0.9081372618675232,-2.171140432357788
1695712787179305200,11.48730517578125,-0.6094639897346497,0.392682820558548,-2.2840583324432373
1695712787189337300,11.49733740234375,-0.5103944540023804,-0.6020070910453796,-2.367015838623047
1695712787199369500,11.507369384765624,-0.41665124893188477,-1.5466296672821045,-2.5023043155670166
1695712787209401600,11.517401611328125,-0.33675646781921387,-2.1121513843536377,-2.698312759399414
1695712787219431700,11.527431640625,-0.3016027808189392,-2.111086130142212,-2.9410598278045654
1695712787229468700,11.53746875,-0.36658385396003723,-1.4837790727615356,-3.2989883422851562
1695712787239505700,11.547505615234375,-0.4954807460308075,-0.8278430104255676,-3.5981943607330322
1695712787249543000,11.55754296875,-0.6957502961158752,-0.6286386847496033,-3.7057859897613525
1695712787259580000,11.567579833984375,-0.951280415058136,-0.8970851302146912,-3.7015247344970703
1695712787269617000,11.577616943359375,-1.190964698791504,-1.5178675651550293,-3.629086971282959
1695712787279654000,11.58765380859375,-1.3326448202133179,-2.1291956901550293,-3.4980595111846924
1695712787289691100,11.597691162109374,-1.3379710912704468,-2.439187526702881,-3.3170979022979736
1695712787299728100,11.60772802734375,-1.2239879369735718,-2.5062990188598633,-3.0901966094970703
1695712787309765000,11.61776513671875,-1.0205225944519043,-2.50203800201416,-2.8218834400177
1695712787319798300,11.62779833984375,-0.8362319469451904,-2.553170680999756,-2.565154790878296
1695712787329845500,11.637845458984375,-0.6787061095237732,-2.658498525619507,-2.346775770187378
1695712787339893000,11.64789306640625,-0.5274386405944824,-2.756502866744995,-2.1295952796936035
1695712787349940500,11.6579404296875,-0.3772364854812622,-2.792721748352051,-1.881388783454895
1695712787359988000,11.667988037109374,-0.2644517123699188,-2.733067035675049,-1.577921748161316
1695712787370035500,11.678035400390625,-0.20692746341228485,-2.5967133045196533,-1.2104058265686035
1695712787380082700,11.688082763671876,-0.19307903945446014,-2.383793830871582,-0.7876293063163757
1695712787390130200,11.698130126953124,-0.1898832470178604,-2.106825113296509,-0.3051980435848236
1695712787400177700,11.708177734375,-0.18242639303207397,-1.8331855535507202,0.22836589813232422
1695712787410207700,11.718207763671876,-0.1771000772714615,-1.5839139223098755,0.772582471370697
1695712787420227300,11.728227294921876,-0.15579481422901154,-1.3337100744247437,1.2827105522155762
1695712787430247000,11.738246826171874,-0.14194637537002563,-1.0716552734375,1.7630113363265991
1695712787440266500,11.7482666015625,-0.11105373501777649,-0.8118640780448914,2.194309949874878
1695712787450286000,11.7582861328125,-0.03435475379228592,-0.5593965649604797,2.530933141708374
1695712787460305700,11.7683056640625,0.12863057851791382,-0.3464770019054413,2.7481138706207275
1695712787470325200,11.7783251953125,0.38416069746017456,-0.19627483189105988,2.819486618041992
1695712787480344800,11.7883447265625,0.6824344992637634,0.048735812306404114,2.3636868000030518
1695712787490364400,11.798364501953126,1.009337306022644,0.37457332015037537,0.8066709041595459
1695712787500384300,11.80838427734375,1.3427648544311523,0.07110634446144104,-1.1242525577545166
1695712787510403800,11.81840380859375,1.299088954925537,-1.0897647142410278,-2.1530308723449707
1695712787520433700,11.82843359375,0.6792387366294861,-1.8449034690856934,-2.4533021450042725
1695712787530462700,11.838462646484375,0.016777902841567993,-1.817206621170044,-2.3276009559631348
1695712787540491800,11.84849169921875,-0.35699647665023804,-1.5168023109436035,-1.9005634784698486
1695712787550520800,11.858520751953124,-0.6020070910453796,-1.4029521942138672,-1.488439679145813
1695712787560550000,11.8685498046875,-0.6627271175384521,-1.4700638055801392,-1.1689937114715576
1695712787570579000,11.878578857421875,-0.4965460002422333,-1.1046783924102783,-0.8121303915977478
1695712787580608300,11.888608154296875,-0.004527370445430279,-0.3549990952014923,-0.37017911672592163
1695712787590637300,11.89863720703125,0.5609944462776184,0.17749954760074615,-0.04966791719198227
1695712787600666400,11.908666259765624,0.7729819416999817,0.3213101327419281,0.3082606792449951
1695712787610695400,11.9186953125,0.5482112765312195,0.3298322558403015,0.9620662331581116
1695712787620724500,11.928724365234375,0.06684529036283493,0.3671164810657501,1.708682894706726
1695712787630755000,11.938755126953126,-0.3996070325374603,0.14980269968509674,2.2624869346618652
1695712787640788000,11.9487880859375,-0.7756450772285461,0.39907440543174744,2.199636220932007
1695712787650821000,11.958821044921875,-0.7862977385520935,1.1339731216430664,1.5616765022277832
1695712787660854300,11.968854248046876,-0.48695865273475647,1.4747244119644165,1.115464210510254
1695712787670887400,11.978887451171875,-0.2984069883823395,1.29362952709198,1.17405366897583
1695712787680920600,11.988920654296875,-0.30373328924179077,1.0604699850082397,1.5808511972427368
1695712787690953500,11.998953369140626,-0.3069290816783905,1.0668615102767944,2.20389723777771
1695712787700986600,12.008986572265625,-0.12277163565158844,1.2542147636413574,2.8173561096191406
1695712787711019800,12.019019775390625,0.14141374826431274,1.4800506830215454,3.252915620803833
1695712787721053000,12.029052978515624,0.3127880394458771,1.7261265516281128,3.55651593208313
1695712787731085800,12.0390859375,0.3500722646713257,1.9347851276397705,3.7428038120269775
1695712787741120000,12.0491201171875,0.2522011697292328,2.12014102935791,3.815241813659668
1695712787751174100,12.059174072265625,0.04554001986980438,2.229863166809082,3.6991279125213623
1695712787761228300,12.069228271484375,-0.1664474457502365,2.24051570892334,3.407378911972046
1695712787771282400,12.079282470703125,-0.367649108171463,2.0200061798095703,2.979276180267334
1695712787781336600,12.089336669921876,-0.5498092174530029,1.8346502780914307,2.550107955932617
1695712787791390500,12.099390380859376,-0.604137659072876,1.6430360078811646,2.2102890014648438
1695712787801444600,12.109444580078126,-0.5178512930870056,1.4459621906280518,1.9142787456512451
1695712787811498800,12.119498779296874,-0.4251733422279358,1.2648674249649048,1.6852470636367798
1695712787821552600,12.129552734375,-0.3729754388332367,1.0285120010375977,1.5510238409042358
1695712787831586800,12.1395869140625,-0.2973417043685913,0.7259771823883057,1.515870213508606
1695712787841602600,12.1496025390625,-0.17283903062343597,0.47364285588264465,1.5510238409042358
1695712787851636700,12.15963671875,-0.0684431865811348,0.4427502155303955,1.5851123332977295
1695712787861534200,12.1695341796875,-0.00985368900001049,0.5961481928825378,1.6032217741012573
1695712787871557600,12.1795576171875,0.011451584286987782,0.7590003609657288,1.6351796388626099
1695712787881733400,12.1897333984375,0.028495801612734795,0.9273120164871216,1.6905734539031982
1695712787891766500,12.1997666015625,0.03382211923599243,1.1531479358673096,1.7182703018188477
1695712787901789700,12.209789794921875,0.028495801612734795,1.4193305969238281,1.689508080482483
1695712787911835400,12.21983544921875,0.040213704109191895,1.5929685831069946,1.6319838762283325
1695712787921866800,12.22986669921875,0.07643266767263412,1.569532871246338,1.5648722648620605
1695712787931890200,12.23989013671875,0.15419691801071167,1.3618063926696777,1.4817817211151123
1695712787941926000,12.24992578125,0.27763432264328003,1.0061415433883667,1.407346487045288
1695712787951961600,12.259961669921875,0.4257059693336487,0.5577986836433411,1.370062232017517
1695712787961984800,12.26998486328125,0.5407544374465942,0.12543480098247528,1.3679317235946655
1695712787971986200,12.279986083984374,0.5663207769393921,-0.15366427600383759,1.3839106559753418
1695712787982050000,12.290050048828125,0.5066660046577454,-0.21225377917289734,1.4020200967788696
1695712787992077600,12.30007763671875,0.4107922911643982,-0.052464235574007034,1.425455927848816
1695712788002109400,12.310109375,0.3639206886291504,0.21052272617816925,1.4030853509902954
1695712788012141300,12.320141357421875,0.3724428117275238,0.5024049878120422,1.2507526874542236
1695712788072348400,12.380348388671875,-0.20373167097568512,1.126516342163086,0.27417221665382385
1695712788082376200,12.390376220703125,-0.24847275018692017,1.119059443473816,0.09733846783638
1695712788092403000,12.40040283203125,-0.3261038362979889,1.0530130863189697,-0.06671213358640671
1695712788102442200,12.410442138671876,-0.45500072836875916,0.9432909488677979,-0.17204007506370544
1695712788112470000,12.420469970703126,-0.545548141002655,0.8356993198394775,-0.3861580789089203
1695712788122502000,12.430501953125,-0.5125249624252319,0.6918887495994568,-0.78656405210495
1695712788132527400,12.44052734375,-0.4752407371997833,0.6600639820098877,-1.3116058111190796
1695712788142543400,12.45054345703125,-0.5316997170448303,0.9731183648109436,-1.898432970046997
1695712788152559600,12.4605595703125,-0.6872282028198242,1.4853769540786743,-2.4224095344543457
1695712788162576000,12.470575927734375,-0.8724509477615356,1.8133450746536255,-2.782468557357788
1695712788172591900,12.480591796875,-0.9906951785087585,1.8261282444000244,-3.0188241004943848
1695712788182608100,12.490608154296876,-0.9768467545509338,1.6046864986419678,-3.1104366779327393
1695712788192624000,12.5006240234375,-0.8735162019729614,1.3223916292190552,-2.918689250946045
1695712788202640400,12.510640380859375,-0.7841671705245972,1.173387885093689,-2.5811338424682617
1695712788212656600,12.52065673828125,-0.7415566444396973,1.1329078674316406,-2.2945778369903564
1695712788222672600,12.530672607421875,-0.7404913902282715,0.9752488732337952,-2.186054229736328
1695712788232689000,12.54068896484375,-0.6446176767349243,0.5609944462776184,-2.2233383655548096
1695712788242715400,12.55071533203125,-0.5008070468902588,-0.19840535521507263,-2.315883159637451
1695712788252747000,12.5607470703125,-0.41878175735473633,-1.1813774108886719,-2.3648853302001953
1695712788262779000,12.57077880859375,-0.3974764943122864,-1.841707706451416,-2.45649790763855
1695712788272810800,12.580810791015624,-0.4336954653263092,-2.1228041648864746,-2.549175977706909
1695712788282842600,12.590842529296875,-0.537026047706604,-1.7692697048187256,-2.787795066833496
1695712788292874200,12.600874267578124,-0.633965015411377,-1.3230574131011963,-3.0795440673828125
1695712788302906000,12.610906005859375,-0.7415566444396973,-1.1622025966644287,-3.2830092906951904
1695712788312938000,12.62093798828125,-0.8894951343536377,-1.3294490575790405,-3.4043161869049072
1695712788322969900,12.630969970703125,-1.0716552734375,-1.8821877241134644,-3.4479920864105225
1695712788333001500,12.64100146484375,-1.2186615467071533,-2.5244085788726807,-3.414968967437744
1695712788343034000,12.6510341796875,-1.294295310974121,-2.9865996837615967,-3.32561993598938
1695712788353097000,12.661096923828126,-1.2548805475234985,-3.1366686820983887,-3.150916576385498
1695712788363159600,12.67115966796875,-1.1206573247909546,-3.0174925327301025,-2.9101672172546387
1695712788373222100,12.68122216796875,-0.988564670085907,-2.940793514251709,-2.643984317779541
1695712788383284700,12.69128466796875,-0.8511456251144409,-2.966359853744507,-2.410691738128662
1695712788393347300,12.701347412109374,-0.7010766267776489,-3.0366671085357666,-2.216946840286255
1695712788403410200,12.71141015625,-0.5689839720726013,-3.0515809059143066,-2.057157278060913
1695712788413439700,12.721439697265625,-0.44967442750930786,-3.004709243774414,-1.8643444776535034
1695712788423456800,12.731456787109375,-0.3495396375656128,-2.894987106323242,-1.6034880876541138
1695712788433474000,12.74147412109375,-0.29201540350914,-2.723479747772217,-1.2540816068649292
1695712788443491300,12.7514912109375,-0.3058638274669647,-2.473275899887085,-0.8430230021476746
1695712788453508600,12.761508544921876,-0.3346259295940399,-2.181393623352051,-0.3914843797683716
1695712788463526000,12.77152587890625,-0.3506048917770386,-1.9024276733398438,0.09414267539978027
1695712788473543200,12.781543212890625,-0.3452785909175873,-1.6425033807754517,0.60533607006073
1695712788483560400,12.791560546875,-0.3303648829460144,-1.4082785844802856,1.1048115491867065
1695712788493577700,12.80157763671875,-0.311190128326416,-1.1760510206222534,1.555284857749939
1695712788503595000,12.811594970703124,-0.2749711871147156,-0.9459540843963623,1.952628254890442
1695712788513612000,12.821612060546874,-0.1898832470178604,-0.6723145246505737,2.273139476776123
1695712788523641600,12.8316416015625,-0.029028434306383133,-0.3592601716518402,2.4893879890441895
1695712788533671200,12.841671142578125,0.2234390527009964,-0.08868319541215897,2.582998037338257
1695712788543700500,12.851700439453126,0.4821649491786957,0.17430377006530762,2.278465747833252
1695712788553730000,12.86172998046875,0.6653903126716614,0.4299670457839966,1.149552583694458
1695712788563759400,12.87175927734375,0.812263548374176,0.5226449966430664,-0.5725792050361633
1695712788573788700,12.88178857421875,0.8580698370933533,-0.27190855145454407,-1.7578182220458984
1695712788583818200,12.891818359375,0.6259755492210388,-1.2314447164535522,-2.2339909076690674
1695712788593847600,12.90184765625,0.1009337306022644,-1.5583475828170776,-2.3041653633117676
1695712788603877000,12.911877197265625,-0.3303648829460144,-1.5274548530578613,-1.9900456666946411
1695712788613906400,12.921906494140625,-0.6147902607917786,-1.448758602142334,-1.4575469493865967
1695712788623936300,12.931936279296876,-0.7916240692138672,-1.2634027004241943,-0.9825725555419922
1695712788633966000,12.941966064453124,-0.8149266839027405,-1.0556762218475342,-0.5821665525436401
1695712788643996200,12.95199609375,-0.5253081321716309,-0.9757815003395081,-0.21784640848636627
1695712788654026200,12.962026123046876,-0.01837579719722271,-0.9821730852127075,-0.08375635743141174
1695712788664056300,12.972056396484374,0.18189376592636108,-0.8906935453414917,-0.07843003422021866
1695712788674086400,12.98208642578125,-0.05992107838392258,-0.7053377032279968,0.2677806615829468
1695712788684116200,12.9921162109375,-0.5562008023262024,-0.7085334658622742,1.082440972328186
1695712788694146300,13.002146240234374,-0.967259407043457,-0.8789756894111633,1.8247966766357422
1695712788704176400,13.01217626953125,-1.1664637327194214,-0.5423523783683777,2.014413595199585
1695712788714206500,13.02220654296875,-1.1163963079452515,0.6419544816017151,1.5020217895507812
1695712788724237800,13.03223779296875,-0.8022766709327698,1.5940338373184204,0.6319676637649536
1695712788734276600,13.042276611328125,-0.33356067538261414,1.402286410331726,0.11970899999141693
1695712788744315400,13.0523154296875,0.027430538088083267,0.23502379655838013,0.1964079886674881
1695712788754354400,13.0623544921875,0.029561065137386322,-0.8544746041297913,0.8578035235404968
1695712788764393500,13.0723935546875,-0.05566002428531647,-0.7543398141860962,1.801360845565796
1695712788774432300,13.082432373046874,0.07536740601062775,0.5471460223197937,2.5606274604797363
1695712788784471300,13.09247119140625,0.3159838318824768,2.106292486190796,3.024017095565796
1695712788794510000,13.102510009765625,0.42251017689704895,2.9880645275115967,3.4201619625091553
1695712788804549000,13.112549072265624,0.32344067096710205,3.174485683441162,3.716172218322754
1695712788814588000,13.122587890625,0.0870852991938591,3.0477192401885986,3.770500659942627
1695712788824622600,13.13262255859375,-0.1387505829334259,2.843188762664795,3.5842127799987793
1695712788834674000,13.142673828125,-0.2962764501571655,2.548243761062622,3.2401325702667236
1695712788844725200,13.152725341796875,-0.4251733422279358,2.129728317260742,2.8684887886047363
1695712788854776600,13.162776611328125,-0.5295692086219788,1.785648226737976,2.6053686141967773
1695712788864828000,13.172827880859375,-0.558331310749054,1.4747244119644165,2.3903183937072754
1695712788874879200,13.182879150390624,-0.4944154918193817,1.2627369165420532,2.1964404582977295
1695712788884930600,13.1929306640625,-0.378301739692688,1.156343698501587,2.0080220699310303
1695712788894982000,13.20298193359375,-0.24101589620113373,1.0498173236846924,1.8173397779464722
1695712788905016600,13.2130166015625,-0.0918789878487587,0.8143940567970276,1.6532891988754272
1695712788915044600,13.223044677734375,0.03701791167259216,0.411857545375824,1.500956416130066
1695712788925072600,13.23307275390625,0.1627190262079239,0.0050600022077560425,1.3167990446090698
1695712788934946300,13.2429462890625,0.24900537729263306,-0.23568958044052124,1.169792652130127
1695712788944967200,13.25296728515625,0.28189539909362793,-0.27297380566596985,1.1474220752716064
1695712788954998000,13.262998046875,0.25007063150405884,-0.07057371735572815,1.2315778732299805
1695712788965020000,13.27302001953125,0.19787272810935974,0.23395852744579315,1.4233254194259644
1695712788975062000,13.28306201171875,0.148870587348938,0.5205144286155701,1.6351796388626099
1695712788985086000,13.2930859375,0.13502216339111328,0.7621961236000061,1.7992303371429443
1695712788995131100,13.303131103515625,0.19148114323616028,0.8665919899940491,1.855689287185669
1695712789005157000,13.3131572265625,0.2840259075164795,0.8442214131355286,1.8088176250457764
1695712789015193600,13.323193603515625,0.3692470192909241,0.7462171912193298,1.6937692165374756
1695712789025220600,13.333220703125,0.41824913024902344,0.5833650231361389,1.5467628240585327
1695712789035255000,13.343255126953125,0.42144492268562317,0.3884217441082001,1.4265211820602417
1695712789045283000,13.353282958984375,0.39481332898139954,0.1849564015865326,1.3871064186096191
1695712789055323100,13.3633232421875,0.3628554344177246,-0.027963170781731606,1.405215859413147
1695712789065352200,13.373352294921874,0.3532680571079254,0.08921582996845245,1.4307821989059448
1695712789075383000,13.383383056640625,0.3500722646713257,0.511992335319519,1.341300129890442
1695712789085412000,13.393412109375,0.26285380125045776,0.7185203433036804,1.0973546504974365
1695712789095484700,13.403484619140626,0.11691268533468246,0.7057371735572815,0.8141277432441711
1695712789105518300,13.413518310546875,-0.0023968431632965803,0.6737792491912842,0.6266413331031799
1695712789115547600,13.423547607421876,-0.08974846452474594,0.7632613778114319,0.5520728826522827
1695712789125581000,13.4335810546875,-0.18881797790527344,0.8740488290786743,0.47963494062423706
1695712789135611000,13.44361083984375,-0.3292996287345886,0.8772445917129517,0.33595752716064453
1695712789145643500,13.4536435546875,-0.5689839720726013,0.729172945022583,0.13249216973781586
1695712789155671300,13.46367138671875,-0.8223835229873657,0.6398239731788635,-0.10825742036104202
1695712791663693300,15.971693359375,-0.10253162682056427,-0.6030724048614502,2.526672124862671
1695712791673726200,15.981726318359375,0.06897582113742828,-0.19307903945446014,2.632000207901001
1695712791683758800,15.9917587890625,0.3298322558403015,0.22969746589660645,2.521345853805542
1695712791693791500,16.00179150390625,0.6195839643478394,0.7547392845153809,1.8439713716506958
1695712791703824400,16.011824462890626,0.9017456769943237,1.0647310018539429,0.39667755365371704
1695712791713857000,16.02185693359375,1.1701921224594116,0.4289017617702484,-1.0166609287261963
1695712791723888600,16.031888671875,1.1286468505859375,-0.8278430104255676,-1.9687403440475464
1695712791733919700,16.041919677734374,0.6153228878974915,-1.6744612455368042,-2.580068588256836
1695712791743950800,16.051950927734374,0.06258423626422882,-1.7170718908309937,-2.713226556777954
1695712791753982000,16.06198193359375,-0.4113249182701111,-1.433844804763794,-2.3734073638916016
1695712791764013000,16.072012939453124,-0.7649924755096436,-1.2676637172698975,-1.8973677158355713
1695712791774044200,16.082044189453125,-0.8820382952690125,-1.1121352910995483,-1.42665433883667
1695712791784075500,16.092075439453126,-0.7948198318481445,-0.642487108707428,-0.9218525290489197
1695712791794106600,16.102106689453127,-0.3964112401008606,-0.06311687082052231,-0.48203179240226746
1695712791804137700,16.1121376953125,-0.040746334940195084,0.19241324067115784,-0.36911386251449585
1695712791814168800,16.1221689453125,0.0007989477599039674,-0.032224226742982864,-0.28921908140182495
1695712791824204300,16.132204345703126,-0.2143843024969101,-0.6637924313545227,0.2613890767097473
1695712791834258700,16.1422587890625,-0.6275734305381775,-1.1036131381988525,1.0547441244125366
1695712791844313300,16.152313232421875,-0.9683246612548828,-1.1291794776916504,1.4913691282272339
1695712791854367700,16.16236767578125,-1.1302447319030762,-0.4091944098472595,1.55741548538208
1695712791864422100,16.172422119140624,-1.0695246458053589,0.4949481189250946,1.3913674354553223
1695712791874476500,16.1824765625,-0.8159919381141663,0.7813708782196045,1.0504831075668335
1695712791884531000,16.192531005859376,-0.5338302254676819,0.4768386483192444,0.8034750819206238
1695712791894585600,16.202585693359374,-0.30373328924179077,0.010386320762336254,0.9780451655387878
1695712791904640000,16.212639892578125,-0.1153147891163826,-0.07909582555294037,1.637310266494751
1695712791914671600,16.222671630859374,0.07217161357402802,0.5524723529815674,2.412688970565796
1695712791924689000,16.23268896484375,0.23515695333480835,1.5578149557113647,2.943057060241699
1695712791934706200,16.2427060546875,0.3351585865020752,2.4172163009643555,3.1911303997039795
1695712791944723700,16.2527236328125,0.3873564898967743,2.961432933807373,3.2806124687194824
1695712791954741000,16.262740966796876,0.4352933466434479,3.0530455112457275,3.331745147705078
1695712791964758300,16.27275830078125,0.39800912141799927,2.7453174591064453,3.4031178951263428
1695712791974775600,16.282775634765624,0.3127880394458771,2.309624671936035,3.42122745513916
1695712791984792800,16.292792724609374,0.21278640627861023,2.0327892303466797,3.3605072498321533
1695712791994810000,16.30281005859375,0.12756532430648804,1.8975008726119995,3.2071094512939453
1695712792004827400,16.312827392578125,0.06897582113742828,1.7920397520065308,3.004842519760132
1695712792014844700,16.3228447265625,0.03382211923599243,1.6611454486846924,2.7790064811706543
1695712792024876500,16.33287646484375,0.04340949282050133,1.4928338527679443,2.572345495223999
1695712792034910000,16.342909912109373,0.03382211923599243,1.3191958665847778,2.392448902130127
1695712792044943400,16.352943359375,-0.016245270147919655,1.076448917388916,2.237985849380493
1695712792054976800,16.362976806640624,-0.06737792491912842,0.7302381992340088,2.0771310329437256
1695712792065010200,16.37301025390625,-0.0727042406797409,0.4193144142627716,1.9004303216934204
1695712792075043600,16.383043701171875,-0.04181159660220146,0.1296958476305008,1.6660723686218262
1695712792085077000,16.393076904296876,0.03701791167259216,-0.1483379602432251,1.4105422496795654
1695712792095110400,16.4031103515625,0.14141374826431274,-0.3784348964691162,1.1964242458343506
1695712792105143800,16.413143798828123,0.2181127369403839,-0.39974018931388855,1.0973546504974365
1695712792115177200,16.42317724609375,0.16804534196853638,-0.2527337968349457,1.1239862442016602
1695712792125209000,16.433208984375,0.02636527456343174,0.02636527456343174,1.304015874862671
1695712792135239700,16.44323974609375,-0.05566002428531647,0.4523375630378723,1.5606112480163574
1695712792145270300,16.453270263671875,-0.05566002428531647,0.8985498547554016,1.7736639976501465
1695712792155300900,16.46330078125,-0.0354200154542923,1.2297136783599854,1.859950304031372
1695712792165331500,16.47333154296875,0.009321057237684727,1.4001559019088745,1.8098828792572021
1695712792175362000,16.483362060546874,0.09454214572906494,1.385242223739624,1.612809181213379
1695712792185392600,16.493392578125,0.2191779911518097,1.1659311056137085,1.3615400791168213
1695712792195423200,16.50342333984375,0.3820301592350006,0.787762463092804,1.2177294492721558
1695712792205453800,16.513453857421876,0.524775505065918,0.32770171761512756,1.2230558395385742
1695712792215484400,16.523484375,0.6046702861785889,-0.09400951862335205,1.2859063148498535
1695712792225516300,16.533516357421874,0.5886912941932678,-0.3134538233280182,1.2805800437927246
1695712792235548700,16.543548583984375,0.46405547857284546,-0.24953800439834595,1.1506178379058838
1695712792245581300,16.553581298828124,0.2692453861236572,0.11478215456008911,0.9419593811035156
1695712792255614000,16.563614013671874,0.09986846894025803,0.6780403256416321,0.7406245470046997
1695712792265646600,16.573646484375,-0.06205160543322563,1.2286484241485596,0.5904223918914795
1695712792275679200,16.58367919921875,-0.26764747500419617,1.5482275485992432,0.5392897129058838
1695712792285711600,16.593711669921873,-0.39321544766426086,1.6387749910354614,0.44128546118736267
1695712792295744300,16.603744140625,-0.43582597374916077,1.5269222259521484,0.3146522343158722
1695712792305777000,16.61377685546875,-0.5008070468902588,1.2307789325714111,0.15486270189285278
1695712792315809500,16.6238095703125,-0.5977460741996765,0.94648677110672,-0.118910051882267
1695712792325845200,16.63384521484375,-0.6744450330734253,0.8889625072479248,-0.5257076025009155
1695712792335898600,16.643898681640625,-0.6829671263694763,0.9571393728256226,-0.9878988862037659
1695712792345952000,16.653951904296875,-0.7000113725662231,1.1126679182052612,-1.5214627981185913
1695712792356005400,16.66400537109375,-0.7841671705245972,1.4427664279937744,-2.1200077533721924
1695712792366058800,16.674058837890627,-0.9065393805503845,1.7824523448944092,-2.6130917072296143
1695712792376112000,16.684112060546877,-1.0673941373825073,1.9220019578933716,-2.8419902324676514
1695712792386165500,16.69416552734375,-1.1089394092559814,1.8548903465270996,-2.883535623550415
1695712792396219000,16.704218994140625,-1.0354362726211548,1.670732855796814,-2.763293981552124
1695712792406272500,16.7142724609375,-0.9747162461280823,1.4587453603744507,-2.4437148571014404
1695712792416308700,16.724308837890625,-0.8713856339454651,1.3756548166275024,-2.091245651245117
1695712792426339300,16.73433935546875,-0.829840362071991,1.2574105262756348,-1.9218688011169434
1695712792436370200,16.7443701171875,-0.755405068397522,0.9368993639945984,-1.9367824792861938
1695712792446400800,16.75440087890625,-0.6275734305381775,0.22330589592456818,-2.096571922302246
1695712792456431600,16.764431640625,-0.5242428779602051,-0.42304283380508423,-2.322274684906006
1695712792466462200,16.774462158203125,-0.46991443634033203,-0.8970851302146912,-2.558763265609741
1695712792476498400,16.78449853515625,-0.4763059914112091,-1.247423768043518,-2.7494454383850098
1695712792486527000,16.79452685546875,-0.5316997170448303,-1.260206937789917,-2.9943230152130127
1695712792496555300,16.80455517578125,-0.5657881498336792,-1.051415205001831,-3.3288156986236572
1695712794252041200,18.560041259765626,-0.03968106955289841,1.3767200708389282,1.9877820014953613
1695712794262074400,18.570074462890624,0.04980107396841049,1.3586106300354004,1.989912509918213
1695712794272107800,18.580107666015625,0.14460954070091248,1.2776505947113037,1.934518814086914
1695712794282141000,18.590140869140626,0.22663484513759613,1.1147984266281128,1.8322534561157227
1695712794292174300,18.60017431640625,0.2914827764034271,0.9251814484596252,1.7523586750030518
1695712794302207500,18.61020751953125,0.3585943877696991,0.7568697929382324,1.755554437637329
1695712794312241000,18.620240966796874,0.43635863065719604,0.6705834865570068,1.8066871166229248
1695712794322274000,18.630274169921876,0.46512073278427124,0.7153245210647583,1.8450366258621216
1695712794332307200,18.64030712890625,0.4342280924320221,0.8431561589241028,1.7789902687072754
1695712794342340600,18.650340576171875,0.3767038583755493,0.8239814043045044,1.5105438232421875
1695712794352372700,18.660372802734376,0.2893522381782532,0.44594597816467285,1.052613615989685
1695712794362403000,18.670403076171876,0.18189376592636108,-0.06950845569372177,0.58403080701828
1695712794372433400,18.680433349609373,0.0774979293346405,-0.2751043438911438,0.3103911876678467
1695712794382463700,18.690463623046874,-0.04394212365150452,-0.03009369783103466,0.2677806615829468
1695712794392494000,18.700494140625,-0.14194637537002563,0.3969438672065735,0.32956594228744507
1695712794402524200,18.710524169921875,-0.2047969400882721,0.7707182168960571,0.3657849133014679
1695712794412554500,18.720554443359376,-0.30053749680519104,0.8985498547554016,0.331696480512619
1695712794422584800,18.730584716796876,-0.3921501636505127,0.8037413954734802,0.2006690353155136
1695712794432615200,18.740615234375,-0.4667186439037323,0.5886912941932678,-0.10719215124845505
1695712794442645500,18.7506455078125,-0.4752407371997833,0.30959224700927734,-0.5800360441207886
1695712794452675800,18.76067578125,-0.4283691346645355,-0.04181159660220146,-1.05820631980896
1695712794462708200,18.770708251953124,-0.4432828426361084,-0.22610220313072205,-1.5448986291885376
1695712794472741400,18.780741455078125,-0.521047055721283,-0.03328948840498924,-2.0742015838623047
1695712794482774500,18.7907744140625,-0.6510092616081238,0.3862912356853485,-2.530001163482666
1695712794492808000,18.800807861328124,-0.7948198318481445,0.7600656151771545,-2.793121337890625
1695712794502841000,18.810841064453125,-0.9257140755653381,0.9049414396286011,-2.957038640975952
1695712794512874200,18.820874267578127,-0.9661940932273865,0.879375159740448,-3.0188241004943848
1695712794522907400,18.830907470703124,-0.9640635848045349,0.8069372177124023,-2.9005796909332275
1695712794532940800,18.84094091796875,-0.9725856781005859,0.7462171912193298,-2.7068347930908203
1695712794542974000,18.850973876953127,-0.8692551255226135,0.7440866827964783,-2.5534369945526123
1695712794553007000,18.861007080078124,-0.6701840162277222,0.8474172353744507,-2.5118916034698486
1695712794563040500,18.87104052734375,-0.4539354741573334,0.833568811416626,-2.585394859313965
1695712794573072100,18.881072021484375,-0.3292996287345886,0.5929523706436157,-2.684464454650879
1695712794583101400,18.891101318359375,-0.2239716798067093,0.03701791167259216,-2.684464454650879
1695712794593130800,18.901130859375,-0.07696529477834702,-0.8118640780448914,-2.6077654361724854
1695712794603160000,18.91116015625,0.08495477586984634,-1.6222633123397827,-2.6312012672424316
1695712794613189400,18.921189453125,0.16911059617996216,-2.0993683338165283,-2.864360809326172
1695712794623218700,18.93121875,0.19254639744758606,-2.1121513843536377,-3.2680957317352295
1695712794633248000,18.941248046875,0.11371689289808273,-1.5327812433242798,-3.6450657844543457
1695712794643277300,18.95127734375,-0.08868319541215897,-1.0333057641983032,-3.842139720916748
1695712794653306600,18.961306640625,-0.4006722867488861,-0.8566051125526428,-3.8304216861724854
1695712794663335700,18.971335693359375,-0.6861629486083984,-0.9396957159042358,-3.6471962928771973
1695712794673368300,18.981368408203124,-0.829840362071991,-1.2815121412277222,-3.4096426963806152
1695712794683403500,18.991403564453126,-0.8127961754798889,-1.896036148071289,-3.199918746948242
1695712794693438700,19.001438720703124,-0.658466100692749,-2.4264042377471924,-3.0337376594543457
1695712794703474000,19.011473876953126,-0.4336954653263092,-2.623344898223877,-2.8664913177490234
1695712794713509000,19.021509033203124,-0.22929799556732178,-2.5817995071411133,-2.6812686920166016
1695712794723544300,19.03154443359375,-0.06631266325712204,-2.527604341506958,-2.486325263977051
1695712794733579500,19.04157958984375,0.13502216339111328,-2.4913852214813232,-2.236121654510498
1695712794743614700,19.05161474609375,0.20746009051799774,-2.518016815185547,-1.9250645637512207
1695712794753650200,19.061650146484375,0.1573926955461502,-2.4210779666900635,-1.5267890691757202
1695712794763685400,19.071685302734377,0.10306425392627716,-2.3028335571289062,-1.0763157606124878
1695712794773720600,19.081720458984375,0.09347688406705856,-2.041844129562378,-0.577905535697937
1695712794783753000,19.0917529296875,0.0732368752360344,-1.737311840057373,-0.02516685426235199
1695712794793785000,19.10178515625,0.06151897460222244,-1.4689985513687134,0.5169191956520081
1695712794803817200,19.111817138671874,-0.004527370445430279,-1.3060132265090942,1.0014809370040894
1695712794813849300,19.121849365234375,-0.10998847335577011,-1.0961562395095825,1.4648706912994385
1695712794823881500,19.131881591796876,-0.228232741355896,-0.734099805355072,1.9377145767211914
1695712794833913600,19.14191357421875,-0.3122554123401642,-0.27190855145454407,2.3807311058044434
1695712794843945700,19.15194580078125,-0.30479857325553894,0.2733732759952545,2.755570650100708
1695712794853977900,19.161977783203124,-0.20266640186309814,0.8676572442054749,3.0101687908172607
1695712794864010000,19.172010009765625,-0.026897907257080078,1.512008547782898,2.988863468170166
1695712794874042000,19.1820419921875,0.20319904386997223,2.0679430961608887,2.145307779312134
1695712794884074200,19.19207421875,0.5460807681083679,1.7431707382202148,0.5946834087371826
1695712794894106000,19.202106201171876,0.9209204316139221,0.17643429338932037,-0.5704486966133118
1695712794904135200,19.21213525390625,1.0626004934310913,-1.2165310382843018,-1.7430375814437866
1695712794914164500,19.22216455078125,0.7783082723617554,-1.6190675497055054,-2.634397029876709
1695712794924193500,19.232193603515626,0.3074617087841034,-1.1664637327194214,-2.5331969261169434
1695712794934222600,19.24222265625,-0.2186453640460968,-0.7372955679893494,-2.0550267696380615
1695712794944252000,19.252251953125,-0.6403566002845764,-0.7575356364250183,-1.5939006805419922
1695712794954281000,19.262281005859375,-0.7330345511436462,-0.9715204238891602,-1.159406304359436
1695712794964310000,19.27231005859375,-0.5071986317634583,-1.0823078155517578,-0.7269092798233032
1695712794974339000,19.282339111328124,-0.07909582555294037,-0.838495671749115,-0.21571588516235352
1695712794984368400,19.292368408203124,0.035952646285295486,-0.2612559199333191,0.20173430442810059
1695712794994397400,19.3023974609375,-0.17816534638404846,0.1849564015865326,0.629837155342102
1695712795004433000,19.312432861328126,-0.5018723607063293,0.3490070104598999,1.4190642833709717
1695712795014486500,19.322486572265625,-0.7937545776367188,0.3724428117275238,2.244377374649048
1695712795024540400,19.33254052734375,-1.0237183570861816,0.6281060576438904,2.259290933609009
1695712795034594000,19.342593994140625,-0.9278446435928345,1.3170653581619263,1.3721927404403687
1695712795044648000,19.35264794921875,-0.47843652963638306,1.2669979333877563,0.435959130525589
1695712795054701600,19.36270166015625,-0.18668745458126068,0.38416069746017456,0.05685844644904137
1695712795064755500,19.37275537109375,-0.25486433506011963,-0.5785713195800781,0.12823110818862915
1695712795074809000,19.38280908203125,-0.4475438892841339,-1.06419837474823,0.49454864859580994
1695712795084863000,19.392863037109375,-0.3548659384250641,-0.9109335541725159,1.2432957887649536
1695712795094898200,19.402898193359373,-0.11851058155298233,-0.14407691359519958,2.179396152496338
1695712795104911400,19.412911376953126,0.16165375709533691,1.0583394765853882,2.9963202476501465
1695712795114803000,19.422802978515627,0.3639206886291504,2.121206283569336,3.6330816745758057
1695712795124822800,19.43282275390625,0.3436806797981262,2.682466983795166,4.02509880065918
1695712795134864600,19.44286474609375,0.13182637095451355,2.7698185443878174,4.016576766967773
1695712795144886500,19.452886474609375,-0.12064110487699509,2.278865337371826,3.6671700477600098
1695712795154910200,19.46291015625,-0.2559295892715454,1.4843116998672485,3.208174705505371
1695712795164932400,19.472932373046874,-0.4091944098472595,0.6611292362213135,2.781136989593506
1695712795174997000,19.4829970703125,-0.5476786494255066,0.011451584286987782,2.3849921226501465
1695712795185023200,19.493023193359374,-0.5551354885101318,-0.4155859649181366,2.0419771671295166
1695712795195076000,19.503076171875,-0.49228495359420776,-0.642487108707428,1.8045566082000732
1695712795205105200,19.513105224609376,-0.47311022877693176,-0.6222470998764038,1.708682894706726
1695712795215126800,19.523126708984375,-0.5295692086219788,-0.3890875577926636,1.7225313186645508
1695712795225155000,19.533155029296875,-0.5530049800872803,-0.10253162682056427,1.7864471673965454
1695712795235194400,19.5431943359375,-0.5263733863830566,0.22863221168518066,1.867407202720642
1695712795245223700,19.5532236328125,-0.4944154918193817,0.8016108870506287,2.0026955604553223
1695712795255253500,19.56325341796875,-0.4773712754249573,1.380981206893921,2.105893135070801
1695712795265282800,19.57328271484375,-0.4539354741573334,1.6345138549804688,2.109088897705078
1695712795275336000,19.5833359375,-0.3825628161430359,1.6430360078811646,2.0334551334381104
1695712796067836700,20.375836669921874,-0.46352285146713257,0.36605122685432434,2.1112194061279297
1695712796077867800,20.38586767578125,-0.6669881939888,0.5737776160240173,2.427602767944336
1695712796087899000,20.39589892578125,-0.7085334658622742,1.1094720363616943,2.080326795578003
1695712796097930200,20.40593017578125,-0.5029376149177551,1.5471622943878174,1.5488933324813843
1695712796107961300,20.41596142578125,-0.2696448564529419,1.628122329711914,1.45954430103302
1695712796117992400,20.425992431640626,-0.22716747224330902,1.420395851135254,1.7821860313415527
1695712796128023600,20.4360234375,-0.29201540350914,1.2669979333877563,2.2752699851989746
1695712796138055000,20.446054931640624,-0.3154512047767639,1.3415664434432983,2.805638074874878
1695712796148086000,20.4560859375,-0.1952095627784729,1.5354443788528442,3.2603726387023926
1695712796158117000,20.4661171875,-0.03968106955289841,1.7504944801330566,3.5586464405059814
1695712796168148200,20.476148193359375,0.029561065137386322,1.8559556007385254,3.731086015701294
1695712796178180400,20.486180419921876,-0.05459476262331009,1.785648226737976,3.7193679809570312
1695712796188216600,20.496216552734374,-0.22610220313072205,1.6217306852340698,3.521362066268921
1695712796198253000,20.506253173828124,-0.46032705903053284,1.4001559019088745,3.1964566707611084
1695712796208289300,20.516289306640626,-0.6020070910453796,1.119059443473816,2.8365306854248047
1695712796218325800,20.52632568359375,-0.6691187024116516,0.8687224984169006,2.491518497467041
1695712796228362000,20.536362060546875,-0.642487108707428,0.7195855975151062,2.1921794414520264
1695712796238398500,20.5463984375,-0.5775060653686523,0.6494113206863403,1.9654114246368408
1695712796248435000,20.55643505859375,-0.491219699382782,0.6323671340942383,1.8514281511306763
1695712796258471200,20.56647119140625,-0.45073968172073364,0.6259755492210388,1.7843165397644043
1695712796268507600,20.576507568359375,-0.4294344186782837,0.5695165991783142,1.7417060136795044
1695712796278539300,20.586539306640624,-0.3825628161430359,0.5013396739959717,1.8098828792572021
1695712796288569900,20.59656982421875,-0.3356912136077881,0.5151881575584412,1.9611504077911377
1695712796298600400,20.606600341796874,-0.3292996287345886,0.8388951420783997,2.115480422973633
1695712796308631000,20.616631103515626,-0.3410175144672394,1.347957968711853,2.178330898284912
1695712796318661600,20.62666162109375,-0.3292996287345886,1.8346502780914307,2.115480422973633
1695712796328692200,20.636692138671876,-0.2707101106643677,2.1584904193878174,1.9877820014953613
1695712796338722800,20.646722900390625,-0.1771000772714615,2.3224079608917236,1.8333187103271484
1695712796348753400,20.65675341796875,-0.0822916179895401,2.350104808807373,1.6745944023132324
1695712796358784000,20.666783935546874,0.02210422046482563,2.2085578441619873,1.5339796543121338
1695712796368814600,20.676814697265623,0.15526217222213745,1.841041922569275,1.4361085891723633
1695712796378845200,20.68684521484375,0.32450592517852783,1.256345272064209,1.4041506052017212
1695712796388876800,20.696876708984377,0.48749127984046936,0.5524723529815674,1.4265211820602417
1695712796398907600,20.70690771484375,0.5950828790664673,-0.00985368900001049,1.4744579792022705
1695712796408938800,20.716938720703126,0.5982787013053894,-0.2143843024969101,1.490303874015808
1695712796418969600,20.726969482421875,0.5460807681083679,-0.1664474457502365,1.4849774837493896
1695712796429000700,20.737000732421876,0.47470811009407043,-0.0023968431632965803,1.4584790468215942
1695712796439031600,20.747031494140625,0.3916175365447998,0.25845959782600403,1.3743232488632202
1695712796449062700,20.757062744140626,0.27656906843185425,0.5822997093200684,1.1751189231872559
1695712796459093500,20.767093505859375,0.110521100461483,0.8655267357826233,0.8833698630332947
1695712796469124600,20.77712451171875,-0.07057371735572815,1.0125330686569214,0.5957486629486084
1695712796479155500,20.787155517578125,-0.18668745458126068,1.076448917388916,0.4263717830181122
1695712796489187300,20.797187255859374,-0.24421168863773346,1.1350383758544922,0.35406699776649475
1695712796499220500,20.807220458984375,-0.27603644132614136,1.1371688842773438,0.32104381918907166
1695712796509253600,20.817253662109376,-0.3079943358898163,1.0178594589233398,0.3178480267524719
1695712796519286800,20.827286865234374,-0.3623228073120117,0.8101329803466797,0.24541011452674866
1695712796529320000,20.83731982421875,-0.4283691346645355,0.5908218622207642,0.05579318478703499
1695712796539352800,20.847352783203124,-0.47843652963638306,0.41824913024902344,-0.2775011658668518
1695712796549386000,20.857385986328126,-0.4198470413684845,0.203065887093544,-0.710930347442627
1695712796559419100,20.867419189453123,-0.3495396375656128,0.07004108279943466,-1.2647342681884766
1695712796569452300,20.877452392578125,-0.3964112401008606,0.23928484320640564,-1.8654098510742188
1695712796579485400,20.8874853515625,-0.5103944540023804,0.6227797269821167,-2.3797988891601562
1695712796589518300,20.897518310546875,-0.6733797788619995,0.9305077791213989,-2.818687677383423
1695712796599550700,20.90755078125,-0.8724509477615356,1.1584742069244385,-3.1530473232269287
1695712796609584600,20.917584716796874,-0.9757815003395081,1.2222568988800049,-3.2723567485809326
1695712796619618600,20.92761865234375,-0.9789772629737854,1.148886799812317,-3.056108236312866
1695712796629652500,20.937652587890625,-0.929975152015686,1.0157288312911987,-2.623744249343872
1695712796639686700,20.947686767578126,-0.8692551255226135,0.9976193904876709,-2.2680795192718506
1695712796649720600,20.957720458984376,-0.8106656074523926,1.1094720363616943,-2.1551616191864014
1695712796659754500,20.96775439453125,-0.7074682116508484,1.0839056968688965,-2.302034616470337
1695712796669788400,20.977788330078123,-0.5636576414108276,0.7483476996421814,-2.5821990966796875
1695712796679822300,20.987822265625,-0.4017375409603119,-0.10785794258117676,-2.7164223194122314
1695712796689856300,20.997856201171874,-0.28668907284736633,-1.2250531911849976,-2.6865949630737305
1695712796699890400,21.007890380859376,-0.15472954511642456,-2.170741081237793,-2.608830690383911
1695712796709922800,21.0179228515625,-0.03861580789089203,-2.7053701877593994,-2.69937801361084
1695712796719956000,21.0279560546875,-0.05033370852470398,-2.5244085788726807,-3.056108236312866
1695712796729989400,21.0379892578125,-0.14514216780662537,-1.6861791610717773,-3.5332131385803223
1695712796740022500,21.0480224609375,-0.33249542117118835,-0.9779120087623596,-3.85172700881958
1695712796750055700,21.0580556640625,-0.5625923871994019,-0.8651272058486938,-3.9464023113250732
1695712796760089000,21.068089111328124,-0.7777756452560425,-1.2112047672271729,-3.8879458904266357
1695712796770122200,21.078122314453125,-0.9353014826774597,-1.7149412631988525,-3.728156328201294
1695712796780155400,21.0881552734375,-0.988564670085907,-2.2921810150146484,-3.4479920864105225
1695712796790188800,21.098188720703124,-0.9171919822692871,-2.7160227298736572,-3.1083061695098877
1695712796800222000,21.108221923828125,-0.755405068397522,-2.8342671394348145,-2.7707507610321045
1695712796810255000,21.118255126953127,-0.5572660565376282,-2.761829137802124,-2.4969780445098877
1695712796820287200,21.128287353515624,-0.33675646781921387,-2.678738594055176,-2.3435800075531006
1695712796830316800,21.13831689453125,-0.15046848356723785,-2.7554376125335693,-2.2105553150177
1695712796840346600,21.1483466796875,-0.036485280841588974,-2.8055050373077393,-2.047569990158081
1695712796850376400,21.15837646484375,-0.005592633970081806,-2.72774076461792,-1.7876455783843994
1695712796860406000,21.168406005859374,-0.00985368900001049,-2.5860607624053955,-1.438372254371643
1695712796870435800,21.178435791015627,-0.036485280841588974,-2.4402527809143066,-1.0198568105697632
1695712796880465400,21.18846533203125,-0.08868319541215897,-2.2378525733947754,-0.5672528743743896
1695712796890495200,21.1984951171875,-0.14620743691921234,-1.9706045389175415,-0.06884266436100006
1695712796900524800,21.20852490234375,-0.19414429366588593,-1.7351813316345215,0.4647212624549866
1695712796910554600,21.2185546875,-0.2474074810743332,-1.5817832946777344,0.9886978268623352
1695712796920696800,21.22869677734375,-0.3079943358898163,-1.3901690244674683,1.5020217895507812
1695712796930739500,21.238739501953123,-0.35167014598846436,-1.0759162902832031,1.960085153579712
1695712796940791800,21.248791748046877,-0.3271690905094147,-0.6414218544960022,2.2944447994232178
1695712796950844400,21.258844482421875,-0.20160114765167236,-0.14940322935581207,2.491518497467041
1695712796960926200,21.26892626953125,0.02636527456343174,0.32450592517852783,2.555434226989746
1695712796970968600,21.278968505859375,0.27763432264328003,0.6854971647262573,2.1080236434936523
1695712796980945000,21.28894482421875,0.5886912941932678,0.7014760971069336,0.8652604222297668
1695712796990957000,21.29895703125,0.8687224984169006,-0.2527337968349457,-0.354200154542923
1695712797000999400,21.30899951171875,0.9187898635864258,-1.386973261833191,-1.359542727470398
1695712797011045000,21.319045166015623,0.700543999671936,-1.950364589691162,-2.19564151763916
1695712797021059800,21.329059814453124,0.42144492268562317,-1.8800572156906128,-2.4373230934143066
1695712797031102500,21.3391025390625,0.12756532430648804,-1.5061496496200562,-2.0987024307250977
1695712797041133300,21.34913330078125,-0.24421168863773346,-1.1110700368881226,-1.6823176145553589
1695712797051135500,21.359135498046875,-0.5902892351150513,-0.8321040868759155,-1.3552817106246948
1695712797061175000,21.369175048828126,-0.5945502519607544,-0.5902892351150513,-0.9825725555419922
1695712797071191000,21.37919091796875,-0.25486433506011963,-0.3315632939338684,-0.5246423482894897
1695712797081230300,21.389230224609374,0.03914843872189522,-0.2047969400882721,-0.2689790725708008
1695712797091261700,21.39926171875,0.03701791167259216,-0.05033370852470398,-0.09227846562862396
1695712797101314000,21.40931396484375,-0.1675127148628235,0.2456764280796051,0.4764391779899597
1695712797111324700,21.41932470703125,-0.348474383354187,0.49707865715026855,1.3125379085540771
1695712797121364000,21.429364013671876,-0.48908916115760803,0.36179015040397644,1.7821860313415527
1695712797131425800,21.43942578125,-0.5700492262840271,0.2829606533050537,1.5978955030441284
1695712797141412900,21.449412841796875,-0.4773712754249573,0.26165539026260376,1.1357041597366333
1695712797151469300,21.45946923828125,-0.3729754388332367,0.24993747472763062,0.8972182869911194
1695712797161508600,21.469508544921876,-0.3442133069038391,0.40759649872779846,1.0984200239181519
1695712797171511800,21.47951171875,-0.39001965522766113,0.690823495388031,1.6085480451583862
1695712797181558300,21.489558349609375,-0.39854174852371216,1.1456910371780396,2.30403208732605
1695712797191597800,21.499597900390626,-0.26764747500419617,1.803757667541504,3.044257164001465
1695712797201606000,21.50960595703125,-0.02157158963382244,2.3767364025115967,3.646929979324341
1695712797211643600,21.5196435546875,0.22663484513759613,2.6750102043151855,3.9153764247894287
1695712797221671700,21.529671630859376,0.30000486969947815,2.6664881706237793,3.8120460510253906
1695712797231700000,21.539699951171876,0.1339569091796875,2.265016794204712,3.4830126762390137
1695712797241728000,21.54972802734375,-0.11211899667978287,1.633448600769043,3.099517822265625
1695712797251756300,21.55975634765625,-0.3953459560871124,1.143560528755188,2.765158176422119
1695712797261784300,21.569784423828125,-0.5902892351150513,0.879375159740448,2.516019582748413
1695712797271822000,21.579822021484375,-0.633965015411377,0.7973498106002808,2.3114888668060303
1695712797281858000,21.589858154296873,-0.5881586670875549,0.8484824895858765,2.1623520851135254
1695712797291750400,21.59975048828125,-0.5412870645523071,0.9315730333328247,2.0664782524108887
1695712797301772000,21.60977197265625,-0.521047055721283,1.0295772552490234,2.0080220699310303
1695712797311972000,21.61997216796875,-0.46884915232658386,1.2329095602035522,1.9739335775375366
1695712797321993700,21.62999365234375,-0.38895440101623535,1.4065474271774292,1.9675419330596924
1695712797332044300,21.640044189453125,-0.31332066655158997,1.4672675132751465,2.0080220699310303
1695712797342081800,21.650081787109375,-0.24421168863773346,1.3735243082046509,2.075000524520874
1695712797352133000,21.660133056640625,-0.22503694891929626,1.2552800178527832,2.1559605598449707
1695712797362154800,21.67015478515625,-0.23036326467990875,1.269128441810608,2.194309949874878
1695712797372186400,21.680186279296876,-0.228232741355896,1.4172000885009766,2.1655478477478027
1695712797382201900,21.690201904296874,-0.21331904828548431,1.6302528381347656,2.0920445919036865
1695712797392256800,21.7002568359375,-0.1760348230600357,1.8474334478378296,1.988847255706787
1695712797402278400,21.7102783203125,-0.10998847335577011,2.0082883834838867,1.8652766942977905
1695712797412300000,21.720300048828125,-0.029028434306383133,2.075399875640869,1.7395755052566528
1695712797422323200,21.7303232421875,0.09028109163045883,1.9891135692596436,1.6287881135940552
1695712797432356900,21.74035693359375,0.23409168422222137,1.7165391445159912,1.5648722648620605
1695712797442390500,21.750390625,0.3884217441082001,1.2584757804870605,1.54995858669281
1695712797452424400,21.760424560546873,0.5354281663894653,0.7025413513183594,1.5712639093399048
1695712797462458000,21.7704580078125,0.6270408034324646,0.20093534886837006,1.5946996212005615
1695712797472481300,21.780481201171874,0.6643250584602356,-0.14194637537002563,1.5733944177627563
1695712797482499800,21.790499755859376,0.6632598042488098,-0.24314641952514648,1.46700119972229
1695712797492523000,21.80052294921875,0.5940176248550415,-0.04287686198949814,1.261405348777771
1695712797502441000,21.81044091796875,0.4203796684741974,0.3490070104598999,0.9791104197502136
1695712797512456000,21.8204560546875,0.19148114323616028,0.6801708340644836,0.7097318768501282
1695712797522506000,21.830506103515624,-0.01837579719722271,0.783501386642456,0.5659213066101074
1695712797532524500,21.840524658203126,-0.14088112115859985,0.7984151244163513,0.5190497040748596
1695712797542570500,21.850570556640626,-0.18668745458126068,0.8197203874588013,0.4625907242298126
1695712797552591600,21.860591552734373,-0.2239716798067093,0.7856319546699524,0.3466101586818695
1695712797562642000,21.870641845703126,-0.3218427896499634,0.6504766345024109,0.15486270189285278
1695712797572666000,21.880666015625,-0.4528702199459076,0.42677125334739685,-0.08269108831882477
1695712797582705700,21.89070556640625,-0.5263733863830566,0.14021532237529755,-0.37337490916252136
1695712797592731400,21.9007314453125,-0.5061333775520325,-0.09614004194736481,-0.7727156281471252
1695712797602763800,21.910763671875,-0.4720449447631836,-0.03009369783103466,-1.279647946357727
1695712797612790300,21.920790283203125,-0.5253081321716309,0.34687647223472595,-1.819603443145752
1695712797622827000,21.930826904296875,-0.6115944981575012,0.7558045387268066,-2.3680810928344727
1695712797632854500,21.9408544921875,-0.7383608818054199,1.0338383913040161,-2.864360809326172
1695712797642891800,21.950891845703126,-0.8404930233955383,1.1765836477279663,-3.2372031211853027
1695712797652920300,21.96092041015625,-0.8692551255226135,1.226517915725708,-3.330946207046509
1695712797662939600,21.970939697265624,-0.8735162019729614,1.1744531393051147,-3.041194438934326
1695712805036603600,29.344603759765626,-0.22077588737010956,0.5812344551086426,0.5030707716941833
1695712805046636300,29.35463623046875,-0.13981585204601288,0.67484450340271,0.46046021580696106
1695712805056669000,29.3646689453125,-0.14407691359519958,0.750478208065033,0.4316980838775635
1695712805066701300,29.374701416015625,-0.19307903945446014,0.8463519811630249,0.4402202069759369
1695712805076734000,29.38473388671875,-0.1898832470178604,1.0902973413467407,0.48922231793403625
1695712805086766600,29.3947666015625,-0.16964323818683624,1.3149348497390747,0.5552686452865601
1695712805096799200,29.40479931640625,-0.20373167097568512,1.3096084594726562,0.5659213066101074
1695712805106832000,29.414831787109375,-0.2834932804107666,1.014663577079773,0.5446160435676575
1695712805116864500,29.424864501953124,-0.3356912136077881,0.6057355403900146,0.538224458694458
1695712805126897200,29.434897216796877,-0.34208279848098755,0.3585943877696991,0.5424855351448059
1695712805136929300,29.44492919921875,-0.3687143921852112,0.2882869839668274,0.5531381368637085
1695712805146961200,29.454961181640623,-0.4017375409603119,0.34794172644615173,0.5573992133140564
1695712805156993000,29.464992919921876,-0.4102596640586853,0.44488072395324707,0.5392897129058838
1695712805167025000,29.47502490234375,-0.39428070187568665,0.524775505065918,0.49987494945526123
1695712805177056500,29.485056396484374,-0.34740909934043884,0.5844302773475647,0.44767704606056213
1695712805187088400,29.49508837890625,-0.24527695775032043,0.6589987277984619,0.41784965991973877
1695712805197120300,29.505120361328125,-0.16857796907424927,0.6940192580223083,0.4125233590602875
1695712805207152000,29.515152099609374,-0.16857796907424927,0.6579334735870361,0.4114580750465393
1695712805217184000,29.52518408203125,-0.17283903062343597,0.6897581815719604,0.41891491413116455
1695712805227216000,29.5352158203125,-0.1387505829334259,0.7845667004585266,0.42850229144096375
1695712805237247700,29.545247802734377,-0.09400951862335205,0.9028109312057495,0.4551338851451874
1695712805247280000,29.555280029296874,-0.08761793375015259,0.9890972971916199,0.5211802124977112
1695712805257314000,29.56531396484375,-0.05459476262331009,0.9198551774024963,0.559529721736908
1695712805267347700,29.57534765625,-0.0492684431374073,0.6366282105445862,0.5605949759483337
1695712805277381600,29.585381591796875,-0.03435475379228592,0.4587291479110718,0.5829655528068542
1695712805287415300,29.595415283203124,0.023169483989477158,0.4725775718688965,0.6149234175682068
1695712805297449200,29.60544921875,0.056192658841609955,0.5109270811080933,0.6032055616378784
1695712805307483000,29.61548291015625,0.0870852991938591,0.5460807681083679,0.5669865608215332
1695712805317516800,29.625516845703125,0.11797794699668884,0.57058185338974,0.5211802124977112
1695712805327550500,29.635550537109374,0.15845796465873718,0.6046702861785889,0.4721781015396118
1695712805337584000,29.645584228515624,0.17550218105316162,0.5982787013053894,0.4157191216945648
1695712805347618000,29.6556181640625,0.15100112557411194,0.5801692008972168,0.3711112141609192
1695712805357650000,29.66564990234375,0.11797794699668884,0.6621944904327393,0.350871205329895
1695712805367679000,29.675678955078126,0.08069372177124023,0.7728487849235535,0.3370227813720703
1695712805377708000,29.6857080078125,0.048735812306404114,0.8825709223747253,0.29760801792144775
1695712805387737000,29.695737060546875,0.01784316636621952,0.9688572883605957,0.2624543309211731
1695712805397766100,29.70576611328125,0.01784316636621952,1.0231857299804688,0.25073641538619995
1695712805407795200,29.715795166015624,-0.0002663159102667123,1.0359688997268677,0.25606274604797363
1695712805417824300,29.72582421875,0.012516847811639309,0.9869667887687683,0.2539322078227997
1695712805427853300,29.735853271484373,0.04127896577119827,0.8474172353744507,0.24967116117477417
1695712805437882400,29.74588232421875,0.04980107396841049,0.6430197358131409,0.275237500667572
1695712805447911400,29.755911376953126,0.06471476703882217,0.42677125334739685,0.31678277254104614
1695712805457940500,29.7659404296875,0.0870852991938591,0.29574382305145264,0.3476754128932953
1695712805467972900,29.775972900390624,0.08495477586984634,0.32344067096710205,0.37324175238609314
1695712805478008000,29.786008056640625,0.15845796465873718,0.4065312445163727,0.4316980838775635
1695712805488043300,29.796043212890623,0.2426137924194336,0.5258407592773438,0.5169191956520081
1695712805498078500,29.806078369140625,0.23196116089820862,0.5194491744041443,0.5510076284408569
1695712805508113700,29.81611376953125,0.17550218105316162,0.3490070104598999,0.492418110370636
1695712805518148900,29.82614892578125,0.2786996066570282,0.26698169112205505,0.44767704606056213
1695712805528184000,29.83618408203125,0.2978743314743042,0.2360890507698059,0.41465386748313904
1695712805538219000,29.846218994140624,0.30426591634750366,0.3032006621360779,0.3902859687805176
1695712805548254500,29.85625439453125,0.3021354079246521,0.38948702812194824,0.36258912086486816
1695712805558289400,29.866289306640624,0.31385329365730286,0.47470811009407043,0.3604585826396942
1695712805568321300,29.8763212890625,0.325571209192276,0.5301018357276917,0.3977428078651428
1695712805578350000,29.88635009765625,0.4246407151222229,0.46405547857284546,0.41465386748313904
1695712805588379000,29.89637890625,0.5450155138969421,0.3170490860939026,0.42317599058151245
1695712805598408000,29.906407958984374,0.646215558052063,0.14128059148788452,0.4540686309337616
1695712805608436700,29.916436767578126,0.6909566521644592,-0.17816534638404846,0.4316980838775635
1695712805618465500,29.926465576171875,0.7527419328689575,-0.5434176325798035,0.3998733460903168
1695712805628494300,29.936494384765624,0.7325019240379333,-0.7681882381439209,0.406131774187088
1695712805638523100,29.946523193359376,0.4427502155303955,-0.7969503402709961,0.46578651666641235
1695712805648552200,29.95655224609375,0.11691268533468246,-0.43156492710113525,0.6862961053848267
1695712805658581000,29.9665810546875,0.07110634446144104,0.023169483989477158,0.9334372878074646
1695712805668609800,29.97660986328125,0.010386320762336254,0.21904483437538147,1.030243158340454
1695712805678641700,29.9866416015625,0.028495801612734795,0.2786996066570282,1.0547441244125366
1695712805688674800,29.9966748046875,0.16165375709533691,0.06684529036283493,0.9185235500335693
1695712805698707700,30.006707763671876,0.19254639744758606,-0.24634221196174622,0.6703171730041504
1695712805708740900,30.016740966796874,0.13715268671512604,-0.2804306447505951,0.4593949317932129
1695712805718773800,30.026773681640623,0.012516847811639309,0.040213704109191895,0.3231743574142456
1695712805728807000,30.036806884765625,-0.17496955394744873,0.3777691125869751,0.21238693594932556
1695712805738839800,30.04683984375,-0.3314301371574402,0.7068024277687073,0.11225215345621109
1695712805748872700,30.056872802734375,-0.29521119594573975,0.9986846446990967,0.021704746410250664
1695712805758905900,30.06690576171875,-0.13235901296138763,1.20321524143219,-0.1327584832906723
1695712805768938800,30.076938720703126,-0.04287686198949814,1.3926990032196045,-0.40213701128959656
1695712805778971600,30.0869716796875,-0.08442214131355286,1.476854920387268,-0.6725808382034302
1695712805789008000,30.0970078125,-0.21544957160949707,1.4438316822052002,-0.8877640962600708
1695712805799068700,30.107068603515625,-0.2707101106643677,1.076448917388916,-0.9793767333030701
1695712805809129200,30.117129150390625,-0.2601906359195709,0.600409209728241,-1.0294440984725952
1695712805819190000,30.12718994140625,-0.1813611388206482,0.09560741484165192,-1.0145304203033447
1695712805829250800,30.137250732421876,-0.08974846452474594,-0.024767380207777023,-0.8909598588943481
1695712805839311400,30.147311279296876,-0.06737792491912842,0.24461115896701813,-0.773780882358551
1695712805849372200,30.1573720703125,0.016777902841567993,0.4491417706012726,-0.7695198059082031
1695712805859408100,30.167408203125,0.08282424509525299,0.4161186218261719,-0.8270440697669983
1695712805869412400,30.177412353515624,0.6973482370376587,0.09028109163045883,-0.25086960196495056
1695712805879448600,30.187448486328126,1.2639353275299072,-0.5029376149177551,0.12503531575202942
1695712805889494300,30.197494384765626,0.6856303215026855,-2.0972378253936768,-0.782302975654602
1695712805899530500,30.207530517578125,0.12756532430648804,-3.373157262802124,-1.2530163526535034
1695712805909569800,30.21756982421875,0.07110634446144104,-2.578603744506836,-1.284974217414856
1695712805919585300,30.227585205078125,0.14674006402492523,-1.7351813316345215,-1.3659342527389526
1695712805929621200,30.237621337890626,0.32770171761512756,-1.277251124382019,-1.1604715585708618
1695712805939631900,30.2476318359375,0.48323023319244385,-0.9333041310310364,-0.9580714702606201
1695712805949679000,30.25767919921875,0.5173186659812927,-0.38589176535606384,-1.2359721660614014
1695712805959715000,30.267715087890625,0.43635863065719604,0.12117373943328857,-1.5544859170913696
1695712805969769000,30.27776904296875,0.2191779911518097,0.4065312445163727,-1.4990922212600708
1695712805979772400,30.2877724609375,0.03701791167259216,0.8761793375015259,-1.2828437089920044
1695712805989807600,30.2978076171875,-0.2516685426235199,1.365002155303955,-1.0464884042739868
1695712805999833900,30.307833740234376,-0.8022766709327698,1.9315892457962036,-0.9357009530067444
1695712806009869000,30.317869140625,-1.4528864622116089,2.6302690505981445,-0.9793767333030701
1695712806019892200,30.327892333984376,-2.075932502746582,2.873016119003296,-1.230645775794983
1695712806029781800,30.33778173828125,-2.658498525619507,2.284191608428955,-1.468199610710144
1695712806039959300,30.347959228515624,-3.1920626163482666,1.4598106145858765,-1.7631444931030273
1695712806049990400,30.357990478515624,-3.5360095500946045,0.729172945022583,-1.8771276473999023
1695712806060008700,30.3680087890625,-3.8225653171539307,0.22969746589660645,-1.7535570859909058
1695712806070078500,30.378078369140624,-4.1771650314331055,-0.07483477145433426,-1.548094391822815
1695712806080083000,30.3880830078125,-4.6297688484191895,-0.16857796907424927,-1.3701953887939453
1695712806090101200,30.398101318359377,-5.020720481872559,-0.2324937880039215,-1.4618080854415894
1695712806100175000,30.408175048828124,-5.314600467681885,-0.39974018931388855,-1.505483865737915
1695712806110207000,30.41820703125,-5.635244846343994,-0.007723161485046148,-1.5161365270614624
1695712806120225300,30.428225341796875,-5.793835639953613,0.6355628967285156,-1.3733911514282227
1695712806130250000,30.43825,-5.677721977233887,1.3394358158111572,-1.1860378980636597
1695712806140284400,30.448284423828124,-5.260272026062012,1.6931034326553345,-0.7311703562736511
1695712806150306000,30.45830615234375,-4.603137493133545,1.7048213481903076,0.5041360259056091
1695712806160347400,30.468347412109374,-4.323106288909912,2.9103002548217773,1.3743232488632202
1695712806170388700,30.478388671875,-4.248537540435791,3.6441338062286377,1.4563485383987427
1695712806180430000,30.48843017578125,-4.005790710449219,3.513106346130371,1.7363797426223755
1695712806190451700,30.49845166015625,-3.6744937896728516,2.8889949321746826,1.8120135068893433
1695712806200452400,30.508452392578125,-3.8225653171539307,1.6291875839233398,1.7257270812988281
1695712806210474000,30.518473876953124,-4.476504325866699,0.8463519811630249,1.818405032157898
1695712806220496000,30.528495849609374,-4.981306076049805,1.113733172416687,2.0473036766052246
1695712806230557200,30.53855712890625,-4.944021701812744,2.0487682819366455,2.382861614227295
1695712806240608000,30.54860791015625,-4.058920860290527,2.4331953525543213,2.492583751678467
1695712806250629600,30.558629638671874,-2.8129618167877197,2.2724735736846924,2.373274326324463
1695712806260655600,30.568655517578126,-1.4006885290145874,3.2959256172180176,2.6884591579437256
1695712806270694000,30.57869384765625,-0.04287686198949814,3.991276502609253,2.7864632606506348
1695712806280715500,30.588715576171875,1.0902973413467407,3.716571569442749,2.5851285457611084
1695712806290762800,30.5987626953125,2.051964044570923,2.746382713317871,2.31894588470459
1695712806300807400,30.608807373046876,2.782601833343506,1.6270570755004883,2.0579562187194824
