time,seconds_elapsed,z,y,x
1696081903430814000,0.05181396484375,-0.889164924621582,0.7833940982818604,-0.03194703906774521
1696081903440814000,0.06181396484375,-0.763463020324707,0.6936767101287842,0.07328852266073227
1696081903450814000,0.07181396484375,-0.8218784332275391,0.6583106517791748,0.20237243175506592
1696081903460814600,0.081814697265625,-0.9759340286254883,0.6512846946716309,0.1923714280128479
1696081903470814500,0.091814453125,-1.1016616821289062,0.5829071998596191,0.10214564204216003
1696081903480814600,0.101814697265625,-1.1444587707519531,0.5889396667480469,-0.027264293283224106
1696081903490814500,0.111814453125,-1.090010643005371,0.6863377094268799,0.024760199710726738
1696081903500814600,0.121814697265625,-1.088998794555664,0.3240315914154053,0.2349553108215332
1696081903510814500,0.131814453125,-0.7945899963378906,0.1853961944580078,-0.1860087513923645
1696081903520814600,0.141814697265625,-0.7567873001098633,0.08656549453735352,-0.2016223520040512
1696081903530814500,0.151814453125,-0.7655115127563477,0.24023771286010742,0.08297170698642731
1696081903540814600,0.161814697265625,-0.6208906173706055,0.29119205474853516,0.03266264498233795
1696081903550814500,0.171814453125,-0.5241212844848633,0.4599800109863281,0.23041602969169617
1696081903560814600,0.181814697265625,-0.4777107238769531,0.5600011348724365,0.4125080704689026
1696081903570814500,0.191814453125,-0.5752487182617188,0.5297260284423828,0.5896178483963013
1696081903580814600,0.201814697265625,-0.6998968124389648,0.39452171325683594,0.8292273283004761
1696081903590814500,0.211814453125,-0.8022289276123047,0.1566452980041504,0.717566192150116
1696081903600814600,0.221814697265625,-0.7777185440063477,0.06449198722839355,0.5538214445114136
1696081903610814500,0.231814453125,-0.7604551315307617,-0.0566103458404541,0.4408116340637207
1696081903620814600,0.241814697265625,-0.9609413146972656,-0.21615338325500488,0.38874927163124084
1696081903630814500,0.251814453125,-1.2350502014160156,-0.21126174926757812,0.348172664642334
1696081903640814600,0.261814697265625,-1.2761220932006836,-0.18610405921936035,-0.12802782654762268
1696081903650814500,0.271814453125,-1.2803044319152832,-0.03336215019226074,-0.6921346187591553
1696081903660814600,0.281814697265625,-1.3163270950317383,0.27280282974243164,-1.3987789154052734
1696081903670814500,0.291814453125,-1.501023769378662,0.7014484405517578,-2.0264477729797363
1696081903680814600,0.301814697265625,-1.5765743255615234,0.9021341800689697,-2.234714984893799
1696081903690814500,0.311814453125,-1.4336433410644531,0.7330429553985596,-2.193294048309326
1696081903700814600,0.321814697265625,-1.272669792175293,0.49218225479125977,-1.883070707321167
1696081903710814700,0.331814697265625,-1.1250848770141602,0.2522730827331543,-1.3449158668518066
1696081903720814600,0.341814697265625,-0.9146366119384766,-0.015664100646972656,-0.9376095533370972
1696081903730814700,0.351814697265625,-0.734379768371582,-0.21963715553283691,-1.0343722105026245
1696081903740814600,0.361814697265625,-0.46808528900146484,-0.31802797317504883,-1.2712055444717407
1696081903750814700,0.371814697265625,-0.45488643646240234,-0.22796344757080078,-1.335309624671936
1696081903760814600,0.381814697265625,-0.4707651138305664,-0.18360328674316406,-1.2635586261749268
1696081903770814500,0.391814453125,-0.6256113052368164,-0.1288294792175293,-1.0568954944610596
1696081903780814600,0.401814697265625,-0.6165218353271484,0.004631757736206055,-0.6090645790100098
1696081903790814500,0.411814453125,-0.6056451797485352,0.1503584384918213,-0.1463015079498291
1696081903800814600,0.421814697265625,-0.4048919677734375,0.24560046195983887,0.0019497871398925781
1696081903810814500,0.431814453125,0.00687408447265625,0.20513081550598145,-0.25748300552368164
1696081903820814600,0.441814697265625,0.2211904525756836,0.16710710525512695,-0.4693131446838379
1696081903830814500,0.451814453125,0.002048492431640625,-0.15250349044799805,-0.5190508365631104
1696081903840814600,0.461814697265625,0.39086008071899414,-0.14066839218139648,-1.1341543197631836
1696081903850814500,0.471814453125,0.6501364707946777,-0.1672215461730957,-2.093015432357788
1696081903860814600,0.481814697265625,0.9749259948730469,-0.137101411819458,-3.2804737091064453
1696081903870814500,0.491814453125,1.4267373085021973,-0.8593671321868896,-3.595695972442627
1696081903880814000,0.50181396484375,-0.14635610580444336,-1.5601325035095215,-3.0224010944366455
1696081903890814200,0.511814208984375,-1.683396339416504,-1.7003560066223145,-2.2050557136535645
1696081903900814000,0.52181396484375,1.0331549644470215,-1.0335190296173096,-1.5073623657226562
1696081903910814200,0.531814208984375,1.0408210754394531,-1.3052759170532227,-2.2442479133605957
1696081903920814000,0.54181396484375,0.11593484878540039,-1.6773966550827026,-1.8995146751403809
1696081903930814200,0.551814208984375,-0.61989426612854,-2.0755081176757812,-3.0413947105407715
1696081903940814000,0.56181396484375,-2.596357822418213,-2.185549259185791,-4.689018249511719
1696081903950814200,0.571814208984375,-4.552093982696533,-2.2226531505584717,-6.579549312591553
1696081903960814000,0.58181396484375,-5.548423767089844,-3.6954474449157715,-6.341280937194824
1696081903970814200,0.591814208984375,-6.910116195678711,-5.731304168701172,-5.455107688903809
1696081903980814000,0.60181396484375,-7.149011611938477,-7.109982490539551,-5.428296089172363
1696081903990814200,0.611814208984375,-6.818520545959473,-7.676636695861816,-6.137134552001953
1696081904000814000,0.62181396484375,-6.103213310241699,-8.032942771911621,-6.9620161056518555
1696081904010814200,0.631814208984375,-4.682748317718506,-8.517359733581543,-6.951991558074951
1696081904020814000,0.64181396484375,-2.5984582901000977,-9.765985488891602,-6.6664886474609375
1696081904030814200,0.651814208984375,-0.5823841094970703,-10.68489933013916,-6.233146667480469
1696081904040814300,0.661814453125,0.8253450393676758,-10.854375839233398,-5.67117977142334
1696081904050814200,0.671814208984375,1.4456567764282227,-10.119460105895996,-3.8670530319213867
1696081904060814300,0.681814453125,1.2729811668395996,-9.231776237487793,-1.493445873260498
1696081904070814200,0.691814208984375,0.45923757553100586,-8.532659530639648,1.1805496215820312
1696081904080814300,0.701814453125,-0.24096083641052246,-7.736344814300537,3.647212028503418
1696081904090814200,0.711814208984375,-0.4391188621520996,-6.371375560760498,5.927955627441406
1696081904100814000,0.72181396484375,-0.1880507469177246,-5.327951908111572,8.103363037109375
1696081904110814000,0.73181396484375,0.12360954284667969,-4.853728771209717,10.492107391357422
1696081904120814000,0.74181396484375,-0.005006313323974609,-4.8201704025268555,13.577288627624512
1696081904130814000,0.75181396484375,-0.19147157669067383,-4.6537065505981445,17.271814346313477
1696081904140814000,0.76181396484375,-0.23573517799377441,-3.717351198196411,21.301769256591797
1696081904150815700,0.771815673828125,-0.15439069271087646,-2.4238572120666504,24.870113372802734
1696081904160815600,0.781815673828125,0.11590707302093506,-1.2776641845703125,27.25212287902832
1696081904170815700,0.791815673828125,0.6398766040802002,-0.2853822708129883,27.811046600341797
1696081904180816100,0.801816162109375,1.545732855796814,0.6658644676208496,26.924766540527344
1696081904190816000,0.81181591796875,1.0917797088623047,2.1450271606445312,25.261653900146484
1696081904200815900,0.82181591796875,0.8605344891548157,2.821383476257324,21.56581687927246
1696081904210816000,0.83181591796875,0.6157541275024414,3.1720223426818848,17.939496994018555
1696081904220816000,0.84181591796875,0.970146119594574,3.547534704208374,15.46724796295166
1696081904230816000,0.85181591796875,2.330263614654541,2.854823589324951,12.658025741577148
1696081904240815900,0.86181591796875,2.735215187072754,3.176356315612793,12.131372451782227
1696081904250816000,0.87181591796875,1.1207271814346313,3.102332592010498,11.627928733825684
1696081904260816000,0.88181591796875,0.09383273124694824,2.9070916175842285,9.562150001525879
1696081904270816000,0.89181591796875,-0.15377581119537354,3.132094144821167,8.614686965942383
1696081904280815900,0.90181591796875,-0.26786136627197266,2.90877103805542,6.714119911193848
1696081904290816000,0.91181591796875,-0.25554323196411133,2.289149045944214,4.043172836303711
1696081904300815600,0.921815673828125,-0.40501832962036133,2.192204236984253,1.0059175491333008
1696081904310815200,0.931815185546875,-0.1969902515411377,2.371029853820801,-1.925074577331543
1696081904320815000,0.941815185546875,0.42715907096862793,2.592759609222412,-4.2720232009887695
1696081904330815200,0.951815185546875,0.7845931053161621,2.5981640815734863,-6.253159523010254
1696081904340815000,0.961815185546875,0.9868173599243164,2.6393890380859375,-8.257426261901855
1696081904350814700,0.971814697265625,1.3080143928527832,2.623243808746338,-9.99247932434082
1696081904360814800,0.98181494140625,1.8673100471496582,2.882399797439575,-11.359819412231445
1696081904370814700,0.991814697265625,2.523735284805298,3.0343198776245117,-12.25310230255127
1696081904380814800,1.00181494140625,3.00052809715271,2.9169065952301025,-13.051560401916504
1696081904390814700,1.011814697265625,3.4286141395568848,2.795177936553955,-13.496610641479492
1696081904400814800,1.02181494140625,3.8002700805664062,2.7125983238220215,-13.644658088684082
1696081904410815000,1.03181494140625,4.262104034423828,2.376919746398926,-13.69559383392334
1696081904420815000,1.041815185546875,4.686125755310059,1.922333836555481,-13.729061126708984
1696081904430815000,1.05181494140625,4.911978244781494,1.6126298904418945,-13.745006561279297
1696081904440815000,1.061815185546875,4.939607620239258,1.5951608419418335,-13.840417861938477
1696081904450813200,1.071813232421875,4.754425048828125,1.8227604627609253,-14.052507400512695
1696081904460812800,1.081812744140625,4.309271812438965,2.0954549312591553,-13.910621643066406
1696081904470813000,1.09181298828125,3.243659257888794,1.6245620250701904,-13.964585304260254
1696081904480812800,1.101812744140625,3.24570369720459,2.4064812660217285,-12.131610870361328
1696081904490813000,1.11181298828125,3.0760538578033447,2.75781512260437,-9.553157806396484
1696081904500813000,1.12181298828125,2.6037774085998535,2.2039897441864014,-7.7140350341796875
1696081904510813000,1.13181298828125,1.751115083694458,1.0357154607772827,-6.265698432922363
1696081904520813000,1.14181298828125,0.5471878051757812,0.6723175048828125,-4.6901140213012695
1696081904530813000,1.15181298828125,-1.022465705871582,0.8848636150360107,-2.942201614379883
1696081904540813000,1.16181298828125,-2.42972469329834,1.8127915859222412,-0.63751220703125
1696081904550813000,1.17181298828125,-3.6181201934814453,2.469876766204834,3.1673316955566406
1696081904560812500,1.1818125,-4.285429954528809,2.231780529022217,6.084672927856445
1696081904570812700,1.191812744140625,-4.5604023933410645,1.3471012115478516,8.616178512573242
1696081904580812500,1.2018125,-4.976998329162598,0.3748297691345215,9.303045272827148
1696081904590812700,1.211812744140625,-5.827892303466797,0.03955650329589844,8.221206665039062
1696081904600813000,1.22181298828125,-6.553208827972412,0.10443496704101562,6.825273513793945
1696081904610813000,1.23181298828125,-6.006650924682617,0.04778480529785156,5.400228500366211
1696081904620813000,1.24181298828125,-4.2564697265625,0.16969823837280273,5.160358428955078
1696081904630813000,1.25181298828125,-2.0481996536254883,0.4382302761077881,5.749850273132324
1696081904640813000,1.26181298828125,0.15140628814697266,0.6533088684082031,5.661181449890137
1696081904650813400,1.2718134765625,2.525111675262451,0.6447186470031738,6.548704147338867
1696081904660814800,1.28181494140625,7.8217244148254395,-0.6573202610015869,11.331159591674805
1696081904670815200,1.291815185546875,7.829216957092285,-0.17699599266052246,11.363045692443848
1696081904680815400,1.3018154296875,4.053901195526123,0.5135452747344971,9.148824691772461
1696081904690815200,1.311815185546875,2.544914960861206,0.6729581356048584,7.141750335693359
1696081904700815400,1.3218154296875,0.6876835823059082,0.7696497440338135,5.199860572814941
1696081904710816000,1.33181591796875,0.8698222637176514,1.0263395309448242,3.656026840209961
1696081904720816000,1.341816162109375,1.219527006149292,1.3094035387039185,2.1973190307617188
1696081904730816000,1.35181591796875,2.5291662216186523,1.191695213317871,0.9831581115722656
1696081904740816100,1.361816162109375,3.0261895656585693,0.6613286733627319,0.36229419708251953
1696081904750816000,1.37181591796875,2.6741960048675537,-0.15143465995788574,-0.000621795654296875
1696081904760816400,1.38181640625,1.7515711784362793,-1.3704757690429688,-0.49603748321533203
1696081904770816500,1.39181640625,0.625713586807251,-2.2244718074798584,0.11263656616210938
1696081904780816400,1.40181640625,-0.38318419456481934,-1.3831281661987305,-0.29247188568115234
1696081904790816500,1.41181640625,-0.9191665649414062,-0.8334767818450928,-1.1179347038269043
1696081904800816400,1.42181640625,-0.6940286159515381,-1.0285149812698364,-2.66148042678833
1696081904810817300,1.4318173828125,-1.5227811336517334,-0.4682348966598511,-3.56368350982666
1696081904824434000,1.445433837890625,-2.225613832473755,0.10309851169586182,-2.8520302772521973
1696081904834433800,1.455433837890625,-1.307403564453125,0.0949251651763916,-1.660994529724121
1696081904844434000,1.465433837890625,-0.9183609485626221,0.19614946842193604,-0.03373527526855469
1696081904854433800,1.475433837890625,-0.7244861125946045,0.505670428276062,0.46822261810302734
1696081904864434200,1.48543408203125,-0.9816741943359375,0.7769573330879211,-1.6623687744140625
1696081904874434000,1.49543408203125,-1.823016881942749,1.5541011095046997,-3.936467170715332
1696081904884434200,1.50543408203125,-4.846432209014893,3.524763584136963,-6.045976638793945
1696081904894434000,1.51543408203125,-0.03457450866699219,1.964439868927002,-2.972804546356201
1696081904904434200,1.52543408203125,0.5158524513244629,0.4442713260650635,1.8604888916015625
1696081904914434600,1.5354345703125,-0.20676326751708984,1.1916589736938477,6.186535835266113
1696081904924434400,1.545434326171875,0.1057271957397461,1.8782672882080078,7.700160980224609
1696081904934434600,1.5554345703125,1.8988101482391357,3.0238137245178223,6.526251792907715
1696081904944434700,1.5654345703125,2.3879947662353516,4.302977085113525,4.139459609985352
1696081904954434300,1.575434326171875,1.898003339767456,5.462754726409912,2.3096275329589844
1696081904964433000,1.585432861328125,0.9978408813476562,6.903545379638672,1.3423967361450195
1696081904974432300,1.595432373046875,-0.2986321449279785,6.226103782653809,1.5769767761230469
1696081904984432400,1.605432373046875,-0.9120275974273682,5.717324733734131,0.9169530868530273
1696081904994432300,1.615432373046875,-1.3612298965454102,6.064849376678467,-1.0528736114501953
1696081905004432400,1.625432373046875,-1.2048141956329346,5.6557207107543945,-3.414571762084961
1696081905014431500,1.635431396484375,0.3459599018096924,4.863701820373535,-5.562956809997559
1696081905024431600,1.645431640625,2.159658432006836,3.3620948791503906,-5.824593544006348
1696081905034431500,1.655431396484375,2.5321059226989746,1.0589990615844727,-7.166407585144043
1696081905044431600,1.665431640625,2.2825801372528076,-1.0796618461608887,-10.186904907226562
1696081905054431500,1.675431396484375,2.8001322746276855,-3.6544039249420166,-11.162202835083008
1696081905064431600,1.685431640625,2.057129383087158,-4.907140254974365,-11.827554702758789
1696081905074430700,1.6954306640625,1.051027536392212,-6.156228065490723,-10.45374870300293
1696081905084430600,1.7054306640625,1.2194874286651611,-6.064392566680908,-7.911451816558838
1696081905094430700,1.7154306640625,-1.1688358783721924,-4.465152740478516,-7.360272407531738
1696081905104430600,1.7254306640625,-5.4771952629089355,-4.946139335632324,-3.3666305541992188
1696081905114429700,1.7354296875,-5.5204668045043945,-4.673388957977295,1.9137258529663086
1696081905124429800,1.745429931640625,-4.433812618255615,-3.431243419647217,2.293018341064453
1696081905134429700,1.7554296875,-3.017014980316162,-3.23356294631958,3.142353057861328
1696081905144429800,1.765429931640625,-3.1571264266967773,-4.38460111618042,5.028437614440918
1696081905154429000,1.775428955078125,-3.76841402053833,-4.393328666687012,5.74176549911499
1696081905164429000,1.785428955078125,-3.953958511352539,-3.62131404876709,6.250913143157959
1696081905174429000,1.795428955078125,-1.8832645416259766,-4.605165004730225,2.4579763412475586
1696081905184429000,1.805428955078125,1.457199215888977,-4.2670135498046875,-0.6437954902648926
1696081905194429000,1.815428955078125,4.200972557067871,-3.6349406242370605,2.007737159729004
1696081905204429000,1.825428955078125,5.694309234619141,-0.6689438819885254,2.4009146690368652
1696081905214429200,1.83542919921875,5.438149929046631,-0.6065206527709961,2.517308235168457
1696081905224429000,1.845428955078125,8.262906074523926,-1.8106374740600586,3.5346760749816895
1696081905234429000,1.855428955078125,6.734247207641602,0.718966007232666,3.381500720977783
1696081905244429000,1.865428955078125,3.491990566253662,1.526597023010254,2.7434945106506348
1696081905254429400,1.875429443359375,1.2932610511779785,2.0514278411865234,1.885209560394287
1696081905264429300,1.88542919921875,-0.16867879033088684,2.480769157409668,1.0480165481567383
1696081905274429400,1.895429443359375,-0.5666724443435669,1.7024202346801758,-0.07173490524291992
1696081905284429300,1.90542919921875,-0.2798269987106323,1.3763232231140137,-1.2920045852661133
1696081905294429400,1.915429443359375,-0.38727396726608276,1.719621181488037,-1.7803373336791992
1696081905304429300,1.92542919921875,-0.11015331745147705,1.6559906005859375,-1.673353672027588
1696081905314429400,1.935429443359375,-0.3893473744392395,1.3931913375854492,-1.9365460872650146
1696081905324429300,1.94542919921875,-0.6547790765762329,1.3249468803405762,-1.713857650756836
1696081905334429400,1.955429443359375,-0.3427947759628296,1.382833480834961,-1.4397873878479004
1696081905344429300,1.96542919921875,-0.2686309814453125,1.4645414352416992,-1.2885642051696777
1696081905354429400,1.975429443359375,-0.1605675220489502,1.4796514511108398,-1.1784272193908691
1696081905364429300,1.98542919921875,0.6084440350532532,1.334601879119873,-0.860966682434082
1696081905374430200,1.99543017578125,1.6943705081939697,0.8628301620483398,-0.3795609474182129
1696081905384430300,2.005430419921875,2.1080493927001953,0.10590171813964844,0.3113362789154053
1696081905394430200,2.01543017578125,2.3851003646850586,0.18517494201660156,0.3283352851867676
1696081905404430300,2.025430419921875,2.551992893218994,1.5644288063049316,0.4788331985473633
1696081905414430200,2.03543017578125,1.9827163219451904,4.593649387359619,0.503176212310791
1696081905424430300,2.045430419921875,0.5841749906539917,4.04847526550293,-0.1147623062133789
1696081905434430200,2.05543017578125,-0.40571796894073486,2.2919206619262695,0.0014157295227050781
1696081905444430300,2.065430419921875,-1.6061619520187378,1.8777556419372559,-0.20389294624328613
1696081905454431200,2.07543115234375,-1.1012415885925293,2.5557994842529297,-0.5447584390640259
1696081905464431000,2.08543115234375,-1.0177884101867676,2.7596473693847656,-0.71836918592453
1696081905474431200,2.09543115234375,0.03471648693084717,0.9493780136108398,-0.12836599349975586
1696081905484431000,2.10543115234375,0.9005668759346008,-6.461382865905762,5.039259910583496
1696081905494431200,2.11543115234375,0.7392656803131104,-9.700970649719238,5.794605731964111
1696081905504431000,2.12543115234375,0.7248191237449646,-13.58888053894043,5.821803092956543
1696081905514431200,2.13543115234375,1.064997911453247,-15.670234680175781,3.9389724731445312
1696081905524431000,2.14543115234375,0.31481730937957764,-12.861920356750488,-1.445885419845581
1696081905534431200,2.15543115234375,-0.21272194385528564,-7.673035621643066,-4.091300010681152
1696081905544431000,2.16543115234375,0.13849568367004395,-2.8916425704956055,-2.093594551086426
1696081905554431200,2.17543115234375,0.5996338129043579,-1.3350610733032227,1.1696560382843018
1696081905564431000,2.18543115234375,0.6151139736175537,0.17304229736328125,2.0480661392211914
1696081905574431200,2.19543115234375,0.9928882718086243,1.4925174713134766,1.7985990047454834
1696081905584431000,2.20543115234375,1.3524538278579712,2.424818992614746,1.2042866945266724
1696081905594431200,2.21543115234375,1.3062506914138794,2.5009984970092773,1.5296286344528198
1696081905604431000,2.22543115234375,1.4421067237854004,2.1698851585388184,1.6708699464797974
1696081905614431200,2.23543115234375,1.6273915767669678,1.5063962936401367,1.4529242515563965
1696081905624431000,2.24543115234375,2.2275753021240234,0.8592243194580078,0.6244061589241028
1696081905634431200,2.25543115234375,2.5198187828063965,0.5189361572265625,0.06617723405361176
1696081905644431000,2.26543115234375,2.6101043224334717,0.3183116912841797,-0.2928454875946045
1696081905654431200,2.27543115234375,2.3424065113067627,0.29251861572265625,-0.3709849417209625
1696081905664431000,2.28543115234375,1.32740318775177,0.28480052947998047,-0.5200266242027283
1696081905674431200,2.29543115234375,0.27153658866882324,0.4416236877441406,-0.6313120126724243
1696081905684431000,2.30543115234375,-0.21018648147583008,0.5083379745483398,-0.7002262473106384
1696081905694431200,2.31543115234375,-0.1502854824066162,0.425018310546875,-0.5797282457351685
1696081905704431000,2.32543115234375,0.1259218454360962,0.11799049377441406,-0.40790390968322754
1696081905714431200,2.33543115234375,0.2871929407119751,-0.17052459716796875,-0.2759755849838257
1696081905724431000,2.34543115234375,0.42014527320861816,-0.42313575744628906,-0.12443535774946213
1696081905734431200,2.35543115234375,0.5618516802787781,-0.5623016357421875,0.16577216982841492
1696081905744431000,2.36543115234375,0.6748384833335876,-0.5542669296264648,0.44716453552246094
1696081905754431200,2.37543115234375,0.7014583349227905,-0.4808063507080078,0.6759987473487854
1696081905764431000,2.38543115234375,0.7095727920532227,-0.3519630432128906,0.9386143684387207
1696081905774431000,2.395430908203125,0.7581583857536316,-0.22101116180419922,1.1423101425170898
1696081905784431000,2.40543115234375,0.8114360570907593,-0.06433391571044922,1.411365270614624
1696081905794431000,2.415430908203125,0.8725294470787048,0.0796041488647461,1.560431957244873
1696081905804431000,2.42543115234375,0.9788839817047119,0.20370960235595703,1.6781699657440186
1696081905814431000,2.435430908203125,1.0640214681625366,0.20766448974609375,1.7631281614303589
1696081905824431000,2.44543115234375,1.1141865253448486,0.1635427474975586,1.7692217826843262
1696081905834431000,2.455430908203125,1.144566297531128,0.07877349853515625,1.7368247509002686
1696081905844431000,2.46543115234375,1.1051136255264282,0.011113166809082031,1.7619693279266357
1696081905854431000,2.475430908203125,1.0025705099105835,0.02767658233642578,1.6506842374801636
1696081905864431000,2.48543115234375,0.9211130738258362,0.11405467987060547,1.513450264930725
1696081905874431000,2.495430908203125,0.8695064187049866,0.2963571548461914,1.3340195417404175
1696081905884431000,2.50543115234375,0.758014976978302,0.4331493377685547,1.1877292394638062
1696081905894431000,2.515430908203125,0.7101753950119019,0.4165468215942383,1.1126055717468262
1696081905904431000,2.52543115234375,0.6724931597709656,0.2921314239501953,1.0077718496322632
1696081905914431000,2.535430908203125,0.5939583778381348,0.15335845947265625,0.8740013837814331
1696081905924431000,2.54543115234375,0.5745061635971069,0.08411884307861328,0.7466273307800293
1696081905934431200,2.55543115234375,0.6056718826293945,0.1201772689819336,0.7175228595733643
1696081905944431000,2.56543115234375,0.6387752890586853,0.2350006103515625,0.7165180444717407
1696081905954431200,2.57543115234375,0.5906064510345459,0.3758573532104492,0.778206467628479
1696081905964431000,2.58543115234375,0.43919599056243896,0.40155506134033203,0.8447583317756653
1696081905974431200,2.59543115234375,0.28467094898223877,0.3240966796875,0.9106705188751221
1696081905984431000,2.60543115234375,0.12685728073120117,0.19134521484375,0.8855542540550232
1696081905994431200,2.61543115234375,0.029116034507751465,0.14233112335205078,0.8495616316795349
1696081906004431000,2.62543115234375,0.1108773946762085,0.1387472152709961,0.870186448097229
1696081906014431200,2.63543115234375,0.3514547348022461,0.06323814392089844,1.0347256660461426
1696081906024431000,2.64543115234375,0.660250723361969,0.0067195892333984375,1.123006820678711
1696081906034431200,2.65543115234375,0.926757276058197,0.02427959442138672,1.153698444366455
1696081906044431000,2.66543115234375,1.1191576719284058,0.1303873062133789,1.1270091533660889
1696081906054431200,2.67543115234375,1.203873634338379,0.25801563262939453,1.004881739616394
1696081906064431000,2.68543115234375,1.1717551946640015,0.31140995025634766,0.95112144947052
1696081906074431200,2.69543115234375,1.2986009120941162,0.23539352416992188,0.853907585144043
1696081906084431000,2.70543115234375,1.2459867000579834,0.13303470611572266,0.7337749004364014
1696081906094431200,2.71543115234375,1.1750155687332153,0.11472892761230469,0.5947489738464355
1696081906104431000,2.72543115234375,1.0815436840057373,0.24300765991210938,0.45071959495544434
1696081906114431200,2.73543115234375,1.0487709045410156,0.2833433151245117,0.46615737676620483
1696081906124431000,2.74543115234375,1.1158841848373413,0.11834144592285156,0.5460907220840454
1696081906134431200,2.75543115234375,1.1618574857711792,-0.039092063903808594,0.7189289331436157
1696081906144431000,2.76543115234375,1.144310712814331,-0.07183456420898438,0.7632979154586792
1696081906154431200,2.77543115234375,1.214627742767334,-0.003912925720214844,0.7954121232032776
1696081906164431000,2.78543115234375,1.2760741710662842,0.17880630493164062,0.8663722276687622
1696081906174431200,2.79543115234375,1.1787030696868896,0.2918720245361328,1.0884087085723877
1696081906184431000,2.80543115234375,0.9871605038642883,0.2323617935180664,1.4504793882369995
1696081906194431200,2.81543115234375,0.6620500683784485,0.19192218780517578,1.7088161706924438
1696081906204431000,2.82543115234375,0.48917388916015625,0.20421791076660156,1.7807272672653198
1696081906214431200,2.83543115234375,0.40849101543426514,0.22382831573486328,1.8141487836837769
1696081906224431000,2.84543115234375,0.43765711784362793,0.2673358917236328,1.7636516094207764
1696081906234431200,2.85543115234375,0.5592747926712036,0.21717166900634766,1.7122838497161865
1696081906244431000,2.86543115234375,0.7344655394554138,0.0946512222290039,1.8110326528549194
1696081906254431200,2.87543115234375,0.9564037322998047,0.045772552490234375,1.7809282541275024
1696081906264431000,2.88543115234375,0.9390010833740234,0.046746253967285156,1.3981494903564453
1696081906274431200,2.89543115234375,0.9328075051307678,0.1504068374633789,1.375385046005249
1696081906284431000,2.90543115234375,0.8396265506744385,0.15805721282958984,1.2210516929626465
1696081906294431200,2.91543115234375,0.6600704789161682,0.1465616226196289,1.0384039878845215
1696081906304431000,2.92543115234375,0.4243842363357544,0.16635417938232422,0.8250783681869507
1696081906314431000,2.935430908203125,0.1878218650817871,0.10728168487548828,0.6890197992324829
1696081906324431000,2.94543115234375,0.12888014316558838,-0.014135360717773438,0.7090031504631042
1696081906334431000,2.955430908203125,0.16512858867645264,-0.1119527816772461,0.7601239681243896
1696081906344431000,2.96543115234375,0.2834467887878418,-0.16242122650146484,0.7966893315315247
1696081906354431000,2.975430908203125,0.45835602283477783,-0.20121383666992188,0.8597723841667175
1696081906364431000,2.98543115234375,0.6533694267272949,-0.4154043197631836,1.097798466682434
1696081906374431000,2.995430908203125,0.8654966354370117,-0.6636562347412109,1.3880993127822876
1696081906384431000,3.00543115234375,1.0100606679916382,-0.7495040893554688,1.6019067764282227
1696081906394431000,3.015430908203125,1.0930042266845703,-0.6512289047241211,1.8562343120574951
1696081906404431000,3.02543115234375,1.1759982109069824,-0.37835121154785156,2.066802740097046
1696081906414431000,3.035430908203125,1.2629282474517822,-0.10593509674072266,2.2326693534851074
1696081906424431000,3.04543115234375,1.2874903678894043,0.1490650177001953,2.2923991680145264
1696081906434431000,3.055430908203125,1.252285122871399,0.245361328125,2.2537426948547363
1696081906444431000,3.06543115234375,1.2168635129928589,0.17104625701904297,2.1511871814727783
1696081906454431200,3.07543115234375,1.2294747829437256,0.033763885498046875,1.9532157182693481
1696081906464431000,3.08543115234375,1.3387439250946045,-0.07084941864013672,1.7051254510879517
1696081906474431200,3.09543115234375,1.4723997116088867,-0.15232372283935547,1.4764925241470337
1696081906484431000,3.10543115234375,1.6705217361450195,-0.27999305725097656,1.224592685699463
1696081906494431200,3.11543115234375,1.9805713891983032,-0.5328130722045898,1.0800889730453491
1696081906504431000,3.12543115234375,2.438992977142334,-0.9780826568603516,1.109696865081787
1696081906514431200,3.13543115234375,3.063263177871704,-1.4580497741699219,1.2582650184631348
1696081906524431000,3.14543115234375,3.8389973640441895,-1.805262565612793,1.4333505630493164
1696081906534431200,3.15543115234375,4.821774482727051,-1.9057235717773438,1.6656358242034912
1696081906544431000,3.16543115234375,5.549258232116699,-1.6785221099853516,2.0223982334136963
1696081906554431200,3.17543115234375,6.010873794555664,-1.4771738052368164,2.5554323196411133
1696081906564431000,3.18543115234375,6.207827568054199,-1.3726310729980469,3.184715509414673
1696081906574431200,3.19543115234375,6.322956562042236,-1.3877887725830078,3.822221517562866
1696081906584431000,3.20543115234375,6.36334228515625,-1.542694091796875,4.490603923797607
1696081906594431200,3.21543115234375,6.2407073974609375,-1.7546396255493164,5.073202133178711
1696081906604431000,3.22543115234375,5.8026299476623535,-2.1832962036132812,5.736713409423828
1696081906614431200,3.23543115234375,4.989402770996094,-2.7975378036499023,6.424424648284912
1696081906624431000,3.24543115234375,3.961287021636963,-3.1787843704223633,7.065245628356934
1696081906634431200,3.25543115234375,3.2846291065216064,-3.3199853897094727,7.521964073181152
1696081906644431000,3.26543115234375,2.870077133178711,-3.369779586791992,7.846059799194336
1696081906654431200,3.27543115234375,3.308087110519409,-2.486485481262207,7.548765659332275
1696081906664431000,3.28543115234375,4.65944242477417,-1.036808967590332,6.510560989379883
1696081906674431200,3.29543115234375,5.960831165313721,0.4098844528198242,4.909376621246338
1696081906684431000,3.30543115234375,6.222141742706299,0.7263889312744141,3.4672603607177734
1696081906694431200,3.31543115234375,5.20685338973999,-0.3058948516845703,2.2952425479888916
1696081906704431000,3.32543115234375,3.6575303077697754,-2.1277999877929688,1.3193416595458984
1696081906714431200,3.33543115234375,1.2699940204620361,-4.108084678649902,0.557807207107544
1696081906724431000,3.34543115234375,-1.0363800525665283,-5.285330772399902,-0.5874470472335815
1696081906734431200,3.35543115234375,-3.104018211364746,-6.02082633972168,-1.250842809677124
1696081906744431000,3.36543115234375,-4.482656478881836,-6.497049331665039,-1.3498297929763794
1696081906754431200,3.37543115234375,-5.139535427093506,-6.371784210205078,-1.882022738456726
1696081906764431000,3.38543115234375,-5.132768154144287,-5.684309959411621,-2.406508684158325
1696081906774431000,3.395430908203125,-4.389610767364502,-4.8486175537109375,-2.376866579055786
1696081906784431000,3.40543115234375,-3.4931678771972656,-4.087802886962891,-1.8206462860107422
1696081906794431000,3.415430908203125,-2.290839672088623,-3.4516162872314453,-1.2509329319000244
1696081906804431000,3.42543115234375,-1.308171272277832,-2.717123031616211,-0.6268681883811951
1696081906814431000,3.435430908203125,-0.8312482237815857,-1.942708969116211,0.05096757411956787
1696081906824431000,3.44543115234375,-0.41778290271759033,-1.5151100158691406,0.4178863763809204
1696081906834431000,3.455430908203125,-0.45156508684158325,-0.8249940872192383,0.2924501895904541
1696081906844431000,3.46543115234375,-0.8094816207885742,-0.15916061401367188,-0.5079652070999146
1696081906854431000,3.475430908203125,-1.609778881072998,0.5270051956176758,-1.3583085536956787
1696081906864431000,3.48543115234375,-1.8408186435699463,1.114762306213379,-1.895081877708435
1696081906874431000,3.495430908203125,-1.8697675466537476,1.7354583740234375,-1.9960002899169922
1696081906884431000,3.50543115234375,-2.393975019454956,2.2585034370422363,-2.1817851066589355
1696081906894431000,3.515430908203125,-2.689455032348633,2.731499671936035,-2.1279191970825195
1696081906904431000,3.52543115234375,-2.6656720638275146,3.1837353706359863,-2.3438169956207275
1696081906914431000,3.535430908203125,-2.5978610515594482,3.4188313484191895,-2.5411252975463867
1696081906924431000,3.54543115234375,-2.5494978427886963,3.4721617698669434,-2.9572367668151855
1696081906934431200,3.55543115234375,-2.6797220706939697,3.3697214126586914,-3.591362476348877
1696081906944431000,3.56543115234375,-2.902494192123413,3.097649574279785,-4.021567344665527
1696081906954431200,3.57543115234375,-3.1054985523223877,2.7326149940490723,-4.18238639831543
1696081906964431000,3.58543115234375,-3.367518186569214,2.557304859161377,-4.28404426574707
1696081906974431200,3.59543115234375,-3.647399425506592,2.468153476715088,-4.164829254150391
1696081906984431000,3.60543115234375,-3.891864776611328,2.456847667694092,-4.005158424377441
1696081906994431200,3.61543115234375,-3.9624361991882324,2.5622401237487793,-4.014840602874756
1696081907004431000,3.62543115234375,-4.009355545043945,2.7631564140319824,-4.246796607971191
1696081907014431200,3.63543115234375,-4.227794170379639,3.1481242179870605,-4.678997993469238
1696081907024431000,3.64543115234375,-4.448400497436523,3.6169867515563965,-5.0543212890625
1696081907034431200,3.65543115234375,-4.419619560241699,4.135161876678467,-5.212831497192383
1696081907044431000,3.66543115234375,-4.121036529541016,4.626537799835205,-5.186895847320557
1696081907054431200,3.67543115234375,-3.777848958969116,4.977264404296875,-4.8690571784973145
1696081907064431000,3.68543115234375,-3.344498872756958,5.1514787673950195,-4.313883304595947
1696081907074431200,3.69543115234375,-2.553866386413574,5.02241849899292,-3.2317566871643066
1696081907084431000,3.70543115234375,-1.3735462427139282,4.708038806915283,-1.5988826751708984
1696081907094431200,3.71543115234375,0.2149217128753662,3.957960605621338,0.5198972225189209
1696081907104431000,3.72543115234375,2.7236549854278564,2.588050365447998,2.7938835620880127
1696081907114431200,3.73543115234375,6.227383613586426,0.7232847213745117,5.548587799072266
1696081907124431000,3.74543115234375,9.49438190460205,-1.0714492797851562,8.569465637207031
1696081907134431200,3.75543115234375,11.316939353942871,-3.283848762512207,11.019981384277344
1696081907144431000,3.76543115234375,11.288986206054688,-5.618959426879883,12.282208442687988
1696081907154431200,3.77543115234375,9.361597061157227,-7.800200462341309,12.36273193359375
1696081907164431000,3.78543115234375,6.577332019805908,-9.274691581726074,11.510916709899902
1696081907174431200,3.79543115234375,3.5729804039001465,-8.729903221130371,9.019856452941895
1696081907184431000,3.80543115234375,2.1283068656921387,-5.863883018493652,4.801169395446777
1696081907194431200,3.81543115234375,1.230445146560669,-1.5353918075561523,1.4248743057250977
1696081907204431000,3.82543115234375,0.9768037796020508,2.237626552581787,-0.7487753629684448
1696081907214431200,3.83543115234375,1.0598187446594238,5.172440052032471,-2.6295104026794434
1696081907224431000,3.84543115234375,0.6461384296417236,5.960348129272461,-3.965592384338379
1696081907234431200,3.85543115234375,0.5976228713989258,3.344118595123291,-5.205838203430176
1696081907244431000,3.86543115234375,0.2510244846343994,-0.6809225082397461,-6.616050720214844
1696081907254431200,3.87543115234375,-0.6819151639938354,-5.04267692565918,-6.441843509674072
1696081907264431000,3.88543115234375,-0.5525239706039429,-8.708864212036133,-3.244483709335327
1696081907274431000,3.895430908203125,1.9633052349090576,-10.784618377685547,2.8774168491363525
1696081907284431000,3.90543115234375,-0.8978639841079712,-8.90914535522461,5.909530162811279
1696081907294431000,3.915430908203125,-2.055722713470459,-3.4237260818481445,3.6406028270721436
1696081907304431000,3.92543115234375,-4.133732795715332,1.513383388519287,-0.5999240875244141
1696081907314431000,3.935430908203125,-4.830719947814941,5.1366071701049805,-4.0470871925354
1696081907324431000,3.94543115234375,-5.528194904327393,6.9375810623168945,-5.909453868865967
1696081907334430700,3.9554306640625,-6.482739448547363,5.610276222229004,-6.854400634765625
1696081907344430600,3.9654306640625,-6.698929786682129,3.231398105621338,-7.81601619720459
1696081907354430700,3.9754306640625,-6.814120292663574,0.8058872222900391,-8.842304229736328
1696081907364430600,3.9854306640625,-7.117348670959473,-1.336517333984375,-9.3040132522583
1696081907374430700,3.9954306640625,-6.8581342697143555,-3.2837400436401367,-8.462566375732422
1696081907384430600,4.0054306640625,-6.3172197341918945,-4.592621803283691,-7.140468597412109
1696081907394430700,4.0154306640625,-6.1652398109436035,-4.703706741333008,-5.47091007232666
1696081907404430600,4.0254306640625,-5.882701873779297,-3.53265380859375,-3.7785139083862305
1696081907414430700,4.0354306640625,-5.385684967041016,-2.016169548034668,-2.6695852279663086
1696081907424430600,4.0454306640625,-4.190700054168701,-0.7723054885864258,-1.965369701385498
1696081907434430700,4.0554306640625,-2.225795269012451,-0.094329833984375,-1.2855162620544434
1696081907444430600,4.0654306640625,0.23221755027770996,0.19992828369140625,-0.6481244564056396
1696081907454430700,4.0754306640625,2.1486306190490723,0.18460559844970703,0.26952362060546875
1696081907464430800,4.085430908203125,3.0568814277648926,-0.1026620864868164,1.2810665369033813
1696081907474430700,4.0954306640625,2.427446126937866,-0.2006826400756836,2.045431613922119
1696081907484430800,4.105430908203125,0.6747654676437378,0.016384124755859375,2.617163896560669
1696081907494430700,4.1154306640625,-0.9210126399993896,0.4310131072998047,3.073183059692383
1696081907504430800,4.125430908203125,-1.772513747215271,0.9433689117431641,3.350334644317627
1696081907514430700,4.1354306640625,-1.613398790359497,1.3747406005859375,3.3666648864746094
1696081907524430600,4.1454306640625,-1.0357389450073242,1.7834529876708984,3.262138605117798
1696081907534430700,4.1554306640625,-0.7266467213630676,2.1700987815856934,3.107059955596924
1696081907544430600,4.1654306640625,-0.5876761078834534,2.4413700103759766,2.933375835418701
1696081907554430700,4.1754306640625,-0.6369450092315674,2.576435089111328,2.6812779903411865
1696081907564430600,4.1854306640625,-0.839154839515686,2.470083236694336,2.5175275802612305
1696081907574430700,4.1954306640625,-0.9475831985473633,2.1633472442626953,2.3501577377319336
1696081907584430600,4.2054306640625,-1.062438726425171,1.8601984977722168,2.0324580669403076
1696081907594430700,4.2154306640625,-1.326003074645996,1.3430700302124023,1.6814874410629272
1696081907604430600,4.2254306640625,-0.9184633493423462,0.7531290054321289,1.4338195323944092
1696081907614430700,4.2354306640625,0.43606725335121155,-0.14223098754882812,1.4833455085754395
1696081907624430600,4.2454306640625,2.090697765350342,-1.0728836059570312,1.3451224565505981
1696081907634431200,4.25543115234375,3.4307403564453125,-1.603377342224121,1.1029810905456543
1696081907644431000,4.26543115234375,4.208418369293213,-1.5973262786865234,0.9901266098022461
1696081907654431200,4.27543115234375,4.484368324279785,-1.0521574020385742,0.9921929240226746
1696081907664431000,4.28543115234375,4.0209221839904785,-0.23295974731445312,1.2507758140563965
1696081907674431200,4.29543115234375,3.0156798362731934,0.25322914123535156,1.7719006538391113
1696081907684431000,4.30543115234375,2.233590602874756,0.10106468200683594,1.8111318349838257
1696081907694431200,4.31543115234375,1.8256657123565674,-0.5099411010742188,1.4351511001586914
1696081907704431000,4.32543115234375,2.186659812927246,-1.2216920852661133,1.2198565006256104
1696081907714431200,4.33543115234375,3.279282569885254,-1.6356658935546875,1.2599440813064575
1696081907724431000,4.34543115234375,4.272684097290039,-1.6590662002563477,1.5937929153442383
1696081907734431200,4.35543115234375,4.376340389251709,-1.4922733306884766,2.4419538974761963
1696081907744431000,4.36543115234375,3.967111587524414,-1.2555437088012695,3.4825356006622314
1696081907754431200,4.37543115234375,3.2266595363616943,-1.0978078842163086,4.551962375640869
1696081907764431000,4.38543115234375,2.3137316703796387,-1.1377668380737305,5.5460124015808105
1696081907774431000,4.395430908203125,1.4764254093170166,-1.3777961730957031,6.48917293548584
1696081907784431000,4.40543115234375,1.086870789527893,-1.7082014083862305,7.278475761413574
1696081907794431000,4.415430908203125,1.320778250694275,-1.8135986328125,7.6630096435546875
1696081907804431000,4.42543115234375,2.140467405319214,-1.553858757019043,7.510880470275879
1696081907814431000,4.435430908203125,3.00472354888916,-1.4397335052490234,7.290370941162109
1696081907824431000,4.44543115234375,3.346830129623413,-2.0688295364379883,7.395992279052734
1696081907834431000,4.455430908203125,3.5438342094421387,-2.9042158126831055,7.209728717803955
1696081907844431000,4.46543115234375,3.7267298698425293,-3.485349655151367,6.608730316162109
1696081907854431000,4.475430908203125,4.067541599273682,-3.9268550872802734,5.8348541259765625
1696081907864431000,4.48543115234375,4.960190296173096,-4.125653266906738,4.976212978363037
1696081907874431000,4.495430908203125,6.222485542297363,-4.009899139404297,3.823270082473755
1696081907884431000,4.50543115234375,6.919529914855957,-3.5550918579101562,2.5139546394348145
1696081907894431000,4.515430908203125,5.283207416534424,-2.8993778228759766,1.5887725353240967
1696081907904431000,4.52543115234375,2.389920711517334,-2.5760889053344727,1.3600773811340332
1696081907914431000,4.535430908203125,0.054519832134246826,-2.7847824096679688,0.7870405912399292
1696081907924431000,4.54543115234375,-1.1140514612197876,-3.4500064849853516,-0.6050809621810913
1696081907934431000,4.555430908203125,-1.6949706077575684,-4.6534833908081055,-1.5506138801574707
1696081907944431000,4.56543115234375,-2.702928304672241,-6.047052383422852,-2.509894609451294
1696081907954431000,4.575430908203125,-4.547474384307861,-7.141606330871582,-3.3901443481445312
1696081907964431000,4.58543115234375,-6.417198181152344,-7.282754898071289,-4.0458598136901855
1696081907974431200,4.59543115234375,-7.419303894042969,-6.633044242858887,-4.695822715759277
1696081907984431000,4.60543115234375,-7.587664604187012,-4.971832275390625,-4.653071403503418
1696081907994431200,4.61543115234375,-4.720644950866699,-3.4565649032592773,-3.996371269226074
1696081908004431000,4.62543115234375,-2.200965404510498,-2.5409584045410156,-2.100933074951172
1696081908014431000,4.635430908203125,1.0686919689178467,-1.8783645629882812,-0.19986486434936523
1696081908024431000,4.64543115234375,3.3412511348724365,-1.2819786071777344,1.1855270862579346
1696081908034431000,4.655430908203125,3.0181868076324463,-0.6805047988891602,1.1893908977508545
1696081908044431000,4.66543115234375,0.7577917575836182,-0.12822246551513672,0.38342881202697754
1696081908054431000,4.675430908203125,-1.806631088256836,0.3367471694946289,-0.4809001684188843
1696081908064431000,4.68543115234375,-3.0947585105895996,0.7305231094360352,-1.318961501121521
1696081908074431000,4.695430908203125,-3.4109749794006348,1.2927260398864746,-2.0101118087768555
1696081908084431000,4.70543115234375,-2.8806591033935547,1.892958641052246,-2.763461112976074
1696081908094431000,4.715430908203125,-2.6364455223083496,2.491952896118164,-3.389080047607422
1696081908104431000,4.72543115234375,-2.5411429405212402,3.029510498046875,-3.829108715057373
1696081908114431000,4.735430908203125,-2.5685338973999023,3.377882957458496,-4.337917327880859
1696081908124431000,4.74543115234375,-2.5623064041137695,3.514540672302246,-4.811587333679199
1696081908134431000,4.755430908203125,-2.839413642883301,3.527419090270996,-5.083555221557617
1696081908144431000,4.76543115234375,-3.113115072250366,3.3831615447998047,-5.192615509033203
1696081908154431200,4.77543115234375,-2.999734878540039,3.197223663330078,-5.314362525939941
1696081908164431000,4.78543115234375,-2.9024386405944824,3.0307111740112305,-5.466080665588379
1696081908174431200,4.79543115234375,-2.9163005352020264,2.9310479164123535,-5.412605285644531
1696081908184431000,4.80543115234375,-2.981516122817993,2.933840751647949,-5.315540790557861
1696081908194431200,4.81543115234375,-3.0707011222839355,3.0091052055358887,-5.343138694763184
1696081908204431000,4.82543115234375,-3.2831716537475586,3.1115288734436035,-5.448675155639648
1696081908214431200,4.83543115234375,-3.5695033073425293,3.2553153038024902,-5.627594470977783
1696081908224431000,4.84543115234375,-3.8024258613586426,3.5216846466064453,-5.832955360412598
1696081908234431200,4.85543115234375,-3.808351993560791,3.8386917114257812,-5.91751766204834
1696081908244431000,4.86543115234375,-3.5163869857788086,4.14716911315918,-5.912331581115723
1696081908254431200,4.87543115234375,-3.0089259147644043,4.351169586181641,-5.716283798217773
1696081908264431000,4.88543115234375,-2.406949281692505,4.367563247680664,-5.170238971710205
1696081908274431000,4.895430908203125,-1.727217435836792,4.071671962738037,-3.9905848503112793
1696081908284431000,4.90543115234375,-0.7789579629898071,3.2970480918884277,-1.657734990119934
1696081908294431000,4.915430908203125,0.5556223392486572,2.1517696380615234,1.4725127220153809
1696081908304431000,4.92543115234375,2.821218490600586,0.735936164855957,4.595203399658203
1696081908314431000,4.935430908203125,4.923171520233154,-0.843470573425293,7.750554084777832
1696081908324431000,4.94543115234375,5.429004192352295,-2.0807886123657227,10.261444091796875
1696081908334431000,4.955430908203125,5.681901931762695,-3.187689781188965,11.470026016235352
1696081908344431000,4.96543115234375,7.105475425720215,-4.337940216064453,12.640684127807617
1696081908354431000,4.975430908203125,7.979773044586182,-5.892699241638184,14.11734390258789
1696081908364431000,4.98543115234375,6.947457313537598,-7.261863708496094,14.906838417053223
1696081908374431000,4.995430908203125,4.254677772521973,-7.070749282836914,10.674243927001953
1696081908384431000,5.00543115234375,2.6506845951080322,-4.476097106933594,4.543152332305908
1696081908394431000,5.015430908203125,1.5028278827667236,-1.068711280822754,0.3710925579071045
1696081908404431000,5.02543115234375,0.9042823314666748,2.2766003608703613,-1.6645798683166504
1696081908414431000,5.035430908203125,0.9878900051116943,5.0248637199401855,-3.354771614074707
1696081908424431000,5.04543115234375,1.103926658630371,6.101932048797607,-4.832923412322998
1696081908434431000,5.055430908203125,0.7648367881774902,3.2694592475891113,-5.501599311828613
1696081908444431000,5.06543115234375,0.7426540851593018,-1.4580497741699219,-6.5188493728637695
1696081908454431200,5.07543115234375,0.37841248512268066,-6.6573638916015625,-6.767157554626465
1696081908464431000,5.08543115234375,-0.4602530002593994,-10.485024452209473,-5.319319725036621
1696081908474431200,5.09543115234375,-1.4025732278823853,-11.898042678833008,-1.6637191772460938
1696081908484431000,5.10543115234375,-3.142812728881836,-8.557476043701172,-0.8071889877319336
1696081908494431200,5.11543115234375,-3.6303915977478027,-3.465825080871582,-2.429739475250244
1696081908504431000,5.12543115234375,-2.999177932739258,0.5355091094970703,-3.930882453918457
1696081908514431200,5.13543115234375,-3.2437806129455566,3.57366943359375,-4.888059616088867
1696081908524431000,5.14543115234375,-4.405673503875732,5.296036243438721,-5.371197700500488
1696081908534431200,5.15543115234375,-5.58238410949707,4.649892807006836,-5.403316497802734
1696081908544431000,5.16543115234375,-6.542612552642822,2.938547134399414,-5.5757341384887695
1696081908554431200,5.17543115234375,-7.39440393447876,0.8986244201660156,-6.1305437088012695
1696081908564431000,5.18543115234375,-7.517422199249268,-1.4229936599731445,-6.255350112915039
1696081908574431200,5.19543115234375,-7.433677673339844,-3.451885223388672,-5.5003814697265625
1696081908584431000,5.20543115234375,-7.3364763259887695,-4.71212100982666,-4.062466621398926
1696081908594431200,5.21543115234375,-7.202529430389404,-4.813547134399414,-2.4129436016082764
1696081908604431000,5.22543115234375,-6.596578121185303,-3.664055824279785,-1.2667462825775146
1696081908614431200,5.23543115234375,-5.361148834228516,-2.159862518310547,-0.675727128982544
1696081908624431000,5.24543115234375,-3.6169137954711914,-0.6375284194946289,-0.414597749710083
1696081908634431200,5.25543115234375,-1.4579912424087524,0.6784553527832031,0.042368412017822266
1696081908644431000,5.26543115234375,0.7207709550857544,1.7019219398498535,0.8042982816696167
1696081908654431200,5.27543115234375,2.5252692699432373,2.4825968742370605,1.6020680665969849
1696081908664431000,5.28543115234375,3.3017685413360596,3.0371947288513184,2.3358187675476074
1696081908674431200,5.29543115234375,2.97507905960083,3.6090402603149414,2.695329189300537
1696081908684431000,5.30543115234375,1.8324772119522095,3.77293062210083,2.754214286804199
1696081908694431200,5.31543115234375,0.49389737844467163,3.5621891021728516,2.5863685607910156
1696081908704431000,5.32543115234375,-0.18832674622535706,2.8446450233459473,2.5368759632110596
1696081908714431200,5.33543115234375,-0.5159555077552795,1.5929288864135742,2.593390703201294
1696081908724431000,5.34543115234375,-0.8387592434883118,0.27218151092529297,2.5550317764282227
1696081908734431200,5.35543115234375,-1.101402759552002,-0.6526279449462891,2.2246944904327393
1696081908744431000,5.36543115234375,-1.2637934684753418,-0.9417009353637695,1.6878451108932495
1696081908754431200,5.37543115234375,-0.7173858880996704,-0.7122173309326172,1.2319920063018799
1696081908764431000,5.38543115234375,0.5077918767929077,-0.16078472137451172,1.1025410890579224
1696081908774431000,5.395430908203125,2.49554181098938,0.11106204986572266,1.1653027534484863
1696081908784431000,5.40543115234375,5.180999279022217,-0.13869857788085938,1.28431236743927
1696081908794431000,5.415430908203125,6.811178207397461,-0.4503765106201172,1.5995997190475464
1696081908804431000,5.42543115234375,6.047041416168213,-0.5160608291625977,2.014657974243164
1696081908814431000,5.435430908203125,3.9061338901519775,-0.12816905975341797,1.978592872619629
1696081908824431000,5.44543115234375,1.4109867811203003,0.4550333023071289,1.9874521493911743
1696081908834431000,5.455430908203125,-0.7147108316421509,0.9072837829589844,1.9535067081451416
1696081908844431000,5.46543115234375,-2.360377311706543,1.1205415725708008,1.5738381147384644
1696081908854431000,5.475430908203125,-3.485117197036743,1.0420026779174805,1.0023059844970703
1696081908864431000,5.48543115234375,-3.4136853218078613,0.7161102294921875,0.4897712767124176
1696081908874431000,5.495430908203125,-1.6786881685256958,0.1862344741821289,0.1819494664669037
1696081908884431000,5.50543115234375,1.110174536705017,-0.5138235092163086,0.004273504018783569
1696081908894431000,5.515430908203125,3.8799638748168945,-1.1695137023925781,0.15248581767082214
1696081908904431000,5.52543115234375,7.2865495681762695,-2.136866569519043,2.0963940620422363
1696081908914431000,5.535430908203125,7.41677188873291,-2.163022041320801,2.1801719665527344
1696081908924431000,5.54543115234375,6.294770240783691,-1.8872976303100586,3.6563305854797363
1696081908934431200,5.55543115234375,4.056443214416504,-1.2839860916137695,4.750669479370117
1696081908944431000,5.56543115234375,2.003265380859375,-0.8020992279052734,5.347909927368164
1696081908954431200,5.57543115234375,0.7451345324516296,-0.7140178680419922,5.814424514770508
1696081908964431000,5.58543115234375,0.10046172142028809,-0.8288679122924805,6.2928876876831055
1696081908974431200,5.59543115234375,-0.10327589511871338,-1.0891695022583008,6.901806831359863
1696081908984431000,5.60543115234375,0.3631937503814697,-1.3318023681640625,7.579659461975098
1696081908994431200,5.61543115234375,1.8131608963012695,-1.3450326919555664,7.908061981201172
1696081909004431000,5.62543115234375,3.6375789642333984,-1.2593059539794922,7.744044303894043
1696081909014431200,5.63543115234375,4.822340965270996,-1.6334037780761719,7.6278395652771
1696081909024431000,5.64543115234375,5.4375410079956055,-2.5201711654663086,7.369400978088379
1696081909034431000,5.655430908203125,6.049251556396484,-3.2963380813598633,6.549750804901123
1696081909044431000,5.66543115234375,6.869741916656494,-3.6874542236328125,5.45820426940918
1696081909054431200,5.67543115234375,7.951242923736572,-3.531682014465332,4.41535758972168
1696081909064431000,5.68543115234375,7.729681491851807,-3.219411849975586,3.530848741531372
1696081909074431000,5.695430908203125,5.0512824058532715,-3.003424644470215,3.2833251953125
1696081909084431000,5.70543115234375,1.136128544807434,-2.958601951599121,3.1981961727142334
1696081909094431200,5.71543115234375,-1.5037965774536133,-3.182988166809082,2.3941802978515625
1696081909104431000,5.72543115234375,-2.043365955352783,-3.910647392272949,1.0542924404144287
1696081909114431000,5.735430908203125,-1.7187871932983398,-5.155950546264648,-0.6368659734725952
1696081909124431000,5.74543115234375,-2.192903995513916,-6.973608016967773,-1.7870548963546753
1696081909134431200,5.75543115234375,-3.2699151039123535,-8.424644470214844,-2.300116539001465
1696081909144431000,5.76543115234375,-4.579423427581787,-9.517815589904785,-3.1119589805603027
1696081909154431000,5.775430908203125,-5.068252086639404,-9.263226509094238,-4.082666397094727
1696081909164431000,5.78543115234375,-4.869528770446777,-7.714114189147949,-5.067702770233154
1696081909174431200,5.79543115234375,-4.531191825866699,-5.4457902908325195,-5.035414695739746
1696081909184431000,5.80543115234375,-2.8136680126190186,-3.588773727416992,-4.339613914489746
1696081909194431500,5.815431396484375,-1.2223708629608154,-2.1704607009887695,-3.043022632598877
1696081909204431600,5.825431640625,0.267846941947937,-1.2796716690063477,-1.8239772319793701
1696081909214431700,5.835431640625,-0.6077283620834351,-0.6194238662719727,-1.0105260610580444
1696081909224431600,5.845431640625,-1.7261031866073608,-0.15352153778076172,-0.5681725740432739
1696081909234431500,5.855431396484375,-2.6908185482025146,0.34469127655029297,-0.5379247665405273
1696081909244431600,5.865431640625,-3.15372896194458,0.9160385131835938,-0.9946186542510986
1696081909254431500,5.875431396484375,-3.4064064025878906,1.5876655578613281,-1.0374667644500732
1696081909264431600,5.885431640625,-3.2997140884399414,2.367488384246826,-1.1799514293670654
1696081909274431500,5.895431396484375,-2.7896859645843506,3.1715259552001953,-1.6006230115890503
1696081909284431600,5.905431640625,-2.473924398422241,3.8821749687194824,-2.092757225036621
1696081909294431500,5.915431396484375,-2.7111897468566895,4.212529182434082,-2.773101329803467
1696081909304431600,5.925431640625,-3.348829746246338,4.248925685882568,-3.484774589538574
1696081909314431500,5.935431396484375,-3.806269645690918,4.166097640991211,-4.184276580810547
1696081909324431600,5.945431640625,-3.94777774810791,3.908346652984619,-4.638676643371582
1696081909334431500,5.955431396484375,-3.8267009258270264,3.6477723121643066,-5.043848514556885
1696081909344431600,5.965431640625,-3.597475051879883,3.518075942993164,-5.4825592041015625
1696081909354431500,5.975431396484375,-3.702728271484375,3.394711971282959,-5.650712966918945
1696081909364431600,5.985431640625,-3.905881643295288,3.330960273742676,-5.74091100692749
1696081909374431500,5.995431396484375,-4.143362998962402,3.309351921081543,-5.7449116706848145
1696081909384431600,6.005431640625,-4.44028902053833,3.375335693359375,-5.659911155700684
1696081909394431500,6.015431396484375,-4.641457557678223,3.492328643798828,-5.665387153625488
1696081909404431600,6.025431640625,-4.718784809112549,3.6042284965515137,-5.745694160461426
1696081909414431500,6.035431396484375,-4.549044609069824,3.8216090202331543,-6.038140296936035
1696081909424431600,6.045431640625,-4.172411918640137,4.109622478485107,-6.339145660400391
1696081909434431500,6.055431396484375,-3.3788394927978516,4.441877365112305,-6.475700378417969
1696081909444431600,6.065431640625,-2.3290348052978516,4.706104755401611,-6.486024856567383
1696081909454431500,6.075431396484375,-1.712188482284546,4.554784774780273,-5.552762985229492
1696081909464431600,6.085431640625,-1.1748524904251099,4.013728141784668,-3.2425520420074463
1696081909474431500,6.095431396484375,1.0163350105285645,2.955836296081543,-0.04158425331115723
1696081909484431600,6.105431640625,5.140087127685547,1.002579689025879,3.760477304458618
1696081909494431000,6.115430908203125,7.609889507293701,-1.4202880859375,8.592630386352539
1696081909504431000,6.12543115234375,8.769248962402344,-3.29659366607666,12.215045928955078
1696081909514431000,6.135430908203125,10.180685043334961,-4.806612014770508,13.355501174926758
1696081909524486100,6.145486083984375,12.458115577697754,-6.566680908203125,12.843646049499512
1696081909534486300,6.155486328125,13.035934448242188,-9.266144752502441,11.429342269897461
1696081909544486400,6.165486328125,8.502113342285156,-10.827430725097656,8.393331527709961
1696081909554486300,6.175486328125,3.955070734024048,-8.380382537841797,3.60764479637146
1696081909564486400,6.185486328125,1.712888479232788,-3.378424644470215,0.429027795791626
1696081909574486300,6.195486328125,1.0189909934997559,1.0779285430908203,-1.71893310546875
1696081909584486400,6.205486328125,1.171494483947754,4.455549240112305,-3.4050655364990234
1696081909594486300,6.215486328125,0.6540677547454834,6.053833961486816,-4.750532150268555
1696081909604486400,6.225486328125,1.378293514251709,4.033393859863281,-5.4619140625
1696081909614486300,6.235486328125,1.9973410367965698,-0.35300254821777344,-5.7921037673950195
1696081909624486400,6.245486328125,-3.0509960651397705,-4.65679931640625,-3.8273868560791016
1696081909634486300,6.255486328125,-9.885614395141602,-7.427408218383789,-0.6509807109832764
1696081909644486400,6.265486328125,-9.580859184265137,-8.270777702331543,2.183687448501587
1696081909654485800,6.27548583984375,-5.315497875213623,-5.149686813354492,2.516268253326416
1696081909664486000,6.28548583984375,-1.3694229125976562,-2.3767480850219727,1.6220715045928955
1696081909674485800,6.29548583984375,0.5375593900680542,-0.21231365203857422,-0.5927884578704834
1696081909684486000,6.30548583984375,-2.26363468170166,0.7412681579589844,-2.7772023677825928
1696081909694485800,6.31548583984375,-3.689377784729004,0.8007450103759766,-4.109976291656494
1696081909704486000,6.32548583984375,-4.9831953048706055,0.7335109710693359,-5.377804279327393
1696081909714486000,6.335486083984375,-6.307689666748047,0.39722251892089844,-6.254916667938232
1696081909724486000,6.34548583984375,-7.180118560791016,-0.41671085357666016,-7.0350542068481445
1696081909734486000,6.355486083984375,-7.985479354858398,-1.4169902801513672,-7.460148334503174
1696081909744486000,6.36548583984375,-8.209009170532227,-1.9680938720703125,-7.470489501953125
1696081909754486000,6.375486083984375,-7.476512908935547,-2.2655458450317383,-6.463190078735352
1696081909764486000,6.38548583984375,-6.338024139404297,-1.8619985580444336,-5.236969947814941
1696081909774486000,6.395486083984375,-5.451892852783203,-1.140854835510254,-3.9351096153259277
1696081909784486000,6.40548583984375,-4.531442642211914,-0.2879161834716797,-2.717048168182373
1696081909794486000,6.415486083984375,-3.349384069442749,0.6458635330200195,-2.245933771133423
1696081909804486000,6.42548583984375,-1.6626036167144775,1.2099723815917969,-1.546972393989563
1696081909814486000,6.435486083984375,0.6211569309234619,1.3617496490478516,-0.44743430614471436
1696081909824486000,6.44548583984375,2.7357935905456543,1.446685791015625,0.4401528835296631
1696081909834485800,6.45548583984375,4.410449028015137,1.503000259399414,1.2387748956680298
1696081909844486000,6.46548583984375,5.0537495613098145,1.6376733779907227,1.9573097229003906
1696081909854485500,6.475485595703125,4.3440656661987305,1.8521080017089844,2.1304421424865723
1696081909864485400,6.4854853515625,3.052586793899536,1.979966640472412,2.038743019104004
1696081909874485500,6.495485595703125,1.7132039070129395,1.6107177734375,1.9907491207122803
1696081909884485400,6.5054853515625,0.3259541094303131,1.1031904220581055,1.9093531370162964
1696081909894485500,6.515485595703125,-0.8589503765106201,0.7789707183837891,1.5555305480957031
1696081909904485400,6.5254853515625,-2.068796396255493,0.669276237487793,0.968985378742218
1696081909914485500,6.535485595703125,-3.006696939468384,0.7407293319702148,0.21260422468185425
1696081909924485400,6.5454853515625,-2.981445789337158,0.8113069534301758,0.0308074951171875
1696081909934485500,6.555485595703125,-2.421017646789551,0.9405374526977539,0.5801427364349365
1696081909944485600,6.565485595703125,-1.2927818298339844,0.6802597045898438,1.3324629068374634
1696081909954486000,6.575486083984375,0.7824158668518066,0.18755149841308594,1.870643138885498
1696081909964486000,6.58548583984375,2.5689661502838135,-0.16730785369873047,2.1889519691467285
1696081909974486000,6.595486083984375,3.6666245460510254,-0.23397159576416016,2.5962438583374023
1696081909984486000,6.60548583984375,3.7992005348205566,-0.06670188903808594,3.2409722805023193
1696081909994486000,6.615486083984375,2.986670970916748,0.3696470260620117,3.673574209213257
1696081910004486000,6.62548583984375,1.711757779121399,0.6319398880004883,3.323073387145996
1696081910014486000,6.635486083984375,0.7446750402450562,0.3291959762573242,2.3489925861358643
1696081910024486000,6.64548583984375,0.7587648630142212,-0.2541637420654297,1.3817315101623535
1696081910034485800,6.65548583984375,1.8554099798202515,-0.9768133163452148,0.6369362473487854
1696081910044486000,6.66548583984375,3.593414545059204,-1.5060129165649414,0.3103550970554352
1696081910054485800,6.67548583984375,5.263378620147705,-1.7803974151611328,0.5044736862182617
1696081910064486000,6.68548583984375,6.032419204711914,-1.9734230041503906,1.3251166343688965
1696081910074485800,6.69548583984375,5.715829849243164,-2.0963478088378906,2.4534733295440674
1696081910084486000,6.70548583984375,4.7220540046691895,-1.9331283569335938,3.54339861869812
1696081910094485800,6.71548583984375,3.595036506652832,-1.6453075408935547,4.37952184677124
1696081910104486000,6.72548583984375,2.4780707359313965,-1.3817663192749023,5.084272861480713
1696081910114485800,6.73548583984375,1.4221248626708984,-1.2539691925048828,5.807999610900879
1696081910124486000,6.74548583984375,0.6692746877670288,-1.3183155059814453,6.580062389373779
1696081910134485800,6.75548583984375,0.3369600772857666,-1.587935447692871,7.409849166870117
1696081910144486000,6.76548583984375,0.9753041863441467,-1.8101797103881836,8.333491325378418
1696081910154486300,6.775486328125,2.576239585876465,-1.7568111419677734,9.007152557373047
1696081910164486100,6.785486083984375,4.355776309967041,-1.818338394165039,9.415273666381836
1696081910174486300,6.795486328125,5.553894996643066,-2.4148759841918945,9.728438377380371
1696081910184486100,6.805486083984375,6.566204071044922,-2.8362865447998047,9.531204223632812
1696081910194486300,6.815486328125,7.063594818115234,-2.960153579711914,8.927081108093262
1696081910204486100,6.825486083984375,6.53756046295166,-2.9536190032958984,8.128193855285645
1696081910214486300,6.835486328125,4.733214378356934,-2.7866601943969727,7.235665321350098
1696081910224486400,6.845486328125,2.0830819606781006,-2.8971385955810547,6.565506458282471
1696081910234486300,6.855486328125,-0.596599817276001,-3.242197036743164,5.33942985534668
1696081910244486100,6.865486083984375,-2.372927665710449,-4.0901384353637695,3.7228145599365234
1696081910254486300,6.875486328125,-2.9792797565460205,-5.263847351074219,1.74294114112854
1696081910264486100,6.885486083984375,-2.872260093688965,-6.737092018127441,-0.5735889077186584
1696081910274486300,6.895486328125,-3.321110248565674,-8.332372665405273,-2.2365617752075195
1696081910284486100,6.905486083984375,-3.5493597984313965,-9.367840766906738,-3.9426279067993164
1696081910294486300,6.915486328125,-4.947912216186523,-9.650959968566895,-4.696066856384277
1696081910304486100,6.925486083984375,-7.00162935256958,-9.141143798828125,-4.658271312713623
1696081910314486300,6.935486328125,-6.30616569519043,-7.051563262939453,-5.133231163024902
1696081910324487700,6.94548779296875,-3.538681983947754,-4.826759338378906,-5.008136749267578
1696081910334487600,6.955487548828125,0.06654000282287598,-3.2020349502563477,-3.444849967956543
1696081910344487700,6.96548779296875,3.352527141571045,-2.1788673400878906,-1.577181100845337
1696081910354487600,6.975487548828125,3.0499491691589355,-1.4479236602783203,-0.6080125570297241
1696081910364487700,6.98548779296875,0.3857795000076294,-0.9551925659179688,-0.7364879846572876
1696081910374487600,6.995487548828125,-0.9218076467514038,-0.31279754638671875,-1.553128957748413
1696081910384487700,7.00548779296875,-2.1590769290924072,0.10921001434326172,-2.4243106842041016
1696081910394487600,7.015487548828125,-3.6613845825195312,0.9189748764038086,-2.730835199356079
1696081910404487700,7.02548779296875,-4.1493988037109375,2.0170388221740723,-2.9263851642608643
1696081910414487600,7.035487548828125,-3.5177559852600098,3.133174419403076,-3.116731643676758
1696081910424487700,7.04548779296875,-2.832200527191162,4.083972454071045,-3.339111804962158
1696081910434487600,7.055487548828125,-2.530212163925171,4.656052112579346,-3.4965240955352783
1696081910444487700,7.06548779296875,-2.519253969192505,4.9094157218933105,-3.5812697410583496
1696081910454487600,7.075487548828125,-2.805596113204956,4.90830135345459,-3.7409346103668213
1696081910464487700,7.08548779296875,-3.084043025970459,4.655364036560059,-4.087672710418701
1696081910474487600,7.095487548828125,-3.1676816940307617,4.261031627655029,-4.5828680992126465
1696081910484487700,7.10548779296875,-3.1622374057769775,3.9274215698242188,-5.1202778816223145
1696081910494487600,7.115487548828125,-3.3443241119384766,3.587028980255127,-5.387186527252197
1696081910504487700,7.12548779296875,-3.6991848945617676,3.243475914001465,-5.359870433807373
1696081910514487600,7.135487548828125,-4.22157621383667,2.95615291595459,-5.353025436401367
1696081910524487700,7.14548779296875,-4.6136555671691895,2.867342472076416,-5.5636091232299805
1696081910534487600,7.155487548828125,-4.919956207275391,2.9854631423950195,-5.921948432922363
1696081910544487700,7.16548779296875,-5.131109237670898,3.266630172729492,-6.312990665435791
1696081910554487600,7.175487548828125,-5.011890888214111,3.6212143898010254,-6.784295082092285
1696081910564487700,7.18548779296875,-4.56559944152832,4.105480670928955,-7.141510009765625
1696081910574487600,7.195487548828125,-3.725879192352295,4.609380722045898,-7.317098617553711
1696081910584487700,7.20548779296875,-3.06504487991333,5.0235700607299805,-7.181374549865723
1696081910594487600,7.215487548828125,-2.53029465675354,4.9510416984558105,-6.026866912841797
1696081910604487700,7.22548779296875,-1.629447102546692,4.411195278167725,-3.411871910095215
1696081910614487600,7.235487548828125,0.6923584938049316,3.46555233001709,0.15432953834533691
1696081910624486100,7.245486083984375,4.922346591949463,1.5334877967834473,4.390412330627441
1696081910634486300,7.255486328125,6.927881240844727,-0.48607635498046875,9.119803428649902
1696081910644486100,7.265486083984375,7.054659843444824,-2.600649833679199,13.80811595916748
1696081910654486300,7.275486328125,8.256837844848633,-5.155287742614746,16.038143157958984
1696081910664486100,7.285486083984375,11.005924224853516,-8.466861724853516,16.352096557617188
1696081910674486300,7.295486328125,12.928632736206055,-12.042579650878906,14.491764068603516
1696081910684486100,7.305486083984375,8.9630765914917,-12.974570274353027,10.29847240447998
1696081910694486300,7.315486328125,4.216616153717041,-9.298300743103027,4.785767555236816
1696081910704486100,7.325486083984375,2.1493306159973145,-3.052107810974121,0.5060751438140869
1696081910714486300,7.335486328125,1.5783966779708862,2.834300994873047,-1.4745204448699951
1696081910724486100,7.345486083984375,2.601235866546631,7.247753143310547,-3.31820011138916
1696081910734486300,7.355486328125,5.862138271331787,10.36773681640625,-4.222911834716797
1696081910744486100,7.365486083984375,-1.9666587114334106,10.045801162719727,-4.425182342529297
1696081910754486300,7.375486328125,-7.638412952423096,5.453801155090332,-4.490513324737549
1696081910764486100,7.385486083984375,-10.61915111541748,0.10343742370605469,-3.5813281536102295
1696081910774486300,7.395486328125,-10.9317626953125,-4.597418785095215,-2.8513128757476807
1696081910784486100,7.405486083984375,-9.060319900512695,-9.178828239440918,-1.415021538734436
1696081910794486300,7.415486328125,-3.5636494159698486,-13.397871017456055,0.11226367950439453
1696081910804486100,7.425486083984375,0.9040127992630005,-13.265361785888672,-0.4464132785797119
1696081910814486300,7.435486328125,-0.898219108581543,-9.59581184387207,-1.9544305801391602
1696081910824486100,7.445486083984375,-0.7301125526428223,-9.582633972167969,-2.0182220935821533
1696081910834486300,7.455486328125,-1.1173913478851318,-0.22222518920898438,-6.183594703674316
1696081910844486100,7.465486083984375,-0.32170403003692627,3.6942801475524902,-7.6314215660095215
1696081910854486300,7.475486328125,-0.1375366449356079,3.771773338317871,-8.482531547546387
1696081910864486100,7.485486083984375,-1.0581927299499512,2.2694320678710938,-9.004919052124023
1696081910874486300,7.495486328125,-3.1365485191345215,1.28118896484375,-8.722038269042969
1696081910884486100,7.505486083984375,-6.253750801086426,0.19608116149902344,-7.336028099060059
1696081910894486300,7.515486328125,-7.4824419021606445,-0.8988618850708008,-4.585235118865967
1696081910904486100,7.525486083984375,-7.953130722045898,-1.8024415969848633,-3.318696975708008
1696081910914486300,7.535486328125,-7.820879936218262,-1.9686040878295898,-2.0545756816864014
1696081910924486400,7.545486328125,-6.695596218109131,-1.6332244873046875,-0.9223271608352661
1696081910934486500,7.555486572265625,-5.376004219055176,-0.823512077331543,-0.23163747787475586
1696081910944486400,7.565486328125,-3.7857370376586914,0.11847686767578125,-0.503365159034729
1696081910954486300,7.575486328125,-1.368524193763733,1.2436485290527344,-0.06350255012512207
1696081910964486400,7.585486328125,0.9436479806900024,2.0577449798583984,0.5521408915519714
1696081910974486500,7.595486572265625,2.9850709438323975,2.5746450424194336,1.2034146785736084
1696081910984486400,7.605486328125,4.512932777404785,2.6362295150756836,1.7499802112579346
1696081910994486500,7.615486572265625,5.0192975997924805,2.4628677368164062,2.0464072227478027
1696081911004486400,7.625486328125,4.641083717346191,2.037141799926758,1.9937560558319092
1696081911014486300,7.635486328125,3.206746816635132,1.3572330474853516,1.7078088521957397
1696081911024486400,7.645486328125,1.5961498022079468,0.8399152755737305,1.3577165603637695
1696081911034486300,7.655486328125,0.3063570559024811,0.6396913528442383,0.8500803709030151
1696081911044486400,7.665486328125,-0.6386687159538269,0.6413373947143555,0.5319206714630127
1696081911054486300,7.675486328125,-0.6961231827735901,0.6067180633544922,0.9400447010993958
1696081911064486400,7.685486328125,0.21708425879478455,0.546422004699707,1.8780767917633057
1696081911074486300,7.695486328125,1.4006736278533936,0.3399219512939453,2.711235761642456
1696081911084486400,7.705486328125,1.955998182296753,-0.014916419982910156,3.557063579559326
1696081911094486300,7.715486328125,1.7922550439834595,-0.2920951843261719,4.1984663009643555
1696081911104486400,7.725486328125,1.1737980842590332,-0.17216110229492188,4.47426700592041
1696081911114486300,7.735486328125,0.31909334659576416,0.18042564392089844,4.04941463470459
1696081911124486400,7.745486328125,-0.28466248512268066,0.26203155517578125,3.51483416557312
1696081911134486300,7.755486328125,-0.06999051570892334,-0.23212623596191406,2.9714744091033936
1696081911144486400,7.765486328125,1.1651577949523926,-0.6373577117919922,2.2579269409179688
1696081911154486300,7.775486328125,3.0675458908081055,-0.7784433364868164,1.6412967443466187
1696081911164486400,7.785486328125,4.961179256439209,-0.783416748046875,1.4364473819732666
1696081911174486300,7.795486328125,5.081056118011475,-0.8071746826171875,1.5111024379730225
1696081911184486400,7.805486328125,5.906990051269531,-1.5527591705322266,3.3350000381469727
1696081911194486300,7.815486328125,5.982964515686035,-1.5750646591186523,3.424217462539673
1696081911204486400,7.825486328125,3.9848804473876953,-1.3749828338623047,5.296316623687744
1696081911214486500,7.835486572265625,2.859051465988159,-0.749119758605957,5.801664352416992
1696081911224486100,7.845486083984375,1.7979708909988403,-0.5645475387573242,6.326467990875244
1696081911234486300,7.855486328125,0.8662415742874146,-0.7592916488647461,6.886358261108398
1696081911244486100,7.865486083984375,0.38393688201904297,-0.9941282272338867,7.5103840827941895
1696081911254486300,7.875486328125,0.6139718890190125,-1.1434249877929688,8.233223915100098
1696081911264486100,7.885486083984375,1.8021838665008545,-1.060887336730957,8.706594467163086
1696081911274486300,7.895486328125,3.6746320724487305,-0.819087028503418,8.629541397094727
1696081911284486100,7.905486083984375,5.6091485023498535,-0.9181537628173828,8.310271263122559
1696081911294486300,7.915486328125,7.2252302169799805,-1.5688056945800781,8.039944648742676
1696081911304486100,7.925486083984375,8.719078063964844,-2.51513671875,7.3747878074646
1696081911314486300,7.935486328125,8.738277435302734,-3.1395483016967773,6.347485065460205
1696081911324486100,7.945486083984375,6.492656230926514,-3.443446159362793,5.428796291351318
1696081911334486300,7.955486328125,3.0298547744750977,-4.0548858642578125,5.263252258300781
1696081911344486100,7.965486083984375,-0.15208613872528076,-5.075615882873535,5.310747146606445
1696081911354486300,7.975486328125,-2.3783459663391113,-6.169869422912598,4.406100749969482
1696081911364486100,7.985486083984375,-3.3045506477355957,-7.491167068481445,2.6531434059143066
1696081911374486300,7.995486328125,-3.2871482372283936,-9.135580062866211,0.3798289895057678
1696081911384486100,8.005486083984374,-3.548085927963257,-10.850040435791016,-2.095147132873535
1696081911394486300,8.015486328125,-3.126199245452881,-12.155363082885742,-4.325843334197998
1696081911404486100,8.025486083984376,-3.3006529808044434,-13.243484497070312,-5.723032474517822
1696081911414486300,8.035486328125,-5.496570110321045,-12.578783988952637,-6.11408805847168
1696081911424486100,8.045486083984375,-5.492867946624756,-9.336028099060059,-6.3584303855896
1696081911434486300,8.055486328125,-0.44243818521499634,-6.198795318603516,-6.206042289733887
1696081911444486100,8.065486083984375,3.782289743423462,-3.9910755157470703,-4.636584281921387
1696081911454486300,8.075486328125,2.9681708812713623,-2.47672176361084,-3.114962100982666
1696081911464486100,8.085486083984375,-0.155792236328125,-1.5744609832763672,-2.747441291809082
1696081911474486300,8.095486328125,-1.9917148351669312,-0.8383655548095703,-2.46728253364563
1696081911484486100,8.105486083984376,-2.9450695514678955,-0.0731649398803711,-2.5474414825439453
1696081911494486300,8.115486328125,-3.1072754859924316,0.9956874847412109,-2.8963308334350586
1696081911504486100,8.125486083984375,-3.7898483276367188,2.072935104370117,-2.798198699951172
1696081911514486300,8.135486328125,-4.439817905426025,3.290937900543213,-2.4809927940368652
1696081911524486100,8.145486083984375,-4.4785051345825195,4.369451999664307,-2.253026247024536
1696081911534486300,8.155486328125,-4.030109882354736,5.244543075561523,-2.422243118286133
1696081911544486100,8.165486083984375,-3.8122763633728027,5.847479820251465,-2.4921090602874756
1696081911554486300,8.175486328125,-3.9413132667541504,5.915584564208984,-2.7211079597473145
1696081911564486100,8.185486083984374,-4.2643890380859375,5.761533737182617,-3.1069905757904053
1696081911574486300,8.195486328125,-4.591423034667969,5.515207290649414,-3.68703031539917
1696081911584486100,8.205486083984376,-4.675864219665527,5.162070274353027,-4.581643104553223
1696081911594486300,8.215486328125,-4.773166179656982,4.686213970184326,-5.447821140289307
1696081911604486100,8.225486083984375,-5.05620813369751,4.265543460845947,-6.0817551612854
1696081911614486300,8.235486328125,-5.384244441986084,3.9029741287231445,-6.658694267272949
1696081911624486100,8.245486083984375,-5.592344760894775,3.749189853668213,-7.240756034851074
1696081911634486300,8.255486328125,-6.020970344543457,3.82460355758667,-7.696075439453125
1696081911644486100,8.265486083984374,-6.270763874053955,4.166337013244629,-8.12040901184082
1696081911654486300,8.275486328125,-6.108584880828857,4.591669082641602,-8.559616088867188
1696081911664486100,8.285486083984376,-5.805621147155762,5.073666095733643,-8.634590148925781
1696081911674486300,8.295486328125,-5.515068054199219,5.733827114105225,-8.256073951721191
1696081911684486100,8.305486083984375,-5.095582962036133,6.189653396606445,-6.96833610534668
1696081911694486300,8.315486328125,-4.098493576049805,5.995248794555664,-4.678302764892578
1696081911704486100,8.325486083984375,-2.580780029296875,5.345507621765137,-2.372880458831787
1696081911714486300,8.335486328125,-0.6345381736755371,4.37489128112793,0.017003774642944336
1696081911724486100,8.345486083984374,4.622739791870117,2.198514938354492,2.9240870475769043
1696081911734486300,8.355486328125,14.690317153930664,-1.7398157119750977,7.987675666809082
1696081911744486100,8.365486083984376,11.793384552001953,-6.184375762939453,14.211450576782227
1696081911754486300,8.375486328125,7.251031398773193,-10.383296012878418,19.042139053344727
1696081911764486100,8.385486083984375,5.500306129455566,-12.475152015686035,18.272953033447266
1696081911774486300,8.395486328125,7.6982316970825195,-12.444551467895508,15.903573989868164
1696081911784486100,8.405486083984375,8.598398208618164,-10.541614532470703,11.336834907531738
1696081911794486300,8.415486328125,5.824045658111572,-6.986309051513672,5.683305263519287
1696081911804486100,8.425486083984374,2.6171793937683105,-2.826791763305664,1.0843698978424072
1696081911814486300,8.435486328125,1.4070615768432617,1.34022855758667,-0.8933587074279785
1696081911824486100,8.445486083984376,2.2087819576263428,5.003050804138184,-2.758186101913452
1696081911834486300,8.455486328125,2.836352825164795,6.856966972351074,-4.821956157684326
1696081911844486100,8.465486083984375,1.2415506839752197,5.282093048095703,-5.853361129760742
1696081911854486300,8.475486328125,-0.09259247779846191,1.1227703094482422,-5.563279151916504
1696081911864486100,8.485486083984375,-2.8169240951538086,-2.828333854675293,-4.44034481048584
1696081911874486300,8.495486328125,-7.859145164489746,-5.461008071899414,-2.7307958602905273
1696081911884486100,8.505486083984374,-8.122745513916016,-7.581577301025391,-0.904803991317749
1696081911894486300,8.515486328125,-1.2127795219421387,-8.103004455566406,1.2682387828826904
1696081911904486100,8.525486083984376,2.570289134979248,-7.166590690612793,0.8820734024047852
1696081911914486300,8.535486328125,0.919066309928894,-5.107456207275391,-2.3133647441864014
1696081911924486100,8.545486083984375,-2.507427215576172,-2.3852920532226562,-5.432829856872559
1696081911934486300,8.555486328125,-3.481837272644043,-0.19080162048339844,-6.811444282531738
1696081911944486100,8.565486083984375,-4.753170967102051,1.7581615447998047,-7.1336517333984375
1696081911954486300,8.575486328125,-6.425848484039307,2.742736339569092,-7.2481889724731445
1696081911964486100,8.585486083984375,-7.746467590332031,2.477421760559082,-7.746432304382324
1696081911974486300,8.595486328125,-8.027905464172363,1.2782740592956543,-7.358332633972168
1696081911984486100,8.605486083984376,-8.123032569885254,-0.25402259826660156,-5.9681291580200195
1696081911994486300,8.615486328125,-8.28929328918457,-1.8310585021972656,-4.586386680603027
1696081912004486100,8.625486083984375,-8.17707633972168,-2.3307065963745117,-3.579319477081299
1696081912014486300,8.635486328125,-7.9390177726745605,-2.0533275604248047,-2.9699268341064453
1696081912024486100,8.645486083984375,-7.347531795501709,-1.3758811950683594,-2.5314106941223145
1696081912034486300,8.655486328125,-6.177558422088623,-0.6770973205566406,-2.4527440071105957
1696081912044486100,8.665486083984375,-6.057010173797607,-0.634434700012207,-2.315582513809204
1696081912054486300,8.675486328125,-2.452303409576416,0.6164617538452148,-1.3452423810958862
1696081912064486100,8.685486083984374,2.0060055255889893,0.48673534393310547,0.6148115396499634
1696081912074486300,8.695486328125,5.978728294372559,0.6618890762329102,2.215811252593994
1696081912084486100,8.705486083984376,8.547384262084961,1.0713682174682617,2.8020448684692383
1696081912094486300,8.715486328125,8.741652488708496,1.4426326751708984,2.6223397254943848
1696081912104486100,8.725486083984375,6.506567001342773,1.5745353698730469,2.060516595840454
1696081912114486300,8.735486328125,3.3931572437286377,1.5398969650268555,1.1366162300109863
1696081912124486100,8.745486083984375,1.0329242944717407,1.432490348815918,0.3411237597465515
1696081912134486300,8.755486328125,-0.6050920486450195,1.1258735656738281,0.05913054943084717
1696081912144486100,8.765486083984374,-1.929987907409668,0.9264030456542969,0.04085230827331543
1696081912154486300,8.775486328125,-2.8248913288116455,1.0135393142700195,-0.023594915866851807
1696081912164486100,8.785486083984376,-2.9443037509918213,1.219594955444336,-0.20457300543785095
1696081912174486300,8.795486328125,-2.7056896686553955,1.1998767852783203,-0.3084450960159302
1696081912184486100,8.805486083984375,-2.154407501220703,1.0212278366088867,0.16738581657409668
1696081912194486300,8.815486328125,-1.1355013847351074,0.5058984756469727,1.1042261123657227
1696081912204486100,8.825486083984375,0.46071138978004456,-0.20101642608642578,2.0133614540100098
1696081912214486300,8.835486328125,1.925243854522705,-0.5831880569458008,2.5699453353881836
1696081912224486100,8.845486083984374,2.8596277236938477,-0.58587646484375,3.2205770015716553
1696081912234486300,8.855486328125,3.0319314002990723,-0.31363487243652344,3.9461071491241455
1696081912244486100,8.865486083984376,2.3856868743896484,0.1154165267944336,4.378459453582764
1696081912254486300,8.875486328125,1.6403286457061768,0.35796642303466797,3.9035000801086426
1696081912264486100,8.885486083984375,1.7255666255950928,0.3169689178466797,2.8302688598632812
1696081912274486300,8.895486328125,2.782805919647217,0.0713949203491211,1.8639845848083496
1696081912284486100,8.905486083984375,4.270284652709961,-0.48711299896240234,1.3205132484436035
1696081912294486300,8.915486328125,5.440678596496582,-1.082132339477539,1.145622968673706
1696081912304486100,8.925486083984374,5.401376724243164,-1.5223236083984375,1.5723843574523926
1696081912314486300,8.935486328125,4.219499588012695,-1.6675310134887695,2.515085220336914
1696081912324486100,8.945486083984376,2.5808167457580566,-1.551009178161621,3.660917043685913
1696081912334486300,8.955486328125,1.1489171981811523,-1.4502124786376953,4.625076770782471
1696081912344486100,8.965486083984375,0.0046350955963134766,-1.400345802307129,5.61952543258667
1696081912354486300,8.975486328125,-0.5732183456420898,-1.3566827774047852,6.7636871337890625
1696081912364486100,8.985486083984375,-0.4182138442993164,-1.204726219177246,7.922694206237793
1696081912374486300,8.995486328125,0.34090662002563477,-0.8066129684448242,8.862492561340332
1696081912384486100,9.005486083984374,1.8596088886260986,-0.40613365173339844,9.549736022949219
1696081912394486300,9.015486328125,3.9860658645629883,-0.0062408447265625,9.555257797241211
1696081912404486100,9.025486083984376,6.009468078613281,0.2553262710571289,8.779851913452148
1696081912414486300,9.035486328125,7.47531270980835,-0.17073631286621094,8.055081367492676
1696081912424486100,9.045486083984375,7.440340518951416,-1.6259078979492188,7.5605387687683105
1696081912434486300,9.055486328125,7.05218505859375,-3.0976638793945312,6.7863335609436035
1696081912444486100,9.065486083984375,6.79293155670166,-3.7973194122314453,5.697551250457764
1696081912454486300,9.075486328125,5.746910095214844,-3.3620500564575195,4.676199913024902
1696081912464486100,9.085486083984375,3.1577160358428955,-2.7192611694335938,4.629527568817139
1696081912474486300,9.095486328125,-0.532966136932373,-2.6652469635009766,5.485437870025635
1696081912484486100,9.105486083984376,-3.5235772132873535,-3.7817440032958984,6.126723766326904
1696081912494486300,9.115486328125,-4.109508037567139,-5.677402496337891,5.488955497741699
1696081912504486100,9.125486083984375,-2.158865213394165,-7.300956726074219,2.9391543865203857
1696081912514486300,9.135486328125,-1.192588210105896,-8.870079040527344,0.5289998054504395
1696081912524486100,9.145486083984375,-1.90117347240448,-10.337743759155273,-1.6983544826507568
1696081912534486300,9.155486328125,-2.791883945465088,-11.535577774047852,-3.544158458709717
1696081912544486100,9.165486083984375,-4.017169952392578,-12.198744773864746,-4.599960803985596
1696081912554486300,9.175486328125,-5.944293975830078,-10.894338607788086,-5.109687328338623
1696081912564486100,9.185486083984374,-5.816477298736572,-8.027154922485352,-5.648647785186768
1696081912574486300,9.195486328125,-1.5873217582702637,-5.162193298339844,-5.751345634460449
1696081912584486100,9.205486083984376,2.6198537349700928,-2.9668922424316406,-4.711516857147217
1696081912594486300,9.215486328125,3.194715976715088,-1.7407722473144531,-3.3930182456970215
1696081912604486100,9.225486083984375,-0.12867021560668945,-0.7514467239379883,-3.5896172523498535
1696081912614486300,9.235486328125,-2.6355020999908447,-0.08000373840332031,-3.4254424571990967
1696081912624486100,9.245486083984375,-3.2113399505615234,0.47864818572998047,-3.2987117767333984
1696081912634486300,9.255486328125,-3.4321019649505615,1.2159080505371094,-3.2999427318573
1696081912644486100,9.265486083984374,-3.41379451751709,2.0941405296325684,-3.0250558853149414
1696081912654486300,9.275486328125,-3.796410083770752,3.0642952919006348,-2.68088698387146
1696081912664486100,9.285486083984376,-4.138143539428711,4.074947357177734,-2.2463016510009766
1696081912674486300,9.295486328125,-3.8934707641601562,4.928954124450684,-2.006981611251831
1696081912684486100,9.305486083984375,-3.3954272270202637,5.389615058898926,-2.0015432834625244
1696081912694486300,9.315486328125,-3.3208465576171875,5.201591491699219,-2.404244899749756
1696081912704486100,9.325486083984375,-3.6906590461730957,4.778745174407959,-3.1821279525756836
1696081912714486300,9.335486328125,-4.185070037841797,4.166231632232666,-4.044321537017822
1696081912724486100,9.345486083984374,-4.518153667449951,3.6306891441345215,-4.762814044952393
1696081912734486300,9.355486328125,-4.774302005767822,3.201390266418457,-5.112826824188232
1696081912744486100,9.365486083984376,-4.798013687133789,3.020035743713379,-5.61240816116333
1696081912754485800,9.37548583984375,-4.878325462341309,2.9819908142089844,-5.639296531677246
1696081912764486000,9.38548583984375,-5.009981155395508,3.1448020935058594,-6.089402675628662
1696081912774485800,9.39548583984375,-5.228777885437012,3.865542411804199,-7.132490634918213
1696081912784486000,9.40548583984375,-5.2700934410095215,3.8564653396606445,-7.118158340454102
1696081912794485800,9.41548583984375,-5.14852237701416,4.3331780433654785,-7.618387699127197
1696081912804486000,9.42548583984375,-4.836997985839844,4.818232536315918,-8.003496170043945
1696081912814485800,9.43548583984375,-4.377105712890625,5.413537979125977,-8.074621200561523
1696081912824486000,9.44548583984375,-3.841341495513916,5.895478248596191,-7.741523265838623
1696081912834485800,9.45548583984375,-3.2598114013671875,5.977923393249512,-6.5244855880737305
1696081912844486000,9.46548583984375,-2.0406765937805176,5.430159091949463,-4.3131866455078125
1696081912854485800,9.47548583984375,-0.34779906272888184,4.651878356933594,-1.6909778118133545
1696081912864486000,9.48548583984375,3.095416307449341,3.038752555847168,1.0153052806854248
1696081912874485800,9.49548583984375,11.13308334350586,-0.07967567443847656,5.050057411193848
1696081912884486000,9.50548583984375,12.508437156677246,-4.210910797119141,10.570534706115723
1696081912894485800,9.51548583984375,9.302654266357422,-9.087557792663574,16.834793090820312
1696081912904486000,9.52548583984375,5.445771217346191,-12.627013206481934,18.20383071899414
1696081912914485800,9.53548583984375,8.03584098815918,-13.07917308807373,15.507405281066895
1696081912924486000,9.54548583984375,10.400142669677734,-10.867039680480957,12.92465591430664
1696081912934485800,9.55548583984375,6.782665729522705,-6.246381759643555,7.8457255363464355
1696081912944486000,9.56548583984375,2.6348166465759277,-1.2249164581298828,3.473863363265991
1696081912954485800,9.57548583984375,0.7968354225158691,3.3857498168945312,0.5751478672027588
1696081912964486000,9.58548583984375,1.2759227752685547,6.89204216003418,-1.759230613708496
1696081912974485800,9.59548583984375,2.441227674484253,8.532052040100098,-3.798429250717163
1696081912984486000,9.60548583984375,-1.3839163780212402,5.561374664306641,-4.665467262268066
1696081912994485800,9.61548583984375,-2.935640335083008,0.14151287078857422,-5.385002136230469
1696081913004486000,9.62548583984375,-4.704492568969727,-3.8850488662719727,-5.163090705871582
1696081913014485800,9.63548583984375,-5.480965614318848,-6.997939109802246,-5.223837852478027
1696081913024486000,9.64548583984375,-1.5457712411880493,-11.634236335754395,-3.356541872024536
1696081913034485800,9.65548583984375,-0.9008728861808777,-13.297595024108887,-2.7064507007598877
1696081913044486000,9.66548583984375,-2.9788928031921387,-10.028360366821289,-4.283015251159668
1696081913054486300,9.675486328125,-5.09597110748291,-6.114965438842773,-5.348580360412598
1696081913064486100,9.685486083984374,-5.096307754516602,-2.291651725769043,-6.407909393310547
1696081913074486300,9.695486328125,-4.819397926330566,1.529923915863037,-7.40510368347168
1696081913084486100,9.705486083984376,-5.912202835083008,3.6955113410949707,-7.701070785522461
1696081913094486300,9.715486328125,-6.731293678283691,3.670471668243408,-7.197331428527832
1696081913104486100,9.725486083984375,-7.26914644241333,2.579267978668213,-6.75769567489624
1696081913114486300,9.735486328125,-7.817652702331543,0.7998571395874023,-6.378599166870117
1696081913124486100,9.745486083984375,-7.667262077331543,-1.0424203872680664,-6.401161193847656
1696081913134486300,9.755486328125,-7.067654609680176,-2.347278594970703,-5.627716064453125
1696081913144486100,9.765486083984374,-6.652036190032959,-2.784296989440918,-3.7425241470336914
1696081913154486300,9.775486328125,-5.777740001678467,-2.914008140563965,-1.8757379055023193
1696081913164486100,9.785486083984376,-3.8254051208496094,-2.4281539916992188,-0.463722825050354
1696081913174486300,9.795486328125,-1.402939796447754,-1.4026861190795898,0.2949557304382324
1696081913184486100,9.805486083984375,0.8699711561203003,0.0039386749267578125,0.5583462715148926
1696081913194486300,9.815486328125,2.6597366333007812,1.3033571243286133,0.7344672679901123
1696081913204486100,9.825486083984375,3.546874523162842,2.1320748329162598,1.0224025249481201
1696081913214486300,9.835486328125,3.5213630199432373,2.534442901611328,1.3020236492156982
1696081913224486100,9.845486083984374,2.6417245864868164,2.569251537322998,1.2798155546188354
1696081913234486300,9.855486328125,1.7489497661590576,2.470001220703125,1.034234642982483
1696081913244486100,9.865486083984376,1.1212031841278076,1.9840850830078125,0.5159170627593994
1696081913254486300,9.875486328125,0.5530862212181091,1.3447237014770508,0.5496183037757874
1696081913264486100,9.885486083984375,0.21427926421165466,0.9071693420410156,0.3664703965187073
1696081913274486300,9.895486328125,-0.1646692454814911,0.6623573303222656,0.22224831581115723
1696081913284486100,9.905486083984375,-1.0234980583190918,0.4864835739135742,0.07325589656829834
1696081913294486300,9.915486328125,-1.9612855911254883,0.7174291610717773,0.09682402014732361
1696081913304486100,9.925486083984374,-2.355567216873169,1.168290138244629,0.4640287756919861
1696081913314486300,9.935486328125,-2.1485867500305176,1.4649982452392578,1.0593208074569702
1696081913324486100,9.945486083984376,-1.4528826475143433,1.3121614456176758,1.9662368297576904
1696081913334486300,9.955486328125,-1.3803021907806396,1.3096609115600586,2.093078851699829
1696081913344486100,9.965486083984375,2.38672137260437,0.108489990234375,3.7386326789855957
1696081913354486300,9.975486328125,2.5073962211608887,0.09786224365234375,3.8705921173095703
1696081913364486100,9.985486083984375,3.9030160903930664,-0.6631565093994141,5.122766971588135
1696081913374486300,9.995486328125,2.8901357650756836,-0.1455211639404297,5.451005458831787
1696081913384486100,10.005486083984374,1.4821943044662476,0.5439882278442383,5.418203830718994
1696081913394486300,10.015486328125,0.6422170400619507,0.9730710983276367,5.200340270996094
1696081913404486100,10.025486083984376,0.9747111201286316,0.7437562942504883,5.220391750335693
1696081913414486300,10.035486328125,2.496457099914551,-0.13623046875,5.171896934509277
1696081913424486100,10.045486083984375,4.3638505935668945,-1.0217504501342773,4.718920707702637
1696081913434486300,10.055486328125,4.464301586151123,-1.045252799987793,4.799778461456299
1696081913444486100,10.065486083984375,5.58983039855957,-1.9851713180541992,3.931976318359375
1696081913454486300,10.075486328125,4.635339736938477,-1.6612348556518555,3.6984193325042725
1696081913464486100,10.085486083984375,3.202596664428711,-1.2628564834594727,3.595755100250244
1696081913474486300,10.095486328125,1.6738873720169067,-1.1896982192993164,3.7972850799560547
1696081913484486100,10.105486083984376,0.33318865299224854,-1.4175386428833008,4.428420066833496
1696081913494486300,10.115486328125,-0.775890588760376,-1.7625808715820312,5.124048709869385
1696081913504486100,10.125486083984375,-0.9595309495925903,-1.7874107360839844,5.706851005554199
1696081913514486300,10.135486328125,0.479366660118103,-1.2749385833740234,6.278400897979736
1696081913524486100,10.145486083984375,2.5311732292175293,-0.9445705413818359,6.789897441864014
1696081913534486300,10.155486328125,4.133157730102539,-1.5495023727416992,7.351958274841309
1696081913544486100,10.165486083984375,4.6594719886779785,-2.722381591796875,7.831972122192383
1696081913554486300,10.175486328125,4.501150608062744,-3.2413787841796875,7.597628593444824
1696081913564486100,10.185486083984374,4.583003044128418,-3.023392677307129,6.890994071960449
1696081913574486300,10.195486328125,5.5265374183654785,-2.715953826904297,6.475465297698975
1696081913584486100,10.205486083984376,5.567122936248779,-2.66827392578125,6.337462902069092
1696081913594486300,10.215486328125,3.8240292072296143,-2.6255359649658203,5.8924970626831055
1696081913604486100,10.225486083984375,3.6122236251831055,-2.5913639068603516,5.735025882720947
1696081913614486300,10.235486328125,-1.4443402290344238,-3.910120964050293,4.160557270050049
1696081913624486100,10.245486083984375,-1.6961556673049927,-5.418146133422852,2.4630050659179688
1696081913634486300,10.255486328125,-1.9228487014770508,-5.403717994689941,2.178654670715332
1696081913644486100,10.265486083984374,-1.8003946542739868,-8.784977912902832,-1.4531586170196533
1696081913654486300,10.275486328125,-2.9988205432891846,-9.671738624572754,-3.067540168762207
1696081913664486100,10.285486083984376,-4.067130088806152,-10.142099380493164,-4.28911828994751
1696081913674486300,10.295486328125,-4.953136444091797,-9.67401123046875,-5.189492702484131
1696081913684486100,10.305486083984375,-4.974608898162842,-7.964027404785156,-5.858757972717285
1696081913694486300,10.315486328125,-2.3802599906921387,-5.66103458404541,-6.304661750793457
1696081913704486100,10.325486083984375,0.521007776260376,-3.7721681594848633,-5.517306327819824
1696081913714486300,10.335486328125,1.7996376752853394,-2.3285531997680664,-3.8864924907684326
1696081913724486100,10.345486083984374,0.08173775672912598,-1.3488740921020508,-3.104006290435791
1696081913734486300,10.355486328125,-2.615302085876465,-0.5172615051269531,-2.723371982574463
1696081913744486100,10.365486083984376,-3.5513992309570312,0.11764335632324219,-2.122697114944458
1696081913754486300,10.375486328125,-3.265141487121582,0.8169260025024414,-1.6220545768737793
1696081913764486100,10.385486083984375,-3.046138048171997,1.6481947898864746,-1.1595741510391235
1696081913774486300,10.395486328125,-3.243190288543701,2.3848462104797363,-1.2033076286315918
1696081913784486100,10.405486083984375,-3.4463562965393066,3.156963348388672,-1.3076355457305908
1696081913794486300,10.415486328125,-3.3640780448913574,3.7878313064575195,-1.2390629053115845
1696081913804486100,10.425486083984374,-3.3913702964782715,4.235562324523926,-1.3188337087631226
1696081913814486300,10.435486328125,-3.4549193382263184,4.313024044036865,-1.5732536315917969
1696081913824486100,10.445486083984376,-3.4673573970794678,4.1764750480651855,-2.214848756790161
1696081913834486300,10.455486328125,-3.5867021083831787,3.9382777214050293,-3.21500563621521
1696081913844486100,10.465486083984375,-3.8636043071746826,3.6740379333496094,-4.232241630554199
1696081913854486300,10.475486328125,-4.1353960037231445,3.414184093475342,-5.0071868896484375
1696081913864486100,10.485486083984375,-4.419319152832031,3.2283401489257812,-5.494624614715576
1696081913874486300,10.495486328125,-4.533993721008301,3.2070975303649902,-5.904126167297363
1696081913884486100,10.505486083984374,-4.645956039428711,3.3154025077819824,-6.486527442932129
1696081913894486300,10.515486328125,-4.728879928588867,3.2880616188049316,-6.4897942543029785
1696081913904486100,10.525486083984376,-5.2376203536987305,4.069660663604736,-7.61206579208374
1696081914200312800,10.821312744140625,-3.433865547180176,2.5338263511657715,-7.766720771789551
1696081914210313000,10.83131298828125,-3.9645795822143555,1.4862771034240723,-8.297624588012695
1696081914220312800,10.841312744140625,-4.503597736358643,0.3874807357788086,-8.482961654663086
1696081914230313000,10.85131298828125,-5.249249458312988,-0.6122570037841797,-8.313136100769043
1696081914240312800,10.861312744140625,-5.872341632843018,-1.736083984375,-7.562267303466797
1696081914250313000,10.87131298828125,-6.0558271408081055,-2.3246288299560547,-6.367353439331055
1696081914260312800,10.881312744140626,-5.810095310211182,-1.9438371658325195,-5.353036880493164
1696081914270313000,10.89131298828125,-5.057598114013672,-1.1600713729858398,-4.127409934997559
1696081914280312800,10.901312744140625,-4.020905017852783,-0.23856353759765625,-2.4993677139282227
1696081914290313000,10.91131298828125,-2.7154853343963623,0.8086719512939453,-1.427779197692871
1696081914300312800,10.921312744140625,-1.4820952415466309,1.5572690963745117,-0.7066566348075867
1696081914310313000,10.93131298828125,-0.2220989465713501,1.848402500152588,0.09567737579345703
1696081914320312800,10.941312744140625,1.0931936502456665,1.720263957977295,1.1401400566101074
1696081914330313000,10.95131298828125,2.116924285888672,1.3662757873535156,2.05914306640625
1696081914340312800,10.961312744140624,2.6915106773376465,1.1519861221313477,2.585069179534912
1696081914350313000,10.97131298828125,2.7415599822998047,1.077505111694336,2.799194812774658
1696081914360312800,10.981312744140626,2.2939412593841553,0.9429740905761719,2.8975272178649902
1696081914370313000,10.99131298828125,1.4813480377197266,0.9127311706542969,2.8401095867156982
1696081914380312800,11.001312744140625,0.43486326932907104,0.9591264724731445,2.4983277320861816
1696081914390313000,11.01131298828125,-0.4385793209075928,1.157179832458496,1.9424543380737305
1696081914400312800,11.021312744140625,-1.1199696063995361,1.2678956985473633,1.430099606513977
1696081914410313000,11.03131298828125,-1.4368677139282227,1.0091733932495117,1.2427198886871338
1696081914420312800,11.041312744140624,-1.24895441532135,0.43871402740478516,1.4136701822280884
1696081914430313000,11.05131298828125,-0.6670318841934204,-0.2688426971435547,1.906245470046997
1696081914440312800,11.061312744140626,0.12335897982120514,-0.7835855484008789,2.199702739715576
1696081914450313000,11.07131298828125,0.6059781908988953,-0.6697196960449219,2.139951229095459
1696081914460313000,11.08131298828125,0.8001406192779541,-0.023206710815429688,2.219247817993164
1696081914470313000,11.09131298828125,0.502565860748291,0.7516164779663086,2.4793941974639893
1696081914480313000,11.10131298828125,-0.016316711902618408,1.2982778549194336,2.5009803771972656
1696081914490313000,11.11131298828125,-0.4838983416557312,1.3294458389282227,2.2309083938598633
1696081914500313000,11.12131298828125,-0.6700089573860168,0.6969289779663086,1.8285789489746094
1696081914510313000,11.13131298828125,-0.1946147084236145,-0.27633190155029297,1.460218071937561
1696081914520313000,11.14131298828125,1.065810203552246,-1.1582040786743164,1.0859332084655762
1696081914530313000,11.15131298828125,2.9516711235046387,-1.6510229110717773,0.8426308035850525
1696081914540313000,11.16131298828125,4.9226765632629395,-1.7239818572998047,0.9127224087715149
1696081914550313000,11.17131298828125,6.247490882873535,-1.4916000366210938,1.4862196445465088
1696081914560313000,11.18131298828125,6.502076148986816,-1.1625690460205078,2.452437162399292
1696081914570313000,11.19131298828125,5.541902542114258,-0.681544303894043,3.414480209350586
1696081914580313000,11.20131298828125,3.799490451812744,-0.08912086486816406,4.023972511291504
1696081914590313000,11.21131298828125,1.9952056407928467,0.30235958099365234,4.480080604553223
1696081914600313000,11.22131298828125,0.6591328382492065,0.3323068618774414,5.133723258972168
1696081914610313000,11.23131298828125,-0.32421600818634033,-0.03905773162841797,5.921421051025391
1696081914620313000,11.24131298828125,-1.0626975297927856,-0.3755970001220703,6.876535415649414
1696081914630313000,11.25131298828125,-1.3625901937484741,-0.6479911804199219,7.877974033355713
1696081914640313000,11.26131298828125,-0.5180490016937256,-0.6473789215087891,8.747518539428711
1696081914650313000,11.27131298828125,1.2193450927734375,-0.4891328811645508,8.97056770324707
1696081914660313000,11.28131298828125,2.9871437549591064,-0.8453607559204102,8.881438255310059
1696081914670313000,11.29131298828125,4.361192226409912,-2.066035270690918,8.805261611938477
1696081914970090800,11.5910908203125,-4.5452985763549805,3.0229592323303223,-3.2121846675872803
1696081914980091000,11.6010908203125,-4.471706390380859,2.6492834091186523,-3.8780055046081543
1696081914990090800,11.6110908203125,-4.4741082191467285,2.361276626586914,-4.4465837478637695
1696081915000091000,11.6210908203125,-4.4924163818359375,2.232269763946533,-4.940222263336182
1696081915010090800,11.6310908203125,-4.530808925628662,2.3254222869873047,-5.371011734008789
1696081915020091000,11.6410908203125,-4.607954978942871,2.6302237510681152,-5.794425964355469
1696081915030090800,11.6510908203125,-4.769104957580566,3.105712890625,-6.202563285827637
1696081915040091000,11.6610908203125,-4.935031890869141,3.626662254333496,-6.430821418762207
1696081915050090800,11.6710908203125,-4.88730525970459,4.142185688018799,-6.700587272644043
1696081915060091000,11.6810908203125,-4.440163612365723,4.609756946563721,-6.945276260375977
1696081915070090800,11.6910908203125,-3.9737532138824463,5.0014848709106445,-7.070226192474365
1696081915080091000,11.7010908203125,-3.4073750972747803,5.3252763748168945,-7.060141563415527
1696081915090090800,11.7110908203125,-2.7548131942749023,5.376299858093262,-6.512917518615723
1696081915100091000,11.7210908203125,-1.8424746990203857,4.977670669555664,-5.185872554779053
1696081915110090800,11.7310908203125,-0.9048181772232056,4.270481109619141,-3.104917049407959
1696081915120091000,11.7410908203125,0.9094052314758301,3.2585926055908203,-0.31266093254089355
1696081915130090800,11.7510908203125,5.322089195251465,1.4355769157409668,3.023510694503784
1696081915140091000,11.7610908203125,9.306711196899414,-1.2286930084228516,6.99717903137207
1696081915150090800,11.7710908203125,9.901254653930664,-4.103795051574707,10.659059524536133
1696081915160091000,11.7810908203125,9.952513694763184,-7.374863624572754,13.814641952514648
1696081915170090800,11.7910908203125,9.345842361450195,-10.102622032165527,14.826517105102539
1696081915180091000,11.8010908203125,8.618609428405762,-11.71259593963623,14.457009315490723
1696081915190090800,11.8110908203125,4.920459747314453,-10.957849502563477,10.187882423400879
1696081915200091000,11.8210908203125,1.91377854347229,-7.642335891723633,4.098466873168945
1696081915210090800,11.8310908203125,0.6119706630706787,-2.4553327560424805,0.11044716835021973
1696081915220091000,11.8410908203125,0.5803887844085693,2.1388611793518066,-1.8253954648971558
1696081915230090800,11.8510908203125,0.9157459735870361,5.373154640197754,-3.34193754196167
1696081915240091000,11.8610908203125,0.4337451457977295,6.287549018859863,-4.447200775146484
1696081915250090800,11.8710908203125,0.39003753662109375,3.1833419799804688,-4.633285045623779
1696081915260091000,11.8810908203125,1.0088486671447754,-1.4339828491210938,-5.170718193054199
1696081915270090800,11.8910908203125,-1.53872811794281,-6.2824859619140625,-4.659661769866943
1696081915280091000,11.9010908203125,-2.05411434173584,-10.636483192443848,-1.5682021379470825
1696081915290090800,11.9110908203125,-2.962118625640869,-11.524894714355469,1.6440749168395996
1696081915300091000,11.9210908203125,-2.9371743202209473,-6.690669059753418,1.3901610374450684
1696081915310090800,11.9310908203125,1.6609832048416138,-1.9399042129516602,-0.9482004642486572
1696081915320091000,11.9410908203125,-0.3338134288787842,1.8022480010986328,-4.034451484680176
1696081915330090800,11.9510908203125,-4.7147297859191895,3.923645496368408,-5.161126613616943
1696081915340091000,11.9610908203125,-5.787948131561279,4.825685501098633,-5.689892768859863
1696081915350090800,11.9710908203125,-6.0399675369262695,3.454636573791504,-5.996126174926758
1696081915360091000,11.9810908203125,-5.916624069213867,1.7926311492919922,-6.81358528137207
1696081915370090800,11.9910908203125,-5.819366455078125,0.2519044876098633,-7.706475734710693
1696081915380091000,12.0010908203125,-6.2975921630859375,-1.5890331268310547,-8.084259033203125
1696081915390090800,12.0110908203125,-7.213619232177734,-2.879007339477539,-7.329582691192627
1696081915400091000,12.0210908203125,-8.146049499511719,-3.6248998641967773,-5.874046325683594
1696081915410090800,12.0310908203125,-8.514174461364746,-3.7116622924804688,-4.185619831085205
1696081915420091000,12.0410908203125,-8.573426246643066,-3.2139787673950195,-2.9147136211395264
1696081915430090800,12.0510908203125,-8.435428619384766,-2.0934391021728516,-2.588508129119873
1696081915440091000,12.0610908203125,-7.558359146118164,-1.002786636352539,-2.602893590927124
1696081915450090800,12.0710908203125,-7.414405822753906,-0.9479589462280273,-2.467261791229248
1696081915460091000,12.0810908203125,-3.558025360107422,0.10399723052978516,-1.230898141860962
1696081915470091000,12.091091064453124,-0.31626617908477783,0.4961681365966797,-0.11246395111083984
1696081915480091000,12.1010908203125,4.375507354736328,0.8773841857910156,1.4066674709320068
1696081915490091000,12.111091064453126,8.475220680236816,0.9842376708984375,2.675753116607666
1696081915500091000,12.1210908203125,9.68326473236084,1.0514984130859375,3.299136161804199
1696081915510090800,12.1310908203125,7.669628620147705,1.3473072052001953,3.246218204498291
1696081915520091000,12.1410908203125,4.20319128036499,1.7127704620361328,2.7409467697143555
1696081915530090800,12.1510908203125,0.8960791826248169,2.0537610054016113,1.9268083572387695
1696081915540091000,12.1610908203125,-1.5118085145950317,2.0088043212890625,1.3627355098724365
1696081915550090800,12.1710908203125,-2.3402132987976074,1.7038555145263672,1.128680944442749
1696081915560091000,12.1810908203125,-2.8988735675811768,1.285679817199707,1.273504376411438
1696081915570090800,12.1910908203125,-3.4468302726745605,0.8310976028442383,1.4184727668762207
1696081915580091000,12.2010908203125,-3.7539048194885254,0.4885873794555664,1.2694400548934937
1696081915590090800,12.2110908203125,-3.2947444915771484,0.27500152587890625,0.9584487080574036
1696081915600091000,12.2210908203125,-1.5626472234725952,-0.09946060180664062,1.0791736841201782
1696081915610090800,12.2310908203125,0.840730607509613,-0.6567411422729492,1.5587501525878906
1696081915620091000,12.2410908203125,3.2517549991607666,-1.3595895767211914,2.597167491912842
1696081915630090800,12.2510908203125,4.8239054679870605,-1.4880151748657227,3.671501636505127
1696081915640091000,12.2610908203125,5.0648112297058105,-0.8501596450805664,4.694520473480225
1696081915650090800,12.2710908203125,4.08753776550293,0.4306974411010742,5.252513885498047
1696081915660091000,12.2810908203125,2.2864880561828613,1.7482175827026367,4.9004034996032715
1696081915670090800,12.2910908203125,0.3409627377986908,2.3138203620910645,3.787052869796753
1696081915970790000,12.591789794921874,-0.08156320452690125,-2.729844093322754,0.7906389832496643
1696081915980789800,12.601789794921874,-1.6119823455810547,-2.586215019226074,-0.13569021224975586
1696081915990790000,12.611789794921876,-2.2862608432769775,-3.09287166595459,-1.2201976776123047
1696081916000789800,12.621789794921876,-2.7449698448181152,-4.223860740661621,-2.0883827209472656
1696081916010790000,12.631789794921875,-3.2203145027160645,-5.533415794372559,-2.6160621643066406
1696081916020789800,12.641789794921875,-3.5987706184387207,-7.0009765625,-3.039443016052246
1696081916030790000,12.651789794921875,-4.7963690757751465,-7.610773086547852,-3.066906452178955
1696081916040789800,12.661789794921875,-4.337375640869141,-7.0452375411987305,-3.5222392082214355
1696081916050790000,12.671789794921875,-2.817410945892334,-6.063677787780762,-3.8182663917541504
1696081916060789800,12.681789794921874,-1.2160441875457764,-5.132652282714844,-3.3843793869018555
1696081916070790000,12.691789794921876,-0.04373025894165039,-4.290404319763184,-2.5231847763061523
1696081916080789800,12.701789794921876,0.5669847726821899,-3.2712154388427734,-1.758933424949646
1696081916090790000,12.711789794921875,-0.6712608337402344,-2.1169652938842773,-1.7648190259933472
1696081916100789800,12.721789794921875,-3.1922073364257812,-0.8547830581665039,-2.2309908866882324
1696081916110790000,12.731789794921875,-4.564932346343994,0.17991352081298828,-2.179579973220825
1696081916120789800,12.741789794921875,-4.268154144287109,1.0200109481811523,-2.2363908290863037
1696081916130790000,12.751789794921875,-3.414459228515625,1.8074455261230469,-2.2776620388031006
1696081916140789800,12.761789794921874,-2.6128811836242676,2.5521254539489746,-2.394510507583618
1696081916150790000,12.771789794921874,-2.7738144397735596,3.215559959411621,-2.6806721687316895
1696081916160789800,12.781789794921876,-2.9565014839172363,3.7609200477600098,-2.8586995601654053
1696081916170790000,12.791789794921876,-3.262535572052002,3.887667655944824,-2.865375518798828
1696081916180789800,12.801789794921875,-3.5219106674194336,3.8318309783935547,-2.8607070446014404
1696081916190790000,12.811789794921875,-3.8792078495025635,3.6063451766967773,-3.1085991859436035
1696081916200789800,12.821789794921875,-3.971992015838623,3.2235875129699707,-3.4895505905151367
1696081916210790000,12.831789794921875,-4.00916051864624,2.7418036460876465,-3.966221332550049
1696081916220790000,12.8417900390625,-3.9530727863311768,2.2794580459594727,-4.3427958488464355
1696081916230790000,12.851789794921874,-3.849581480026245,1.9462218284606934,-4.551026344299316
1696081916240790000,12.8617900390625,-3.8487892150878906,1.8159775733947754,-4.738011360168457
1696081916250790000,12.871789794921876,-4.194454193115234,1.8710408210754395,-4.948657512664795
1696081916260790000,12.8817900390625,-4.597635269165039,2.1077423095703125,-5.150373935699463
1696081916270790000,12.891789794921875,-4.797760486602783,2.483945369720459,-5.650883674621582
1696081916280790000,12.9017900390625,-4.716054916381836,3.0191707611083984,-6.263971328735352
1696081916290790000,12.911789794921875,-4.512831687927246,3.694303035736084,-6.757098197937012
1696081916300790000,12.9217900390625,-4.255199432373047,4.422900199890137,-6.980412483215332
1696081916310790000,12.931789794921874,-3.95131254196167,5.120059967041016,-6.895155906677246
1696081916320790000,12.9417900390625,-3.3976666927337646,5.632721900939941,-6.526524066925049
1696081916330790000,12.951789794921876,-2.608536958694458,5.714728355407715,-5.710692405700684
1696081916340790000,12.9617900390625,-1.6600109338760376,5.317893981933594,-3.8280811309814453
1696081916350790000,12.971789794921875,0.005827903747558594,4.275618076324463,-1.0227248668670654
1696081916360790000,12.9817900390625,5.309711456298828,2.1261653900146484,2.6727845668792725
1696081916370790000,12.991789794921875,12.70609188079834,-1.1158180236816406,8.188685417175293
1696081916380790000,13.0017900390625,10.393026351928711,-4.0990447998046875,12.195962905883789
1696081916390790000,13.011789794921874,6.053223133087158,-6.518014907836914,13.474984169006348
1696081916400790000,13.0217900390625,5.961147308349609,-7.630837440490723,13.03240966796875
1696081916410790000,13.031789794921876,7.825802803039551,-7.15556526184082,12.34675407409668
1696081916420790000,13.0417900390625,5.661091327667236,-5.5585432052612305,9.305693626403809
1696081916430790000,13.051789794921875,2.2657976150512695,-3.254304885864258,4.3727922439575195
1696081916440790000,13.0617900390625,0.39973998069763184,-0.8695106506347656,0.7767879962921143
1696081916450790000,13.071789794921875,-0.51267409324646,1.6549744606018066,-1.896986484527588
1696081916460790000,13.0817900390625,-0.8330832719802856,4.166979789733887,-4.185735702514648
1696081916470790000,13.091789794921874,-0.3121330738067627,6.168199062347412,-5.810098648071289
1696081916480790000,13.1017900390625,-0.3280513286590576,6.181789398193359,-7.442623138427734
1696081916490790000,13.111789794921876,-0.8685450553894043,2.1493372917175293,-7.492495059967041
1696081916500790000,13.1217900390625,1.3695125579833984,-3.465496063232422,-7.349080562591553
1696081916510790000,13.131789794921875,7.213252067565918,-10.586625099182129,-7.042459487915039
1696081916520790000,13.1417900390625,10.682992935180664,-15.363635063171387,-0.6910800933837891
1696081916530790000,13.151789794921875,0.7323191165924072,-12.880725860595703,3.245234966278076
1696081916540790000,13.1617900390625,-3.402820110321045,-7.476241111755371,4.066052436828613
1696081916550790000,13.171789794921875,-4.313997745513916,-2.4421310424804688,0.7627711296081543
1696081916560790000,13.1817900390625,-6.208113670349121,0.1001291275024414,-1.3288357257843018
1696081916570790000,13.191789794921876,-8.356367111206055,0.8343372344970703,-2.4613771438598633
1696081916580790000,13.2017900390625,-10.090276718139648,0.41768360137939453,-3.9676589965820312
1696081916590790000,13.211789794921875,-10.319051742553711,-0.4678945541381836,-4.896245002746582
1696081916600790000,13.2217900390625,-9.789985656738281,-1.0799751281738281,-5.578003883361816
1696081916610790000,13.231789794921875,-9.524353981018066,-1.380061149597168,-6.007357597351074
1696081916620790000,13.2417900390625,-9.789937019348145,-1.6942472457885742,-6.624092102050781
1696081916630790000,13.251789794921875,-9.698790550231934,-2.4237499237060547,-7.305347442626953
1696081916640790000,13.2617900390625,-9.04924201965332,-3.22845458984375,-6.297212600708008
1696081916650790000,13.271789794921874,-8.077430725097656,-3.6984128952026367,-4.998132228851318
1696081916660790000,13.2817900390625,-6.553360462188721,-3.6834726333618164,-4.627640724182129
1696081916670790000,13.291789794921876,-4.508488178253174,-3.09433650970459,-4.140117168426514
1696081922175205600,18.79620556640625,-0.01576685905456543,-0.00439453125,-0.1579585075378418
1696081922185205800,18.806205810546874,-0.08153319358825684,-0.04027414321899414,0.0027914047241210938
1696081922195205600,18.81620556640625,0.04597973823547363,-0.00884103775024414,0.10850238800048828
1696081922205205800,18.826205810546874,0.047165870666503906,-0.008604049682617188,0.024926185607910156
1696081922215206000,18.836205810546875,0.08495736122131348,-0.061223506927490234,0.008315086364746094
1696081922225206000,18.8462060546875,-0.023294925689697266,-0.10652875900268555,-0.07783222198486328
1696081922235206000,18.856205810546875,-0.0451357364654541,-0.12595224380493164,-0.1063089370727539
1696081922245206000,18.8662060546875,0.9516003131866455,-2.0850026607513428,1.668665885925293
1696081922255206000,18.876205810546875,0.059860944747924805,-0.010066986083984375,-0.059096336364746094
1696081922265206000,18.8862060546875,0.56947922706604,-0.7076454162597656,0.3988332748413086
1696081922275206000,18.896205810546874,-0.16769742965698242,-0.12644004821777344,-0.048605918884277344
1696081922285206000,18.9062060546875,-0.15847373008728027,-0.05973052978515625,-0.0650634765625
1696081922295206000,18.916205810546874,-0.05576920509338379,-0.03873872756958008,-0.055075645446777344
1696081922305206000,18.9262060546875,0.0437474250793457,-0.06116056442260742,-0.018312454223632812
1696081922315206000,18.936205810546873,-0.20158743858337402,-0.023203372955322266,0.008586883544921875
1696081922325206000,18.9462060546875,-0.04706978797912598,0.00312042236328125,-0.07005882263183594
1696081922335206000,18.956205810546876,-0.2758758068084717,-0.11632919311523438,-0.0027494430541992188
1696081922345206000,18.9662060546875,-0.11624550819396973,-0.21927976608276367,0.1794452667236328
1696081922355206000,18.976205810546876,0.06021571159362793,-0.047100067138671875,0.04333305358886719
1696081922365206000,18.9862060546875,0.006062507629394531,-0.033263206481933594,-0.07560539245605469
1696081922375206000,18.996205810546876,0.03835415840148926,-0.06948614120483398,-0.027144432067871094
1696081922385206000,19.0062060546875,-0.00612640380859375,-0.08385515213012695,-0.033881187438964844
1696081922395206000,19.016205810546875,0.07970309257507324,-0.03610563278198242,-0.0744028091430664
1696081922405206000,19.0262060546875,0.009506464004516602,-0.06295251846313477,0.005158424377441406
1696081922415206000,19.036205810546875,0.006627798080444336,-0.06854629516601562,-0.07799339294433594
1696081922425206000,19.0462060546875,-0.015561819076538086,-0.08891963958740234,-0.15127801895141602
1696081922435206000,19.056205810546874,-0.004000663757324219,-0.02071857452392578,-0.04267406463623047
1696081922445206000,19.0662060546875,0.0480654239654541,0.0021715164184570312,0.07068443298339844
1696081922455206000,19.076205810546874,0.007786989212036133,0.04218101501464844,0.0663595199584961
1696081922465206000,19.0862060546875,0.04396247863769531,0.004928112030029297,0.0048370361328125
1696081922475206000,19.096205810546873,-0.04710841178894043,-0.05449724197387695,-0.0875101089477539
1696081922485206000,19.1062060546875,-0.15249419212341309,-0.06366634368896484,-0.11741209030151367
