time,seconds_elapsed,z,y,x
1696081903430814000,0.05181396484375,9.309871673583984,3.0808475017547607,-0.07100363075733185
1696081903440814000,0.06181396484375,9.311062812805176,3.07719087600708,-0.07328852266073227
1696081903450814000,0.07181396484375,9.312016487121582,3.074249744415283,-0.07547975331544876
1696081903460814600,0.081814697265625,9.312843322753906,3.0716989040374756,-0.0774497389793396
1696081903470814500,0.091814453125,9.311678886413574,3.0754330158233643,-0.06862681359052658
1696081903480814600,0.101814697265625,9.311380386352539,3.07658314704895,-0.05653276666998863
1696081903490814500,0.111814453125,9.31199836730957,3.074953079223633,-0.041519612073898315
1696081903500814600,0.121814697265625,9.31338119506836,3.070946455001831,-0.024265550076961517
1696081903510814500,0.131814453125,9.315853118896484,3.063535451889038,-0.003133183578029275
1696081903520814600,0.141814697265625,9.31875228881836,3.0546271800994873,0.022057225927710533
1696081903530814500,0.151814453125,9.320293426513672,3.0493953227996826,0.06068038567900658
1696081903540814600,0.161814697265625,9.319324493408203,3.0511136054992676,0.10620105266571045
1696081903550814500,0.171814453125,9.315929412841797,3.0594964027404785,0.15265622735023499
1696081903560814600,0.181814697265625,9.310219764709473,3.074397087097168,0.19561916589736938
1696081903570814500,0.191814453125,9.302412986755371,3.09509539604187,0.2363816797733307
1696081903580814600,0.201814697265625,9.292985916137695,3.120166301727295,0.27449965476989746
1696081903590814500,0.211814453125,9.282790184020996,3.147352933883667,0.3071520924568176
1696081903600814600,0.221814697265625,9.272644996643066,3.174862861633301,0.32963892817497253
1696081903610814500,0.231814453125,9.262564659118652,3.2025914192199707,0.3444865345954895
1696081903620814600,0.241814697265625,9.252361297607422,3.2304532527923584,0.35824164748191833
1696081903630814500,0.251814453125,9.241559982299805,3.259080410003662,0.3772704601287842
1696081903640814600,0.261814697265625,9.229959487915039,3.288989543914795,0.4009668231010437
1696081903650814500,0.271814453125,9.217382431030273,3.320600986480713,0.4287723898887634
1696081903660814600,0.281814697265625,9.203126907348633,3.354412794113159,0.46982860565185547
1696081903670814500,0.291814453125,9.186710357666016,3.390242099761963,0.5300717949867249
1696081903680814600,0.301814697265625,9.1688871383667,3.4241883754730225,0.6138403415679932
1696081903690814500,0.311814453125,9.1504545211792,3.452021837234497,0.7232540845870972
1696081903700814600,0.321814697265625,9.130739212036133,3.4726157188415527,0.8607466220855713
1696081903710814700,0.331814697265625,9.10765266418457,3.4874699115753174,1.0288811922073364
1696081903720814600,0.341814697265625,9.079163551330566,3.499227523803711,1.2225195169448853
1696081903730814700,0.351814697265625,9.042558670043945,3.511664390563965,1.4389922618865967
1696081903740814600,0.361814697265625,8.994136810302734,3.5286524295806885,1.6806139945983887
1696081903750814700,0.371814697265625,8.930659294128418,3.5535097122192383,1.945831060409546
1696081903760814600,0.381814697265625,8.850769996643066,3.585763931274414,2.230816125869751
1696081903770814500,0.391814453125,8.756619453430176,3.621969699859619,2.524541139602661
1696081903780814600,0.401814697265625,8.651762008666992,3.658496856689453,2.816518545150757
1696081903790814500,0.411814453125,8.540328979492188,3.692335367202759,3.0983521938323975
1696081903800814600,0.421814697265625,8.423372268676758,3.7215917110443115,3.3714804649353027
1696081903810814500,0.431814453125,8.298911094665527,3.7476961612701416,3.6404900550842285
1696081903820814600,0.441814697265625,8.161209106445312,3.7737488746643066,3.91456937789917
1696081903830814500,0.451814453125,8.006855010986328,3.80126690864563,4.196544647216797
1696081903840814600,0.461814697265625,7.831127643585205,3.8253448009490967,4.4956135749816895
1696081903850814500,0.471814453125,7.629312038421631,3.8351385593414307,4.8224053382873535
1696081903860814600,0.481814697265625,7.381136894226074,3.826566219329834,5.200623512268066
1696081903870814500,0.491814453125,7.070583820343018,3.7970526218414307,5.635555744171143
1696081903880814000,0.50181396484375,6.687614440917969,3.7436444759368896,6.118103981018066
1696081903890814200,0.511814208984375,6.218014240264893,3.673178195953369,6.634328842163086
1696081903900814000,0.52181396484375,5.711610317230225,3.5953147411346436,7.114881992340088
1696081903910814200,0.531814208984375,5.23228645324707,3.531883478164673,7.504608154296875
1696081903920814000,0.54181396484375,4.73232364654541,3.487413167953491,7.849405288696289
1696081903930814200,0.551814208984375,4.184860706329346,3.44499135017395,8.172468185424805
1696081903940814000,0.56181396484375,3.6857197284698486,3.420957326889038,8.419184684753418
1696081903950814200,0.571814208984375,3.338233709335327,3.4173598289489746,8.564342498779297
1696081903960814000,0.58181396484375,3.2308366298675537,3.4033548831939697,8.610983848571777
1696081903970814200,0.591814208984375,3.263746976852417,3.341890573501587,8.622636795043945
1696081903980814000,0.60181396484375,3.3063178062438965,3.2313759326934814,8.648497581481934
1696081903990814200,0.611814208984375,3.3565046787261963,3.072587013244629,8.686959266662598
1696081904000814000,0.62181396484375,3.433678150177002,2.8683507442474365,8.726542472839355
1696081904010814200,0.631814208984375,3.5359256267547607,2.6177470684051514,8.764402389526367
1696081904020814000,0.64181396484375,3.654301166534424,2.319719076156616,8.799722671508789
1696081904030814200,0.651814208984375,3.7786433696746826,1.9768884181976318,8.830855369567871
1696081904040814300,0.661814453125,3.886444091796875,1.600486397743225,8.86025619506836
1696081904050814200,0.671814208984375,3.963144302368164,1.1935770511627197,8.890387535095215
1696081904060814300,0.681814453125,4.004138469696045,0.748819887638092,8.92055892944336
1696081904070814200,0.691814208984375,4.01073694229126,0.27236440777778625,8.944828987121582
1696081904080814300,0.701814453125,3.983098030090332,-0.22228111326694489,8.958559036254883
1696081904090814200,0.711814208984375,3.9035286903381348,-0.7253376245498657,8.966971397399902
1696081904100814000,0.72181396484375,3.7410459518432617,-1.23964262008667,8.979864120483398
1696081904110814000,0.73181396484375,3.484452486038208,-1.7665380239486694,8.994897842407227
1696081904120814000,0.74181396484375,3.1461989879608154,-2.3028788566589355,8.998238563537598
1696081904130814000,0.75181396484375,2.7604498863220215,-2.83804988861084,8.971927642822266
1696081904140814000,0.76181396484375,2.3713631629943848,-3.355419874191284,8.904377937316895
1696081904150815700,0.771815673828125,2.009896993637085,-3.8372793197631836,8.798048973083496
1696081904160815600,0.781815673828125,1.6797442436218262,-4.265212059020996,8.669282913208008
1696081904170815700,0.791815673828125,1.3808295726776123,-4.620636463165283,8.538922309875488
1696081904180816100,0.801816162109375,1.1094368696212769,-4.89163064956665,8.426817893981934
1696081904190816000,0.81181591796875,0.8475237488746643,-5.0779242515563965,8.346653938293457
1696081904200815900,0.82181591796875,0.5879575610160828,-5.189249038696289,8.300352096557617
1696081904210816000,0.83181591796875,0.33713820576667786,-5.235824108123779,8.285091400146484
1696081904220816000,0.84181591796875,0.06893734633922577,-5.233052730560303,8.293408393859863
1696081904230816000,0.85181591796875,-0.20181816816329956,-5.193958759307861,8.315780639648438
1696081904240815900,0.86181591796875,-0.47269466519355774,-5.1300249099731445,8.344438552856445
1696081904250816000,0.87181591796875,-0.7783563733100891,-5.05600118637085,8.36664867401123
1696081904260816000,0.88181591796875,-1.1257336139678955,-4.9828643798828125,8.371018409729004
1696081904270816000,0.89181591796875,-1.5078002214431763,-4.894226551055908,8.363195419311523
1696081904280815900,0.90181591796875,-1.8773434162139893,-4.7738542556762695,8.357977867126465
1696081904290816000,0.91181591796875,-2.2416090965270996,-4.6163129806518555,8.356697082519531
1696081904300815600,0.921815673828125,-2.5973105430603027,-4.418811798095703,8.360498428344727
1696081904310815200,0.931815185546875,-2.946596622467041,-4.188229084014893,8.363382339477539
1696081904320815000,0.941815185546875,-3.2906243801116943,-3.938300848007202,8.356531143188477
1696081904330815200,0.951815185546875,-3.6241164207458496,-3.6803433895111084,8.336114883422852
1696081904340815000,0.961815185546875,-3.936473846435547,-3.419898748397827,8.305310249328613
1696081904350814700,0.971814697265625,-4.209786891937256,-3.1619391441345215,8.273442268371582
1696081904360814800,0.98181494140625,-4.438682556152344,-2.9135243892669678,8.244962692260742
1696081904370814700,0.991814697265625,-4.625844478607178,-2.6799778938293457,8.221266746520996
1696081904380814800,1.00181494140625,-4.769843101501465,-2.466796636581421,8.205696105957031
1696081904390814700,1.011814697265625,-4.874711990356445,-2.2804245948791504,8.197942733764648
1696081904400814800,1.02181494140625,-4.944698333740234,-2.126018762588501,8.197549819946289
1696081904410815000,1.03181494140625,-4.982758522033691,-2.0034241676330566,8.205389976501465
1696081904420815000,1.041815185546875,-4.987795352935791,-1.9103628396987915,8.224492073059082
1696081904430815000,1.05181494140625,-4.957468032836914,-1.847261667251587,8.257197380065918
1696081904440815000,1.061815185546875,-4.889329433441162,-1.8154274225234985,8.304723739624023
1696081904450813200,1.071813232421875,-4.7879438400268555,-1.8155778646469116,8.363584518432617
1696081904460812800,1.081812744140625,-4.661219596862793,-1.8488521575927734,8.427600860595703
1696081904470813000,1.09181298828125,-4.519768714904785,-1.91904878616333,8.488746643066406
1696081904480812800,1.101812744140625,-4.390131950378418,-2.0305914878845215,8.530731201171875
1696081904490813000,1.11181298828125,-4.280337333679199,-2.187995195388794,8.547593116760254
1696081904500813000,1.12181298828125,-4.176767826080322,-2.3811607360839844,8.54721736907959
1696081904510813000,1.13181298828125,-4.071096420288086,-2.5967350006103516,8.535401344299316
1696081904520813000,1.14181298828125,-3.956531047821045,-2.827099084854126,8.516048431396484
1696081904530813000,1.15181298828125,-3.832975387573242,-3.065981388092041,8.489866256713867
1696081904540813000,1.16181298828125,-3.706913471221924,-3.301985025405884,8.457274436950684
1696081904550813000,1.17181298828125,-3.583937644958496,-3.5233256816864014,8.420904159545898
1696081904560812500,1.1818125,-3.4577176570892334,-3.7209739685058594,8.388575553894043
1696081904570812700,1.191812744140625,-3.3192148208618164,-3.8825607299804688,8.371280670166016
1696081904580812500,1.2018125,-3.173163414001465,-3.9972569942474365,8.373945236206055
1696081904590812700,1.211812744140625,-3.0285584926605225,-4.059421062469482,8.397546768188477
1696081904600813000,1.22181298828125,-2.8993983268737793,-4.074021339416504,8.435966491699219
1696081904610813000,1.23181298828125,-2.8043107986450195,-4.055678367614746,8.476863861083984
1696081904620813000,1.24181298828125,-2.756446361541748,-4.017180442810059,8.510832786560059
1696081904630813000,1.25181298828125,-2.764145851135254,-3.972071886062622,8.529467582702637
1696081904640813000,1.26181298828125,-2.820941209793091,-3.921394109725952,8.534339904785156
1696081904650813400,1.2718134765625,-2.9081838130950928,-3.8601315021514893,8.532971382141113
1696081904660814800,1.28181494140625,-2.997407913208008,-3.7887122631073,8.534130096435547
1696081904670815200,1.291815185546875,-3.059967279434204,-3.701610803604126,8.550127983093262
1696081904680815400,1.3018154296875,-3.0938262939453125,-3.5781233310699463,8.590414047241211
1696081904690815200,1.311815185546875,-3.119523286819458,-3.423895835876465,8.643819808959961
1696081904700815400,1.3218154296875,-3.165682315826416,-3.250042676925659,8.693990707397461
1696081904710816000,1.33181591796875,-3.2328994274139404,-3.0709877014160156,8.73426628112793
1696081904720816000,1.341816162109375,-3.321636199951172,-2.894365072250366,8.76124095916748
1696081904730816000,1.35181591796875,-3.415020704269409,-2.721590042114258,8.780695915222168
1696081904740816100,1.361816162109375,-3.4810879230499268,-2.552747964859009,8.805403709411621
1696081904750816000,1.37181591796875,-3.485830307006836,-2.395995855331421,8.847496032714844
1696081904760816400,1.38181640625,-3.441877603530884,-2.2519514560699463,8.902379035949707
1696081904770816500,1.39181640625,-3.3718628883361816,-2.118610143661499,8.961687088012695
1696081904780816400,1.40181640625,-3.3062806129455566,-1.9926962852478027,9.014847755432129
1696081904790816500,1.41181640625,-3.256321430206299,-1.867182731628418,9.05980110168457
1696081904800816400,1.42181640625,-3.215702772140503,-1.7511531114578247,9.097393989562988
1696081904810817300,1.4318173828125,-3.200978994369507,-1.653027892112732,9.120924949645996
1696081904824434000,1.445433837890625,-3.2334654331207275,-1.577926754951477,9.122743606567383
1696081904834433800,1.455433837890625,-3.282280921936035,-1.524263620376587,9.1144437789917
1696081904844434000,1.465433837890625,-3.305011034011841,-1.4842300415039062,9.112847328186035
1696081904854433800,1.475433837890625,-3.2953784465789795,-1.456168532371521,9.120854377746582
1696081904864434200,1.48543408203125,-3.2776107788085938,-1.4377570152282715,9.130183219909668
1696081904874434000,1.49543408203125,-3.2745378017425537,-1.4319968223571777,9.132184028625488
1696081904884434200,1.50543408203125,-3.3085179328918457,-1.460961937904358,9.11534309387207
1696081904894434000,1.51543408203125,-3.362797737121582,-1.521512508392334,9.085500717163086
1696081904904434200,1.52543408203125,-3.3960771560668945,-1.6126418113708496,9.05737018585205
1696081904914434600,1.5354345703125,-3.3677799701690674,-1.7064123153686523,9.050762176513672
1696081904924434400,1.545434326171875,-3.26607346534729,-1.7657397985458374,9.076608657836914
1696081904934434600,1.5554345703125,-3.127035617828369,-1.7668577432632446,9.125243186950684
1696081904944434700,1.5654345703125,-2.974574327468872,-1.7220275402069092,9.184572219848633
1696081904954434300,1.575434326171875,-2.8413188457489014,-1.6607623100280762,9.237906455993652
1696081904964433000,1.585432861328125,-2.7551848888397217,-1.6048779487609863,9.27379322052002
1696081904974432300,1.595432373046875,-2.7036967277526855,-1.566987156867981,9.295392036437988
1696081904984432400,1.605432373046875,-2.660121440887451,-1.546625018119812,9.311375617980957
1696081904994432300,1.615432373046875,-2.608356475830078,-1.5374141931533813,9.327533721923828
1696081905004432400,1.625432373046875,-2.515775203704834,-1.540088415145874,9.35249137878418
1696081905014431500,1.635431396484375,-2.3570892810821533,-1.5692802667617798,9.388891220092773
1696081905024431600,1.645431640625,-2.1500816345214844,-1.6454522609710693,9.4254732131958
1696081905034431500,1.655431396484375,-1.9072192907333374,-1.782047986984253,9.45287036895752
1696081905044431600,1.665431640625,-1.6361455917358398,-1.9705510139465332,9.4662504196167
1696081905054431500,1.675431396484375,-1.3372749090194702,-2.2116897106170654,9.459925651550293
1696081905064431600,1.685431640625,-1.0180460214614868,-2.5151844024658203,9.423776626586914
1696081905074430700,1.6954306640625,-0.7254160642623901,-2.875000238418579,9.347627639770508
1696081905084430600,1.7054306640625,-0.5227746963500977,-3.290052890777588,9.223474502563477
1696081905094430700,1.7154306640625,-0.4855573773384094,-3.732893228530884,9.055367469787598
1696081905104430600,1.7254306640625,-0.5014257431030273,-4.190433502197266,8.852046012878418
1696081905114429700,1.7354296875,-0.5180092453956604,-4.676268100738525,8.604301452636719
1696081905124429800,1.745429931640625,-0.5775510668754578,-5.149875164031982,8.325565338134766
1696081905134429700,1.7554296875,-0.6461135745048523,-5.59655237197876,8.026897430419922
1696081905144429800,1.765429931640625,-0.7023268938064575,-6.032869815826416,7.699438095092773
1696081905154429000,1.775428955078125,-0.7733863592147827,-6.443127632141113,7.352423191070557
1696081905164429000,1.785428955078125,-0.8751465082168579,-6.803339004516602,7.008474826812744
1696081905174429000,1.795428955078125,-0.9802007675170898,-7.097992420196533,6.695356369018555
1696081905184429000,1.805428955078125,-0.9903298616409302,-7.330799102783203,6.43806266784668
1696081905194429000,1.815428955078125,-0.9209161996841431,-7.555857181549072,6.183126449584961
1696081905204429000,1.825428955078125,-0.7906848192214966,-7.780493259429932,5.91684103012085
1696081905214429200,1.83542919921875,-0.5994681119918823,-7.974597930908203,5.6759490966796875
1696081905224429000,1.845428955078125,-0.3449814021587372,-8.144752502441406,5.451061725616455
1696081905234429000,1.855428955078125,-0.1020093709230423,-8.294519424438477,5.23074197769165
1696081905244429000,1.865428955078125,-0.02279231697320938,-8.407832145690918,5.047537326812744
1696081905254429400,1.875429443359375,-0.09616018831729889,-8.480158805847168,4.92419958114624
1696081905264429300,1.88542919921875,-0.23354709148406982,-8.519245147705078,4.851595878601074
1696081905274429400,1.895429443359375,-0.39100825786590576,-8.535771369934082,4.812254428863525
1696081905284429300,1.90542919921875,-0.5581436157226562,-8.537679672241211,4.792327404022217
1696081905294429400,1.915429443359375,-0.7284240126609802,-8.541001319885254,4.76351261138916
1696081905304429300,1.92542919921875,-0.8714693784713745,-8.556379318237305,4.71159553527832
1696081905314429400,1.935429443359375,-0.9873185753822327,-8.585672378540039,4.6348114013671875
1696081905324429300,1.94542919921875,-1.0642577409744263,-8.627561569213867,4.539015769958496
1696081905334429400,1.955429443359375,-1.1104856729507446,-8.683053970336914,4.420568466186523
1696081905344429300,1.96542919921875,-1.1367653608322144,-8.748002052307129,4.283710479736328
1696081905354429400,1.975429443359375,-1.1442724466323853,-8.8181791305542,4.135266304016113
1696081905364429300,1.98542919921875,-1.13756263256073,-8.89100170135498,3.978217363357544
1696081905374430200,1.99543017578125,-1.1221562623977661,-8.965107917785645,3.8128461837768555
1696081905384430300,2.005430419921875,-1.1024847030639648,-9.041361808776855,3.634308099746704
1696081905394430200,2.01543017578125,-1.0874431133270264,-9.120635032653809,3.435349702835083
1696081905404430300,2.025430419921875,-1.0795587301254272,-9.202231407165527,3.2130258083343506
1696081905414430200,2.03543017578125,-1.065737009048462,-9.288679122924805,2.9588394165039062
1696081905424430300,2.045430419921875,-1.0390733480453491,-9.378267288208008,2.671769618988037
1696081905434430200,2.05543017578125,-0.9948899745941162,-9.470036506652832,2.3449020385742188
1696081905444430300,2.065430419921875,-0.9532395601272583,-9.558653831481934,1.973207950592041
1696081905454431200,2.07543115234375,-0.9434066414833069,-9.6333589553833,1.5742651224136353
1696081905464431000,2.08543115234375,-0.9741873145103455,-9.688766479492188,1.1612964868545532
1696081905474431200,2.09543115234375,-1.0259159803390503,-9.72442626953125,0.7436758279800415
1696081905484431000,2.10543115234375,-1.0873146057128906,-9.740778923034668,0.3240513503551483
1696081905494431200,2.11543115234375,-1.134308934211731,-9.740546226501465,-0.07216449081897736
1696081905504431000,2.12543115234375,-1.1581696271896362,-9.731243133544922,-0.3627238869667053
1696081905514431200,2.13543115234375,-1.167948603630066,-9.723566055297852,-0.508081316947937
1696081905524431000,2.14543115234375,-1.1743357181549072,-9.723183631896973,-0.5006006360054016
1696081905534431200,2.15543115234375,-1.173520803451538,-9.728621482849121,-0.3834630250930786
1696081905544431000,2.16543115234375,-1.1823676824569702,-9.730888366699219,-0.28624212741851807
1696081905554431200,2.17543115234375,-1.202972650527954,-9.72884464263916,-0.269436240196228
1696081905564431000,2.18543115234375,-1.237606406211853,-9.723812103271484,-0.29311639070510864
1696081905574431200,2.19543115234375,-1.2897692918777466,-9.716899871826172,-0.297434538602829
1696081905584431000,2.20543115234375,-1.357242226600647,-9.708279609680176,-0.2777306139469147
1696081905594431200,2.21543115234375,-1.4307491779327393,-9.698267936706543,-0.258307546377182
1696081905604431000,2.22543115234375,-1.4995675086975098,-9.68797779083252,-0.2535024583339691
1696081905614431200,2.23543115234375,-1.5627481937408447,-9.678106307983398,-0.24864071607589722
1696081905624431000,2.24543115234375,-1.6146597862243652,-9.670186042785645,-0.224574476480484
1696081905634431200,2.25543115234375,-1.6507235765457153,-9.665085792541504,-0.17631050944328308
1696081905644431000,2.26543115234375,-1.666788935661316,-9.663180351257324,-0.12135142087936401
1696081905654431200,2.27543115234375,-1.652876377105713,-9.666117668151855,-0.0647597685456276
1696081905664431000,2.28543115234375,-1.6003421545028687,-9.675158500671387,-0.009091946296393871
1696081905674431200,2.29543115234375,-1.533280849456787,-9.685935974121094,0.042338382452726364
1696081905684431000,2.30543115234375,-1.487302541732788,-9.692794799804688,0.08731061965227127
1696081905694431200,2.31543115234375,-1.4658006429672241,-9.695666313171387,0.12482991069555283
1696081905704431000,2.32543115234375,-1.4666748046875,-9.695096969604492,0.15411855280399323
1696081905714431200,2.33543115234375,-1.4723228216171265,-9.693885803222656,0.17541910707950592
1696081905724431000,2.34543115234375,-1.4783824682235718,-9.692666053771973,0.19147300720214844
1696081905734431200,2.35543115234375,-1.4788309335708618,-9.692363739013672,0.2029348909854889
1696081905744431000,2.36543115234375,-1.4721076488494873,-9.693215370178223,0.2112409472465515
1696081905754431200,2.37543115234375,-1.4604202508926392,-9.694849967956543,0.21703852713108063
1696081905764431000,2.38543115234375,-1.4469869136810303,-9.69680118560791,0.22017917037010193
1696081905774431000,2.395430908203125,-1.4357174634933472,-9.698465347290039,0.21999065577983856
1696081905784431000,2.40543115234375,-1.4291400909423828,-9.699520111083984,0.21669191122055054
1696081905794431000,2.415430908203125,-1.4279842376708984,-9.699806213378906,0.21127718687057495
1696081905804431000,2.42543115234375,-1.4313881397247314,-9.69941234588623,0.2060667723417282
1696081905814431000,2.435430908203125,-1.4375169277191162,-9.698578834533691,0.20251141488552094
1696081905824431000,2.44543115234375,-1.4445863962173462,-9.697553634643555,0.20120617747306824
1696081905834431000,2.455430908203125,-1.4510241746902466,-9.69658088684082,0.20247867703437805
1696081905844431000,2.46543115234375,-1.454667091369629,-9.695958137512207,0.20606443285942078
1696081905854431000,2.475430908203125,-1.455074667930603,-9.695762634277344,0.2120046317577362
1696081905864431000,2.48543115234375,-1.4526258707046509,-9.69594955444336,0.219951793551445
1696081905874431000,2.495430908203125,-1.448903203010559,-9.69629192352295,0.22939415276050568
1696081905884431000,2.50543115234375,-1.4451508522033691,-9.696615219116211,0.23921500146389008
1696081905894431000,2.515430908203125,-1.4428011178970337,-9.696771621704102,0.24730098247528076
1696081905904431000,2.52543115234375,-1.4410319328308105,-9.696854591369629,0.25397244095802307
1696081905914431000,2.535430908203125,-1.439111590385437,-9.696946144104004,0.260850191116333
1696081905924431000,2.54543115234375,-1.4364187717437744,-9.697137832641602,0.26851415634155273
1696081905934431200,2.55543115234375,-1.4340656995773315,-9.697283744812012,0.27607086300849915
1696081905944431000,2.56543115234375,-1.433650255203247,-9.697184562683105,0.2818640470504761
1696081905954431200,2.57543115234375,-1.4357596635818481,-9.696784019470215,0.284819096326828
1696081905964431000,2.58543115234375,-1.4399722814559937,-9.696145057678223,0.28530484437942505
1696081905974431200,2.59543115234375,-1.4458587169647217,-9.695301055908203,0.28403612971305847
1696081905984431000,2.60543115234375,-1.4532450437545776,-9.694231033325195,0.28281623125076294
1696081905994431200,2.61543115234375,-1.4608486890792847,-9.693100929260254,0.2828957438468933
1696081906004431000,2.62543115234375,-1.4683897495269775,-9.691911697387695,0.28381869196891785
1696081906014431200,2.63543115234375,-1.4767295122146606,-9.690622329711914,0.2844794988632202
1696081906024431000,2.64543115234375,-1.4862502813339233,-9.689170837402344,0.2847837507724762
1696081906034431200,2.65543115234375,-1.496577262878418,-9.687577247619629,0.2852168679237366
1696081906044431000,2.66543115234375,-1.5070183277130127,-9.685945510864258,0.2855699360370636
1696081906054431200,2.67543115234375,-1.5175139904022217,-9.684287071228027,0.2855930030345917
1696081906064431000,2.68543115234375,-1.5284912586212158,-9.68261432647705,0.28428661823272705
1696081906074431200,2.69543115234375,-1.5404152870178223,-9.680818557739258,0.28094401955604553
1696081906084431000,2.70543115234375,-1.5524444580078125,-9.67901611328125,0.27657821774482727
1696081906094431200,2.71543115234375,-1.5628762245178223,-9.677470207214355,0.2719520330429077
1696081906104431000,2.72543115234375,-1.5699608325958252,-9.676461219787598,0.26754093170166016
1696081906114431200,2.73543115234375,-1.5731011629104614,-9.676095962524414,0.2616799473762512
1696081906124431000,2.74543115234375,-1.5731767416000366,-9.676294326782227,0.25357261300086975
1696081906134431200,2.75543115234375,-1.5712659358978271,-9.676877975463867,0.24354016780853271
1696081906144431000,2.76543115234375,-1.5680843591690063,-9.677654266357422,0.2326899915933609
1696081906154431200,2.77543115234375,-1.5641812086105347,-9.67853832244873,0.22212357819080353
1696081906164431000,2.78543115234375,-1.5609841346740723,-9.679298400878906,0.21101854741573334
1696081906174431200,2.79543115234375,-1.559381127357483,-9.67983627319336,0.19727760553359985
1696081906184431000,2.80543115234375,-1.5593746900558472,-9.680180549621582,0.17997194826602936
1696081906194431200,2.81543115234375,-1.559875726699829,-9.680442810058594,0.16105537116527557
1696081906204431000,2.82543115234375,-1.5593820810317993,-9.680767059326172,0.14421090483665466
1696081906214431200,2.83543115234375,-1.5577077865600586,-9.68122386932373,0.13233721256256104
1696081906224431000,2.84543115234375,-1.5557492971420288,-9.681635856628418,0.12537351250648499
1696081906234431200,2.85543115234375,-1.5552626848220825,-9.681750297546387,0.12167466431856155
1696081906244431000,2.86543115234375,-1.5580708980560303,-9.681334495544434,0.11869389563798904
1696081906254431200,2.87543115234375,-1.5645309686660767,-9.680339813232422,0.11527940630912781
1696081906264431000,2.88543115234375,-1.5734645128250122,-9.678918838500977,0.11259178072214127
1696081906274431200,2.89543115234375,-1.5840303897857666,-9.677234649658203,0.10902005434036255
1696081906284431000,2.90543115234375,-1.5961942672729492,-9.675308227539062,0.10294190794229507
1696081906294431200,2.91543115234375,-1.6081743240356445,-9.673389434814453,0.09644757211208344
1696081906304431000,2.92543115234375,-1.6190909147262573,-9.671634674072266,0.08950667083263397
1696081906314431000,2.935430908203125,-1.6291313171386719,-9.670022964477539,0.08191314339637756
1696081906324431000,2.94543115234375,-1.639621376991272,-9.668315887451172,0.07390081137418747
1696081906334431000,2.955430908203125,-1.6519278287887573,-9.666266441345215,0.06587561964988708
1696081906344431000,2.96543115234375,-1.6672953367233276,-9.663681983947754,0.05804068595170975
1696081906354431000,2.975430908203125,-1.6841872930526733,-9.660801887512207,0.050024259835481644
1696081906364431000,2.98543115234375,-1.7044240236282349,-9.657301902770996,0.03944733738899231
1696081906374431000,2.995430908203125,-1.7274092435836792,-9.653258323669434,0.024479776620864868
1696081906384431000,3.00543115234375,-1.7522631883621216,-9.648813247680664,0.004602525383234024
1696081906394431000,3.015430908203125,-1.7777459621429443,-9.644137382507324,-0.019881635904312134
1696081906404431000,3.02543115234375,-1.8032790422439575,-9.639287948608398,-0.04849076643586159
1696081906414431000,3.035430908203125,-1.83035409450531,-9.633976936340332,-0.08028189092874527
1696081906424431000,3.04543115234375,-1.859704613685608,-9.628008842468262,-0.11367548257112503
1696081906434431000,3.055430908203125,-1.8915369510650635,-9.621354103088379,-0.14684519171714783
1696081906444431000,3.06543115234375,-1.9255472421646118,-9.614076614379883,-0.17836496233940125
1696081906454431200,3.07543115234375,-1.9621005058288574,-9.60608196258545,-0.20784269273281097
1696081906464431000,3.08543115234375,-2.0019378662109375,-9.597236633300781,-0.2350856512784958
1696081906474431200,3.09543115234375,-2.044613838195801,-9.5875883102417,-0.26023805141448975
1696081906484431000,3.10543115234375,-2.0895071029663086,-9.577234268188477,-0.28367140889167786
1696081906494431200,3.11543115234375,-2.1361944675445557,-9.566228866577148,-0.306761771440506
1696081906504431000,3.12543115234375,-2.1852076053619385,-9.554309844970703,-0.3315812945365906
1696081906514431200,3.13543115234375,-2.2372636795043945,-9.54121208190918,-0.3604393005371094
1696081906524431000,3.14543115234375,-2.2923429012298584,-9.526793479919434,-0.3942670226097107
1696081906534431200,3.15543115234375,-2.3533523082733154,-9.51012897491455,-0.43501609563827515
1696081906544431000,3.16543115234375,-2.412853717803955,-9.493122100830078,-0.47813817858695984
1696081906554431200,3.17543115234375,-2.4674553871154785,-9.476597785949707,-0.5251492261886597
1696081906564431000,3.18543115234375,-2.5135746002197266,-9.461430549621582,-0.5774297714233398
1696081906574431200,3.19543115234375,-2.5473005771636963,-9.448667526245117,-0.6355389952659607
1696081906584431000,3.20543115234375,-2.563744306564331,-9.43980884552002,-0.6981886029243469
1696081906594431200,3.21543115234375,-2.558424949645996,-9.436158180236816,-0.7636391520500183
1696081906604431000,3.22543115234375,-2.5297563076019287,-9.438458442687988,-0.828300416469574
1696081906614431200,3.23543115234375,-2.4778850078582764,-9.446708679199219,-0.888731062412262
1696081906624431000,3.24543115234375,-2.4050557613372803,-9.460505485534668,-0.940578281879425
1696081906634431200,3.25543115234375,-2.3125832080841064,-9.479716300964355,-0.9783116579055786
1696081906644431000,3.26543115234375,-2.202094793319702,-9.504141807556152,-0.9959493279457092
1696081906654431200,3.27543115234375,-2.077467441558838,-9.532706260681152,-0.9907478094100952
1696081906664431000,3.28543115234375,-1.9492061138153076,-9.562621116638184,-0.9628963470458984
1696081906674431200,3.29543115234375,-1.8260449171066284,-9.591947555541992,-0.9110599160194397
1696081906684431000,3.30543115234375,-1.704283356666565,-9.621147155761719,-0.8360327482223511
1696081906694431200,3.31543115234375,-1.5700608491897583,-9.651888847351074,-0.7390113472938538
1696081906704431000,3.32543115234375,-1.4069807529449463,-9.685490608215332,-0.6178406476974487
1696081906714431200,3.33543115234375,-1.2029563188552856,-9.721123695373535,-0.4716159403324127
1696081906724431000,3.34543115234375,-0.9508072733879089,-9.755642890930176,-0.3055902421474457
1696081906734431200,3.35543115234375,-0.6548784375190735,-9.783897399902344,-0.12821736931800842
1696081906744431000,3.36543115234375,-0.33208346366882324,-9.800880432128906,0.049778178334236145
1696081906754431200,3.37543115234375,-0.013086057268083096,-9.804040908813477,0.22523513436317444
1696081906764431000,3.38543115234375,0.26775047183036804,-9.79480266571045,0.4001677930355072
1696081906774431000,3.395430908203125,0.4894562065601349,-9.777859687805176,0.5692442655563354
1696081906784431000,3.40543115234375,0.6512502431869507,-9.758164405822754,0.7241019010543823
1696081906794431000,3.415430908203125,0.7681273221969604,-9.738340377807617,0.8630722165107727
1696081906804431000,3.42543115234375,0.8580613136291504,-9.718659400939941,0.9907868504524231
1696081906814431000,3.435430908203125,0.9365931153297424,-9.698199272155762,1.112614393234253
1696081906824431000,3.44543115234375,1.0139391422271729,-9.675687789916992,1.2341127395629883
1696081906834431000,3.455430908203125,1.0956053733825684,-9.649937629699707,1.3595489263534546
1696081906844431000,3.46543115234375,1.1877654790878296,-9.619058609008789,1.494376301765442
1696081906854431000,3.475430908203125,1.29135000705719,-9.582175254821777,1.638430118560791
1696081906864431000,3.48543115234375,1.402679681777954,-9.540257453918457,1.7849485874176025
1696081906874431000,3.495430908203125,1.515425682067871,-9.495365142822266,1.9265683889389038
1696081906884431000,3.50543115234375,1.6254361867904663,-9.448590278625488,2.062075138092041
1696081906894431000,3.515430908203125,1.7317744493484497,-9.399650573730469,2.1949567794799805
1696081906904431000,3.52543115234375,1.830095648765564,-9.349103927612305,2.3270576000213623
1696081906914431000,3.535430908203125,1.920301914215088,-9.296895980834961,2.4597225189208984
1696081906924431000,3.54543115234375,2.008408308029175,-9.242486953735352,2.59092378616333
1696081906934431200,3.55543115234375,2.100325345993042,-9.18553638458252,2.7174787521362305
1696081906944431000,3.56543115234375,2.200993061065674,-9.126548767089844,2.834043502807617
1696081906954431200,3.57543115234375,2.308229446411133,-9.067972183227539,2.9350075721740723
1696081906964431000,3.58543115234375,2.417020082473755,-9.012372016906738,3.0175116062164307
1696081906974431200,3.59543115234375,2.5245187282562256,-8.961527824401855,3.0802557468414307
1696081906984431000,3.60543115234375,2.6301205158233643,-8.916703224182129,3.1216981410980225
1696081906994431200,3.61543115234375,2.731816530227661,-8.878443717956543,3.1433513164520264
1696081907004431000,3.62543115234375,2.826620101928711,-8.847122192382812,3.147857904434204
1696081907014431200,3.63543115234375,2.9109833240509033,-8.822681427001953,3.1395263671875
1696081907024431000,3.64543115234375,2.9807546138763428,-8.805521011352539,3.1222002506256104
1696081907034431200,3.65543115234375,3.033376932144165,-8.796672821044922,3.0963571071624756
1696081907044431000,3.66543115234375,3.0675878524780273,-8.797237396240234,3.060844659805298
1696081907054431200,3.67543115234375,3.0835304260253906,-8.807987213134766,3.0135507583618164
1696081907064431000,3.68543115234375,3.081136703491211,-8.828972816467285,2.953976631164551
1696081907074431200,3.69543115234375,3.0590429306030273,-8.860323905944824,2.8822033405303955
1696081907084431000,3.70543115234375,3.0135743618011475,-8.902680397033691,2.798377752304077
1696081907094431200,3.71543115234375,2.94303035736084,-8.95495891571045,2.705092430114746
1696081907104431000,3.72543115234375,2.847951650619507,-9.014387130737305,2.6077349185943604
1696081907114431200,3.73543115234375,2.7320187091827393,-9.076953887939453,2.512988805770874
1696081907124431000,3.74543115234375,2.603818655014038,-9.137725830078125,2.4274024963378906
1696081907134431200,3.75543115234375,2.478750467300415,-9.190241813659668,2.359116554260254
1696081907144431000,3.76543115234375,2.367839813232422,-9.230478286743164,2.3155384063720703
1696081907154431200,3.77543115234375,2.276916265487671,-9.256691932678223,2.3020524978637695
1696081907164431000,3.78543115234375,2.216869831085205,-9.26660442352295,2.320685386657715
1696081907174431200,3.79543115234375,2.2021331787109375,-9.258332252502441,2.367265462875366
1696081907184431000,3.80543115234375,2.2411112785339355,-9.232157707214355,2.4320132732391357
1696081907194431200,3.81543115234375,2.3105790615081787,-9.195719718933105,2.5040106773376465
1696081907204431000,3.82543115234375,2.3798670768737793,-9.159563064575195,2.570762872695923
1696081907214431200,3.83543115234375,2.4285330772399902,-9.13005542755127,2.6295104026794434
1696081907224431000,3.84543115234375,2.4471702575683594,-9.111117362976074,2.677511692047119
1696081907234431200,3.85543115234375,2.433436393737793,-9.104866981506348,2.7110798358917236
1696081907244431000,3.86543115234375,2.389780044555664,-9.109267234802246,2.7350494861602783
1696081907254431200,3.87543115234375,2.3099722862243652,-9.121719360351562,2.761955499649048
1696081907264431000,3.88543115234375,2.1829752922058105,-9.145296096801758,2.787191152572632
1696081907274431000,3.895430908203125,2.0302231311798096,-9.1788330078125,2.7923519611358643
1696081907284431000,3.90543115234375,1.917793869972229,-9.208377838134766,2.774538516998291
1696081907294431000,3.915430908203125,1.909676432609558,-9.213170051574707,2.764186143875122
1696081907304431000,3.92543115234375,1.9717684984207153,-9.194281578063965,2.7834360599517822
1696081907314431000,3.935430908203125,2.0438690185546875,-9.168442726135254,2.816467523574829
1696081907324431000,3.94543115234375,2.114063262939453,-9.147429466247559,2.832904577255249
1696081907334430700,3.9554306640625,2.175570487976074,-9.136935234069824,2.8201708793640137
1696081907344430600,3.9654306640625,2.214590072631836,-9.138193130493164,2.785499334335327
1696081907354430700,3.9754306640625,2.2148592472076416,-9.149979591369629,2.746367931365967
1696081907364430600,3.9854306640625,2.168234348297119,-9.1719331741333,2.710082530975342
1696081907374430700,3.9954306640625,2.0793075561523438,-9.204715728759766,2.6682991981506348
1696081907384430600,4.0054306640625,1.9573782682418823,-9.248557090759277,2.6082446575164795
1696081907394430700,4.0154306640625,1.8149752616882324,-9.300278663635254,2.5260419845581055
1696081907404430600,4.0254306640625,1.6641185283660889,-9.355632781982422,2.423395872116089
1696081907414430700,4.0354306640625,1.511866807937622,-9.411654472351074,2.303272247314453
1696081907424430600,4.0454306640625,1.3631476163864136,-9.46560001373291,2.1712710857391357
1696081907434430700,4.0554306640625,1.2202305793762207,-9.516295433044434,2.0301129817962646
1696081907444430600,4.0654306640625,1.082199215888977,-9.563950538635254,1.878744125366211
1696081907454430700,4.0754306640625,0.9470723271369934,-9.608482360839844,1.7176637649536133
1696081907464430800,4.085430908203125,0.8145428895950317,-9.64922046661377,1.5488799810409546
1696081907474430700,4.0954306640625,0.687410295009613,-9.685275077819824,1.375882625579834
1696081907484430800,4.105430908203125,0.5726135969161987,-9.715594291687012,1.2039821147918701
1696081907494430700,4.1154306640625,0.4756910800933838,-9.739968299865723,1.0376609563827515
1696081907504430800,4.125430908203125,0.39345359802246094,-9.759119033813477,0.8802199363708496
1696081907514430700,4.1354306640625,0.3181356191635132,-9.77389907836914,0.7346023321151733
1696081907524430600,4.1454306640625,0.24086397886276245,-9.785174369812012,0.6021029353141785
1696081907534430700,4.1554306640625,0.15682671964168549,-9.793536186218262,0.4818485677242279
1696081907544430600,4.1654306640625,0.06334590166807175,-9.799051284790039,0.38019949197769165
1696081907554430700,4.1754306640625,-0.03343147411942482,-9.802434921264648,0.2851378321647644
1696081907564430600,4.1854306640625,-0.12810268998146057,-9.80382251739502,0.19749723374843597
1696081907574430700,4.1954306640625,-0.2159987986087799,-9.803544044494629,0.11826412379741669
1696081907584430600,4.2054306640625,-0.29507362842559814,-9.802064895629883,0.05049728602170944
1696081907594430700,4.2154306640625,-0.36909177899360657,-9.799689292907715,-0.00554623594507575
1696081907604430600,4.2254306640625,-0.4462316036224365,-9.7963285446167,-0.052365124225616455
1696081907614430700,4.2354306640625,-0.5342295169830322,-9.791610717773438,-0.09470862150192261
1696081907624430600,4.2454306640625,-0.6350231170654297,-9.785120010375977,-0.1360505372285843
1696081907634431200,4.25543115234375,-0.7468403577804565,-9.776562690734863,-0.17642506957054138
1696081907644431000,4.26543115234375,-0.8661125302314758,-9.765853881835938,-0.21919366717338562
1696081907654431200,4.27543115234375,-0.9864394664764404,-9.753173828125,-0.2691439986228943
1696081907664431000,4.28543115234375,-1.0999959707260132,-9.739189147949219,-0.32900816202163696
1696081907674431200,4.29543115234375,-1.1984808444976807,-9.724989891052246,-0.39762890338897705
1696081907684431000,4.30543115234375,-1.278304100036621,-9.711689949035645,-0.467984676361084
1696081907694431200,4.31543115234375,-1.346825361251831,-9.699234008789062,-0.5301427841186523
1696081907704431000,4.32543115234375,-1.4133327007293701,-9.686590194702148,-0.5853930711746216
1696081907714431200,4.33543115234375,-1.4836311340332031,-9.67244815826416,-0.642240047454834
1696081907724431000,4.34543115234375,-1.5576591491699219,-9.656229972839355,-0.7079383134841919
1696081907734431200,4.35543115234375,-1.62779700756073,-9.638669967651367,-0.785166323184967
1696081907744431000,4.36543115234375,-1.683043122291565,-9.621613502502441,-0.8728557229042053
1696081907754431200,4.37543115234375,-1.7159183025360107,-9.606966972351074,-0.9654482007026672
1696081907764431000,4.38543115234375,-1.7247581481933594,-9.595738410949707,-1.0568842887878418
1696081907774431000,4.395430908203125,-1.7134513854980469,-9.587946891784668,-1.1426211595535278
1696081907784431000,4.40543115234375,-1.6878154277801514,-9.583152770996094,-1.2184518575668335
1696081907794431000,4.415430908203125,-1.6559665203094482,-9.580706596374512,-1.2797685861587524
1696081907804431000,4.42543115234375,-1.628108263015747,-9.57947826385498,-1.3239641189575195
1696081907814431000,4.435430908203125,-1.6112980842590332,-9.578681945800781,-1.3500573635101318
1696081907824431000,4.44543115234375,-1.601457118988037,-9.57926082611084,-1.3575160503387451
1696081907834431000,4.455430908203125,-1.5853770971298218,-9.584239959716797,-1.3412408828735352
1696081907844431000,4.46543115234375,-1.5504003763198853,-9.596867561340332,-1.2909090518951416
1696081907854431000,4.475430908203125,-1.4913804531097412,-9.617443084716797,-1.2044683694839478
1696081907864431000,4.48543115234375,-1.407194972038269,-9.643699645996094,-1.090423583984375
1696081907874431000,4.495430908203125,-1.2949191331863403,-9.673262596130371,-0.9598048329353333
1696081907884431000,4.50543115234375,-1.1515989303588867,-9.704296112060547,-0.8188598155975342
1696081907894431000,4.515430908203125,-0.9760383367538452,-9.735123634338379,-0.6670048832893372
1696081907904431000,4.52543115234375,-0.7666521072387695,-9.763925552368164,-0.4981647729873657
1696081907914431000,4.535430908203125,-0.5309659838676453,-9.787469863891602,-0.3058060109615326
1696081907924431000,4.54543115234375,-0.2817681133747101,-9.802199363708496,-0.08684329688549042
1696081907934431000,4.555430908203125,-0.02885458618402481,-9.805399894714355,0.15240013599395752
1696081907944431000,4.56543115234375,0.22014108300209045,-9.795978546142578,0.40060287714004517
1696081907954431000,4.575430908203125,0.46296659111976624,-9.774027824401855,0.6511776447296143
1696081907964431000,4.58543115234375,0.6995455026626587,-9.740617752075195,0.8950904607772827
1696081907974431200,4.59543115234375,0.9211412668228149,-9.698403358459473,1.123673915863037
1696081907984431000,4.60543115234375,1.108655333518982,-9.652251243591309,1.3323136568069458
1696081907994431200,4.61543115234375,1.244264006614685,-9.608893394470215,1.5135842561721802
1696081908004431000,4.62543115234375,1.3175050020217896,-9.57400131225586,1.6651883125305176
1696081908014431000,4.635430908203125,1.3398749828338623,-9.547064781188965,1.7967973947525024
1696081908024431000,4.64543115234375,1.334625005722046,-9.52335262298584,1.9221467971801758
1696081908034431000,4.655430908203125,1.3416545391082764,-9.49515151977539,2.0523581504821777
1696081908044431000,4.66543115234375,1.3945956230163574,-9.456066131591797,2.192732334136963
1696081908054431000,4.675430908203125,1.4905964136123657,-9.406282424926758,2.3388006687164307
1696081908064431000,4.68543115234375,1.6079593896865845,-9.34994888305664,2.482543468475342
1696081908074431000,4.695430908203125,1.7278512716293335,-9.29205322265625,2.6158447265625
1696081908084431000,4.70543115234375,1.8391813039779663,-9.236274719238281,2.7347307205200195
1696081908094431000,4.715430908203125,1.9373387098312378,-9.184045791625977,2.8408079147338867
1696081908104431000,4.72543115234375,2.0216012001037598,-9.135024070739746,2.9384655952453613
1696081908114431000,4.735430908203125,2.094481945037842,-9.088353157043457,3.0306832790374756
1696081908124431000,4.74543115234375,2.1600804328918457,-9.043051719665527,3.118886947631836
1696081908134431000,4.755430908203125,2.2241036891937256,-8.998469352722168,3.2017128467559814
1696081908144431000,4.76543115234375,2.2895097732543945,-8.954768180847168,3.2772538661956787
1696081908154431200,4.77543115234375,2.360483169555664,-8.912482261657715,3.3415403366088867
1696081908164431000,4.78543115234375,2.4355692863464355,-8.872862815856934,3.3927018642425537
1696081908174431200,4.79543115234375,2.5092861652374268,-8.83784294128418,3.430206060409546
1696081908184431000,4.80543115234375,2.5768959522247314,-8.809511184692383,3.4528520107269287
1696081908194431200,4.81543115234375,2.6349563598632812,-8.789007186889648,3.461296319961548
1696081908204431000,4.82543115234375,2.68222713470459,-8.776509284973145,3.4566993713378906
1696081908214431200,4.83543115234375,2.719561815261841,-8.771855354309082,3.4392940998077393
1696081908224431000,4.84543115234375,2.7465827465057373,-8.774862289428711,3.4100229740142822
1696081908234431200,4.85543115234375,2.7620856761932373,-8.785411834716797,3.3700873851776123
1696081908244431000,4.86543115234375,2.7646076679229736,-8.8038911819458,3.319410800933838
1696081908254431200,4.87543115234375,2.752746343612671,-8.830720901489258,3.257438898086548
1696081908264431000,4.88543115234375,2.7253780364990234,-8.866268157958984,3.183051586151123
1696081908274431000,4.895430908203125,2.6825039386749268,-8.910353660583496,3.095153331756592
1696081908284431000,4.90543115234375,2.624887466430664,-8.962028503417969,2.993699550628662
1696081908294431000,4.915430908203125,2.554445743560791,-9.01863956451416,2.882540225982666
1696081908304431000,4.92543115234375,2.4750547409057617,-9.075240135192871,2.772054672241211
1696081908314431000,4.935430908203125,2.393808364868164,-9.1262845993042,2.6740992069244385
1696081908324431000,4.94543115234375,2.3189315795898438,-9.16746997833252,2.598111629486084
1696081908334431000,4.955430908203125,2.25038743019104,-9.19781494140625,2.550718069076538
1696081908344431000,4.96543115234375,2.1747493743896484,-9.22311782836914,2.524787425994873
1696081908354431000,4.975430908203125,2.0881447792053223,-9.248830795288086,2.50380277633667
1696081908364431000,4.98543115234375,2.011944532394409,-9.270696640014648,2.4852421283721924
1696081908374431000,4.995430908203125,1.9753340482711792,-9.277458190917969,2.4893758296966553
1696081908384431000,5.00543115234375,1.9868838787078857,-9.262131690979004,2.536801338195801
1696081908394431000,5.015430908203125,2.0238311290740967,-9.233838081359863,2.6096885204315186
1696081908404431000,5.02543115234375,2.064527750015259,-9.203325271606445,2.684509754180908
1696081908414431000,5.035430908203125,2.0886592864990234,-9.178803443908691,2.7490386962890625
1696081908424431000,5.04543115234375,2.0851500034332275,-9.164115905761719,2.800246238708496
1696081908434431000,5.055430908203125,2.0483500957489014,-9.16188907623291,2.834458589553833
1696081908444431000,5.06543115234375,1.9843416213989258,-9.170110702514648,2.8533267974853516
1696081908454431200,5.07543115234375,1.8984732627868652,-9.183273315429688,2.869396924972534
1696081908464431000,5.08543115234375,1.784246563911438,-9.200699806213379,2.886810779571533
1696081908474431200,5.09543115234375,1.6635411977767944,-9.219415664672852,2.899127244949341
1696081908484431000,5.10543115234375,1.596158504486084,-9.229646682739258,2.9045097827911377
1696081908494431200,5.11543115234375,1.6096855401992798,-9.223743438720703,2.915762424468994
1696081908504431000,5.12543115234375,1.6608192920684814,-9.212395668029785,2.9229235649108887
1696081908514431200,5.13543115234375,1.709097146987915,-9.207525253295898,2.9104490280151367
1696081908524431000,5.14543115234375,1.7576862573623657,-9.210556030273438,2.8716514110565186
1696081908534431200,5.15543115234375,1.8043338060379028,-9.220423698425293,2.810396194458008
1696081908544431000,5.16543115234375,1.8404003381729126,-9.235596656799316,2.736210823059082
1696081908554431200,5.17543115234375,1.8611044883728027,-9.254687309265137,2.6565568447113037
1696081908564431000,5.18543115234375,1.8620185852050781,-9.279387474060059,2.568279266357422
1696081908574431200,5.19543115234375,1.842917561531067,-9.31190299987793,2.46213960647583
1696081908584431000,5.20543115234375,1.8079653978347778,-9.35171890258789,2.333853244781494
1696081908594431200,5.21543115234375,1.7554212808609009,-9.396339416503906,2.1902828216552734
1696081908604431000,5.22543115234375,1.6761943101882935,-9.444498062133789,2.0400733947753906
1696081908614431200,5.23543115234375,1.563944935798645,-9.495410919189453,1.887193202972412
1696081908624431000,5.24543115234375,1.419036626815796,-9.547704696655273,1.731408715248108
1696081908634431200,5.25543115234375,1.244907259941101,-9.599550247192383,1.5713235139846802
1696081908644431000,5.26543115234375,1.0485440492630005,-9.648576736450195,1.4055498838424683
1696081908654431200,5.27543115234375,0.8409784436225891,-9.691837310791016,1.2374552488327026
1696081908664431000,5.28543115234375,0.6366932988166809,-9.726893424987793,1.0735244750976562
1696081908674431200,5.29543115234375,0.4534178078174591,-9.752861022949219,0.9199153780937195
1696081908684431000,5.30543115234375,0.30315080285072327,-9.770705223083496,0.7820214033126831
1696081908694431200,5.31543115234375,0.18605588376522064,-9.782624244689941,0.6601688265800476
1696081908704431000,5.32543115234375,0.09255867451429367,-9.790523529052734,0.5540385246276855
1696081908714431200,5.33543115234375,0.013173146173357964,-9.79576301574707,0.4616105258464813
1696081908724431000,5.34543115234375,-0.056672196835279465,-9.799009323120117,0.3826538324356079
1696081908734431200,5.35543115234375,-0.11964009702205658,-9.800755500793457,0.31794753670692444
1696081908744431000,5.36543115234375,-0.17991022765636444,-9.80138111114502,0.26582345366477966
1696081908754431200,5.37543115234375,-0.24747738242149353,-9.801021575927734,0.22128844261169434
1696081908764431000,5.38543115234375,-0.3330151438713074,-9.799393653869629,0.17596256732940674
1696081908774431000,5.395430908203125,-0.4389227330684662,-9.795907020568848,0.13235467672348022
1696081908784431000,5.40543115234375,-0.5601903200149536,-9.79035472869873,0.07319997251033783
1696081908794431000,5.415430908203125,-0.6841166615486145,-9.782740592956543,0.011698036454617977
1696081908804431000,5.42543115234375,-0.7914695143699646,-9.774517059326172,-0.04901837185025215
1696081908814431000,5.435430908203125,-0.870286226272583,-9.767365455627441,-0.10632716119289398
1696081908824431000,5.44543115234375,-0.9249638319015503,-9.761594772338867,-0.16067622601985931
1696081908834431000,5.455430908203125,-0.966018795967102,-9.756552696228027,-0.2153163105249405
1696081908844431000,5.46543115234375,-0.9986876845359802,-9.751937866210938,-0.2689981460571289
1696081908854431000,5.475430908203125,-1.0255587100982666,-9.74761962890625,-0.31995850801467896
1696081908864431000,5.48543115234375,-1.0562893152236938,-9.742549896240234,-0.3700611889362335
1696081908874431000,5.495430908203125,-1.108162522315979,-9.734610557556152,-0.42376384139060974
1696081908884431000,5.50543115234375,-1.1939716339111328,-9.721688270568848,-0.4831138551235199
1696081908894431000,5.515430908203125,-1.3133796453475952,-9.702855110168457,-0.5475291013717651
1696081908904431000,5.52543115234375,-1.4515804052352905,-9.678817749023438,-0.6191715598106384
1696081908914431000,5.535430908203125,-1.5818027257919312,-9.65266227722168,-0.7029494643211365
1696081908924431000,5.54543115234375,-1.6763551235198975,-9.629112243652344,-0.8000479936599731
1696081908934431200,5.55543115234375,-1.719702124595642,-9.612324714660645,-0.9031873345375061
1696081908944431000,5.56543115234375,-1.7159610986709595,-9.603400230407715,-1.0000393390655518
1696081908954431200,5.57543115234375,-1.6812673807144165,-9.600502014160156,-1.083482027053833
1696081908964431000,5.58543115234375,-1.6327507495880127,-9.600573539733887,-1.1546317338943481
1696081908974431200,5.59543115234375,-1.5822421312332153,-9.601240158081055,-1.2176728248596191
1696081908984431000,5.60543115234375,-1.5411410331726074,-9.600421905517578,-1.2754273414611816
1696081908994431200,5.61543115234375,-1.5210683345794678,-9.596768379211426,-1.3261022567749023
1696081909004431000,5.62543115234375,-1.5234988927841187,-9.59151554107666,-1.360803246498108
1696081909014431200,5.63543115234375,-1.5327080488204956,-9.588519096374512,-1.3714913129806519
1696081909024431000,5.64543115234375,-1.5254154205322266,-9.592394828796387,-1.3524727821350098
1696081909034431000,5.655430908203125,-1.4859035015106201,-9.606313705444336,-1.2965730428695679
1696081909044431000,5.66543115234375,-1.4106627702713013,-9.62939453125,-1.2061020135879517
1696081909054431200,5.67543115234375,-1.299851417541504,-9.65827465057373,-1.094599962234497
1696081909064431000,5.68543115234375,-1.1477216482162476,-9.690423011779785,-0.9738413691520691
1696081909074431000,5.695430908203125,-0.9452264904975891,-9.724451065063477,-0.8436335325241089
1696081909084431000,5.70543115234375,-0.6955954432487488,-9.757302284240723,-0.6938612461090088
1696081909094431200,5.71543115234375,-0.42114168405532837,-9.784307479858398,-0.5099437236785889
1696081909104431000,5.72543115234375,-0.14972272515296936,-9.801244735717773,-0.288147896528244
1696081909114431000,5.735430908203125,0.10270103067159653,-9.806014060974121,-0.038298897445201874
1696081909124431000,5.74543115234375,0.3326092064380646,-9.79837417602539,0.22603535652160645
1696081909134431200,5.75543115234375,0.5453137159347534,-9.779069900512695,0.4924943447113037
1696081909144431000,5.76543115234375,0.7510946393013,-9.748923301696777,0.7512761354446411
1696081909154431000,5.775430908203125,0.9574077725410461,-9.709025382995605,0.9941462874412537
1696081909164431000,5.78543115234375,1.1585160493850708,-9.661206245422363,1.2202204465866089
1696081909174431200,5.79543115234375,1.33253812789917,-9.609548568725586,1.4321410655975342
1696081909184431000,5.80543115234375,1.4561556577682495,-9.560481071472168,1.6269835233688354
1696081909194431500,5.815431396484375,1.5264345407485962,-9.518331527709961,1.8004320859909058
1696081909204431600,5.825431640625,1.5637173652648926,-9.482563972473145,1.9508699178695679
1696081909214431700,5.835431640625,1.5989278554916382,-9.448493957519531,2.0831284523010254
1696081909224431600,5.845431640625,1.6542770862579346,-9.411613464355469,2.2034122943878174
1696081909234431500,5.855431396484375,1.730743646621704,-9.37113094329834,2.314422369003296
1696081909244431600,5.865431640625,1.8225526809692383,-9.327168464660645,2.419168710708618
1696081909254431500,5.875431396484375,1.9220012426376343,-9.280534744262695,2.519477605819702
1696081909264431600,5.885431640625,2.02360463142395,-9.231964111328125,2.6164724826812744
1696081909274431500,5.895431396484375,2.1264920234680176,-9.18127155303955,2.7115325927734375
1696081909284431600,5.905431640625,2.2297158241271973,-9.128170013427734,2.80622935295105
1696081909294431500,5.915431396484375,2.3305115699768066,-9.072758674621582,2.902388334274292
1696081909304431600,5.925431640625,2.4246678352355957,-9.01578140258789,3.001145839691162
1696081909314431500,5.935431396484375,2.5086121559143066,-8.95928955078125,3.099703073501587
1696081909324431600,5.945431640625,2.583082675933838,-8.90534496307373,3.1925785541534424
1696081909334431500,5.955431396484375,2.6511478424072266,-8.855460166931152,3.27453351020813
1696081909344431600,5.965431640625,2.7188031673431396,-8.809560775756836,3.3421425819396973
1696081909354431500,5.975431396484375,2.7905373573303223,-8.767600059509277,3.3929808139801025
1696081909364431600,5.985431640625,2.866798162460327,-8.730184555053711,3.425718069076538
1696081909374431500,5.995431396484375,2.9414737224578857,-8.698999404907227,3.4416897296905518
1696081909384431600,6.005431640625,3.006162166595459,-8.676397323608398,3.442880392074585
1696081909394431500,6.015431396484375,3.0541017055511475,-8.664103507995605,3.4315972328186035
1696081909404431600,6.025431640625,3.081150770187378,-8.66347599029541,3.4089529514312744
1696081909414431500,6.035431396484375,3.0861871242523193,-8.67465591430664,3.3757882118225098
1696081909424431600,6.045431640625,3.0710790157318115,-8.69691276550293,3.33202862739563
1696081909434431500,6.055431396484375,3.036468744277954,-8.72989273071289,3.2770466804504395
1696081909444431600,6.065431640625,2.982651948928833,-8.773853302001953,3.2083630561828613
1696081909454431500,6.075431396484375,2.9116835594177246,-8.828434944152832,3.122648000717163
1696081909464431600,6.085431640625,2.8244574069976807,-8.893111228942871,3.0174970626831055
1696081909474431500,6.095431396484375,2.7186195850372314,-8.965581893920898,2.89786696434021
1696081909484431600,6.105431640625,2.5958778858184814,-9.040214538574219,2.7759926319122314
1696081909494431000,6.115430908203125,2.477181911468506,-9.107316017150879,2.662811040878296
1696081909504431000,6.12543115234375,2.385636806488037,-9.158343315124512,2.5697476863861084
1696081909514431000,6.135430908203125,2.314953088760376,-9.192584991455078,2.511471748352051
1696081909524486100,6.145486083984375,2.2497646808624268,-9.21410083770752,2.491814613342285
1696081909534486300,6.155486328125,2.179816484451294,-9.227267265319824,2.5052108764648438
1696081909544486400,6.165486328125,2.1284422874450684,-9.229394912719727,2.5412867069244385
1696081909554486300,6.175486328125,2.1193182468414307,-9.217597961425781,2.591242551803589
1696081909564486400,6.185486328125,2.13219952583313,-9.198616027832031,2.647521495819092
1696081909574486300,6.195486328125,2.13896107673645,-9.180206298828125,2.7053442001342773
1696081909584486400,6.205486328125,2.122926950454712,-9.167338371276855,2.7610251903533936
1696081909594486300,6.215486328125,2.07771635055542,-9.163902282714844,2.8064403533935547
1696081909604486400,6.225486328125,2.0095019340515137,-9.171649932861328,2.830686092376709
1696081909614486300,6.235486328125,1.93633234500885,-9.188190460205078,2.8280818462371826
1696081909624486400,6.245486328125,1.8586835861206055,-9.208321571350098,2.8146395683288574
1696081909634486300,6.255486328125,1.766577124595642,-9.232046127319336,2.7961854934692383
1696081909644486400,6.265486328125,1.6820881366729736,-9.257771492004395,2.7630326747894287
1696081909654485800,6.27548583984375,1.6451865434646606,-9.275677680969238,2.72493839263916
1696081909664486000,6.28548583984375,1.661515474319458,-9.280919075012207,2.697068452835083
1696081909674485800,6.29548583984375,1.6914423704147339,-9.28099536895752,2.678138256072998
1696081909684486000,6.30548583984375,1.7105741500854492,-9.279291152954102,2.6718575954437256
1696081909694485800,6.31548583984375,1.7213438749313354,-9.278912544250488,2.6662726402282715
1696081909704486000,6.32548583984375,1.722292423248291,-9.281110763549805,2.6579911708831787
1696081909714486000,6.335486083984375,1.7084285020828247,-9.284798622131348,2.6540372371673584
1696081909724486000,6.34548583984375,1.68033766746521,-9.292076110839844,2.646482467651367
1696081909734486000,6.355486083984375,1.640545129776001,-9.306938171386719,2.619072437286377
1696081909744486000,6.36548583984375,1.586348056793213,-9.332837104797363,2.5596821308135986
1696081909754486000,6.375486083984375,1.5122570991516113,-9.370573997497559,2.4648733139038086
1696081909764486000,6.38548583984375,1.4128519296646118,-9.41738510131836,2.3423802852630615
1696081909774486000,6.395486083984375,1.2907707691192627,-9.468152046203613,2.204101800918579
1696081909784486000,6.40548583984375,1.153223991394043,-9.519033432006836,2.056248426437378
1696081909794486000,6.415486083984375,1.005460500717163,-9.5669584274292,1.9059572219848633
1696081909804486000,6.42548583984375,0.8461808562278748,-9.611525535583496,1.7528737783432007
1696081909814486000,6.435486083984375,0.6669236421585083,-9.653169631958008,1.59425687789917
1696081909824486000,6.44548583984375,0.4676482379436493,-9.690221786499023,1.4321128129959106
1696081909834485800,6.45548583984375,0.26063859462738037,-9.720199584960938,1.2727426290512085
1696081909844486000,6.46548583984375,0.06535305082798004,-9.742345809936523,1.1192395687103271
1696081909854485500,6.475485595703125,-0.09675175696611404,-9.758061408996582,0.9700490236282349
1696081909864485400,6.4854853515625,-0.22024603188037872,-9.768604278564453,0.8342991471290588
1696081909874485500,6.495485595703125,-0.3221728205680847,-9.77524471282959,0.7146987915039062
1696081909884485400,6.5054853515625,-0.38580915331840515,-9.78007698059082,0.6093469858169556
1696081909894485500,6.515485595703125,-0.42194750905036926,-9.783862113952637,0.5178479552268982
1696081909904485400,6.5254853515625,-0.44272109866142273,-9.78669548034668,0.44119948148727417
1696081909914485500,6.535485595703125,-0.45771294832229614,-9.788717269897461,0.3763694167137146
1696081909924485400,6.5454853515625,-0.4781755805015564,-9.789862632751465,0.3163517415523529
1696081909934485500,6.555485595703125,-0.5166677236557007,-9.789806365966797,0.250645250082016
1696081909944485600,6.565485595703125,-0.5770897269248962,-9.788102149963379,0.17348997294902802
1696081909954486000,6.575486083984375,-0.6627057790756226,-9.783811569213867,0.0902080237865448
1696081909964486000,6.58548583984375,-0.773314893245697,-9.776110649108887,0.001742678927257657
1696081909974486000,6.595486083984375,-0.9037157297134399,-9.764513969421387,-0.0871204286813736
1696081909984486000,6.60548583984375,-1.0386861562728882,-9.749824523925781,-0.17878851294517517
1696081909994486000,6.615486083984375,-1.1622893810272217,-9.73366928100586,-0.27380767464637756
1696081910004486000,6.62548583984375,-1.2616478204727173,-9.71823501586914,-0.3662343919277191
1696081910014486000,6.635486083984375,-1.333648681640625,-9.705188751220703,-0.44799643754959106
1696081910024486000,6.64548583984375,-1.3884398937225342,-9.694043159484863,-0.5174247622489929
1696081910034485800,6.65548583984375,-1.4436073303222656,-9.682472229003906,-0.5794754028320312
1696081910044486000,6.66548583984375,-1.5128533840179443,-9.668025970458984,-0.6407549381256104
1696081910054485800,6.67548583984375,-1.5978556871414185,-9.649820327758789,-0.7055866122245789
1696081910064486000,6.68548583984375,-1.6869430541992188,-9.629178047180176,-0.7768445014953613
1696081910074485800,6.69548583984375,-1.760608434677124,-9.609203338623047,-0.856540858745575
1696081910084486000,6.70548583984375,-1.8035221099853516,-9.59285831451416,-0.9456896781921387
1696081910094485800,6.71548583984375,-1.8113563060760498,-9.581403732299805,-1.0420044660568237
1696081910104486000,6.72548583984375,-1.7885406017303467,-9.574399948120117,-1.141022801399231
1696081910114485800,6.73548583984375,-1.7429478168487549,-9.570515632629395,-1.2398629188537598
1696081910124486000,6.74548583984375,-1.682021975517273,-9.568418502807617,-1.3364615440368652
1696081910134485800,6.75548583984375,-1.6130695343017578,-9.566949844360352,-1.428834080696106
1696081910144486000,6.76548583984375,-1.5451241731643677,-9.564971923828125,-1.5145052671432495
1696081910154486300,6.775486328125,-1.4916660785675049,-9.560879707336426,-1.592010736465454
1696081910164486100,6.785486083984375,-1.461186408996582,-9.554418563842773,-1.6577610969543457
1696081910174486300,6.795486328125,-1.4430508613586426,-9.549249649047852,-1.7027751207351685
1696081910184486100,6.805486083984375,-1.4111887216567993,-9.55161190032959,-1.7162303924560547
1696081910194486300,6.815486328125,-1.3435478210449219,-9.566609382629395,-1.6867157220840454
1696081910204486100,6.825486083984375,-1.2317105531692505,-9.594691276550293,-1.6108778715133667
1696081910214486300,6.835486328125,-1.0748740434646606,-9.632363319396973,-1.4940705299377441
1696081910224486400,6.845486328125,-0.8740101456642151,-9.675113677978516,-1.3410590887069702
1696081910234486300,6.855486328125,-0.6364140510559082,-9.717916488647461,-1.151970624923706
1696081910244486100,6.865486083984375,-0.3804042637348175,-9.755828857421875,-0.9215985536575317
1696081910254486300,6.875486328125,-0.12839417159557343,-9.784308433532715,-0.6487910151481628
1696081910264486100,6.885486083984375,0.10216885060071945,-9.800257682800293,-0.3386019468307495
1696081910274486300,6.895486328125,0.3044162690639496,-9.801910400390625,-0.004411021247506142
1696081910284486100,6.905486083984375,0.4895700514316559,-9.788765907287598,0.3321717083454132
1696081910294486300,6.915486328125,0.6742618083953857,-9.761826515197754,0.6498661637306213
1696081910304486100,6.925486083984375,0.8745679259300232,-9.723369598388672,0.9281052350997925
1696081910314486300,6.935486328125,1.0769301652908325,-9.677322387695312,1.1660388708114624
1696081910324487700,6.94548779296875,1.2402483224868774,-9.629730224609375,1.3785266876220703
1696081910334487600,6.955487548828125,1.3316737413406372,-9.588089942932129,1.570190191268921
1696081910344487700,6.96548779296875,1.3520792722702026,-9.555414199829102,1.742380976676941
1696081910354487600,6.975487548828125,1.3362284898757935,-9.527396202087402,1.9008815288543701
1696081910364487700,6.98548779296875,1.3356515169143677,-9.495797157287598,2.0532989501953125
1696081910374487600,6.995487548828125,1.381494402885437,-9.45584487915039,2.2019577026367188
1696081910384487700,7.00548779296875,1.4695467948913574,-9.408588409423828,2.3429079055786133
1696081910394487600,7.015487548828125,1.5784292221069336,-9.356440544128418,2.4770498275756836
1696081910404487700,7.02548779296875,1.688159465789795,-9.30289363861084,2.60316801071167
1696081910414487600,7.035487548828125,1.789142370223999,-9.250658988952637,2.7192940711975098
1696081910424487700,7.04548779296875,1.8817023038864136,-9.20068073272705,2.8243584632873535
1696081910434487600,7.055487548828125,1.9699690341949463,-9.152362823486328,2.9195215702056885
1696081910444487700,7.06548779296875,2.057173013687134,-9.104057312011719,3.0090556144714355
1696081910454487600,7.075487548828125,2.144796371459961,-9.055058479309082,3.0945000648498535
1696081910464487700,7.08548779296875,2.2293131351470947,-9.00562858581543,3.1778759956359863
1696081910474487600,7.095487548828125,2.3105576038360596,-8.956061363220215,3.2588744163513184
1696081910484487700,7.10548779296875,2.3889102935791016,-8.907660484313965,3.3342034816741943
1696081910494487600,7.115487548828125,2.4656519889831543,-8.861754417419434,3.3999991416931152
1696081910504487700,7.12548779296875,2.54278564453125,-8.819870948791504,3.4516916275024414
1696081910514487600,7.135487548828125,2.6198551654815674,-8.783939361572266,3.485548257827759
1696081910524487700,7.14548779296875,2.6935057640075684,-8.754983901977539,3.5022013187408447
1696081910534487600,7.155487548828125,2.7579920291900635,-8.734240531921387,3.503804922103882
1696081910544487700,7.16548779296875,2.8063395023345947,-8.723315238952637,3.4926209449768066
1696081910554487600,7.175487548828125,2.835561513900757,-8.723557472229004,3.46832537651062
1696081910564487700,7.18548779296875,2.846562623977661,-8.73586654663086,3.428103446960449
1696081910574487600,7.195487548828125,2.840024471282959,-8.760926246643066,3.3690598011016846
1696081910584487700,7.20548779296875,2.8160479068756104,-8.799225807189941,3.288402795791626
1696081910594487600,7.215487548828125,2.774503231048584,-8.8511962890625,3.1825549602508545
1696081910604487700,7.22548779296875,2.7140204906463623,-8.917082786560059,3.0479531288146973
1696081910614487600,7.235487548828125,2.6355819702148438,-8.994063377380371,2.8863065242767334
1696081910624486100,7.245486083984375,2.540679454803467,-9.075522422790527,2.7110888957977295
1696081910634486300,7.255486328125,2.436140775680542,-9.153279304504395,2.5402584075927734
1696081910644486100,7.265486083984375,2.342880964279175,-9.217429161071777,2.3916518688201904
1696081910654486300,7.275486328125,2.2611896991729736,-9.265288352966309,2.2828872203826904
1696081910664486100,7.285486083984375,2.1624841690063477,-9.301107406616211,2.232295036315918
1696081910674486300,7.295486328125,2.0381202697753906,-9.326269149780273,2.2443041801452637
1696081910684486100,7.305486083984375,1.923657774925232,-9.335200309753418,2.307298421859741
1696081910694486300,7.315486328125,1.876926302909851,-9.319609642028809,2.4067137241363525
1696081910704486100,7.325486083984375,1.8872933387756348,-9.285512924194336,2.5273783206939697
1696081910714486300,7.335486328125,1.8931957483291626,-9.248666763305664,2.6548619270324707
1696081910724486100,7.345486083984375,1.8615561723709106,-9.220575332641602,2.772322177886963
1696081910734486300,7.355486328125,1.7924237251281738,-9.206548690795898,2.8630051612854004
1696081910744486100,7.365486083984375,1.7128733396530151,-9.207830429077148,2.9072587490081787
1696081910754486300,7.375486328125,1.6573976278305054,-9.222274780273438,2.893580913543701
1696081910764486100,7.385486083984375,1.6453839540481567,-9.247193336486816,2.819972038269043
1696081910774486300,7.395486328125,1.6778734922409058,-9.274885177612305,2.707660675048828
1696081910784486100,7.405486083984375,1.743340253829956,-9.300219535827637,2.576209306716919
1696081910794486300,7.415486328125,1.808699607849121,-9.321308135986328,2.4519262313842773
1696081910804486100,7.425486083984375,1.825377106666565,-9.338895797729492,2.371351480484009
1696081910814486300,7.435486328125,1.7290071249008179,-9.35728645324707,2.3710217475891113
1696081910824486100,7.445486083984375,1.5609005689620972,-9.370464324951172,2.4348132610321045
1696081910834486300,7.455486328125,1.4190607070922852,-9.3716402053833,2.5156779289245605
1696081910844486100,7.465486083984375,1.30093252658844,-9.368837356567383,2.5889334678649902
1696081910854486300,7.475486328125,1.1335245370864868,-9.376898765563965,2.637985944747925
1696081910864486100,7.485486083984375,0.9456652402877808,-9.394875526428223,2.6480135917663574
1696081910874486300,7.495486328125,0.8333265781402588,-9.416985511779785,2.606947422027588
1696081910884486100,7.505486083984375,0.8353727459907532,-9.445181846618652,2.5021347999572754
1696081910894486300,7.515486328125,0.9244242310523987,-9.480301856994629,2.3322913646698
1696081910904486100,7.525486083984375,1.0335884094238281,-9.520037651062012,2.1144134998321533
1696081910914486300,7.535486328125,1.1168161630630493,-9.559776306152344,1.8797988891601562
1696081910924486400,7.545486328125,1.1287778615951538,-9.600668907165527,1.6501644849777222
1696081910934486500,7.555486572265625,1.0472877025604248,-9.64423656463623,1.4359209537506104
1696081910944486400,7.565486328125,0.8911471962928772,-9.686006546020508,1.2479618787765503
1696081910954486300,7.575486328125,0.6909651160240173,-9.721816062927246,1.0858266353607178
1696081910964486400,7.585486328125,0.46653687953948975,-9.750614166259766,0.9370525479316711
1696081910974486500,7.595486572265625,0.23273620009422302,-9.7719144821167,0.7909552454948425
1696081910984486400,7.605486328125,-0.0022570674773305655,-9.785614967346191,0.6418272852897644
1696081910994486500,7.615486572265625,-0.22131705284118652,-9.791818618774414,0.49144643545150757
1696081911004486400,7.625486328125,-0.4009521007537842,-9.79226016998291,0.34777337312698364
1696081911014486300,7.635486328125,-0.5276350378990173,-9.789910316467285,0.2219177633523941
1696081911024486400,7.645486328125,-0.6025561094284058,-9.787345886230469,0.12190014123916626
1696081911034486300,7.655486328125,-0.6367568969726562,-9.78584098815918,0.04535108059644699
1696081911044486400,7.665486328125,-0.6494118571281433,-9.785093307495117,-0.017167335376143456
1696081911054486300,7.675486328125,-0.661389172077179,-9.783992767333984,-0.07813209295272827
1696081911064486400,7.685486328125,-0.6911361813545227,-9.781157493591309,-0.14706891775131226
1696081911074486300,7.695486328125,-0.744662344455719,-9.77577018737793,-0.22366029024124146
1696081911084486400,7.705486328125,-0.8139640092849731,-9.768091201782227,-0.3033435642719269
1696081911094486300,7.715486328125,-0.8848525881767273,-9.759062767028809,-0.38450297713279724
1696081911104486400,7.725486328125,-0.9463489651679993,-9.749710083007812,-0.4663735032081604
1696081911114486300,7.735486328125,-0.9942582249641418,-9.740772247314453,-0.546697735786438
1696081911124486400,7.745486328125,-1.0249658823013306,-9.733792304992676,-0.6106674671173096
1696081911134486300,7.755486328125,-1.057678461074829,-9.72565746307373,-0.6802235245704651
1696081911144486400,7.765486328125,-1.1053028106689453,-9.715469360351562,-0.7471857070922852
1696081911154486300,7.775486328125,-1.1809148788452148,-9.701276779174805,-0.8129029273986816
1696081911164486400,7.785486328125,-1.2860796451568604,-9.681938171386719,-0.8809925317764282
1696081911174486300,7.795486328125,-1.405956506729126,-9.658180236816406,-0.9556476473808289
1696081911184486400,7.805486328125,-1.5136300325393677,-9.63325023651123,-1.038960576057434
1696081911194486300,7.815486328125,-1.589604139328003,-9.610944747924805,-1.1281781196594238
1696081911204486400,7.825486328125,-1.6313802003860474,-9.593153953552246,-1.216597080230713
1696081911214486500,7.835486572265625,-1.6451911926269531,-9.579765319824219,-1.3005650043487549
1696081911224486100,7.845486083984375,-1.6351652145385742,-9.57040786743164,-1.3797478675842285
1696081911234486300,7.855486328125,-1.6036556959152222,-9.564805030822754,-1.4536149501800537
1696081911244486100,7.865486083984375,-1.5570957660675049,-9.562206268310547,-1.5197921991348267
1696081911254486300,7.875486328125,-1.5070091485977173,-9.561349868774414,-1.574649691581726
1696081911264486100,7.885486083984375,-1.4669955968856812,-9.560091018676758,-1.6194580793380737
1696081911274486300,7.895486328125,-1.4456301927566528,-9.557682037353516,-1.652538776397705
1696081911284486100,7.905486083984375,-1.4360548257827759,-9.556777954101562,-1.666062355041504
1696081911294486300,7.915486328125,-1.4165980815887451,-9.562137603759766,-1.651915431022644
1696081911304486100,7.925486083984375,-1.3637913465499878,-9.578275680541992,-1.6020684242248535
1696081911314486300,7.935486328125,-1.2608859539031982,-9.607481002807617,-1.5088032484054565
1696081911324486100,7.945486083984375,-1.095826268196106,-9.648347854614258,-1.3706246614456177
1696081911334486300,7.955486328125,-0.8678905367851257,-9.695313453674316,-1.1907150745391846
1696081911344486100,7.965486083984375,-0.5925105810165405,-9.740303039550781,-0.9724538326263428
1696081911354486300,7.975486328125,-0.2959773540496826,-9.77611255645752,-0.7142419219017029
1696081911364486100,7.985486083984375,-0.006630382500588894,-9.797962188720703,-0.41217052936553955
1696081911374486300,7.995486328125,0.2513006031513214,-9.803153991699219,-0.07097695767879486
1696081911384486100,8.005486083984374,0.46914246678352356,-9.790971755981445,0.2947075366973877
1696081911394486300,8.015486328125,0.6601714491844177,-9.761756896972656,0.6651089191436768
1696081911404486100,8.025486083984376,0.8442019820213318,-9.717508316040039,1.013637661933899
1696081911414486300,8.035486328125,1.0361725091934204,-9.661553382873535,1.323290228843689
1696081911424486100,8.045486083984375,1.2192177772521973,-9.597916603088379,1.601151466369629
1696081911434486300,8.055486328125,1.3450522422790527,-9.534102439880371,1.860566258430481
1696081911444486100,8.065486083984375,1.3942735195159912,-9.479002952575684,2.091548204421997
1696081911454486300,8.075486328125,1.4084298610687256,-9.432336807250977,2.2841742038726807
1696081911464486100,8.085486083984375,1.4510554075241089,-9.386493682861328,2.440983533859253
1696081911474486300,8.095486328125,1.5463932752609253,-9.33729076385498,2.5678389072418213
1696081911484486100,8.105486083984376,1.6809310913085938,-9.2860689163208,2.667151689529419
1696081911494486300,8.115486328125,1.8359543085098267,-9.234435081481934,2.7431018352508545
1696081911504486100,8.125486083984375,1.99180269241333,-9.184013366699219,2.8029870986938477
1696081911514486300,8.135486328125,2.1365959644317627,-9.135483741760254,2.8544881343841553
1696081911524486100,8.145486083984375,2.266263008117676,-9.088423728942871,2.9042491912841797
1696081911534486300,8.155486328125,2.382899284362793,-9.041747093200684,2.9561500549316406
1696081911544486100,8.165486083984375,2.4906771183013916,-8.993460655212402,3.014045000076294
1696081911554486300,8.175486328125,2.5933775901794434,-8.941855430603027,3.080238103866577
1696081911564486100,8.185486083984374,2.6937928199768066,-8.885967254638672,3.154874563217163
1696081911574486300,8.195486328125,2.793377637863159,-8.826388359069824,3.2345261573791504
1696081911584486100,8.205486083984376,2.892183780670166,-8.76534366607666,3.312716007232666
1696081911594486300,8.215486328125,2.987091541290283,-8.70607852935791,3.384019374847412
1696081911604486100,8.225486083984375,3.0785975456237793,-8.651721000671387,3.440950632095337
1696081911614486300,8.235486328125,3.1648194789886475,-8.605186462402344,3.4791946411132812
1696081911624486100,8.245486083984375,3.238844394683838,-8.568717956542969,3.5010132789611816
1696081911634486300,8.255486328125,3.2939748764038086,-8.543575286865234,3.5110108852386475
1696081911644486100,8.265486083984374,3.3258957862854004,-8.530966758728027,3.511570453643799
1696081911654486300,8.275486328125,3.333705186843872,-8.532525062561035,3.500369071960449
1696081911664486100,8.285486083984376,3.3180458545684814,-8.550046920776367,3.4723916053771973
1696081911674486300,8.295486328125,3.278883695602417,-8.585321426391602,3.4221808910369873
1696081911684486100,8.305486083984375,3.213740348815918,-8.638921737670898,3.3483030796051025
1696081911694486300,8.315486328125,3.119264841079712,-8.710273742675781,3.2513582706451416
1696081911704486100,8.325486083984375,2.9949769973754883,-8.795552253723145,3.1366307735443115
1696081911714486300,8.335486328125,2.84678053855896,-8.887961387634277,3.0116612911224365
1696081911724486100,8.345486083984374,2.6822690963745117,-8.981587409973145,2.8821511268615723
1696081911734486300,8.355486328125,2.5054376125335693,-9.072698593139648,2.7530124187469482
1696081911744486100,8.365486083984376,2.354252815246582,-9.148690223693848,2.6323561668395996
1696081911754486300,8.375486328125,2.271008014678955,-9.197083473205566,2.535006046295166
1696081911764486100,8.385486083984375,2.190169095993042,-9.22888469696045,2.4901621341705322
1696081911774486300,8.395486328125,2.063227653503418,-9.249908447265625,2.520406723022461
1696081911784486100,8.405486083984375,1.931600570678711,-9.254243850708008,2.607295274734497
1696081911794486300,8.415486328125,1.8592467308044434,-9.235006332397461,2.7254300117492676
1696081911804486100,8.425486083984374,1.8527950048446655,-9.199583053588867,2.846909284591675
1696081911814486300,8.435486328125,1.868206262588501,-9.162384986877441,2.954766273498535
1696081911824486100,8.445486083984376,1.8661491870880127,-9.135442733764648,3.0383076667785645
1696081911834486300,8.455486328125,1.8419175148010254,-9.121881484985352,3.0933425426483154
1696081911844486100,8.465486083984375,1.8158447742462158,-9.122392654418945,3.1072118282318115
1696081911854486300,8.475486328125,1.8068408966064453,-9.136462211608887,3.070915460586548
1696081911864486100,8.485486083984375,1.801782488822937,-9.159733772277832,3.003823757171631
1696081911874486300,8.495486328125,1.772784948348999,-9.189411163330078,2.9295146465301514
1696081911884486100,8.505486083984374,1.7418982982635498,-9.219135284423828,2.853684186935425
1696081911894486300,8.515486328125,1.7562633752822876,-9.23879623413086,2.7803561687469482
1696081911904486100,8.525486083984376,1.7847638130187988,-9.243866920471191,2.7451422214508057
1696081911914486300,8.535486328125,1.7432860136032104,-9.241293907165527,2.7802340984344482
1696081911924486100,8.545486083984375,1.6598798036575317,-9.234067916870117,2.8542747497558594
1696081911934486300,8.555486328125,1.6191482543945312,-9.223498344421387,2.911289930343628
1696081911944486100,8.565486083984375,1.6311317682266235,-9.216399192810059,2.9270389080047607
1696081911954486300,8.575486328125,1.654204249382019,-9.216957092285156,2.91228985786438
1696081911964486100,8.585486083984375,1.66489577293396,-9.226975440979004,2.874232053756714
1696081911974486300,8.595486328125,1.6662118434906006,-9.248870849609375,2.8021669387817383
1696081911984486100,8.605486083984376,1.6583882570266724,-9.28477668762207,2.685678720474243
1696081911994486300,8.615486328125,1.6402956247329712,-9.331008911132812,2.5321614742279053
1696081912004486100,8.625486083984375,1.6046935319900513,-9.382027626037598,2.360670804977417
1696081912014486300,8.635486328125,1.5438055992126465,-9.431957244873047,2.1965997219085693
1696081912024486100,8.645486083984375,1.459890365600586,-9.479728698730469,2.0429935455322266
1696081912034486300,8.655486328125,1.3556362390518188,-9.524895668029785,1.8996833562850952
1696081912044486100,8.665486083984375,1.2350878715515137,-9.567558288574219,1.7625218629837036
1696081912054486300,8.675486328125,1.0900027751922607,-9.609382629394531,1.6253639459609985
1696081912064486100,8.685486083984374,0.8598539233207703,-9.656826972961426,1.475326657295227
1696081912074486300,8.695486328125,0.5505591034889221,-9.702693939208984,1.313241958618164
1696081912084486100,8.705486083984376,0.22527024149894714,-9.736283302307129,1.1507822275161743
1696081912094486300,8.715486328125,-0.05518893152475357,-9.755599975585938,0.9976934194564819
1696081912104486100,8.725486083984375,-0.25021904706954956,-9.765398979187012,0.8628036975860596
1696081912114486300,8.735486328125,-0.35012707114219666,-9.771461486816406,0.7524088621139526
1696081912124486100,8.745486083984375,-0.37930721044540405,-9.776582717895508,0.6668351292610168
1696081912134486300,8.755486328125,-0.37653061747550964,-9.781211853027344,0.5968807339668274
1696081912144486100,8.765486083984374,-0.36605143547058105,-9.785248756408691,0.5337560772895813
1696081912154486300,8.775486328125,-0.3593969941139221,-9.78858757019043,0.47370484471321106
1696081912164486100,8.785486083984376,-0.36208871006965637,-9.791136741638184,0.41526275873184204
1696081912174486300,8.795486328125,-0.3780422508716583,-9.79296588897705,0.3539349436759949
1696081912184486100,8.805486083984375,-0.41217663884162903,-9.793882369995117,0.2827241122722626
1696081912194486300,8.815486328125,-0.47100797295570374,-9.793306350708008,0.19821962714195251
1696081912204486100,8.825486083984375,-0.5564794540405273,-9.790287017822266,0.10311287641525269
1696081912214486300,8.835486328125,-0.6658937931060791,-9.784004211425781,0.0014271832769736648
1696081912224486100,8.845486083984374,-0.7910374402999878,-9.774133682250977,-0.10332637280225754
1696081912234486300,8.855486328125,-0.9154568910598755,-9.761465072631836,-0.21354685723781586
1696081912244486100,8.865486083984376,-1.0233862400054932,-9.747589111328125,-0.3274700939655304
1696081912254486300,8.875486328125,-1.1088157892227173,-9.733959197998047,-0.4366960823535919
1696081912264486100,8.885486083984375,-1.177294373512268,-9.721692085266113,-0.5222586393356323
1696081912274486300,8.895486328125,-1.2505167722702026,-9.708355903625488,-0.5950576663017273
1696081912284486100,8.905486083984375,-1.342176079750061,-9.690937995910645,-0.6740788221359253
1696081912294486300,8.915486328125,-1.4423617124557495,-9.670526504516602,-0.7553680539131165
1696081912304486100,8.925486083984374,-1.5347408056259155,-9.649320602416992,-0.8397586941719055
1696081912314486300,8.935486328125,-1.5978485345840454,-9.631006240844727,-0.927729606628418
1696081912324486100,8.945486083984376,-1.6183476448059082,-9.618241310119629,-1.0201125144958496
1696081912334486300,8.955486328125,-1.596632957458496,-9.611298561096191,-1.1151771545410156
1696081912344486100,8.965486083984375,-1.5441068410873413,-9.608492851257324,-1.2094060182571411
1696081912354486300,8.975486328125,-1.4786124229431152,-9.60666561126709,-1.3022137880325317
1696081912364486100,8.985486083984375,-1.418138861656189,-9.602999687194824,-1.393406629562378
1696081912374486300,8.995486328125,-1.372807502746582,-9.596492767333984,-1.4808692932128906
1696081912384486100,9.005486083984374,-1.3472497463226318,-9.587563514709473,-1.5599861145019531
1696081912394486300,9.015486328125,-1.340472936630249,-9.578047752380371,-1.6229677200317383
1696081912404486100,9.025486083984376,-1.3431686162948608,-9.571464538574219,-1.659197211265564
1696081912414486300,9.035486328125,-1.3386744260787964,-9.571569442749023,-1.66226327419281
1696081912424486100,9.045486083984375,-1.3060966730117798,-9.581649780273438,-1.629801630973816
1696081912434486300,9.055486328125,-1.22918701171875,-9.603875160217285,-1.5570979118347168
1696081912444486100,9.065486083984375,-1.1040089130401611,-9.636845588684082,-1.4430546760559082
1696081912454486300,9.075486328125,-0.9345645308494568,-9.674677848815918,-1.3027698993682861
1696081912464486100,9.085486083984375,-0.7228128910064697,-9.711732864379883,-1.1531468629837036
1696081912474486300,9.095486328125,-0.4725985825061798,-9.744199752807617,-0.9987038969993591
1696081912484486100,9.105486083984376,-0.20180070400238037,-9.769737243652344,-0.8256622552871704
1696081912494486300,9.115486328125,0.05851878970861435,-9.787344932556152,-0.6119665503501892
1696081912504486100,9.125486083984375,0.28181105852127075,-9.796636581420898,-0.3414454758167267
1696081912514486300,9.135486328125,0.46235668659210205,-9.79571533203125,-0.019034845754504204
1696081912524486100,9.145486083984375,0.6226698160171509,-9.781332015991211,0.3288711607456207
1696081912534486300,9.155486328125,0.7879372239112854,-9.751867294311523,0.6711164116859436
1696081912544486100,9.165486083984375,0.9741397500038147,-9.7087984085083,0.9799279570579529
1696081912554486300,9.175486328125,1.1750438213348389,-9.655693054199219,1.2478399276733398
1696081912564486100,9.185486083984374,1.3608680963516235,-9.597162246704102,1.4875253438949585
1696081912574486300,9.195486328125,1.4891594648361206,-9.540898323059082,1.7099335193634033
1696081912584486100,9.205486083984376,1.5484516620635986,-9.492833137512207,1.912695050239563
1696081912594486300,9.215486328125,1.5769281387329102,-9.45002555847168,2.0929667949676514
1696081912604486100,9.225486083984375,1.62025785446167,-9.40505599975586,2.256047010421753
1696081912614486300,9.235486328125,1.692186713218689,-9.355844497680664,2.403118371963501
1696081912624486100,9.245486083984375,1.7843958139419556,-9.306368827819824,2.5253846645355225
1696081912634486300,9.255486328125,1.887841820716858,-9.258331298828125,2.6247777938842773
1696081912644486100,9.265486083984374,1.994032859802246,-9.212401390075684,2.706627130508423
1696081912654486300,9.275486328125,2.098921060562134,-9.167414665222168,2.7790491580963135
1696081912664486100,9.285486083984376,2.1988399028778076,-9.122223854064941,2.8496406078338623
1696081912674486300,9.295486328125,2.291749954223633,-9.075711250305176,2.9239609241485596
1696081912684486100,9.305486083984375,2.3802857398986816,-9.026407241821289,3.004713773727417
1696081912694486300,9.315486328125,2.468510866165161,-8.972458839416504,3.0937750339508057
1696081912704486100,9.325486083984375,2.55580735206604,-8.913531303405762,3.191704750061035
1696081912714486300,9.335486328125,2.638415813446045,-8.8516845703125,3.294936418533325
1696081912724486100,9.345486083984374,2.7201082706451416,-8.79049301147461,3.3909366130828857
1696081912734486300,9.355486328125,2.8014798164367676,-8.734689712524414,3.468010425567627
1696081912744486100,9.365486083984376,2.8826522827148438,-8.687410354614258,3.5198757648468018
1696081912754485800,9.37548583984375,2.9629640579223633,-8.649365425109863,3.546764373779297
1696081912764486000,9.38548583984375,3.037158727645874,-8.620640754699707,3.553943157196045
1696081912774485800,9.39548583984375,3.097938060760498,-8.601273536682129,3.548370599746704
1696081912784486000,9.40548583984375,3.139253854751587,-8.592196464538574,3.5340380668640137
1696081912794485800,9.41548583984375,3.1589407920837402,-8.594857215881348,3.5099377632141113
1696081912804486000,9.42548583984375,3.158662796020508,-8.610648155212402,3.4712727069854736
1696081912814485800,9.43548583984375,3.139303207397461,-8.640921592712402,3.4131104946136475
1696081912824486000,9.44548583984375,3.0967447757720947,-8.687117576599121,3.3337979316711426
1696081912834485800,9.45548583984375,3.025179624557495,-8.750409126281738,3.2324585914611816
1696081912844486000,9.46548583984375,2.9193484783172607,-8.829925537109375,3.111297607421875
1696081912854485800,9.47548583984375,2.7803080081939697,-8.920740127563477,2.9766640663146973
1696081912864486000,9.48548583984375,2.61505389213562,-9.014979362487793,2.8393595218658447
1696081912874485800,9.49548583984375,2.4351565837860107,-9.104781150817871,2.7098493576049805
1696081912884486000,9.50548583984375,2.27396297454834,-9.180158615112305,2.5930850505828857
1696081912894485800,9.51548583984375,2.175448417663574,-9.228684425354004,2.5037734508514404
1696081912904486000,9.52548583984375,2.09386944770813,-9.25898265838623,2.461122989654541
1696081912914485800,9.53548583984375,1.9722211360931396,-9.278481483459473,2.48801326751709
1696081912924486000,9.54548583984375,1.8369221687316895,-9.285553932189941,2.5640337467193604
1696081912934485800,9.55548583984375,1.7649340629577637,-9.271038055419922,2.6651196479797363
1696081912944486000,9.56548583984375,1.7681201696395874,-9.238043785095215,2.7753021717071533
1696081912954485800,9.57548583984375,1.7912967205047607,-9.20156478881836,2.879685163497925
1696081912964486000,9.58548583984375,1.7934439182281494,-9.17371654510498,2.9659082889556885
1696081912974485800,9.59548583984375,1.7677791118621826,-9.161726951599121,3.0179195404052734
1696081912984486000,9.60548583984375,1.731075644493103,-9.16704273223877,3.023045063018799
1696081912994485800,9.61548583984375,1.7098089456558228,-9.184712409973145,2.9812235832214355
1696081913004486000,9.62548583984375,1.702163815498352,-9.204351425170898,2.9245123863220215
1696081913014485800,9.63548583984375,1.717280387878418,-9.218586921691895,2.8703372478485107
1696081913024486000,9.64548583984375,1.7708262205123901,-9.22464656829834,2.8178465366363525
1696081913034485800,9.65548583984375,1.803486943244934,-9.225258827209473,2.7950360774993896
1696081913044486000,9.66548583984375,1.7434848546981812,-9.224014282226562,2.8369176387786865
1696081913054486300,9.675486328125,1.6531091928482056,-9.220495223999023,2.9017064571380615
1696081913064486100,9.685486083984374,1.61753249168396,-9.212786674499512,2.9458940029144287
1696081913074486300,9.695486328125,1.6231385469436646,-9.206033706665039,2.963859796524048
1696081913084486100,9.705486083984376,1.6265814304351807,-9.207262992858887,2.9581573009490967
1696081913094486300,9.715486328125,1.605008602142334,-9.22053050994873,2.9284698963165283
1696081913104486100,9.725486083984375,1.5658587217330933,-9.245024681091309,2.871906280517578
1696081913114486300,9.735486328125,1.5229973793029785,-9.278024673461914,2.787296772003174
1696081913124486100,9.745486083984375,1.4851343631744385,-9.31758975982666,2.673389196395874
1696081913134486300,9.755486328125,1.4505583047866821,-9.36306095123291,2.529618978500366
1696081913144486100,9.765486083984374,1.4132237434387207,-9.414460182189941,2.3538873195648193
1696081913154486300,9.775486328125,1.3556493520736694,-9.469101905822754,2.1606478691101074
1696081913164486100,9.785486083984376,1.2516385316848755,-9.526394844055176,1.9624930620193481
1696081913174486300,9.795486328125,1.094087839126587,-9.582210540771484,1.7760286331176758
1696081913184486100,9.805486083984375,0.9017380475997925,-9.631322860717773,1.6108005046844482
1696081913194486300,9.815486328125,0.6969341039657593,-9.671391487121582,1.465804100036621
1696081913204486100,9.825486083984375,0.4969320297241211,-9.702839851379395,1.3334920406341553
1696081913214486300,9.835486328125,0.3165423572063446,-9.726923942565918,1.2070996761322021
1696081913224486100,9.845486083984374,0.16427965462207794,-9.744973182678223,1.0856558084487915
1696081913234486300,9.855486328125,0.039518944919109344,-9.75825023651123,0.9721063375473022
1696081913244486100,9.865486083984376,-0.06536019593477249,-9.76793384552002,0.8679314851760864
1696081913254486300,9.875486328125,-0.15325452387332916,-9.775007247924805,0.7719810605049133
1696081913264486100,9.885486083984375,-0.22146186232566833,-9.780380249023438,0.6821900010108948
1696081913274486300,9.895486328125,-0.27107545733451843,-9.784564971923828,0.5989628434181213
1696081913284486100,9.905486083984375,-0.30288970470428467,-9.788256645202637,0.5181119441986084
1696081913294486300,9.915486328125,-0.3203885555267334,-9.791752815246582,0.4346887767314911
1696081913304486100,9.925486083984374,-0.33551540970802307,-9.79489803314209,0.34281718730926514
1696081913314486300,9.935486328125,-0.3605365753173828,-9.797119140625,0.23833657801151276
1696081913324486100,9.945486083984376,-0.40501782298088074,-9.797511100769043,0.12150721251964569
1696081913334486300,9.955486328125,-0.4775983691215515,-9.795010566711426,-0.005334748886525631
1696081913344486100,9.965486083984375,-0.5790990591049194,-9.788546562194824,-0.13775329291820526
1696081913354486300,9.975486328125,-0.6997737884521484,-9.777918815612793,-0.2697126567363739
1696081913364486100,9.985486083984375,-0.8216785192489624,-9.763891220092773,-0.4014010429382324
1696081913374486300,9.995486328125,-0.9340728521347046,-9.74761962890625,-0.5306214690208435
1696081913384486100,10.005486083984374,-1.0249017477035522,-9.730839729309082,-0.6561363339424133
1696081913394486300,10.015486328125,-1.0947211980819702,-9.714600563049316,-0.7734615206718445
1696081913404486100,10.025486083984376,-1.1566704511642456,-9.698369979858398,-0.8797039985656738
1696081913414486300,10.035486328125,-1.2275303602218628,-9.680295944213867,-0.9772551655769348
1696081913424486100,10.045486083984375,-1.3160321712493896,-9.659082412719727,-1.0677629709243774
1696081913434486300,10.055486328125,-1.416482925415039,-9.635580062866211,-1.1486207246780396
1696081913444486100,10.065486083984375,-1.510110855102539,-9.612641334533691,-1.2193458080291748
1696081913454486300,10.075486328125,-1.5755499601364136,-9.594206809997559,-1.280275583267212
1696081913464486100,10.085486083984375,-1.59848153591156,-9.583176612854004,-1.3332345485687256
1696081913474486300,10.095486328125,-1.5781192779541016,-9.579720497131348,-1.3815356492996216
1696081913484486100,10.105486083984376,-1.5231069326400757,-9.5817232131958,-1.428485631942749
1696081913494486300,10.115486328125,-1.4483227729797363,-9.586234092712402,-1.475285291671753
1696081913504486100,10.125486083984375,-1.3724216222763062,-9.590134620666504,-1.5217864513397217
1696081913514486300,10.135486328125,-1.3173372745513916,-9.590248107910156,-1.5690058469772339
1696081913524486100,10.145486083984375,-1.2957652807235718,-9.585428237915039,-1.6157283782958984
1696081913534486300,10.155486328125,-1.2984226942062378,-9.579046249389648,-1.6510648727416992
1696081913544486100,10.165486083984375,-1.300406813621521,-9.576931953430176,-1.6618152856826782
1696081913554486300,10.175486328125,-1.2761608362197876,-9.5846586227417,-1.6357667446136475
1696081913564486100,10.185486083984374,-1.2143614292144775,-9.603926658630371,-1.5683846473693848
1696081913574486300,10.195486328125,-1.1188122034072876,-9.631243705749512,-1.4688900709152222
1696081913584486100,10.205486083984376,-0.9918035864830017,-9.662163734436035,-1.3524354696273804
1696081913594486300,10.215486328125,-0.8240945339202881,-9.695324897766113,-1.2214092016220093
1696081913604486100,10.225486083984375,-0.6122890114784241,-9.729496955871582,-1.0639381408691406
1696081913614486300,10.235486328125,-0.3704647421836853,-9.761070251464844,-0.8685299754142761
1696081913624486100,10.245486083984375,-0.12583187222480774,-9.785633087158203,-0.6290464401245117
1696081913634486300,10.255486328125,0.10086125135421753,-9.800061225891113,-0.344696044921875
1696081913644486100,10.265486083984374,0.30641281604766846,-9.80180835723877,-0.026457972824573517
1696081913654486300,10.275486328125,0.5040624141693115,-9.788931846618652,0.30463147163391113
1696081913664486100,10.285486083984376,0.7032766342163086,-9.761497497558594,0.6235952973365784
1696081913674486300,10.295486328125,0.9069358706474304,-9.722015380859375,0.9110539555549622
1696081913684486100,10.305486083984375,1.105578899383545,-9.67465591430664,1.1613339185714722
1696081913694486300,10.315486328125,1.2765328884124756,-9.624147415161133,1.3842780590057373
1696081913704486100,10.325486083984375,1.3967478275299072,-9.5758056640625,1.58842134475708
1696081913714486300,10.335486328125,1.4660533666610718,-9.532621383666992,1.7748064994812012
1696081913724486100,10.345486083984374,1.5104063749313354,-9.49237060546875,1.9452128410339355
1696081913734486300,10.355486328125,1.5594590902328491,-9.450098991394043,2.10566782951355
1696081913744486100,10.365486083984376,1.6192783117294312,-9.405051231384277,2.256772518157959
1696081913754486300,10.375486328125,1.6849682331085205,-9.359737396240234,2.3929874897003174
1696081913764486100,10.385486083984375,1.755663275718689,-9.314727783203125,2.5146923065185547
1696081913774486300,10.395486328125,1.8330053091049194,-9.268475532531738,2.6278576850891113
1696081913784486100,10.405486083984375,1.9188557863235474,-9.219381332397461,2.736974000930786
1696081913794486300,10.415486328125,2.0089597702026367,-9.167901992797852,2.8431780338287354
1696081913804486100,10.425486083984374,2.098501205444336,-9.114945411682129,2.9468908309936523
1696081913814486300,10.435486328125,2.183598279953003,-9.060726165771484,3.05047607421875
1696081913824486100,10.445486083984376,2.2606797218322754,-9.005579948425293,3.1557700634002686
1696081913834486300,10.455486328125,2.3297462463378906,-8.949641227722168,3.2628896236419678
1696081913844486100,10.465486083984375,2.393564462661743,-8.893696784973145,3.3679347038269043
1696081913854486300,10.475486328125,2.4570608139038086,-8.839744567871094,3.4629266262054443
1696081913864486100,10.485486083984375,2.525505542755127,-8.790369987487793,3.5385618209838867
1696081913874486300,10.495486328125,2.6018731594085693,-8.747579574584961,3.5889334678649902
1696081913884486100,10.505486083984374,2.6851048469543457,-8.71223258972168,3.613485097885132
1696081913894486300,10.515486328125,2.768028497695923,-8.684891700744629,3.6167521476745605
1696081913904486100,10.525486083984376,2.841024160385132,-8.66652774810791,3.6041722297668457
1696081914200312800,10.821312744140625,1.7579244375228882,-9.223525047302246,2.829577684402466
1696081914210313000,10.83131298828125,1.6996647119522095,-9.239001274108887,2.814603805541992
1696081914220312800,10.841312744140625,1.6161904335021973,-9.26308536529541,2.7844629287719727
1696081914230313000,10.85131298828125,1.531054139137268,-9.295248985290527,2.7247700691223145
1696081914240312800,10.861312744140625,1.4574337005615234,-9.335003852844238,2.6275181770324707
1696081914250313000,10.87131298828125,1.3967102766036987,-9.380922317504883,2.493534803390503
1696081914260312800,10.881312744140626,1.340120792388916,-9.428919792175293,2.3387367725372314
1696081914270313000,10.89131298828125,1.2723650932312012,-9.477665901184082,2.173741340637207
1696081914280312800,10.901312744140625,1.186170220375061,-9.527684211730957,1.9965853691101074
1696081914290313000,10.91131298828125,1.0826398134231567,-9.5765380859375,1.8132456541061401
1696081914300312800,10.921312744140625,0.9625535011291504,-9.62123966217041,1.6356068849563599
1696081914310313000,10.93131298828125,0.8254377841949463,-9.660982131958008,1.4677363634109497
1696081914320312800,10.941312744140625,0.6713329553604126,-9.695649147033691,1.3091282844543457
1696081914330313000,10.95131298828125,0.5071209073066711,-9.724733352661133,1.1586639881134033
1696081914340312800,10.961312744140624,0.3467312753200531,-9.747469902038574,1.0182043313980103
1696081914350313000,10.97131298828125,0.20570239424705505,-9.763968467712402,0.8902700543403625
1696081914360312800,10.981312744140626,0.09547212719917297,-9.775483131408691,0.7751783132553101
1696081914370313000,10.99131298828125,0.019816387444734573,-9.783547401428223,0.67218416929245
1696081914380312800,11.001312744140625,-0.0278489850461483,-9.789241790771484,0.5830100178718567
1696081914390313000,11.01131298828125,-0.05702042952179909,-9.793364524841309,0.5068140625953674
1696081914400312800,11.021312744140625,-0.07952545583248138,-9.796341896057129,0.4421660900115967
1696081914410313000,11.03131298828125,-0.10499826818704605,-9.79858684539795,0.3829430341720581
1696081914420312800,11.041312744140624,-0.1396825611591339,-9.800341606140137,0.32212600111961365
1696081914430313000,11.05131298828125,-0.1900923252105713,-9.801468849182129,0.25571876764297485
1696081914440312800,11.061312744140626,-0.25504007935523987,-9.80147933959961,0.18971067667007446
1696081914450313000,11.07131298828125,-0.32825079560279846,-9.800423622131348,0.11778087168931961
1696081914460313000,11.08131298828125,-0.4050973355770111,-9.798108100891113,0.05524374917149544
1696081914470313000,11.09131298828125,-0.4810180366039276,-9.794816017150879,-0.010972206480801105
1696081914480313000,11.10131298828125,-0.5511090755462646,-9.790810585021973,-0.080442413687706
1696081914490313000,11.11131298828125,-0.6150402426719666,-9.786065101623535,-0.15752989053726196
1696081914500313000,11.12131298828125,-0.6731382012367249,-9.780829429626465,-0.22925226390361786
1696081914510313000,11.13131298828125,-0.7343355417251587,-9.774826049804688,-0.289453387260437
1696081914520313000,11.14131298828125,-0.8120247721672058,-9.766837120056152,-0.3461248576641083
1696081914530313000,11.15131298828125,-0.9142054319381714,-9.755252838134766,-0.41167449951171875
1696081914540313000,11.16131298828125,-1.036887288093567,-9.739755630493164,-0.48176610469818115
1696081914550313000,11.17131298828125,-1.1666955947875977,-9.720746040344238,-0.5620578527450562
1696081914560313000,11.18131298828125,-1.2824171781539917,-9.700222969055176,-0.6567859053611755
1696081914570313000,11.19131298828125,-1.3664146661758423,-9.680859565734863,-0.7640988826751709
1696081914580313000,11.20131298828125,-1.4100772142410278,-9.665156364440918,-0.8755972385406494
1696081914590313000,11.21131298828125,-1.4134145975112915,-9.654410362243652,-0.9821520447731018
1696081914600313000,11.22131298828125,-1.3821817636489868,-9.648445129394531,-1.0803399085998535
1696081914610313000,11.23131298828125,-1.3253889083862305,-9.645787239074707,-1.171324610710144
1696081914620313000,11.24131298828125,-1.2548896074295044,-9.644436836242676,-1.257045030593872
1696081914630313000,11.25131298828125,-1.1848403215408325,-9.642586708068848,-1.336715817451477
1696081914640313000,11.26131298828125,-1.133950114250183,-9.638410568237305,-1.408990502357483
1696081914650313000,11.27131298828125,-1.1163944005966187,-9.631457328796387,-1.469234824180603
1696081914660313000,11.28131298828125,-1.1268490552902222,-9.62478256225586,-1.504603624343872
1696081914670313000,11.29131298828125,-1.1433851718902588,-9.622756958007812,-1.505041480064392
1696081914970090800,11.5910908203125,2.6059954166412354,-8.84835147857666,3.329500436782837
1696081914980091000,11.6010908203125,2.6616897583007812,-8.79310417175293,3.4302897453308105
1696081914990090800,11.6110908203125,2.7119758129119873,-8.7421236038208,3.5200276374816895
1696081915000091000,11.6210908203125,2.759014129638672,-8.696913719177246,3.5946807861328125
1696081915010090800,11.6310908203125,2.8045895099639893,-8.658385276794434,3.651975154876709
1696081915020091000,11.6410908203125,2.8482167720794678,-8.627998352050781,3.689922571182251
1696081915030090800,11.6510908203125,2.8896567821502686,-8.605493545532227,3.7101995944976807
1696081915040091000,11.6610908203125,2.9239025115966797,-8.592535972595215,3.71340274810791
1696081915050090800,11.6710908203125,2.9456074237823486,-8.590612411499023,3.700652599334717
1696081915060091000,11.6810908203125,2.95097017288208,-8.60089111328125,3.6724026203155518
1696081915070090800,11.6910908203125,2.939458131790161,-8.62391185760498,3.627364158630371
1696081915080091000,11.7010908203125,2.9117753505706787,-8.660399436950684,3.562213182449341
1696081915090090800,11.7110908203125,2.8649463653564453,-8.71142292022705,3.4746758937835693
1696081915100091000,11.7210908203125,2.7953670024871826,-8.777268409729004,3.3638851642608643
1696081915110090800,11.7310908203125,2.700469493865967,-8.855377197265625,3.234204053878784
1696081915120091000,11.7410908203125,2.581340789794922,-8.940332412719727,3.0947232246398926
1696081915130090800,11.7510908203125,2.445000410079956,-9.025495529174805,2.9551103115081787
1696081915140091000,11.7610908203125,2.3102545738220215,-9.10258674621582,2.8241360187530518
1696081915150090800,11.7710908203125,2.216099262237549,-9.160381317138672,2.7104616165161133
1696081915160091000,11.7810908203125,2.17441725730896,-9.196005821228027,2.622150421142578
1696081915170090800,11.7910908203125,2.1538071632385254,-9.216790199279785,2.565563678741455
1696081915180091000,11.8010908203125,2.131655693054199,-9.227690696716309,2.544816017150879
1696081915190090800,11.8110908203125,2.1211869716644287,-9.223474502563477,2.568723678588867
1696081915200091000,11.8210908203125,2.1419990062713623,-9.196683883666992,2.646298408508301
1696081915210090800,11.8310908203125,2.174880027770996,-9.156845092773438,2.7554123401641846
1696081915220091000,11.8410908203125,2.1897025108337402,-9.118258476257324,2.869267463684082
1696081915230090800,11.8510908203125,2.172774314880371,-9.088955879211426,2.9732306003570557
1696081915240091000,11.8610908203125,2.1280505657196045,-9.072005271911621,3.0561697483062744
1696081915250090800,11.8710908203125,2.066413402557373,-9.068589210510254,3.1081786155700684
1696081915260091000,11.8810908203125,2.005451202392578,-9.074467658996582,3.1308586597442627
1696081915270090800,11.8910908203125,1.9361655712127686,-9.084098815917969,3.146526336669922
1696081915280091000,11.9010908203125,1.85060715675354,-9.097125053405762,3.160346269607544
1696081915290090800,11.9110908203125,1.781777024269104,-9.10893440246582,3.1658763885498047
1696081915300091000,11.9210908203125,1.7664095163345337,-9.10687255859375,3.1803698539733887
1696081915310090800,11.9310908203125,1.7842730283737183,-9.095271110534668,3.203538417816162
1696081915320091000,11.9410908203125,1.8110358715057373,-9.085708618164062,3.215634346008301
1696081915330090800,11.9510908203125,1.8560529947280884,-9.07866096496582,3.2098522186279297
1696081915340091000,11.9610908203125,1.9141297340393066,-9.080182075500488,3.1711926460266113
1696081915350090800,11.9710908203125,1.95785391330719,-9.093280792236328,3.1063246726989746
1696081915360091000,11.9810908203125,1.9853451251983643,-9.112005233764648,3.0331408977508545
1696081915370090800,11.9910908203125,2.0077972412109375,-9.13229751586914,2.9563794136047363
1696081915380091000,12.0010908203125,2.023942232131958,-9.15644359588623,2.8693885803222656
1696081915390090800,12.0110908203125,2.0274791717529297,-9.188068389892578,2.7638401985168457
1696081915400091000,12.0210908203125,2.014199733734131,-9.227474212646484,2.639479875564575
1696081915410090800,12.0310908203125,1.9824925661087036,-9.272393226623535,2.5024960041046143
1696081915420091000,12.0410908203125,1.93161141872406,-9.319966316223145,2.3616530895233154
1696081915430090800,12.0510908203125,1.8582570552825928,-9.367903709411621,2.2269835472106934
1696081915440091000,12.0610908203125,1.7545154094696045,-9.417078018188477,2.100111246109009
1696081915450090800,12.0710908203125,1.610561728477478,-9.471905708312988,1.9644795656204224
1696081915460091000,12.0810908203125,1.4247915744781494,-9.532662391662598,1.8079006671905518
1696081915470091000,12.091091064453124,1.204514980316162,-9.594433784484863,1.632781982421875
1696081915480091000,12.1010908203125,0.9518904089927673,-9.652432441711426,1.447221040725708
1696081915490091000,12.111091064453126,0.6757171750068665,-9.701825141906738,1.2603144645690918
1696081915500091000,12.1210908203125,0.413383424282074,-9.737961769104004,1.082253098487854
1696081915510090800,12.1310908203125,0.21477721631526947,-9.760830879211426,0.9220870733261108
1696081915520091000,12.1410908203125,0.10637164860963821,-9.774347305297852,0.7881063222885132
1696081915530090800,12.1510908203125,0.0759667307138443,-9.782543182373047,0.6828715205192566
1696081915540091000,12.1610908203125,0.0848643034696579,-9.787864685058594,0.6005099415779114
1696081915550090800,12.1710908203125,0.09924064576625824,-9.791768074035645,0.5305008292198181
1696081915560091000,12.1810908203125,0.10244601964950562,-9.794971466064453,0.4670802652835846
1696081915570090800,12.1910908203125,0.09494787454605103,-9.79768180847168,0.40830308198928833
1696081915580091000,12.2010908203125,0.07880514115095139,-9.79993724822998,0.35382863879203796
1696081915590090800,12.2110908203125,0.04581282660365105,-9.80182933807373,0.3032955527305603
1696081915600091000,12.2210908203125,-0.02231425978243351,-9.80325698852539,0.2567908465862274
1696081915610090800,12.2310908203125,-0.12486427277326584,-9.803825378417969,0.198593869805336
1696081915620091000,12.2410908203125,-0.2542145252227783,-9.802477836608887,0.1298283040523529
1696081915630090800,12.2510908203125,-0.3946325480937958,-9.798550605773926,0.05148191377520561
1696081915640091000,12.2610908203125,-0.527799129486084,-9.792366027832031,-0.03300948441028595
1696081915650090800,12.2710908203125,-0.6374931931495667,-9.78514289855957,-0.12144019454717636
1696081915660091000,12.2810908203125,-0.7111033201217651,-9.778669357299805,-0.20537395775318146
1696081915670090800,12.2910908203125,-0.7455828189849854,-9.774452209472656,-0.2723647654056549
1696081915970790000,12.591789794921874,-0.3039032816886902,-9.787342071533203,-0.5344594120979309
1696081915980789800,12.601789794921874,-0.06395882368087769,-9.80168342590332,-0.30484288930892944
1696081915990790000,12.611789794921876,0.16978642344474792,-9.804991722106934,-0.058305948972702026
1696081916000789800,12.621789794921876,0.39146944880485535,-9.796883583068848,0.19456911087036133
1696081916010790000,12.631789794921875,0.6010576486587524,-9.77810287475586,0.44452109932899475
1696081916020789800,12.641789794921875,0.8047372102737427,-9.749456405639648,0.6859426498413086
1696081916030790000,12.651789794921875,1.0087419748306274,-9.711874008178711,0.9121248722076416
1696081916040789800,12.661789794921875,1.2081539630889893,-9.666888236999512,1.1232491731643677
1696081916050790000,12.671789794921875,1.380889892578125,-9.618942260742188,1.3187198638916016
1696081916060789800,12.681789794921874,1.5153193473815918,-9.57313346862793,1.492959976196289
1696081916070790000,12.691789794921876,1.6167207956314087,-9.531620979309082,1.6445127725601196
1696081916080789800,12.701789794921876,1.7003241777420044,-9.492572784423828,1.780481219291687
1696081916090790000,12.711789794921875,1.7821704149246216,-9.452116966247559,1.910865306854248
1696081916100789800,12.721789794921875,1.8730021715164185,-9.407064437866211,2.04184889793396
1696081916110790000,12.731789794921875,1.9672234058380127,-9.35958194732666,2.1676089763641357
1696081916120789800,12.741789794921875,2.0559115409851074,-9.313824653625488,2.2794864177703857
1696081916130790000,12.751789794921875,2.138349771499634,-9.270471572875977,2.378218412399292
1696081916140789800,12.761789794921874,2.2202320098876953,-9.227458953857422,2.4687306880950928
1696081916150790000,12.771789794921874,2.304550886154175,-9.182209968566895,2.558568000793457
1696081916160789800,12.781789794921876,2.391469955444336,-9.133808135986328,2.6504039764404297
1696081916170790000,12.791789794921876,2.4772374629974365,-9.08338451385498,2.7432711124420166
1696081916180789800,12.801789794921875,2.5546531677246094,-9.032336235046387,2.8391592502593994
1696081916190790000,12.811789794921875,2.6174635887145996,-8.981627464294434,2.941004991531372
1696081916200789800,12.821789794921875,2.667152166366577,-8.931663513183594,3.0466232299804688
1696081916210790000,12.831789794921875,2.711503267288208,-8.883230209350586,3.147404432296753
1696081916220790000,12.8417900390625,2.758366107940674,-8.837475776672363,3.234280586242676
1696081916230790000,12.851789794921874,2.812892198562622,-8.796332359313965,3.298859119415283
1696081916240790000,12.8617900390625,2.8743491172790527,-8.761856079101562,3.3374032974243164
1696081916250790000,12.871789794921876,2.939892292022705,-8.735516548156738,3.3493309020996094
1696081916260790000,12.8817900390625,3.005491256713867,-8.718432426452637,3.335568904876709
1696081916270790000,12.891789794921875,3.0643584728240967,-8.711563110351562,3.2997775077819824
1696081916280790000,12.9017900390625,3.1095454692840576,-8.715275764465332,3.2472774982452393
1696081916290790000,12.911789794921875,3.1361658573150635,-8.729608535766602,3.1825549602508545
1696081916300790000,12.9217900390625,3.14428973197937,-8.754011154174805,3.1065938472747803
1696081916310790000,12.931789794921874,3.134889841079712,-8.78797721862793,3.0189430713653564
1696081916320790000,12.9417900390625,3.107968330383301,-8.831375122070312,2.918462038040161
1696081916330790000,12.951789794921876,3.0610411167144775,-8.884651184082031,2.804131507873535
1696081916340790000,12.9617900390625,2.9935812950134277,-8.947504043579102,2.6740758419036865
1696081916350790000,12.971789794921875,2.9055213928222656,-9.018531799316406,2.5286777019500732
1696081916360790000,12.9817900390625,2.7997491359710693,-9.093591690063477,2.3744919300079346
1696081916370790000,12.991789794921875,2.6916182041168213,-9.165183067321777,2.2192087173461914
1696081916380790000,13.0017900390625,2.6317298412323,-9.215410232543945,2.078566789627075
1696081916390790000,13.011789794921874,2.6428170204162598,-9.236431121826172,1.9682148694992065
1696081916400790000,13.0217900390625,2.6654608249664307,-9.246489524841309,1.8888540267944336
1696081916410790000,13.031789794921876,2.6611006259918213,-9.257286071777344,1.8415838479995728
1696081916420790000,13.0417900390625,2.647087574005127,-9.262164115905762,1.8372198343276978
1696081916430790000,13.051789794921875,2.6521921157836914,-9.250909805297852,1.8859502077102661
1696081916440790000,13.0617900390625,2.6624438762664795,-9.229531288146973,1.9741497039794922
1696081916450790000,13.071789794921875,2.6602730751037598,-9.206585884094238,2.0813400745391846
1696081916460790000,13.0817900390625,2.6407055854797363,-9.185525894165039,2.1961538791656494
1696081916470790000,13.091789794921874,2.6081724166870117,-9.168133735656738,2.304987668991089
1696081916480790000,13.1017900390625,2.569024085998535,-9.155387878417969,2.3977408409118652
1696081916490790000,13.111789794921876,2.527726888656616,-9.14788818359375,2.469160556793213
1696081916500790000,13.1217900390625,2.489940643310547,-9.145063400268555,2.5175814628601074
1696081916510790000,13.131789794921875,2.450045347213745,-9.1445894241333,2.558120012283325
1696081916520790000,13.1417900390625,2.3968303203582764,-9.146407127380371,2.6016530990600586
1696081916530790000,13.151789794921875,2.3657779693603516,-9.139345169067383,2.6543774604797363
1696081916540790000,13.1617900390625,2.387678623199463,-9.113781929016113,2.721808433532715
1696081916550790000,13.171789794921875,2.436943769454956,-9.081460952758789,2.785435676574707
1696081916560790000,13.1817900390625,2.501889705657959,-9.049954414367676,2.830000162124634
1696081916570790000,13.191789794921876,2.598013162612915,-9.022806167602539,2.8300843238830566
1696081916580790000,13.2017900390625,2.711048126220703,-9.00359058380127,2.7849233150482178
1696081916590790000,13.211789794921875,2.8201122283935547,-8.99428939819336,2.705550193786621
1696081916600790000,13.2217900390625,2.9207212924957275,-8.992731094360352,2.602011203765869
1696081916610790000,13.231789794921875,3.004643678665161,-8.996707916259766,2.4902751445770264
1696081916620790000,13.2417900390625,3.059537172317505,-9.005739212036133,2.388749361038208
1696081916630790000,13.251789794921875,3.071341037750244,-9.020833015441895,2.3155314922332764
1696081916640790000,13.2617900390625,3.0299201011657715,-9.044522285461426,2.277348041534424
1696081916650790000,13.271789794921874,2.9367799758911133,-9.077346801757812,2.268742322921753
1696081916660790000,13.2817900390625,2.8016464710235596,-9.116229057312012,2.283717393875122
1696081916670790000,13.291789794921876,2.629040002822876,-9.161881446838379,2.3061585426330566
1696081922175205600,18.79620556640625,2.539255380630493,4.878989219665527,8.118978500366211
1696081922185205800,18.806205810546874,2.5403783321380615,4.878955841064453,8.118639945983887
1696081922195205600,18.81620556640625,2.5421524047851562,4.878647327423096,8.118273735046387
1696081922205205800,18.826205810546874,2.543360471725464,4.878410339355469,8.118053436279297
1696081922215206000,18.836205810546875,2.5438761711120605,4.878357410430908,8.117904663085938
1696081922225206000,18.8462060546875,2.544389247894287,4.878172874450684,8.117860794067383
1696081922235206000,18.856205810546875,2.544682264328003,4.878442764282227,8.117607116699219
1696081922245206000,18.8662060546875,2.54632830619812,4.879035949707031,8.116735458374023
1696081922255206000,18.876205810546875,2.547424793243408,4.879873275756836,8.115884780883789
1696081922265206000,18.8862060546875,2.547771453857422,4.880739212036133,8.115246772766113
1696081922275206000,18.896205810546874,2.5475339889526367,4.881324768066406,8.114971160888672
1696081922285206000,18.9062060546875,2.547887086868286,4.88165283203125,8.114668846130371
1696081922295206000,18.916205810546874,2.548133134841919,4.882208824157715,8.1142578125
1696081922305206000,18.9262060546875,2.54917311668396,4.883082866668701,8.113408088684082
1696081922315206000,18.936205810546873,2.5502994060516357,4.883432865142822,8.112844467163086
1696081922325206000,18.9462060546875,2.5514047145843506,4.8834452629089355,8.112482070922852
1696081922335206000,18.956205810546876,2.5527615547180176,4.883184909820557,8.112210273742676
1696081922345206000,18.9662060546875,2.5535428524017334,4.883184909820557,8.111974716186523
1696081922355206000,18.976205810546876,2.5542526245117188,4.883387565612793,8.111617088317871
1696081922365206000,18.9862060546875,2.5557332038879395,4.883915901184082,8.110845565795898
1696081922375206000,18.996205810546876,2.5569605827331543,4.884225845336914,8.110268592834473
1696081922385206000,19.0062060546875,2.558345317840576,4.88422966003418,8.109823226928711
1696081922395206000,19.016205810546875,2.5587072372436523,4.884364128112793,8.10964298248291
1696081922405206000,19.0262060546875,2.559471845626831,4.8848748207092285,8.109090805053711
1696081922415206000,19.036205810546875,2.5599563121795654,4.885680198669434,8.108445167541504
1696081922425206000,19.0462060546875,2.560598134994507,4.886899948120117,8.10750961303711
1696081922435206000,19.056205810546874,2.5610079765319824,4.8881306648254395,8.106644630432129
1696081922445206000,19.0662060546875,2.561614513397217,4.8891825675964355,8.105813980102539
1696081922455206000,19.076205810546874,2.5611913204193115,4.89017391204834,8.105350494384766
1696081922465206000,19.0862060546875,2.5609290599823,4.891513824462891,8.104623794555664
1696081922475206000,19.096205810546873,2.5610201358795166,4.893178939819336,8.103596687316895
1696081922485206000,19.1062060546875,2.561061143875122,4.89516544342041,8.102374076843262
1696081922495206000,19.116205810546877,2.562195062637329,4.8972601890563965,8.100746154785156
1696081922505206000,19.1262060546875,2.5632290840148926,4.8989057540893555,8.099428176879883
1696081922515206000,19.136205810546876,2.5632121562957764,4.9007062911987305,8.098340034484863
1696081922525206000,19.1462060546875,2.5635383129119873,4.9025349617004395,8.09713363647461
1696081922535206000,19.156205810546876,2.563626527786255,4.904911994934082,8.09567928314209
1696081922545206000,19.1662060546875,2.563021659851074,4.90756893157959,8.094242095947266
