time,seconds_elapsed,z,y,x
1695712601543725300,0.105725341796875,6.410406112670898,2.162954330444336,-2.2228450775146484
1695712601554315000,0.11631494140625,4.985605239868164,2.3953304290771484,-1.8545169830322266
1695712601563867000,0.125866943359375,4.694835662841797,1.9641170501708984,-1.0049667358398438
1695712601573419000,0.1354189453125,4.39448356628418,1.6559791564941406,-0.26801109313964844
1695712601582971000,0.144970947265625,5.157192230224609,1.8835639953613281,-0.24165916442871094
1695712601592523000,0.15452294921875,4.842466354370117,2.625011444091797,-1.0983963012695312
1695712601602044400,0.16404443359375,5.812397003173828,7.463285446166992,-10.599464416503906
1695712601611596300,0.17359619140625,13.137035369873047,9.36601448059082,-12.882200241088867
1695712601621148400,0.1831484375,7.587558746337891,6.646076202392578,-5.742624282836914
1695712601630700300,0.1927001953125,7.380336761474609,3.6533355712890625,-1.789834976196289
1695712601640252400,0.20225244140625,6.472393035888672,2.4165916442871094,-0.9357929229736328
1695712601649804300,0.21180419921875,6.410406112670898,2.0398788452148438,-1.9380645751953125
1695712601659326000,0.221325927734375,8.335893630981445,2.639385223388672,-3.2972850799560547
1695712601668877800,0.2308779296875,9.832263946533203,3.2981834411621094,-4.160909652709961
1695712601678430000,0.240429931640625,9.539098739624023,3.9093685150146484,-4.694536209106445
1695712601687981800,0.24998193359375,9.38907241821289,3.3787364959716797,-4.744844436645508
1695712601697534000,0.259533935546875,8.333498001098633,2.445039749145508,-3.5937442779541016
1695712601707055400,0.269055419921875,7.208749771118164,1.8976383209228516,-2.660646438598633
1695712601716607500,0.278607421875,6.653562545776367,1.1678695678710938,-2.1509761810302734
1695712601726159400,0.288159423828125,6.012432098388672,0.9262104034423828,-1.92608642578125
1695712601735711500,0.29771142578125,5.869592666625977,1.4523506164550781,-1.96441650390625
1695712601745233000,0.30723291015625,6.901210784912109,2.4875621795654297,-2.09857177734375
1695712601754784800,0.31678466796875,8.631155014038086,3.5611038208007812,-1.900033950805664
1695712601764337000,0.3263369140625,11.555021286010742,4.248050689697266,-1.2106914520263672
1695712601773888800,0.335888671875,15.279327392578125,5.032320022583008,-0.16290283203125
1695712601783410400,0.345410400390625,17.44048500061035,3.4685726165771484,0.5357227325439453
1695712601792962300,0.35496240234375,18.834442138671875,1.0187416076660156,1.670053482055664
1695712601802514400,0.364514404296875,17.259315490722656,-0.7845687866210938,2.9810619354248047
1695712601812066300,0.37406640625,15.71533203125,-1.7107791900634766,2.8376235961914062
1695712601821618400,0.383618408203125,14.681318283081055,-1.6730480194091797,1.4164161682128906
1695712601831139800,0.393139892578125,12.839378356933594,-1.8578109741210938,0.5956134796142578
1695712601840692000,0.40269189453125,11.27862548828125,-2.132709503173828,0.6866474151611328
1695712601850243800,0.412243896484375,10.921077728271484,-1.8694896697998047,0.9019546508789062
1695712601859796000,0.4217958984375,11.421464920043945,-1.1849384307861328,1.2175788879394531
1695712601869317400,0.4313173828125,11.671808242797852,-0.08294868469238281,1.1292400360107422
1695712601878869200,0.440869140625,11.252273559570312,1.3882675170898438,0.3132286071777344
1695712601888421400,0.45042138671875,10.327859878540039,2.9639930725097656,-1.1511001586914062
1695712601897973200,0.45997314453125,9.66307258605957,3.916555404663086,-2.2995052337646484
1695712601907495000,0.469494873046875,9.176759719848633,3.954286575317383,-2.6390857696533203
1695712601917077200,0.4790771484375,9.541494369506836,3.418863296508789,-2.3474178314208984
1695712601926629400,0.48862939453125,9.529516220092773,2.418987274169922,-1.751504898071289
1695712601936181200,0.49818115234375,9.131542205810547,1.698801040649414,-1.6392097473144531
1695712601945703000,0.507702880859375,8.173589706420898,1.2415351867675781,-1.5817146301269531
1695712601955254800,0.5172548828125,7.075193405151367,0.32460784912109375,-0.8687152862548828
1695712601964807000,0.526806884765625,7.556415557861328,-0.8459568023681641,0.06438255310058594
1695712601974358800,0.53635888671875,9.631929397583008,-1.097198486328125,0.4282188415527344
1695712601983911000,0.545910888671875,11.169025421142578,-0.3081378936767578,-0.39018821716308594
1695712601993432300,0.555432373046875,11.107038497924805,0.7651042938232422,-1.2322521209716797
1695712602002984400,0.564984375,9.80112075805664,1.319692611694336,-1.6416053771972656
1695712602012536300,0.574536376953125,7.485145568847656,0.9714279174804688,-1.8018131256103516
1695712602022088400,0.58408837890625,4.949670791625977,0.38120460510253906,-1.713174819946289
1695712602031609900,0.59360986328125,4.14923095703125,0.4761314392089844,-1.4858894348144531
1695712602041161700,0.60316162109375,4.220500946044922,0.84326171875,-1.1987133026123047
1695712602050713900,0.6127138671875,4.349266052246094,1.068450927734375,-0.8160114288330078
1695712602060265700,0.622265625,4.437305450439453,1.0163459777832031,-0.33987998962402344
1695712602069787400,0.631787353515625,4.446887969970703,0.9262104034423828,0.06438255310058594
1695712602079339300,0.64133935546875,4.556488037109375,1.1822433471679688,0.2725028991699219
1695712602088891400,0.650891357421875,4.759218215942383,1.9829826354980469,0.2868766784667969
1695712602098443300,0.660443359375,4.871213912963867,2.945127487182617,0.4641532897949219
1695712602107995400,0.669995361328125,4.694835662841797,3.7246055603027344,0.8827896118164062
1695712602117516800,0.679516845703125,4.837675094604492,4.5157623291015625,1.3181953430175781
1695712602127069000,0.68906884765625,16.284893035888672,4.996984481811523,3.186786651611328
1695712602136620800,0.698620849609375,19.492042541503906,4.800243377685547,3.007413864135742
1695712602146173000,0.7081728515625,19.370464324951172,4.681659698486328,3.158039093017578
1695712602155694300,0.7176943359375,14.969392776489258,3.5491256713867188,4.007589340209961
1695712602165246200,0.72724609375,13.647005081176758,3.167621612548828,4.706214904785156
1695712602174798300,0.73679833984375,13.582622528076172,3.7671279907226562,4.682258605957031
1695712602184350200,0.74635009765625,11.466682434082031,4.219602584838867,3.5266666412353516
1695712602193872000,0.755871826171875,10.277851104736328,3.949495315551758,2.598360061645508
1695712602203454200,0.7654541015625,7.971158981323242,3.409280776977539,2.076711654663086
1695712602213006300,0.77500634765625,6.076814651489258,3.0942554473876953,1.555063247680664
1695712602222558200,0.78455810546875,5.728849411010742,2.8430137634277344,1.1508007049560547
1695712602232080000,0.794079833984375,6.062440872192383,2.7840213775634766,0.9902935028076172
1695712602241631700,0.8036318359375,7.432741165161133,2.935544967651367,1.5574588775634766
1695712602251183900,0.813183837890625,9.30073356628418,3.2152347564697266,2.9906444549560547
1695712602260735700,0.82273583984375,10.451833724975586,3.587156295776367,4.050710678100586
1695712602270288000,0.832287841796875,11.390621185302734,4.191154479980469,3.600931167602539
1695712602279809300,0.841809326171875,12.093439102172852,4.352260589599609,2.9379405975341797
1695712602289361400,0.851361328125,11.690673828125,3.3407058715820312,2.8304367065429688
1695712602298913300,0.860913330078125,10.830642700195312,2.2506942749023438,2.7513809204101562
1695712602308465400,0.87046533203125,9.619951248168945,1.6607704162597656,2.3399314880371094
1695712602317986800,0.87998681640625,8.219106674194336,1.750905990600586,1.758392333984375
1695712602327538700,0.88953857421875,6.710758209228516,2.6630420684814453,1.3205909729003906
1695712602337090800,0.8990908203125,6.248401641845703,3.3002796173095703,0.8157119750976562
1695712602346642700,0.908642578125,6.62721061706543,4.018369674682617,0.8372726440429688
1695712602356164400,0.918164306640625,7.072797775268555,4.364238739013672,1.2343482971191406
1695712602365716200,0.92771630859375,7.570789337158203,4.335790634155273,1.3732948303222656
1695712602375268400,0.937268310546875,8.016376495361328,4.025556564331055,1.545480728149414
1695712602384820200,0.9468203125,8.149932861328125,3.603626251220703,1.835052490234375
1695712602394372400,0.956372314453125,8.5859375,3.532655715942383,1.71527099609375
1695712602403893800,0.965893798828125,10.206281661987305,4.044422149658203,1.971303939819336
1695712602413445600,0.975445556640625,11.26904296875,5.134433746337891,1.8757781982421875
1695712602422997800,0.984997802734375,11.166629791259766,6.112749099731445,1.4568424224853516
1695712602432550000,0.9945498046875,11.097455978393555,6.299907684326172,1.1484050750732422
1695712602442071300,1.0040712890625,11.180704116821289,5.027828216552734,1.3900642395019531
1695712602451623200,1.013623046875,11.140277862548828,3.7767105102539062,2.1674461364746094
1695712602461175300,1.02317529296875,10.863882064819336,3.4898338317871094,1.923391342163086
1695712602470727200,1.03272705078125,10.461116790771484,3.501811981201172,1.2798652648925781
1695712602480248800,1.042248779296875,9.83945083618164,2.8121700286865234,0.8971633911132812
1695712602489831200,1.0518310546875,9.303129196166992,2.177328109741211,0.9187240600585938
1695712602499383300,1.06138330078125,8.747941970825195,1.961721420288086,0.9283065795898438
1695712602508935200,1.07093505859375,8.602706909179688,2.099170684814453,1.1076793670654297
1695712602518487300,1.0804873046875,8.788368225097656,2.871461868286133,1.2918434143066406
1695712602528008700,1.0900087890625,9.472320556640625,3.518281936645508,1.3828773498535156
1695712602537560800,1.099560791015625,8.886289596557617,3.0113067626953125,1.84942626953125
1695712602547112700,1.10911279296875,10.713855743408203,2.871461868286133,1.9257869720458984
1695712602556664800,1.118664794921875,10.411108016967773,2.6465721130371094,1.4568424224853516
1695712602566186200,1.128186279296875,9.667863845825195,2.504331588745117,1.691314697265625
1695712602575738000,1.137738037109375,8.633550643920898,2.509122848510742,1.6889190673828125
1695712602585290200,1.147290283203125,8.1259765625,2.7531776428222656,1.636514663696289
1695712602594842400,1.15684228515625,7.990324020385742,3.2317047119140625,1.641305923461914
1695712602604363800,1.16636376953125,8.1259765625,3.4047889709472656,1.8709869384765625
1695712602613915600,1.17591552734375,8.395185470581055,3.2221221923828125,2.270458221435547
1695712602623467800,1.1854677734375,8.655111312866211,2.5184059143066406,2.7465896606445312
1695712602633019600,1.19501953125,8.905155181884766,1.7224578857421875,3.1364784240722656
1695712602642571800,1.20457177734375,8.31193733215332,1.319692611694336,3.2323036193847656
1695712602652093200,1.21409326171875,6.741601943969727,1.4972686767578125,3.134082794189453
1695712602661645300,1.223645263671875,5.790836334228516,1.6583747863769531,3.1556434631347656
1695712602671197200,1.233197265625,6.150779724121094,2.172536849975586,2.897214889526367
1695712602680749300,1.242749267578125,7.473167419433594,3.480550765991211,2.5097217559814453
1695712602690270700,1.252270751953125,9.091115951538086,3.9851303100585938,2.5911731719970703
1695712602699822600,1.261822509765625,9.839151382446289,2.9023056030273438,3.359272003173828
1695712602709374700,1.271374755859375,10.208677291870117,2.004243850708008,3.6389617919921875
1695712602718926600,1.280926513671875,10.19190788269043,2.433361053466797,2.9187755584716797
1695712602728448300,1.2904482421875,9.367511749267578,3.409280776977539,1.985677719116211
1695712602738000100,1.300000244140625,7.725606918334961,4.023160934448242,1.4475593566894531
1695712602747552300,1.30955224609375,6.064836502075195,3.203256607055664,1.3469429016113281
1695712602757104000,1.319104248046875,5.504858016967773,2.5848846435546875,1.1292400360107422
1695712602766625800,1.328625732421875,4.87360954284668,2.2959117889404297,0.6842517852783203
1695712602776208100,1.3382080078125,3.784496307373047,1.5706348419189453,0.5692615509033203
1695712602785760300,1.34776025390625,2.362091064453125,0.7249774932861328,0.7821731567382812
1695712602795312000,1.35731201171875,1.3041210174560547,1.2011089324951172,0.9330978393554688
1695712602804864300,1.3668642578125,1.030120849609375,1.7533016204833984,1.4499549865722656
1695712602814385700,1.3763857421875,2.678913116455078,1.516134262084961,2.488161087036133
1695712602823937800,1.385937744140625,4.599609375,0.9001579284667969,3.148456573486328
1695712602833489700,1.39548974609375,5.762388229370117,0.23686790466308594,3.605722427368164
1695712602843041800,1.405041748046875,5.586009979248047,-0.46205711364746094,3.945302963256836
1695712602852563200,1.414563232421875,4.906848907470703,-1.353231430053711,4.100719451904297
1695712602862115000,1.424114990234375,4.55169677734375,-2.7058639526367188,4.371126174926758
1695712602871667200,1.433667236328125,4.418439865112305,-4.305246353149414,5.043399810791016
1695712602881219000,1.443218994140625,4.818809509277344,-4.833782196044922,5.687225341796875
1695712602890740700,1.45274072265625,6.114845275878906,-4.487613677978516,6.41459846496582
1695712602900292600,1.462292724609375,6.727228164672852,-4.483121871948242,9.324090957641602
1695712602909844700,1.4718447265625,6.8059844970703125,-3.8455848693847656,8.864728927612305
1695712602919396600,1.481396728515625,5.593196868896484,-3.7602405548095703,8.75452995300293
1695712602928948700,1.49094873046875,4.356452941894531,-3.3550796508789062,9.132440567016602
1695712602938470100,1.50047021484375,3.4365310668945312,-2.954710006713867,9.704397201538086
1695712602948022300,1.510022216796875,2.192899703979492,-3.3481922149658203,11.407989501953125
1695712602957574100,1.51957421875,1.7901344299316406,-4.21061897277832,13.278976440429688
1695712602967126300,1.529126220703125,2.3357391357421875,-5.091911315917969,15.293701171875
1695712602976647700,1.538647705078125,3.6796875,-5.167673110961914,17.21978759765625
1695712602986199600,1.548199462890625,3.996509552001953,-5.226964950561523,19.13629150390625
1695712602995751700,1.557751708984375,4.013278961181641,-5.226964950561523,20.34937858581543
1695712603005303600,1.567303466796875,3.848878860473633,-4.805334091186523,20.51437759399414
1695712603014825200,1.5768251953125,3.3365135192871094,-4.179775238037109,20.05022430419922
1695712603024377000,1.586377197265625,2.9292564392089844,-3.7081356048583984,19.731904983520508
1695712603033897700,1.595897705078125,2.2048778533935547,-2.8765525817871094,19.25337791442871
1695712603043449900,1.605449951171875,0.9345951080322266,-1.8955421447753906,18.50204849243164
1695712603052971300,1.61497119140625,0.8013381958007812,-1.8081016540527344,17.916017532348633
1695712603062553900,1.624553955078125,1.6949081420898438,-2.611236572265625,17.530620574951172
1695712603072105700,1.634105712890625,2.4001216888427734,-3.710531234741211,17.41353416442871
1695712603081657900,1.643657958984375,0.3985729217529297,-4.056400299072266,17.004480361938477
1695712603091209700,1.653209716796875,-4.3336944580078125,-4.520853042602539,16.10222625732422
1695712603100731100,1.662731201171875,-24.96426010131836,-6.2837371826171875,14.248008728027344
1695712603110283300,1.672283203125,-16.68136978149414,-4.850252151489258,15.944414138793945
1695712603119835100,1.681835205078125,0.4509773254394531,-8.641336441040039,16.485227584838867
1695712603129387300,1.69138720703125,5.759992599487305,-8.81202507019043,12.774097442626953
1695712603138908700,1.70090869140625,-3.7189159393310547,-8.520357131958008,14.934656143188477
1695712603148460800,1.710460693359375,-4.3289031982421875,-9.048892974853516,17.37520408630371
1695712603158012700,1.7200126953125,-1.7601890563964844,-7.041954040527344,15.662029266357422
1695712603167564800,1.729564697265625,-3.3616676330566406,-3.9593772888183594,11.343307495117188
1695712603177086200,1.739086181640625,0.17458152770996094,-3.298482894897461,8.328706741333008
1695712603186638300,1.748638427734375,3.3269309997558594,-4.601406097412109,8.864728927612305
1695712603196190200,1.758190185546875,3.868043899536133,-6.222049713134766,10.539573669433594
1695712603205742300,1.767742431640625,3.193674087524414,-7.231508255004883,10.65186882019043
1695712603215294200,1.777294189453125,1.7901344299316406,-6.722137451171875,9.134836196899414
1695712603224815600,1.786815673828125,0.7513294219970703,-5.281465530395508,7.213541030883789
1695712603234367700,1.79636767578125,-0.8857841491699219,-3.2652435302734375,5.711181640625
1695712603243919600,1.805919677734375,-1.8649978637695312,-2.7319164276123047,5.866598129272461
1695712603253471700,1.8154716796875,-1.6197452545166016,-4.26991081237793,6.031597137451172
1695712603262993200,1.8249931640625,-2.029397964477539,-4.926013946533203,4.952665328979492
1695712603272545300,1.834545166015625,-3.702146530151367,-4.167797088623047,3.0768871307373047
1695712603282097200,1.84409716796875,-3.9833335876464844,-4.790960311889648,3.6916656494140625
1695712603291649300,1.853649169921875,0.1030120849609375,-6.992244720458984,5.6417083740234375
1695712603301170700,1.863170654296875,3.574878692626953,-7.316852569580078,7.737585067749023
1695712603310722800,1.872722900390625,3.308065414428711,-7.075193405151367,9.505859375
1695712603320274700,1.882274658203125,1.911712646484375,-7.186590194702148,10.051464080810547
1695712603329826800,1.891826904296875,1.084920883178711,-6.461612701416016,9.934078216552734
1695712603339348200,1.90134814453125,0.4342079162597656,-5.317100524902344,9.972408294677734
1695712603348930800,1.910930908203125,0.4725379943847656,-5.276674270629883,10.436561584472656
1695712603358482700,1.920482666015625,0.8321819305419922,-6.667636871337891,10.967792510986328
1695712603368034800,1.930034912109375,1.0085601806640625,-8.238571166992188,12.55879020690918
1695712603377586700,1.939586669921875,0.8345775604248047,-8.186466217041016,10.453330993652344
1695712603387108000,1.949108154296875,-0.7046146392822266,-6.914087295532227,7.744771957397461
1695712603396660200,1.95866015625,2.619321823120117,-8.695837020874023,8.259233474731445
1695712603406212000,1.968212158203125,4.742448806762695,-10.200292587280273,7.366861343383789
1695712603415764200,1.97776416015625,0.3961772918701172,-6.7245330810546875,5.211093902587891
1695712603425285600,1.98728564453125,-0.8929710388183594,-6.501739501953125,3.177204132080078
1695712603434837800,1.996837646484375,-0.4186363220214844,-7.250373840332031,2.6199207305908203
1695712603444389600,2.0063896484375,0.21261215209960938,-7.3713531494140625,3.930929183959961
1695712603453941800,2.015941650390625,2.209369659423828,-6.994640350341797,5.5890045166015625
1695712603463463200,2.025463134765625,1.8973388671875,-6.482873916625977,6.313982009887695
1695712603473015300,2.035015380859375,1.942556381225586,-6.665241241455078,6.464906692504883
1695712603482567200,2.044567138671875,4.830488204956055,-7.613012313842773,7.4623870849609375
1695712603492119300,2.054119384765625,5.507253646850586,-8.098726272583008,9.304925918579102
1695712603501671200,2.063671142578125,3.784496307373047,-3.0565242767333984,5.235050201416016
1695712603511284200,2.0732841796875,-5.146112442016602,-1.0355110168457031,1.1364269256591797
1695712603520897300,2.082897216796875,-3.6617202758789062,-2.3363380432128906,-0.45487022399902344
1695712603530510300,2.09251025390625,0.3033466339111328,-4.634645462036133,1.478403091430664
1695712603540123400,2.102123291015625,1.8949432373046875,-7.281217575073242,4.655906677246094
1695712603549736400,2.111736328125,2.743295669555664,-9.349843978881836,5.668060302734375
1695712603559349500,2.121349609375,1.430490493774414,-6.359498977661133,5.5770263671875
1695712603568962600,2.130962646484375,1.0441951751708984,-4.13006591796875,6.311586380004883
1695712603587517200,2.14951708984375,3.8940963745117188,-6.226840972900391,5.239841461181641
1695712603606590700,2.1685908203125,0.8321819305419922,-7.075193405151367,7.149158477783203
1695712603616173000,2.178173095703125,0.22459030151367188,-7.966068267822266,7.192279815673828
1695712603625725200,2.18772509765625,0.22219467163085938,-8.155622482299805,6.696983337402344
1695712603635307800,2.197307861328125,0.550994873046875,-7.359375,5.955236434936523
1695712603644859600,2.206859619140625,0.3770122528076172,-7.191082000732422,5.208698272705078
1695712603654411800,2.216411865234375,0.16499900817871094,-7.243486404418945,4.971830368041992
1695712603663963600,2.225963623046875,-0.20662307739257812,-7.06800651550293,4.198940277099609
1695712603673485000,2.235485107421875,-0.9190235137939453,-6.816764831542969,3.7060394287109375
1695712603683037200,2.245037109375,-0.4734363555908203,-6.245706558227539,3.591348648071289
1695712603692589000,2.254589111328125,0.4129467010498047,-4.790960311889648,3.162830352783203
1695712603702141200,2.26414111328125,0.5917205810546875,-4.1132965087890625,2.8615798950195312
1695712603711662600,2.27366259765625,1.3017253875732422,-4.70112419128418,1.4164161682128906
1695712603721214700,2.283214599609375,0.119781494140625,-6.018421173095703,0.7034168243408203
1695712603730766600,2.2927666015625,-0.35664939880371094,-7.468376159667969,1.86859130859375
1695712603740318700,2.302318603515625,1.02532958984375,-8.871017456054688,2.6247119903564453
1695712603749840100,2.311840087890625,0.9633426666259766,-9.961029052734375,3.969259262084961
1695712603759392300,2.321392333984375,0.7609119415283203,-11.965572357177734,4.97901725769043
1695712603768944000,2.330944091796875,-0.6189708709716797,-13.460744857788086,6.517311096191406
1695712603778496300,2.340496337890625,-1.2337493896484375,-14.05755615234375,6.792509078979492
1695712603788048100,2.350048095703125,-1.7697715759277344,-13.747322082519531,6.83802604675293
1695712603797569500,2.359569580078125,-2.3081893920898438,-13.15500259399414,5.859411239624023
1695712603807121700,2.36912158203125,-2.5965633392333984,-11.067510604858398,4.47892951965332
1695712603816673500,2.378673583984375,-3.266141891479492,-11.046249389648438,6.010036468505859
1695712603826225700,2.3882255859375,-3.0421504974365234,-9.953842163085938,6.888334274291992
1695712603835747000,2.3977470703125,-0.7261753082275391,-7.826223373413086,6.168148040771484
1695712603845299200,2.40729931640625,0.7725906372070312,-6.397529602050781,5.56744384765625
1695712603854851000,2.41685107421875,1.3517341613769531,-5.51384162902832,3.359272003173828
1695712603864403200,2.4264033203125,-0.37581443786621094,-5.452154159545898,1.4712162017822266
1695712603873924600,2.435924560546875,-2.718141555786133,-7.136880874633789,3.1460609436035156
1695712603883476700,2.445476806640625,-1.1502017974853516,-8.525148391723633,4.196544647216797
1695712603893028600,2.455028564453125,-0.4806232452392578,-9.176759719848633,4.088741302490234
1695712603902580700,2.464580810546875,-0.3282012939453125,-9.5250244140625,4.897565841674805
1695712603912102100,2.47410205078125,-0.10900115966796875,-9.631629943847656,5.115268707275391
1695712603921684700,2.483684814453125,0.6917381286621094,-9.873289108276367,4.890378952026367
1695712603931236600,2.493236572265625,0.7585163116455078,-9.40434455871582,4.081554412841797
1695712603940788700,2.502788818359375,-0.5474014282226562,-8.724285125732422,3.0864696502685547
1695712603950340600,2.512340576171875,-2.668132781982422,-8.326311111450195,1.990468978881836
1695712603959862000,2.521862060546875,-4.326507568359375,-8.399677276611328,1.0022716522216797
1695712603969414100,2.5314140625,-4.32171630859375,-8.700628280639648,0.3395805358886719
1695712603978966000,2.540966064453125,-3.614107131958008,-8.781181335449219,-0.39977073669433594
1695712603988518100,2.55051806640625,-3.132884979248047,-8.373624801635742,-1.5002632141113281
1695712603998039600,2.56003955078125,-2.479776382446289,-7.752857208251953,-2.141693115234375
1695712604007591700,2.569591796875,-2.5157108306884766,-7.399801254272461,-1.832956314086914
1695712604017143600,2.5791435546875,-2.6348934173583984,-7.918754577636719,-0.9357929229736328
1695712604026695700,2.58869580078125,-2.7681503295898438,-8.96354866027832,0.17697715759277344
1695712604036247600,2.59824755859375,3.7773094177246094,-2.964292526245117,2.7873153686523438
1695712604045769200,2.607769287109375,-2.687297821044922,-0.06647872924804688,3.2514686584472656
1695712604055321000,2.617321044921875,-4.286081314086914,1.5754261016845703,-0.8255939483642578
1695712604064873200,2.626873291015625,1.4781036376953125,-1.537994384765625,1.3134040832519531
1695712604074425000,2.636425048828125,1.6281299591064453,-3.7862930297851562,2.1413936614990234
1695712604083946500,2.645946533203125,-0.1590099334716797,-3.319744110107422,2.5815906524658203
1695712604093498600,2.65549853515625,-1.3193931579589844,0.17757606506347656,2.193798065185547
1695712604103050500,2.665050537109375,0.100616455078125,-1.2298564910888672,2.6795120239257812
1695712604112602600,2.6746025390625,-1.3169975280761719,-2.990345001220703,0.6459217071533203
1695712604122124000,2.6841240234375,-3.409280776977539,-5.219778060913086,-1.2897472381591797
1695712604131676200,2.69367626953125,-1.6457977294921875,-1.9099159240722656,-3.7901859283447266
1695712604141228000,2.70322802734375,1.1445121765136719,-5.449758529663086,-4.369029998779297
1695712604150780200,2.7127802734375,4.31602668762207,-8.366437911987305,-6.223546981811523
1695712604160301600,2.722301513671875,8.735963821411133,-10.179031372070312,-3.3472938537597656
1695712604169853400,2.731853515625,4.361244201660156,-15.003231048583984,0.2868766784667969
1695712604179405600,2.741405517578125,-1.8437366485595703,-16.026763916015625,1.521524429321289
1695712604188957700,2.750957763671875,-3.6401596069335938,-14.962804794311523,1.7512054443359375
1695712604198509600,2.760509521484375,-4.398077011108398,-14.744802474975586,1.0597667694091797
1695712604208061700,2.770061767578125,-3.366159439086914,-17.70669937133789,-1.689218521118164
1695712604217613600,2.779613525390625,3.6464481353759766,-23.286420822143555,-6.120534896850586
1695712604227165700,2.789165771484375,6.3364410400390625,-31.197689056396484,-8.905454635620117
1695712604236717600,2.798717529296875,6.169645309448242,-35.52180099487305,-7.041654586791992
1695712604246239000,2.808239013671875,1.9188995361328125,-25.826387405395508,-1.2538127899169922
1695712604255791000,2.817791015625,0.5941162109375,-13.891958236694336,2.4070091247558594
1695712604265343000,2.827343017578125,-0.6785621643066406,-6.546657562255859,6.074718475341797
1695712604274895000,2.83689501953125,-1.0025711059570312,-7.560907363891602,5.933675765991211
1695712604284416500,2.84641650390625,0.3057422637939453,-9.622346878051758,1.4044380187988281
1695712604293968600,2.85596875,2.3905391693115234,-10.584192276000977,0.4306144714355469
1695712604303520500,2.8655205078125,3.9536876678466797,-10.100873947143555,-0.0119781494140625
1695712604313072600,2.87507275390625,3.338909149169922,-9.461240768432617,-0.6054954528808594
1695712604322624500,2.88462451171875,1.7425212860107422,-9.039310455322266,-0.8016376495361328
1695712604332146000,2.89414599609375,0.6177730560302734,-8.669784545898438,-1.1055831909179688
1695712604341698000,2.903697998046875,0.9441776275634766,-8.063091278076172,-0.5695610046386719
1695712604351250200,2.913250244140625,1.92608642578125,-8.063091278076172,-0.28238487243652344
1695712604360802000,2.922802001953125,2.0380821228027344,-8.605701446533203,0.04282188415527344
1695712604370323500,2.932323486328125,1.48529052734375,-9.001579284667969,0.2964591979980469
1695712604379875600,2.94187548828125,0.7201862335205078,-9.067758560180664,-0.0694732666015625
1695712604389427500,2.951427490234375,0.2961597442626953,-9.056079864501953,-0.42851829528808594
1695712604398979600,2.9609794921875,0.21500778198242188,-8.57246208190918,-0.8375720977783203
1695712604408501000,2.9705009765625,0.24375534057617188,-8.648523330688477,-0.7037162780761719
1695712604418053000,2.98005322265625,0.6581993103027344,-9.1033935546875,-0.7013206481933594
1695712604427605000,2.98960498046875,1.084920883178711,-9.44447135925293,-0.6510124206542969
1695712604437157000,2.9991572265625,1.3849735260009766,-9.591503143310547,-0.5360221862792969
1695712604446678500,3.008678466796875,1.5421867370605469,-9.468128204345703,-0.8208026885986328
1695712604456230400,3.01823046875,1.480499267578125,-10.30689811706543,-0.24884605407714844
1695712604465782500,3.027782470703125,-0.29017066955566406,-10.214666366577148,-0.6054954528808594
1695712604475334400,3.03733447265625,-0.36623191833496094,-10.228740692138672,-1.0696487426757812
1695712604484886500,3.046886474609375,-0.10420989990234375,-10.100873947143555,-1.4239025115966797
1695712604494438400,3.0564384765625,0.034137725830078125,-10.079612731933594,-1.3975505828857422
1695712604503990500,3.065990478515625,-0.07546234130859375,-10.03679084777832,-1.2490215301513672
1695712604513542700,3.075542724609375,-0.10660552978515625,-9.89694595336914,-1.1439132690429688
1695712604523094500,3.085094482421875,0.08414649963378906,-9.79513168334961,-1.0432968139648438
1695712604532616000,3.094615966796875,0.2985553741455078,-9.704996109008789,-0.9474716186523438
1695712604542168000,3.10416796875,0.4389991760253906,-9.69571304321289,-0.8950672149658203
1695712604551720000,3.113719970703125,0.5321292877197266,-9.743026733398438,-0.8615283966064453
1695712604561272000,3.12327197265625,0.6581993103027344,-9.698108673095703,-0.9666366577148438
1695712604570793500,3.13279345703125,0.7917556762695312,-9.669660568237305,-1.2226696014404297
1695712604580345600,3.142345703125,0.9753208160400391,-9.747817993164062,-1.5984840393066406
1695712604589897500,3.1518974609375,1.1205558776855469,-9.932580947875977,-1.9716033935546875
1695712604599449600,3.16144970703125,1.089712142944336,-10.202688217163086,-2.2468013763427734
1695712604609001500,3.17100146484375,1.010955810546875,-10.45632553100586,-2.301900863647461
1695712604618523000,3.18052294921875,1.010955810546875,-10.636297225952148,-2.1797237396240234
1695712604628075000,3.190074951171875,1.0777339935302734,-10.610244750976562,-1.98358154296875
1695712604637627000,3.199626953125,0.9561557769775391,-10.539274215698242,-1.713174819946289
1695712604647179000,3.209178955078125,0.7417469024658203,-10.605453491210938,-1.3089122772216797
1695712604656700400,3.218700439453125,0.33658599853515625,-10.77853775024414,-0.8998584747314453
1695712604666252500,3.22825244140625,-0.27340126037597656,-10.674327850341797,-0.8088245391845703
1695712604675804400,3.237804443359375,-0.9929885864257812,-10.276054382324219,-0.9642410278320312
1695712604685356500,3.2473564453125,-1.4457626342773438,-10.522504806518555,-1.1534957885742188
1695712604694878000,3.2568779296875,-1.300527572631836,-10.726432800292969,-1.5601539611816406
1695712604704430000,3.26643017578125,-0.8762016296386719,-10.712059020996094,-2.186910629272461
1695712604713982000,3.27598193359375,-0.5354232788085938,-10.539274215698242,-2.828340530395508
1695712604723534000,3.2855341796875,-0.1422405242919922,-10.441951751708984,-3.4335365295410156
1695712604733055500,3.295055419921875,0.19135093688964844,-10.799798965454102,-3.9024810791015625
1695712604742607400,3.304607421875,0.5677642822265625,-11.626590728759766,-4.196844100952148
1695712604752159500,3.314159423828125,1.0441951751708984,-12.529443740844727,-4.354656219482422
1695712604761711400,3.32371142578125,1.2897472381591797,-13.05318832397461,-4.261526107788086
1695712604771263500,3.333263427734375,1.1445121765136719,-13.280473709106445,-3.706338882446289
1695712604780815400,3.3428154296875,0.8633251190185547,-13.368213653564453,-2.8546924591064453
1695712604790367500,3.352367431640625,0.8085250854492188,-13.090919494628906,-1.8401432037353516
1695712604799919400,3.36191943359375,0.9657382965087891,-12.373128890991211,-0.9262104034423828
1695712604809471500,3.371471435546875,0.9657382965087891,-11.30916976928711,-0.04791259765625
1695712604818993000,3.380992919921875,0.7917556762695312,-9.890058517456055,0.8276901245117188
1695712604828545000,3.390544921875,0.6701774597167969,-8.506282806396484,1.5718326568603516
1695712604838097000,3.400096923828125,0.2509422302246094,-7.828619003295898,2.193798065185547
1695712604847649000,3.40964892578125,-0.36623191833496094,-7.93043327331543,2.6771163940429688
1695712604857170400,3.41917041015625,-1.0621623992919922,-8.586835861206055,2.9283580780029297
1695712604866722600,3.42872265625,-1.741323471069336,-9.553472518920898,2.8519973754882812
1695712604876274400,3.4382744140625,-2.2557849884033203,-10.849508285522461,2.416292190551758
1695712604885826600,3.44782666015625,-2.186910629272461,-12.18117904663086,1.526315689086914
1695712604895378400,3.45737841796875,-2.4561195373535156,-12.965448379516602,0.9902935028076172
1695712604904899800,3.46689990234375,-2.3129806518554688,-13.199920654296875,0.4737358093261719
1695712604914452000,3.476451904296875,-1.231353759765625,-13.173868179321289,0.2916679382324219
1695712604924003800,3.48600390625,-0.31622314453125,-12.761520385742188,0.3994712829589844
1695712604933556000,3.495555908203125,0.024555206298828125,-11.846988677978516,0.6387348175048828
1695712604943077400,3.505077392578125,0.4773292541503906,-11.31875228881836,0.8109207153320312
1695712604952629500,3.51462939453125,0.9846038818359375,-10.975278854370117,0.9594497680664062
1695712604962181400,3.524181396484375,1.1085777282714844,-10.785724639892578,1.1292400360107422
1695712604971733500,3.5337333984375,0.114990234375,-10.68840217590332,0.9283065795898438
1695712604981255000,3.5432548828125,-1.0977973937988281,-10.110456466674805,0.07396507263183594
1695712604990807000,3.55280712890625,-2.2749500274658203,-9.212394714355469,-0.46205711364746094
1695712605000359000,3.56235888671875,-2.9277591705322266,-8.299959182739258,-0.35185813903808594
1695712605009911000,3.5719111328125,-3.3329200744628906,-7.631877899169922,0.04521751403808594
1695712605019432400,3.581432373046875,-3.163728713989258,-7.245582580566406,0.4473838806152344
1695712605028984300,3.590984375,-2.622915267944336,-7.259956359863281,0.7989425659179688
1695712605038536400,3.600536376953125,-2.0557498931884766,-7.345300674438477,0.9474716186523438
1695712605048088300,3.61008837890625,-1.717367172241211,-7.295591354370117,0.9211196899414062
1695712605057640400,3.619640380859375,-1.7841453552246094,-7.06800651550293,0.7390518188476562
1695712605067192300,3.6291923828125,-1.8078022003173828,-6.85719108581543,0.6267566680908203
1695712605076744400,3.638744384765625,-1.7721672058105469,-6.7197418212890625,0.5860309600830078
1695712605086296300,3.64829638671875,-1.9698066711425781,-6.459217071533203,0.5668659210205078
1695712605095848400,3.657848388671875,-2.0057411193847656,-5.999555587768555,0.4545707702636719
1695712605105369900,3.667369873046875,-1.9913673400878906,-5.598886489868164,0.3204154968261719
1695712605114922000,3.676921875,-2.1413936614990234,-5.198516845703125,0.24884605407714844
1695712605124473900,3.686473876953125,-2.4109020233154297,-4.836177825927734,0.23926353454589844
1695712605134026000,3.69602587890625,-2.849302291870117,-4.523248672485352,0.3874931335449219
1695712605143547400,3.70554736328125,-3.2781200408935547,-4.378911972045898,0.6578998565673828
1695712605153099500,3.715099609375,-3.585359573364258,-4.265119552612305,0.8396682739257812
1695712605162651400,3.7246513671875,-3.785694122314453,-4.383403778076172,1.0813274383544922
1695712605172203500,3.73420361328125,-3.90966796875,-4.708011627197266,1.2059001922607422
1695712605181755400,3.74375537109375,-3.976146697998047,-5.023336410522461,0.9831066131591797
1695712605191276800,3.75327685546875,-3.8476810455322266,-5.362018585205078,0.6578998565673828
1695712605200829000,3.762828857421875,-3.806955337524414,-5.798023223876953,0.3635368347167969
1695712605210380800,3.772380859375,-4.266916275024414,-6.433164596557617,0.21051597595214844
1695712605219933000,3.781932861328125,-4.61488151550293,-7.186590194702148,-0.038330078125
1695712605229454300,3.791454345703125,-5.324886322021484,-8.205331802368164,-0.4833183288574219
1695712605239006500,3.80100634765625,-6.323265075683594,-9.537002563476562,-0.9953842163085938
1695712605248558300,3.810558349609375,-7.426752090454102,-11.396909713745117,-1.799417495727539
1695712605258110500,3.8201103515625,-8.007991790771484,-13.960533142089844,-2.9406356811523438
1695712605267631900,3.8296318359375,-8.43441390991211,-16.79426383972168,-3.9312286376953125
1695712605277184000,3.83918408203125,-8.918331146240234,-19.118623733520508,-3.971954345703125
1695712605286736000,3.84873583984375,-8.980318069458008,-20.0948429107666,-2.804384231567383
1695712605296288000,3.8582880859375,-7.676795959472656,-18.642492294311523,-0.7345600128173828
1695712605305839900,3.86783984375,-5.901634216308594,-14.259088516235352,0.9783153533935547
1695712605315361300,3.877361328125,-5.572834014892578,-8.07027816772461,1.801513671875
1695712605324913400,3.886913330078125,-6.809577941894531,-1.9359683990478516,1.77276611328125
1695712605334465300,3.89646533203125,-6.904804229736328,1.9024295806884766,1.9141082763671875
1695712605344017400,3.906017333984375,-3.835702896118164,2.110849380493164,2.507326126098633
1695712605353569300,3.9155693359375,-4.440898895263672,-1.4242019653320312,2.390239715576172
1695712605363121400,3.925121337890625,-7.112026214599609,-6.402320861816406,1.2870521545410156
1695712605372673300,3.93467333984375,-5.875282287597656,-13.079240798950195,0.4258232116699219
1695712605382225400,3.944225341796875,-1.1597843170166016,-20.301166534423828,1.3708992004394531
1695712605391746800,3.953746826171875,2.659748077392578,-24.1961612701416,2.7825241088867188
1695712605401299000,3.963298828125,1.2133865356445312,-20.867433547973633,1.3469429016113281
1695712605410850800,3.972850830078125,-2.9277591705322266,-16.019577026367188,-0.47643089294433594
1695712605420403000,3.98240283203125,-5.406038284301758,-8.437408447265625,-1.6224403381347656
1695712605429954800,3.991954833984375,-3.3137550354003906,-2.379159927368164,-2.301900863647461
1695712605439476500,4.0014765625,-0.5117664337158203,-0.3129291534423828,-2.5363731384277344
1695712605449028400,4.0110283203125,1.060964584350586,-0.32700347900390625,-0.9642410278320312
1695712605458580500,4.02058056640625,5.068853378295898,-2.082700729370117,1.4140205383300781
1695712605468132400,4.03013232421875,6.586784362792969,-6.132213592529297,2.636690139770508
1695712605477653800,4.03965380859375,3.124500274658203,-10.889934539794922,1.2607002258300781
1695712605487206000,4.049205810546875,-0.8953666687011719,-15.585968017578125,-1.3017253875732422
1695712605496757800,4.0587578125,-2.7657546997070312,-17.671064376831055,-3.986328125
1695712605506310000,4.068309814453125,-2.062936782836914,-16.27081871032715,-5.445865631103516
1695712605515831300,4.077831298828125,-0.7857666015625,-12.882499694824219,-4.450481414794922
1695712605525383400,4.087383544921875,-0.4973926544189453,-9.392366409301758,-1.8449344635009766
1695712605534935300,4.096935302734375,-1.7793540954589844,-7.465980529785156,0.6674823760986328
1695712605544487400,4.1064873046875,-2.844511032104492,-6.594270706176758,2.179424285888672
1695712605554008800,4.1160087890625,-2.8777503967285156,-6.316976547241211,2.347118377685547
1695712605563561000,4.12556103515625,-1.4694194793701172,-6.767055511474609,1.2894477844238281
1695712605573112800,4.13511279296875,0.5081729888916016,-8.136756896972656,-0.34946250915527344
1695712605582665000,4.1446650390625,2.278543472290039,-9.648399353027344,-1.6916141510009766
1695712605592216800,4.154216796875,3.3056697845458984,-10.88753890991211,-2.486064910888672
1695712605601738200,4.16373828125,2.481273651123047,-11.081884384155273,-2.634593963623047
1695712605611290400,4.173290283203125,0.4294166564941406,-9.996664047241211,-2.529186248779297
1695712605620842200,4.18284228515625,-0.6045970916748047,-8.444595336914062,-2.146484375
1695712605630394400,4.192394287109375,-0.4473838806152344,-7.482749938964844,-1.3783855438232422
1695712605639946200,4.2019462890625,0.4270210266113281,-7.181798934936523,-0.5575828552246094
1695712605649498400,4.211498291015625,1.1801471710205078,-7.530063629150391,0.12427330017089844
1695712605659050200,4.22105029296875,1.2897472381591797,-8.255041122436523,0.6195697784423828
1695712605668602400,4.230602294921875,1.034912109375,-8.676971435546875,0.6099872589111328
1695712605678123800,4.240123779296875,0.7893600463867188,-8.788068771362305,0.3635368347167969
1695712605687676000,4.249676025390625,0.6057949066162109,-8.59162712097168,0.05959129333496094
1695712605697227800,4.259227783203125,0.32939910888671875,-8.319124221801758,-0.1605072021484375
1695712605706780000,4.26877978515625,-0.08264923095703125,-8.207727432250977,-0.25603294372558594
1695712605716331800,4.278331787109375,-0.3377838134765625,-8.408960342407227,-0.29915428161621094
1695712605725853400,4.287853515625,-0.21620559692382812,-8.551200866699219,-0.39737510681152344
1695712605735405300,4.2974052734375,-0.25184059143066406,-8.584440231323242,-0.5480003356933594
1695712605744957400,4.30695751953125,-0.37102317810058594,-9.03451919555664,-0.8255939483642578
1695712605754509300,4.31650927734375,-0.39497947692871094,-9.702899932861328,-1.1127700805664062
1695712605764030700,4.32603076171875,-0.5545883178710938,-10.171844482421875,-1.3496379852294922
1695712605773582800,4.335582763671875,-0.7453403472900391,-10.200292587280273,-1.3688030242919922
1695712605783134700,4.345134765625,-0.5545883178710938,-10.027507781982422,-1.1726608276367188
1695712605792686800,4.354686767578125,0.007785797119140625,-9.901737213134766,-0.9094409942626953
1695712605802208300,4.364208251953125,0.2533378601074219,-9.977499008178711,-0.9094409942626953
1695712605811760400,4.373760498046875,0.1461334228515625,-10.155374526977539,-1.0049667358398438
1695712605821312300,4.383312255859375,0.1269683837890625,-10.503639221191406,-0.9929885864257812
1695712605830864400,4.392864501953125,0.23896408081054688,-10.742902755737305,-0.9474716186523438
1695712605840385800,4.4023857421875,0.56536865234375,-10.773746490478516,-1.1942214965820312
1695712605849938000,4.41193798828125,1.2301559448242188,-10.645879745483398,-1.717966079711914
1695712605859489800,4.42148974609375,1.6401081085205078,-10.562931060791016,-2.108154296875
1695712605869042000,4.4310419921875,1.094503402709961,-10.74769401550293,-2.1557674407958984
1695712605878593800,4.44059375,-0.26861000061035156,-11.351991653442383,-1.8976383209228516
1695712605888115200,4.450115234375,-1.652984619140625,-11.877832412719727,-1.5601539611816406
1695712605897667300,4.459667236328125,-1.9817848205566406,-12.076969146728516,-1.5649452209472656
1695712605907219200,4.46921923828125,-1.4694194793701172,-12.358755111694336,-1.9380645751953125
1695712605916771300,4.478771240234375,-0.75701904296875,-12.839977264404297,-2.423778533935547
1695712605926323200,4.4883232421875,-0.09462738037109375,-13.08403205871582,-2.9142837524414062
1695712605935875300,4.497875244140625,0.4581642150878906,-12.882499694824219,-3.2829113006591797
1695712605945427200,4.50742724609375,1.2017078399658203,-13.007970809936523,-3.285306930541992
1695712605954979300,4.516979248046875,1.976095199584961,-13.508058547973633,-2.9885482788085938
1695712605964500700,4.526500732421875,1.878173828125,-13.853927612304688,-2.11773681640625
1695712605974052900,4.536052978515625,1.1825428009033203,-13.08403205871582,-0.8806934356689453
1695712605983604700,4.545604736328125,0.6869468688964844,-11.503515243530273,0.19135093688964844
1695712605993156900,4.555156982421875,0.4797248840332031,-10.434764862060547,1.4259986877441406
1695712606002708700,4.564708740234375,0.4749336242675781,-10.091291427612305,2.8352279663085938
1695712606012230400,4.57423046875,0.7845687866210938,-9.973007202148438,3.718017578125
1695712606021782300,4.5837822265625,1.0133514404296875,-10.131717681884766,3.883016586303711
1695712606031334400,4.59333447265625,0.3746166229248047,-10.51771354675293,3.655731201171875
1695712606040886300,4.60288623046875,-0.8594322204589844,-11.548433303833008,3.2323036193847656
1695712606050407700,4.61240771484375,-2.489358901977539,-12.880104064941406,2.7441940307617188
1695712606059959800,4.621959716796875,-4.34088134765625,-13.780561447143555,2.0934810638427734
1695712606069511700,4.63151171875,-5.353633880615234,-14.259088516235352,1.3661079406738281
1695712606079063800,4.641063720703125,-4.700525283813477,-14.543569564819336,0.7129993438720703
1695712606088585200,4.650585205078125,-3.049337387084961,-13.77577018737793,-0.0742645263671875
1695712606098137300,4.660137451171875,-0.8929710388183594,-12.745050430297852,-0.46445274353027344
1695712606107689200,4.669689208984375,1.094503402709961,-12.03175163269043,-0.6869468688964844
1695712606117241300,4.679241455078125,3.2604522705078125,-11.487045288085938,-0.5839347839355469
1695712606126793200,4.688793212890625,3.629678726196289,-11.214542388916016,-0.158111572265625
1695712606136314600,4.698314697265625,2.9053001403808594,-10.164657592773438,-0.42612266540527344
1695712606145866800,4.70786669921875,1.0373077392578125,-8.74315071105957,-0.8399677276611328
1695712606155418600,4.717418701171875,-1.0786323547363281,-7.392614364624023,-0.8160114288330078
1695712606164970800,4.726970703125,-2.1797237396240234,-6.359498977661133,-0.40695762634277344
1695712606174492200,4.7364921875,-2.839719772338867,-6.184318542480469,0.2892723083496094
1695712606184044300,4.746044189453125,-2.7705459594726562,-6.165153503417969,0.8779983520507812
1695712606193596200,4.75559619140625,-2.1105499267578125,-6.309789657592773,1.3924598693847656
1695712606203148300,4.765148193359375,-1.4122238159179688,-6.475687026977539,1.971303939819336
1695712606212700200,4.7747001953125,-1.0453929901123047,-6.579896926879883,2.327953338623047
1695712606222252300,4.784252197265625,-0.9238147735595703,-6.610740661621094,2.3447227478027344
1695712606231804200,4.79380419921875,-0.752227783203125,-6.321767807006836,1.86859130859375
1695712606241356300,4.803356201171875,-0.6833534240722656,-5.883367538452148,1.4283943176269531
1695712606250877700,4.812877685546875,-0.7381534576416016,-5.29344367980957,1.0382061004638672
1695712606260429800,4.822429931640625,-0.8166103363037109,-4.736459732055664,0.6626911163330078
1695712606269981700,4.831981689453125,-1.1885318756103516,-4.374120712280273,0.5333271026611328
1695712606279533800,4.841533935546875,-1.8197803497314453,-4.104013442993164,0.4545707702636719
1695712606289085700,4.851085693359375,-2.4061107635498047,-3.9072723388671875,0.3827018737792969
1695712606298607000,4.860607177734375,-2.6801109313964844,-3.847980499267578,0.4210319519042969
1695712606308159200,4.8701591796875,-2.7681503295898438,-3.883615493774414,0.5716571807861328
1695712606317711400,4.87971142578125,-2.7968978881835938,-4.089639663696289,0.8013381958007812
1695712606327263200,4.88926318359375,-2.904102325439453,-4.326807022094727,0.9402847290039062
1695712606336784600,4.89878466796875,-3.1852893829345703,-4.577749252319336,0.8540420532226562
1695712606346336800,4.908336669921875,-3.697355270385742,-4.964044570922852,0.6794605255126953
1695712606355888600,4.917888671875,-4.305246353149414,-5.527915954589844,0.4689445495605469
1695712606365440800,4.927440673828125,-5.096103668212891,-6.475687026977539,0.20812034606933594
1695712606374962200,4.936962158203125,-6.1447906494140625,-7.901985168457031,-0.071868896484375
1695712606384514300,4.946514404296875,-7.27882194519043,-9.83555793762207,-0.5503959655761719
1695712606394066200,4.956066162109375,-8.534730911254883,-12.439308166503906,-1.4283943176269531
1695712606403618300,4.965618408203125,-9.397157669067383,-15.529071807861328,-2.7924060821533203
1695712606413170200,4.975170166015625,-9.411531448364258,-18.73023223876953,-3.5197792053222656
1695712606422691600,4.984691650390625,-9.887962341308594,-20.73687171936035,-3.1083297729492188
1695712606432243700,4.99424365234375,-10.56951904296875,-20.68476676940918,-1.6511878967285156
1695712606441795600,5.003795654296875,-9.273183822631836,-17.80611801147461,0.3587455749511719
1695712606451347700,5.01334765625,-5.963621139526367,-12.51297378540039,1.6532840728759766
1695712606460869000,5.022869140625,-4.050111770629883,-6.184318542480469,2.4857654571533203
1695712606470421200,5.032421142578125,-4.810125350952148,-0.9905929565429688,3.093656539916992
1695712606479973000,5.04197314453125,-5.589303970336914,1.4807987213134766,3.4500064849853516
1695712606489525200,5.051525146484375,-5.642007827758789,1.1064815521240234,3.2993812561035156
1695712606499077000,5.0610771484375,-6.525995254516602,-2.1207313537597656,1.8039093017578125
1695712606508629200,5.070629150390625,-8.086748123168945,-7.970859527587891,0.5333271026611328
1695712606518181000,5.08018115234375,-7.929235458374023,-15.486549377441406,0.07636070251464844
1695712606527733200,5.089733154296875,-3.8237247467041016,-22.2889404296875,0.4737358093261719
1695712606537285000,5.09928515625,3.8012657165527344,-25.923709869384766,1.4212074279785156
1695712606546806800,5.108806884765625,7.732793807983398,-23.859874725341797,2.067129135131836
1695712606556358700,5.118358642578125,1.5137386322021484,-15.557519912719727,2.404613494873047
1695712606565910800,5.127910888671875,-7.645952224731445,-5.584812164306641,-0.8591327667236328
1695712606575462700,5.137462646484375,-3.7045421600341797,0.8669185638427734,-4.323513031005859
1695712606584984000,5.146984130859375,5.645601272583008,3.0469417572021484,-2.7540760040283203
1695712606594536200,5.1565361328125,6.97996711730957,1.6251354217529297,1.1484050750732422
1695712606604088000,5.166088134765625,3.4628829956054688,-2.0497608184814453,2.7992935180664062
1695712606613640200,5.17564013671875,0.4389991760253906,-7.437532424926758,1.521524429321289
1695712606623161600,5.18516162109375,-0.13056182861328125,-13.28526496887207,-0.39018821716308594
1695712606632713700,5.194713623046875,0.34137725830078125,-17.261112213134766,-2.414196014404297
1695712606642265600,5.204265625,0.6629905700683594,-18.028911590576172,-3.84259033203125
1695712606651817700,5.213817626953125,0.2533378601074219,-16.521760940551758,-3.90966796875
1695712606661339100,5.223339111328125,-0.9073448181152344,-13.199920654296875,-2.2084712982177734
1695712606670891300,5.232891357421875,-2.198589324951172,-9.612764358520508,0.3060417175292969
1695712606680443100,5.242443115234375,-2.973276138305664,-7.406988143920898,2.2584800720214844
1695712606689995300,5.251995361328125,-3.039754867553711,-6.264871597290039,3.509897232055664
1695712606699547100,5.261547119140625,-2.4109020233154297,-5.94505500793457,3.2418861389160156
1695712606709068500,5.271068603515625,-0.790557861328125,-6.260080337524414,1.5814151763916016
1695712606718620700,5.28062060546875,1.075338363647461,-7.409084320068359,-0.0790557861328125
1695712606728172500,5.290172607421875,2.6813087463378906,-9.198020935058594,-1.2035045623779297
1695712606737724700,5.299724609375,3.353282928466797,-10.702775955200195,-1.722757339477539
1695712606747246000,5.30924609375,2.4645042419433594,-11.384931564331055,-1.789834976196289
1695712606756798200,5.318798095703125,0.6821556091308594,-10.572214126586914,-1.789834976196289
1695712606766350000,5.32835009765625,-0.23776626586914062,-9.058176040649414,-1.717966079711914
1695712606775902200,5.337902099609375,-0.6045970916748047,-7.615407943725586,-1.3783855438232422
1695712606785484500,5.347484619140625,-0.340179443359375,-7.079984664916992,-0.6773643493652344
1695712606795006200,5.357006103515625,0.3057422637939453,-7.193477630615234,-0.0646820068359375
1695712606804558000,5.36655810546875,0.9109382629394531,-7.705543518066406,0.2533378601074219
1695712606814110200,5.376110107421875,1.1061820983886719,-8.214914321899414,0.2677116394042969
1695712606823662000,5.385662109375,0.9061470031738281,-8.598514556884766,0.07875633239746094
1695712606833183700,5.395183837890625,0.3794078826904297,-8.515865325927734,-0.25603294372558594
1695712606842735600,5.404735595703125,-0.20422744750976562,-8.228988647460938,-0.5839347839355469
1695712606852287700,5.414287841796875,-0.6689796447753906,-8.089143753051758,-0.7417469024658203
1695712606861839600,5.423839599609375,-0.6737709045410156,-8.122383117675781,-0.7297687530517578
1695712606871361000,5.433361083984375,-0.5902233123779297,-8.276302337646484,-0.6510124206542969
1695712606880913200,5.4429130859375,-0.29256629943847656,-8.695837020874023,-0.5695610046386719
1695712606890465000,5.452465087890625,-0.12577056884765625,-8.999183654785156,-0.5791435241699219
1695712606900017200,5.46201708984375,-0.27579689025878906,-9.387575149536133,-0.5599784851074219
1695712606909538600,5.47153857421875,-0.4710407257080078,-9.681339263916016,-0.5959129333496094
1695712606919090700,5.481090576171875,-0.5974102020263672,-9.799922943115234,-0.5456047058105469
1695712606928642600,5.490642578125,-0.4186363220214844,-9.797527313232422,-0.38539695739746094
1695712606938194700,5.500194580078125,-0.10181427001953125,-9.854423522949219,-0.26801109313964844
1695712606947716000,5.509716064453125,0.05060768127441406,-9.996664047241211,-0.41654014587402344
1695712606957268200,5.519268310546875,0.148529052734375,-10.44674301147461,-0.5072746276855469
1695712606966820000,5.528820068359375,0.19853782653808594,-11.091167449951172,-0.38539695739746094
1695712606976372200,5.538372314453125,0.15541648864746094,-11.33043098449707,-0.39977073669433594
1695712606985924000,5.547924072265625,0.20572471618652344,-11.020196914672852,-0.7752857208251953
1695712606995445500,5.557445556640625,0.541412353515625,-10.73811149597168,-1.1630783081054688
1695712607004997600,5.56699755859375,0.6105861663818359,-10.731224060058594,-1.3592205047607422
1695712607014549500,5.576549560546875,0.08175086975097656,-11.133989334106445,-1.3041210174560547
1695712607024101600,5.5861015625,-0.8857841491699219,-11.9014892578125,-1.0720443725585938
1695712607033623000,5.595623046875,-1.612558364868164,-12.323419570922852,-1.0049667358398438
1695712607043175200,5.605175048828125,-1.6005802154541016,-12.301858901977539,-1.4331855773925781
1695712607052727000,5.61472705078125,-0.9881973266601562,-12.759424209594727,-1.98358154296875
1695712607062279200,5.624279052734375,0.019763946533203125,-13.889562606811523,-2.345022201538086
1695712607071831000,5.6338310546875,0.9941864013671875,-14.491165161132812,-2.679811477661133
1695712607081383200,5.643383056640625,1.9877738952636719,-14.747198104858398,-3.0843734741210938
1695712607090935000,5.65293505859375,2.878948211669922,-15.085880279541016,-3.0915603637695312
1695712607100487200,5.662487060546875,2.5717086791992188,-14.984066009521484,-1.950042724609375
1695712607110039000,5.6720390625,1.6877212524414062,-13.898845672607422,-0.38539695739746094
1695712607119560700,5.681560791015625,1.0965995788574219,-12.064990997314453,0.8372726440429688
1695712607129112600,5.691112548828125,0.8037338256835938,-10.693193435668945,2.425874710083008
1695712607138664700,5.700664794921875,0.8202037811279297,-10.010738372802734,4.100719451904297
1695712607148216600,5.710216552734375,1.2205734252929688,-9.446866989135742,4.562477111816406
1695712607157738000,5.719738037109375,1.6185474395751953,-9.631629943847656,4.292369842529297
1695712607167290000,5.7292900390625,1.1445121765136719,-10.12692642211914,3.741973876953125
1695712607176842000,5.738842041015625,-0.006587982177734375,-11.067510604858398,3.1843910217285156
1695712607186394000,5.74839404296875,-1.7721672058105469,-12.49380874633789,3.0098094940185547
1695712607195915500,5.75791552734375,-4.040529251098633,-13.51524543762207,2.7274246215820312
1695712607205467600,5.767467529296875,-5.861207962036133,-14.000959396362305,2.1413936614990234
1695712607215019500,5.77701953125,-5.82048225402832,-13.913219451904297,1.6676578521728516
1695712607224571600,5.786571533203125,-4.136054992675781,-13.538902282714844,1.5622501373291016
1695712607234093000,5.796093017578125,-1.8078022003173828,-13.358631134033203,1.7943267822265625
1695712607243645200,5.805645263671875,0.7654037475585938,-13.029531478881836,1.892547607421875
1695712607253197000,5.815197021484375,4.182470321655273,-12.730976104736328,2.009634017944336
1695712607262749200,5.824749267578125,5.614458084106445,-12.19285774230957,1.90692138671875
1695712607272301000,5.834301025390625,3.8869094848632812,-10.24551010131836,0.6459217071533203
1695712607281822500,5.843822509765625,0.9085426330566406,-8.072673797607422,-0.38539695739746094
1695712607291374600,5.85337451171875,-1.6745452880859375,-6.909296035766602,-0.32790184020996094
1695712607300926500,5.862926513671875,-2.544158935546875,-6.210371017456055,0.07396507263183594
1695712607310478600,5.872478515625,-2.3369369506835938,-5.873785018920898,0.5117664337158203
1695712607320000000,5.882,-1.722158432006836,-5.539894104003906,0.8779983520507812
1695712607329552100,5.89155224609375,-1.0930061340332031,-5.4308929443359375,1.3421516418457031
1695712607339104000,5.90110400390625,-0.7594146728515625,-5.442571640014648,1.7751617431640625
1695712607348656000,5.91065625,-0.7237796783447266,-5.489885330200195,2.1653499603271484
1695712607358238500,5.920238525390625,-0.8953666687011719,-5.527915954589844,2.332744598388672
1695712607367760100,5.929760009765625,-1.1549930572509766,-5.518333435058594,2.246501922607422
1695712607377312000,5.93931201171875,-1.1885318756103516,-5.371601104736328,2.076711654663086
1695712607386864000,5.948864013671875,-1.0453929901123047,-5.06346321105957,1.84942626953125
1695712607396416000,5.958416015625,-0.8261928558349609,-4.70112419128418,1.6005802154541016
1695712607405937700,5.967937744140625,-0.8570365905761719,-4.314828872680664,1.3732948303222656
1695712607415489500,5.977489501953125,-1.171762466430664,-3.862354278564453,1.1172618865966797
1695712607425041700,5.987041748046875,-1.6793365478515625,-3.4356327056884766,0.9067459106445312
1695712607434593500,5.996593505859375,-2.1749324798583984,-3.1418685913085938,0.7606124877929688
1695712607444115000,6.006114990234375,-2.568115234375,-2.995136260986328,0.6746692657470703
1695712607453667000,6.0156669921875,-2.849302291870117,-3.1325855255126953,0.7318649291992188
1695712607463219000,6.025218994140625,-3.0373592376708984,-3.535350799560547,0.8588333129882812
1695712607472771000,6.03477099609375,-3.2185287475585938,-4.092035293579102,0.8348770141601562
1695712607482292500,6.04429248046875,-3.578472137451172,-4.91193962097168,0.7153949737548828
1695712607491844600,6.0538447265625,-4.3145294189453125,-6.108556747436523,0.5429096221923828
1695712607501396500,6.063396484375,-5.434486389160156,-7.8121490478515625,0.4210319519042969
1695712607510948600,6.072948486328125,-6.966791152954102,-9.991872787475586,0.2796897888183594
1695712607520500500,6.08250048828125,-9.235153198242188,-12.880104064941406,-0.196441650390625
1695712607530022100,6.092022216796875,-11.0390625,-16.40347671508789,-1.2801647186279297
1695712607539574000,6.101573974609375,-10.379066467285156,-19.315364837646484,-1.7682743072509766
1695712607549126100,6.111126220703125,-9.261505126953125,-20.950382232666016,-0.8830890655517578
1695712607558678000,6.120677978515625,-9.77596664428711,-20.713214874267578,0.5596790313720703
1695712607568199400,6.130199462890625,-10.231136322021484,-17.84864044189453,1.937765121459961
1695712607577751600,6.13975146484375,-7.407587051391602,-13.046001434326172,2.964292526245117
1695712607587303400,6.149303466796875,-4.092933654785156,-7.494428634643555,3.7156219482421875
1695712607596855600,6.15885546875,-3.4377288818359375,-1.9359683990478516,3.626983642578125
1695712607606377000,6.168376953125,-4.7601165771484375,1.5826129913330078,3.1364784240722656
1695712607615929000,6.17792919921875,-5.320095062255859,2.0374832153320312,3.1987648010253906
1695712607625481000,6.18748095703125,-5.22247314453125,-0.5381183624267578,3.4787540435791016
1695712607635033000,6.197033203125,-5.93726921081543,-5.139225006103516,2.6055469512939453
1695712607644615400,6.206615478515625,-7.714826583862305,-11.996416091918945,2.134206771850586
1695712607654137000,6.21613720703125,-8.937196731567383,-19.926549911499023,1.9832820892333984
1695712607663689000,6.22568896484375,-5.544086456298828,-26.352527618408203,2.0264034271240234
1695712607673241000,6.235240966796875,4.14923095703125,-26.89034652709961,2.0982723236083984
1695712607682793000,6.24479296875,9.179155349731445,-20.83419418334961,4.031545639038086
1695712607692314600,6.254314697265625,-0.08025360107421875,-12.162313461303711,3.5218753814697266
1695712607701866500,6.263866455078125,-7.29798698425293,-3.1277942657470703,-1.751504898071289
1695712607711418600,6.273418701171875,0.7561206817626953,2.9331493377685547,-3.5985355377197266
1695712607720970500,6.282970458984375,7.423158645629883,4.298059463500977,-0.38539695739746094
1695712607730492000,6.292491943359375,5.624040603637695,2.5753021240234375,2.6795120239257812
1695712607740044000,6.3020439453125,0.6917381286621094,-1.6586742401123047,3.112821578979492
1695712607749596000,6.311595947265625,-1.9009323120117188,-7.532459259033203,0.8468551635742188
1695712607759148000,6.32114794921875,-1.1906280517578125,-13.825479507446289,-1.1774520874023438
1695712607768669400,6.33066943359375,0.7489337921142578,-17.863014221191406,-2.4070091247558594
1695712607778221600,6.3402216796875,2.407308578491211,-18.817672729492188,-2.8546924591064453
1695712607787773400,6.3497734375,1.2897472381591797,-17.58572006225586,-2.2563838958740234
1695712607797325600,6.35932568359375,-0.5593795776367188,-13.659582138061523,-0.45487022399902344
1695712607806877400,6.36887744140625,-1.9317760467529297,-9.59389877319336,1.5909976959228516
1695712607816399000,6.378399169921875,-2.8873329162597656,-7.15814208984375,3.2945899963378906
1695712607825951000,6.387950927734375,-3.2281112670898438,-6.096578598022461,4.442995071411133
1695712607835503000,6.397503173828125,-2.913684844970703,-5.947450637817383,4.067480087280273
1695712607845055000,6.407054931640625,-2.208171844482422,-5.973503112792969,2.4761829376220703
1695712607854576400,6.416576416015625,-0.8477535247802734,-6.918878555297852,0.9450759887695312
1695712607864128500,6.42612841796875,1.2945384979248047,-8.454177856445312,-0.1461334228515625
1695712607873680400,6.435680419921875,2.867269515991211,-9.79513168334961,-0.8184070587158203
1695712607883232500,6.445232421875,3.1173133850097656,-10.605453491210938,-1.2202739715576172
1695712607892754000,6.45475390625,1.878173828125,-10.423086166381836,-1.3448467254638672
1695712607902306000,6.46430615234375,0.4249248504638672,-9.498971939086914,-1.2250652313232422
1695712607911858000,6.47385791015625,-0.4782276153564453,-8.288280487060547,-0.9381885528564453
1695712607921410000,6.48341015625,-0.7642059326171875,-7.423458099365234,-0.4976921081542969
1695712607930992400,6.492992431640625,-0.1614055633544922,-7.1461639404296875,-0.0503082275390625
1695712607940514000,6.50251416015625,0.7630081176757812,-7.423458099365234,0.2748985290527344
1695712607950066000,6.51206591796875,1.1993122100830078,-7.873537063598633,0.4114494323730469
1695712607959618000,6.5216181640625,1.065755844116211,-8.245458602905273,0.3659324645996094
1695712607969170000,6.531169921875,0.6081905364990234,-8.423334121704102,0.18416404724121094
1695712607978691600,6.540691650390625,0.100616455078125,-8.468252182006836,0.03563499450683594
1695712607988243500,6.550243408203125,-0.40456199645996094,-8.454177856445312,0.023656845092773438
1695712607997795600,6.559795654296875,-0.6045970916748047,-8.473043441772461,0.10271263122558594
1695712608007347500,6.569347412109375,-0.4926013946533203,-8.648523330688477,0.14343833923339844
1695712608016868900,6.578868896484375,-0.38300132751464844,-9.029727935791016,0.15781211853027344
1695712608026421000,6.5884208984375,-0.26861000061035156,-9.437284469604492,0.10989952087402344
1695712608035972900,6.597972900390625,-0.10181427001953125,-9.740631103515625,0.11469078063964844
1695712608045525000,6.60752490234375,-0.020662307739257812,-9.797527313232422,0.3252067565917969
1695712608055046400,6.61704638671875,-0.06617927551269531,-9.778661727905273,0.7486343383789062
1695712608064598500,6.6265986328125,-0.1518230438232422,-9.809505462646484,1.1004924774169922
1695712608074150400,6.636150390625,-0.3473663330078125,-9.95623779296875,1.0549755096435547
1695712608083702500,6.64570263671875,-0.13056182861328125,-10.311689376831055,0.7414474487304688
1695712608093254400,6.65525439453125,0.4081554412841797,-10.939643859863281,0.4569664001464844
1695712608102775800,6.66477587890625,0.8133163452148438,-11.541545867919922,0.3347892761230469
1695712608112328000,6.674327880859375,0.8249950408935547,-11.669412612915039,0.030843734741210938
1695712608121879800,6.6838798828125,0.6581993103027344,-11.38972282409668,-0.42851829528808594
1695712608131432000,6.693431884765625,0.5105686187744141,-11.043853759765625,-0.7609119415283203
1695712608140953300,6.702953369140625,0.19374656677246094,-11.368461608886719,-0.5743522644042969
1695712608150505500,6.71250537109375,-0.4686450958251953,-11.906280517578125,-0.1269683837890625
1695712608160057300,6.722057373046875,-1.0954017639160156,-12.214418411254883,0.07396507263183594
1695712608169609500,6.731609375,-1.193023681640625,-12.700132369995117,-0.27759361267089844
1695712608179131000,6.741130859375,-0.9762191772460938,-13.761396408081055,-0.9118366241455078
1695712608188683000,6.75068310546875,-0.6213665008544922,-14.785228729248047,-1.5697364807128906
1695712608198235000,6.76023486328125,-0.04461860656738281,-14.967596054077148,-2.1749324798583984
1695712608207787000,6.769787109375,1.1516990661621094,-14.773250579833984,-2.562725067138672
1695712608217369300,6.779369384765625,2.5549392700195312,-14.962804794311523,-2.2659664154052734
1695712608226891000,6.78889111328125,2.7456912994384766,-14.84901237487793,-0.7249774932861328
1695712608236443000,6.79844287109375,1.5733299255371094,-13.181055068969727,0.8324813842773438
1695712608245995000,6.8079951171875,0.54620361328125,-11.18848991394043,2.1413936614990234
1695712608255547000,6.817546875,0.4153423309326172,-10.122135162353516,3.7347869873046875
1695712608265068300,6.827068359375,0.8633251190185547,-9.766683578491211,4.97901725769043
1695712608274620400,6.836620361328125,1.5089473724365234,-9.894550323486328,5.112873077392578
1695712608284172300,6.84617236328125,1.6209430694580078,-10.811777114868164,4.586433410644531
1695712608293724400,6.855724365234375,1.2469253540039062,-11.835309982299805,4.122280120849609
1695712608303245800,6.865245849609375,0.8133163452148438,-12.975030899047852,3.78509521484375
1695712608312798000,6.8747978515625,-0.18266677856445312,-13.621850967407227,3.4452152252197266
1695712608322349800,6.884349853515625,-2.5657196044921875,-13.508058547973633,2.916379928588867
1695712608331902000,6.89390185546875,-4.934099197387695,-13.093315124511719,2.449831008911133
1695712608341453800,6.903453857421875,-5.424903869628906,-12.297367095947266,1.952138900756836
1695712608350975500,6.9129755859375,-4.460063934326172,-11.536754608154297,1.6772403717041016
1695712608360527400,6.92252734375,-2.5705108642578125,-11.588859558105469,1.81109619140625
1695712608370079500,6.93207958984375,0.8773994445800781,-11.804466247558594,2.086294174194336
1695712608379631400,6.94163134765625,4.442096710205078,-12.136260986328125,2.6055469512939453
1695712608389152800,6.95115283203125,5.63841438293457,-12.185970306396484,2.902006149291992
1695712608398705000,6.960704833984375,3.5964393615722656,-10.501243591308594,2.3399314880371094
1695712608408256800,6.9702568359375,-0.1757793426513672,-8.854547500610352,1.0453929901123047
1695712608417809000,6.979808837890625,-1.712575912475586,-7.641460418701172,0.3755149841308594
1695712608427330300,6.989330322265625,-2.122528076171875,-7.003923416137695,0.4593620300292969
1695712608436882400,6.99888232421875,-1.4577407836914062,-6.411603927612305,0.7318649291992188
1695712608446434300,7.008434326171875,-0.7666015625,-5.907024383544922,1.1891307830810547
1695712608455986400,7.017986328125,-0.29496192932128906,-5.499467849731445,1.700897216796875
1695712608465538300,7.027538330078125,-0.28298377990722656,-5.186838150024414,2.0695247650146484
1695712608475060000,7.03706005859375,-0.7546234130859375,-4.940387725830078,2.327953338623047
1695712608484611800,7.04661181640625,-1.0169448852539062,-4.639436721801758,2.232128143310547
1695712608494164000,7.0561640625,-1.0810279846191406,-4.295963287353516,2.0647335052490234
1695712608503746300,7.065746337890625,-1.2502193450927734,-4.186962127685547,1.8853607177734375
1695712608513268000,7.07526806640625,-1.247823715209961,-4.056400299072266,1.7272491455078125
1695712608522819800,7.08481982421875,-1.4053363800048828,-3.777009963989258,1.4020423889160156
1695712608532372000,7.0943720703125,-1.6457977294921875,-3.4877376556396484,1.0837230682373047
1695712608541923800,7.103923828125,-2.0270023345947266,-3.1490554809570312,0.7773818969726562
1695712608551445200,7.1134453125,-2.453723907470703,-2.8031864166259766,0.5740528106689453
1695712608560997400,7.122997314453125,-2.7301197052001953,-2.622915267944336,0.5500965118408203
1695712608570549200,7.13254931640625,-2.8085765838623047,-2.6869983673095703,0.7438430786132812
1695712608580101400,7.142101318359375,-2.984954833984375,-2.9358444213867188,0.9522628784179688
1695712608589622800,7.151622802734375,-3.285306930541992,-3.298482894897461,0.9714279174804688
1695712608599175000,7.1611748046875,-3.7689247131347656,-3.9593772888183594,0.8779983520507812
1695712608608726800,7.170726806640625,-4.500490188598633,-4.9900970458984375,0.7270736694335938
1695712608618279000,7.18027880859375,-5.756399154663086,-6.591875076293945,0.6866474151611328
1695712608627830800,7.189830810546875,-7.414773941040039,-8.925518035888672,0.6123828887939453
1695712608637352400,7.1993525390625,-9.32558822631836,-12.233283996582031,0.2748985290527344
1695712608646904300,7.208904296875,-10.214366912841797,-16.138160705566406,-0.33987998962402344
1695712608656456400,7.21845654296875,-10.178731918334961,-19.985841751098633,-0.31592369079589844
1695712608666008300,7.22800830078125,-9.833162307739258,-22.613548278808594,1.2059001922607422
1695712608675529700,7.23752978515625,-11.289106369018555,-22.499755859375,3.117612838745117
1695712608685081900,7.247081787109375,-11.975454330444336,-18.6377010345459,4.899961471557617
1695712608694633700,7.2566337890625,-8.17957878112793,-12.240470886230469,6.019618988037109
1695712608704185900,7.266185791015625,-4.240863800048828,-5.008962631225586,5.404840469360352
1695712608713707300,7.275707275390625,-2.9708805084228516,0.6537075042724609,4.46934700012207
1695712608723259400,7.28525927734375,-2.920572280883789,2.1180362701416016,4.687049865722656
1695712608732811300,7.294811279296875,-3.094554901123047,-0.6090888977050781,4.785270690917969
1695712608742363400,7.30436328125,-4.555290222167969,-6.350215911865234,4.454973220825195
1695712608751915300,7.313915283203125,-6.208873748779297,-13.2047119140625,4.428621292114258
1695712608761437000,7.32343701171875,-7.226417541503906,-20.08316421508789,3.902181625366211
1695712608770988800,7.33298876953125,-3.290098190307617,-24.409671783447266,3.4164676666259766
1695712608780541000,7.342541015625,5.166475296020508,-21.040218353271484,3.4691715240478516
1695712608790123300,7.352123291015625,1.2017078399658203,-14.851408004760742,2.043172836303711
1695712608799645000,7.36164501953125,-6.273256301879883,-8.084352493286133,-2.770845413208008
1695712608809196800,7.37119677734375,2.076112747192383,-2.7178421020507812,-3.9408111572265625
1695712608818749000,7.3807490234375,7.670806884765625,0.0020961761474609375,-1.3280773162841797
1695712608828300800,7.39030078125,4.358848571777344,0.24375534057617188,1.0621623992919922
1695712608837822200,7.399822265625,-0.04222297668457031,-2.5615272521972656,1.6341190338134766
1695712608847374300,7.409374267578125,-1.8578109741210938,-8.164905548095703,1.3996467590332031
1695712608856926200,7.41892626953125,-0.9762191772460938,-13.266399383544922,0.9426803588867188
1695712608866478300,7.428478271484375,1.3253822326660156,-16.107316970825195,0.16979026794433594
1695712608875999700,7.437999755859375,2.2453041076660156,-16.4151554107666,-0.4857139587402344
1695712608885551900,7.4475517578125,1.2657909393310547,-14.965200424194336,-0.7561206817626953
1695712608895103700,7.457103759765625,-0.5974102020263672,-12.055707931518555,0.11948204040527344
1695712608904656000,7.46665576171875,-1.9557323455810547,-9.176759719848633,1.7847442626953125
1695712608914207700,7.476207763671875,-2.915781021118164,-7.231508255004883,3.3925113677978516
1695712608923729400,7.4857294921875,-2.930154800415039,-6.492156982421875,4.375917434692383
1695712608933281300,7.49528125,-2.148580551147461,-6.527791976928711,4.316326141357422
1695712608942833400,7.50483349609375,-0.8618278503417969,-7.020692825317383,3.129291534423828
1695712608952385300,7.51438525390625,0.7321643829345703,-8.044225692749023,1.521524429321289
1695712608961906700,7.52390673828125,2.2665653228759766,-9.451658248901367,0.16979026794433594
1695712608971458800,7.533458740234375,3.093656539916992,-10.401824951171875,-0.6965293884277344
1695712608981010700,7.5430107421875,2.683704376220703,-10.264375686645508,-1.2633953094482422
1695712608990562800,7.552562744140625,1.3945560455322266,-9.259708404541016,-1.5314064025878906
1695712609000084200,7.562084228515625,-0.28058815002441406,-8.034643173217773,-1.0241317749023438
1695712609009636400,7.57163623046875,-1.19781494140625,-7.013505935668945,-0.1078033447265625
1695712609019188200,7.581188232421875,-1.266988754272461,-6.525396347045898,0.7366561889648438
1695712609028740400,7.590740234375,-0.5854320526123047,-6.7149505615234375,1.3229866027832031
1695712609038292200,7.600292236328125,0.4057598114013672,-7.203060150146484,1.4116249084472656
1695712609047814000,7.60981396484375,1.0229339599609375,-7.629482269287109,1.1292400360107422
1695712609057365800,7.61936572265625,1.3517341613769531,-8.034643173217773,0.8420639038085938
1695712609066918000,7.62891796875,1.3229866027832031,-8.347572326660156,0.6147785186767578
1695712609076500200,7.638500244140625,0.8109207153320312,-8.416147232055664,0.6674823760986328
1695712609086022000,7.64802197265625,-0.06378364562988281,-8.352363586425781,0.9091415405273438
1695712609095573800,7.65757373046875,-0.6522102355957031,-8.356855392456055,1.2798652648925781
1695712609105126000,7.6671259765625,-0.7165927886962891,-8.394886016845703,1.4403724670410156
1695712609114677800,7.676677734375,-0.4090538024902344,-8.657806396484375,1.4712162017822266
1695712609124199200,7.68619921875,-0.5641708374023438,-9.112676620483398,1.3181953430175781
1695712609133751300,7.695751220703125,-0.9669361114501953,-9.698108673095703,1.1412181854248047
1695712609143303200,7.70530322265625,-1.257406234741211,-10.195501327514648,1.0238323211669922
1695712609152855300,7.714855224609375,-1.2241668701171875,-10.389846801757812,1.0334148406982422
1695712609162376700,7.724376708984375,-0.7405490875244141,-10.252397537231445,0.9998760223388672
1695712609171928800,7.7339287109375,0.05539894104003906,-10.048768997192383,0.7486343383789062
1695712609181480700,7.743480712890625,0.9229164123535156,-10.119739532470703,0.3515586853027344
1695712609191032800,7.75303271484375,1.3397560119628906,-10.501243591308594,0.06198692321777344
1695712609200584700,7.762584716796875,1.0325164794921875,-10.913591384887695,-0.08624267578125
1695712609210106400,7.7721064453125,0.4629554748535156,-11.036666870117188,-0.42372703552246094
1695712609219658200,7.781658203125,0.32939910888671875,-10.885143280029297,-0.8351764678955078
1695712609229210400,7.79121044921875,0.36772918701171875,-10.927665710449219,-0.7609119415283203
1695712609238762200,7.80076220703125,0.06977272033691406,-11.273534774780273,-0.18206787109375
1695712609248283600,7.81028369140625,-0.6713752746582031,-11.929937362670898,0.6315479278564453
1695712609257835800,7.819835693359375,-1.5005626678466797,-12.387203216552734,0.9714279174804688
1695712609267387600,7.8293876953125,-1.4313888549804688,-12.640840530395508,0.4737358093261719
1695712609276939800,7.838939697265625,-0.6237621307373047,-13.406244277954102,-0.41174888610839844
1695712609286461200,7.848461181640625,0.36293792724609375,-14.609748840332031,-1.1870346069335938
1695712609296013300,7.858013427734375,1.2801647186279297,-15.116724014282227,-1.950042724609375
1695712609305565200,7.867565185546875,1.985677719116211,-14.917886734008789,-2.414196014404297
1695712609315117300,7.877117431640625,2.6217174530029297,-15.045753479003906,-2.148580551147461
1695712609324638700,7.886638671875,2.7361087799072266,-14.910699844360352,-0.7800769805908203
1695712609334190800,7.89619091796875,1.7068862915039062,-13.581424713134766,1.0525798797607422
1695712609343742700,7.90574267578125,0.6057949066162109,-11.885019302368164,2.9954357147216797
1695712609353294800,7.915294921875,-0.013774871826171875,-10.541669845581055,5.330575942993164
1695712609362877200,7.924877197265625,-0.08025360107421875,-9.852027893066406,7.213541030883789
1695712609372398800,7.93439892578125,-0.1685924530029297,-10.335346221923828,7.907674789428711
1695712609381950700,7.94395068359375,-0.25423622131347656,-11.903884887695312,7.5294647216796875
1695712609391502800,7.9535029296875,-0.4973926544189453,-13.346952438354492,6.562828063964844
1695712609401054700,7.9630546875,-0.9929885864257812,-14.159669876098633,4.852048873901367
1695712609410576100,7.972576171875,-1.6101627349853516,-14.289932250976562,3.0098094940185547
1695712609420128300,7.982128173828125,-3.073293685913086,-14.003055572509766,1.892547607421875
1695712609429680000,7.99168017578125,-4.214511871337891,-13.877584457397461,1.3876686096191406
1695712609439232300,8.001232177734375,-3.904876708984375,-13.249629974365234,1.0142498016357422
1695712609448784100,8.0107841796875,-2.403715133666992,-12.704923629760742,1.3253822326660156
1695712609458305800,8.020305908203126,-0.4258232116699219,-12.306650161743164,1.622140884399414
1695712609467857700,8.029857666015625,1.496969223022461,-12.38241195678711,1.689218521118164
1695712609477409800,8.039409912109376,3.744070053100586,-12.221305847167969,1.5478763580322266
1695712609486961700,8.048961669921875,5.583614349365234,-11.351991653442383,1.7895355224609375
1695712609496483300,8.0584833984375,5.512044906616211,-10.389846801757812,1.9545345306396484
1695712609506035200,8.06803515625,2.173734664916992,-8.757524490356445,1.7512054443359375
1695712609515587300,8.07758740234375,-0.9810104370117188,-7.688774108886719,1.5287113189697266
1695712609525139200,8.08713916015625,-2.0461673736572266,-6.888034820556641,1.540689468383789
1695712609534660600,8.09666064453125,-1.9937629699707031,-6.5137176513671875,1.73443603515625
1695712609544212700,8.106212646484375,-1.5290107727050781,-6.160661697387695,1.777557373046875
1695712609553764600,8.1157646484375,-1.3717975616455078,-5.606073379516602,1.8039093017578125
1695712609563316700,8.125316650390625,-1.1502017974853516,-5.125150680541992,1.9305782318115234
1695712609572868600,8.13486865234375,-0.6213665008544922,-4.935596466064453,2.153371810913086
1695712609582390300,8.144390380859376,-0.25184059143066406,-4.805334091186523,2.3063926696777344
1695712609591942100,8.153942138671875,-0.22339248657226562,-4.717594146728516,2.418987274169922
1695712609601494300,8.163494384765626,-0.3042449951171875,-4.433412551879883,2.347118377685547
1695712609611046100,8.173046142578125,-0.3377838134765625,-4.089639663696289,2.158163070678711
1695712609620567600,8.182567626953125,-0.4330101013183594,-3.6820831298828125,1.937765121459961
1695712609630119700,8.19211962890625,-0.5641708374023438,-3.3221397399902344,1.7080841064453125
1695712609639671800,8.201671875,-0.8190059661865234,-2.874156951904297,1.4616336822509766
1695712609649254100,8.211254150390625,-1.3670063018798828,-2.488161087036133,1.2391395568847656
1695712609658775800,8.22077587890625,-1.9245891571044922,-2.210866928100586,1.0382061004638672
1695712609668327700,8.23032763671875,-2.413297653198242,-2.082700729370117,0.8779983520507812
1695712609677879800,8.2398798828125,-2.727724075317383,-2.153970718383789,0.9307022094726562
1695712609687431700,8.249431640625,-2.9708805084228516,-2.478578567504883,1.2223701477050781
1695712609696953000,8.258953125,-3.0921592712402344,-3.0187931060791016,1.2726783752441406
1695712609706505200,8.268505126953125,-3.349689483642578,-4.065982818603516,1.1412181854248047
1695712609716057000,8.27805712890625,-4.000102996826172,-5.378787994384766,0.9902935028076172
1695712609725609200,8.287609130859375,-5.110477447509766,-7.06800651550293,1.0046672821044922
1695712609735161000,8.2971611328125,-6.816465377807617,-9.487293243408203,0.9950847625732422
1695712609744682800,8.306682861328126,-9.375896453857422,-13.050792694091797,0.8324813842773438
1695712609754234600,8.316234619140625,-11.384332656860352,-17.339269638061523,0.6962299346923828
1695712609763786800,8.325786865234376,-10.545862197875977,-21.220489501953125,1.535898208618164
1695712609773338600,8.335338623046875,-8.985109329223633,-23.3906307220459,3.268238067626953
1695712609782860000,8.344860107421875,-10.995941162109375,-22.421598434448242,4.361543655395508
1695712609792412200,8.354412109375,-12.506685256958008,-17.895954132080078,4.847257614135742
1695712609801964300,8.36396435546875,-8.429622650146484,-11.174116134643555,4.787666320800781
1695712609811516200,8.37351611328125,-3.5760765075683594,-3.736583709716797,3.605722427368164
1695712609821037600,8.38303759765625,-2.2653675079345703,1.8599071502685547,2.7202377319335938
1695712609830589700,8.392589599609375,-2.692089080810547,3.928234100341797,2.7513809204101562
1695712609840141600,8.4021416015625,-3.3185462951660156,2.8975143432617188,3.335315704345703
1695712609849693700,8.411693603515625,-3.366159439086914,-0.9384880065917969,3.268238067626953
1695712609859245600,8.42124560546875,-4.650516510009766,-7.22911262512207,3.093656539916992
1695712609868767200,8.430767333984376,-7.869943618774414,-16.22320556640625,3.770721435546875
1695712609878319000,8.440319091796875,-9.144718170166016,-24.09434700012207,4.198940277099609
1695712609887871200,8.449871337890626,-3.90966796875,-30.148103713989258,4.49809455871582
1695712609897423000,8.459423095703125,7.725606918334961,-29.24794578552246,6.003149032592773
1695712609906944500,8.468944580078125,8.912342071533203,-20.83419418334961,6.620323181152344
1695712609916496600,8.47849658203125,-2.742097854614258,-9.397157669067383,2.0359859466552734
1695712609926048500,8.488048583984375,-5.286855697631836,0.07815742492675781,-3.323637008666992
1695712609935631000,8.497631103515625,2.5549392700195312,5.326084136962891,-3.4239540100097656
1695712609945152500,8.507152587890625,6.164854049682617,5.6033782958984375,0.5860309600830078
1695712609954704600,8.51670458984375,5.850427627563477,3.959077835083008,4.065084457397461
1695712609964256800,8.5262568359375,1.5469779968261719,-0.4431915283203125,4.773292541503906
1695712609973808600,8.53580859375,-2.167745590209961,-8.162809371948242,2.8900279998779297
1695712609983330000,8.545330078125,-3.7332897186279297,-15.074201583862305,0.5381183624267578
1695712609992882200,8.554882080078125,-3.980937957763672,-19.87204933166504,-1.0265274047851562
1695712610002434000,8.56443408203125,-2.522897720336914,-21.109092712402344,-1.1963176727294922
1695712610011986200,8.573986083984375,0.114990234375,-18.372385025024414,-0.6581993103027344
1695712610021538000,8.5835380859375,2.288125991821289,-13.001083374023438,0.9211196899414062
1695712610031059700,8.593059814453126,1.7137737274169922,-8.987205505371094,2.7729415893554688
1695712610040611600,8.602611572265625,0.6465206146240234,-6.771846771240234,3.6916656494140625
1695712610050163700,8.612163818359376,0.04342079162597656,-5.648895263671875,3.3520851135253906
1695712610059715600,8.621715576171875,-0.39018821716308594,-5.542289733886719,2.512117385864258
1695712610069237000,8.631237060546875,-0.6117839813232422,-6.437656402587891,1.502359390258789
1695712610078789000,8.6407890625,-0.023057937622070312,-8.146039962768555,0.7106037139892578
1695712610088341000,8.650341064453125,0.9277076721191406,-9.7550048828125,0.4401969909667969
1695712610097893000,8.65989306640625,1.420907974243164,-10.641088485717773,0.4521751403808594
1695712610107414500,8.66941455078125,0.7085075378417969,-10.110456466674805,0.4306144714355469
1695712610116966700,8.678966552734375,-0.5641708374023438,-9.307022094726562,0.7034168243408203
1695712610126518500,8.6885185546875,-1.5077495574951172,-8.108308792114258,0.9974803924560547
1695712610136070700,8.698070556640625,-1.0406017303466797,-7.23869514465332,1.1436138153076172
1695712610145622500,8.70762255859375,-0.05420112609863281,-7.165029525756836,1.3373603820800781
1695712610155144200,8.717144287109376,0.560577392578125,-7.515689849853516,1.5287113189697266
1695712610164696000,8.726696044921875,0.6773643493652344,-8.136756896972656,1.574228286743164
1695712610174248200,8.736248291015626,0.5225467681884766,-8.420938491821289,1.531106948852539
1695712610183800000,8.745800048828125,0.2745990753173828,-8.276302337646484,1.3756904602050781
1695712610193321500,8.755321533203125,-0.013774871826171875,-8.07986068725586,1.0813274383544922
1695712610202873600,8.76487353515625,-0.11379241943359375,-8.022964477539062,0.8205032348632812
1695712610212425500,8.774425537109375,0.000598907470703125,-8.112800598144531,0.7201862335205078
1695712610222008000,8.784008056640625,0.31742095947265625,-8.37122917175293,0.7438430786132812
1695712610231529500,8.793529541015625,0.3937816619873047,-8.620075225830078,0.8037338256835938
1695712610241081600,8.80308154296875,0.22459030151367188,-8.930309295654297,0.8756027221679688
1695712610250633500,8.812633544921875,-0.38539695739746094,-9.110280990600586,0.7462387084960938
1695712610260185600,8.822185546875,-1.0310192108154297,-9.401948928833008,0.5908222198486328
1695712610269707000,8.83170703125,-1.4505538940429688,-9.731348037719727,0.4617576599121094
1695712610279259100,8.841259033203125,-1.2837581634521484,-10.00594711303711,0.4425926208496094
1695712610288811000,8.85081103515625,-0.6641883850097656,-10.271562576293945,0.4809226989746094
1695712610298363100,8.860363037109375,-0.10181427001953125,-10.612640380859375,0.7201862335205078
1695712610307915000,8.8699150390625,0.3770122528076172,-10.840225219726562,0.9570541381835938
1695712610317436700,8.879436767578126,0.7177906036376953,-10.87795639038086,0.9378890991210938
1695712610326988500,8.888988525390625,0.8297863006591797,-10.814172744750977,0.4545707702636719
1695712610336540700,8.898540771484376,0.5321292877197266,-10.901613235473633,-0.004791259765625
1695712610346092500,8.908092529296875,-0.11379241943359375,-11.157646179199219,0.021261215209960938
1695712610355614000,8.917614013671875,-1.0453929901123047,-11.85177993774414,0.5477008819580078
1695712610365166000,8.927166015625,-1.9722023010253906,-12.662101745605469,1.0429973602294922
1695712610374718000,8.936718017578125,-2.439350128173828,-13.003179550170898,1.0453929901123047
1695712610384270000,8.94627001953125,-2.077310562133789,-13.162189483642578,0.6219654083251953
1695712610393791500,8.95579150390625,-1.3409538269042969,-13.654790878295898,0.2820854187011719
1695712610403343600,8.965343505859375,-0.06617927551269531,-14.202192306518555,0.14343833923339844
1695712610412895500,8.9748955078125,1.3184947967529297,-14.235431671142578,-0.0934295654296875
1695712610422447600,8.984447509765625,2.288125991821289,-14.079116821289062,-0.129364013671875
1695712610431999500,8.99399951171875,2.674121856689453,-13.752113342285156,0.10271263122558594
1695712610441521200,9.003521240234376,2.447734832763672,-13.2047119140625,0.8276901245117188
1695712610451073000,9.013072998046875,1.847330093383789,-11.941915512084961,1.854217529296875
1695712610460625200,9.022625244140626,1.2873516082763672,-11.022592544555664,3.1152172088623047
1695712610470177000,9.032177001953125,0.6989250183105469,-10.529691696166992,4.512468338012695
1695712610479698400,9.041698486328125,0.06977272033691406,-10.541669845581055,5.62493896484375
1695712610489250600,9.05125048828125,-0.07097053527832031,-11.155250549316406,6.091487884521484
1695712610498833200,9.060833251953126,-0.1661968231201172,-12.138357162475586,6.225643157958984
1695712610508385000,9.070385009765625,-0.5021839141845703,-13.050792694091797,5.821081161499023
1695712610517906400,9.079906494140625,-1.3646106719970703,-13.399057388305664,4.579246520996094
1695712610527458600,9.08945849609375,-2.925363540649414,-13.325691223144531,3.069700241088867
1695712610537010400,9.099010498046875,-4.440898895263672,-13.131345748901367,1.660470962524414
1695712610546562600,9.1085625,-4.858037948608398,-12.515369415283203,0.6339435577392578
1695712610556114400,9.118114501953125,-4.15492057800293,-11.823331832885742,0.5237445831298828
1695712610565636000,9.127635986328125,-2.253389358520508,-11.702651977539062,0.7534255981445312
1695712610575188000,9.13718798828125,0.6249599456787109,-11.839801788330078,1.3613166809082031
1695712610584740000,9.146739990234375,4.411252975463867,-11.858966827392578,2.294414520263672
1695712610594292000,9.1562919921875,6.348419189453125,-12.074573516845703,3.287403106689453
1695712610603813600,9.165813720703126,6.453227996826172,-10.83782958984375,3.8614559173583984
1695712610613365500,9.175365478515625,3.0292739868164062,-9.212394714355469,3.5649967193603516
1695712610622917600,9.184917724609376,-0.1518230438232422,-7.885515213012695,2.7945022583007812
1695712610632469500,9.194469482421875,-1.7437191009521484,-6.94732666015625,2.000051498413086
1695712610641991000,9.203990966796875,-2.2009849548339844,-6.203184127807617,1.526315689086914
1695712610651543000,9.21354296875,-1.8817672729492188,-5.755500793457031,1.2822608947753906
1695712610661095000,9.223094970703125,-1.4625320434570312,-5.295839309692383,1.3086128234863281
1695712610670647000,9.23264697265625,-1.262197494506836,-4.940387725830078,1.535898208618164
1695712610680199000,9.242198974609375,-0.9477710723876953,-4.738855361938477,1.7440185546875
1695712610689720600,9.251720458984375,-0.761810302734375,-4.629854202270508,1.9736995697021484
1695712610699272400,9.2612724609375,-0.8833885192871094,-4.639436721801758,2.1674461364746094
1695712610708824600,9.270824462890625,-1.276571273803711,-4.532831192016602,2.2393150329589844
1695712610718376400,9.28037646484375,-1.5957889556884766,-4.3336944580078125,2.241710662841797
1695712610727898000,9.289898193359376,-1.6793365478515625,-4.042325973510742,2.1318111419677734
1695712610737450000,9.299449951171875,-1.5053539276123047,-3.606321334838867,1.882965087890625
1695712610747002000,9.309002197265626,-1.4029407501220703,-3.084972381591797,1.5957889556884766
1695712610756554000,9.318553955078125,-1.5673408508300781,-2.658550262451172,1.3876686096191406
1695712610766075400,9.328075439453125,-1.8054065704345703,-2.4713916778564453,1.3253822326660156
1695712610775627500,9.33762744140625,-2.062936782836914,-2.4288692474365234,1.2798652648925781
1695712610785210000,9.347210205078126,-2.3629894256591797,-2.637289047241211,1.3301734924316406
1695712610794762000,9.356761962890625,-2.7513809204101562,-3.0400543212890625,1.3708992004394531
1695712610804283400,9.366283447265625,-3.275724411010742,-3.611112594604492,1.2343482971191406
1695712610813835500,9.37583544921875,-3.954885482788086,-4.485517501831055,1.0453929901123047
1695712610823387400,9.385387451171875,-4.8080291748046875,-5.759992599487305,1.0046672821044922
1695712610832939500,9.394939453125,-5.846834182739258,-7.8001708984375,1.2271614074707031
1695712610842491400,9.404491455078125,-7.60283088684082,-10.719245910644531,1.5957889556884766
1695712610852013000,9.414012939453125,-9.547183990478516,-14.756780624389648,1.8374481201171875
1695712610861565000,9.42356494140625,-11.031875610351562,-19.31057357788086,2.0072383880615234
1695712610871117000,9.433116943359375,-11.072301864624023,-23.217845916748047,2.930753707885742
1695712610880669000,9.4426689453125,-11.927841186523438,-24.497112274169922,3.761138916015625
1695712610890190600,9.452190673828126,-12.942689895629883,-22.191917419433594,4.476533889770508
1695712610899742500,9.461742431640625,-9.587909698486328,-16.078868865966797,5.278171539306641
1695712610909294600,9.471294677734376,-4.181272506713867,-8.446990966796875,5.282663345336914
1695712610918846500,9.480846435546875,-1.712575912475586,-1.0474891662597656,4.026754379272461
1695712610928367900,9.490367919921875,-2.474985122680664,2.798095703125,3.7156219482421875
1695712610937920000,9.499919921875,-3.2685375213623047,2.2414112091064453,3.655731201171875
1695712610947472000,9.509471923828125,-5.034116744995117,-2.6444759368896484,3.3041725158691406
1695712610957024000,9.51902392578125,-7.4288482666015625,-10.370981216430664,4.134258270263672
1695712610966575900,9.528575927734375,-6.81886100769043,-18.294227600097656,5.457544326782227
1695712610976097500,9.53809765625,-1.5361976623535156,-23.857479095458984,5.634521484375
1695712610985649400,9.5476494140625,5.833658218383789,-21.96672821044922,3.5554141998291016
1695712610995201500,9.557201416015625,5.550374984741211,-15.147567749023438,2.9475231170654297
1695712611004753400,9.56675341796875,-1.0693492889404297,-8.62247085571289,0.9139328002929688
1695712611014275000,9.576275146484376,-3.2877025604248047,-3.3526840209960938,-2.3905391693115234
1695712611023827000,9.585826904296875,0.9941864013671875,0.4240264892578125,-2.9550094604492188
1695712611033379000,9.595379150390626,3.7868919372558594,1.1205558776855469,-0.39497947692871094
1695712611042931000,9.604930908203125,2.702869415283203,-1.4074325561523438,1.81109619140625
1695712611052452400,9.614452392578125,-0.39497947692871094,-7.487541198730469,2.5145130157470703
1695712611062004500,9.62400439453125,-0.7737884521484375,-13.583820343017578,2.5288867950439453
1695712611071587000,9.633587158203126,-0.5878276824951172,-16.952974319458008,1.9593257904052734
1695712611081139000,9.643138916015625,0.119781494140625,-16.78258514404297,1.75360107421875
1695712611090660400,9.652660400390625,0.6701774597167969,-14.953222274780273,1.3613166809082031
1695712611100212500,9.66221240234375,-0.04940986633300781,-12.064990997314453,1.521524429321289
1695712611109764400,9.671764404296875,-1.138223648071289,-8.631753921508789,2.8615798950195312
1695712611119316500,9.68131640625,-2.232128143310547,-6.845212936401367,4.026754379272461
1695712611128868400,9.690868408203125,-1.7293453216552734,-6.0633392333984375,4.375917434692383
1695712611138390000,9.70039013671875,-0.6713752746582031,-6.0633392333984375,3.576974868774414
1695712611147942000,9.70994189453125,-0.20662307739257812,-6.691293716430664,1.9401607513427734
1695712611157494000,9.719493896484375,0.024555206298828125,-8.136756896972656,0.4401969909667969
1695712611167046000,9.7290458984375,0.5485992431640625,-9.861610412597656,-0.23686790466308594
1695712611176567600,9.738567626953126,1.2825603485107422,-11.079488754272461,-0.40695762634277344
1695712611186119400,9.748119384765625,1.8069038391113281,-11.124406814575195,-0.37581443786621094
1695712611195671600,9.757671630859376,1.8188819885253906,-10.079612731933594,-0.33508872985839844
1695712611205223400,9.767223388671875,0.6941337585449219,-8.387699127197266,-0.33508872985839844
1695712611214744800,9.776744873046875,0.05300331115722656,-7.179403305053711,-0.014373779296875
1695712611224297000,9.786296875,0.21979904174804688,-7.106037139892578,0.7129993438720703
1695712611233848800,9.795848876953125,0.5962123870849609,-7.3569793701171875,1.3661079406738281
1695712611243401000,9.80540087890625,0.5369205474853516,-7.776514053344727,1.8566131591796875
1695712611252952800,9.814952880859375,0.4033641815185547,-8.364042282104492,2.222545623779297
1695712611262474500,9.824474609375,0.024555206298828125,-8.53233528137207,2.1914024353027344
1695712611272026400,9.8340263671875,-0.38300132751464844,-8.314332962036133,1.8518218994140625
1695712611281578500,9.84357861328125,-0.6354408264160156,-8.051412582397461,1.3852729797363281
1695712611291130400,9.85313037109375,-0.5450057983398438,-8.029851913452148,1.0813274383544922
1695712611300652000,9.862652099609376,-0.07097053527832031,-8.238571166992188,1.0094585418701172
1695712611310204000,9.872203857421875,0.58453369140625,-8.394886016845703,1.0693492889404297
1695712611319756000,9.881756103515626,0.9013557434082031,-8.567970275878906,1.2151832580566406
1695712611329308000,9.891307861328125,0.4389991760253906,-8.880599975585938,1.2511177062988281
1695712611338829300,9.900829345703125,-0.35664939880371094,-9.155498504638672,1.1052837371826172
1695712611348381400,9.91038134765625,-1.186136245727539,-9.380687713623047,0.8205032348632812
1695712611357964000,9.919964111328126,-1.5125408172607422,-9.73583984375,0.5980091094970703
1695712611367516000,9.929515869140625,-1.3026237487792969,-10.029903411865234,0.4234275817871094
1695712611377037300,9.939037353515625,-0.7022190093994141,-10.297615051269531,0.2892723083496094
1695712611386589400,9.94858935546875,0.07456398010253906,-10.572214126586914,0.3323936462402344
1695712611396141300,9.958141357421875,0.7654037475585938,-10.740507125854492,0.3803062438964844
1695712611405693400,9.967693359375,1.1561908721923828,-10.821060180664062,0.2844810485839844
1695712611415245300,9.977245361328125,0.9609470367431641,-10.863882064819336,-0.1413421630859375
1695712611424767000,9.98676708984375,0.3129291534423828,-10.960905075073242,-0.43330955505371094
1695712611434318800,9.99631884765625,-0.38539695739746094,-11.41098403930664,-0.0982208251953125
1695712611443871000,10.00587109375,-0.9666366577148438,-12.486921310424805,0.8324813842773438
1695712611453422800,10.0154228515625,-1.2693843841552734,-13.436788558959961,1.5574588775634766
1695712611462944500,10.024944580078126,-0.9238147735595703,-13.6263427734375,1.3541297912597656
1695712611472496400,10.034496337890625,-0.3042449951171875,-14.109960556030273,0.7129993438720703
1695712611482048500,10.044048583984376,0.04342079162597656,-14.785228729248047,0.24165916442871094
1695712611491600400,10.053600341796875,0.36293792724609375,-14.600166320800781,-0.110198974609375
1695712611501121800,10.063121826171875,1.3993473052978516,-14.545665740966797,-0.42372703552246094
1695712611510674000,10.072673828125,2.852895736694336,-15.142776489257812,-0.2132110595703125
1695712611520225800,10.082225830078125,2.7361087799072266,-15.088275909423828,0.9902935028076172
1695712611529778000,10.09177783203125,1.7616863250732422,-13.529319763183594,2.260875701904297
1695712611539329800,10.101329833984375,1.6853256225585938,-11.74996566772461,3.0673046112060547
1695712611548851500,10.1108515625,1.540090560913086,-10.593774795532227,4.416643142700195
1695712611558403300,10.1204033203125,0.8869819641113281,-9.91611099243164,5.765981674194336
1695712611567955500,10.12995556640625,0.3770122528076172,-10.03679084777832,6.361894607543945
1695712611577507300,10.13950732421875,0.579742431640625,-10.449138641357422,6.43376350402832
1695712611587028700,10.14902880859375,1.0729427337646484,-10.885143280029297,6.36668586730957
1695712611596580900,10.158580810546875,1.1777515411376953,-11.373252868652344,5.993566513061523
1695712611606132700,10.1681328125,0.17937278747558594,-11.95119857788086,4.935895919799805
1695712611615684900,10.177684814453125,-2.067728042602539,-12.399181365966797,3.6129093170166016
1695712611625206300,10.187206298828125,-4.250446319580078,-12.47254753112793,2.564821243286133
1695712611634758400,10.19675830078125,-4.867321014404297,-12.034147262573242,1.8901519775390625
1695712611644341000,10.206341064453126,-4.410055160522461,-11.790092468261719,1.8230743408203125
1695712611653892900,10.215892822265625,-3.104137420654297,-11.899093627929688,2.449831008911133
1695712611663414300,10.225414306640625,-1.152597427368164,-12.164709091186523,3.605722427368164
1695712611672966400,10.23496630859375,1.8092994689941406,-12.155126571655273,4.567268371582031
1695712611682518300,10.244518310546875,4.213613510131836,-11.534358978271484,3.9764461517333984
1695712611692070400,10.2540703125,4.868818283081055,-10.08650016784668,2.337535858154297
1695712611701622300,10.263622314453125,2.4357566833496094,-8.548805236816406,1.1436138153076172
1695712611711144000,10.27314404296875,-0.4210319519042969,-7.7977752685546875,0.9235153198242188
1695712611720695800,10.28269580078125,-1.3646106719970703,-7.184194564819336,1.2011089324951172
1695712611730248000,10.292248046875,-1.3098106384277344,-6.542165756225586,1.550271987915039
1695712611739799800,10.3017998046875,-0.8977622985839844,-5.824075698852539,1.8422393798828125
1695712611749321200,10.3113212890625,-0.8166103363037109,-5.371601104736328,2.2105674743652344
1695712611758873300,10.320873291015625,-0.8333797454833984,-5.06346321105957,2.4330615997314453
1695712611768425500,10.330425537109376,-0.6141796112060547,-4.881095886230469,2.5672168731689453
1695712611777977300,10.339977294921875,-0.5045795440673828,-4.719989776611328,2.607942581176758
1695712611787498800,10.349498779296875,-0.4306144714355469,-4.3504638671875,2.473787307739258
1695712611797051000,10.35905078125,-0.6689796447753906,-3.935720443725586,2.3734703063964844
1695712611806602800,10.368602783203125,-0.9121360778808594,-3.5778732299804688,2.232128143310547
1695712611816155000,10.37815478515625,-1.0573711395263672,-3.1939735412597656,2.004842758178711
1695712611825706800,10.387706787109375,-1.2265625,-2.774738311767578,1.6985015869140625
1695712611835228400,10.397228515625,-1.5125408172607422,-2.390838623046875,1.4044380187988281
1695712611844780300,10.4067802734375,-1.8078022003173828,-2.170440673828125,1.1627788543701172
1695712611854332400,10.41633251953125,-2.203380584716797,-2.1372013092041016,0.9546585083007812
1695712611863884300,10.42588427734375,-2.627706527709961,-2.2890243530273438,0.8732070922851562
1695712611873405700,10.43540576171875,-2.939737319946289,-2.791208267211914,0.9283065795898438
1695712611882957800,10.444957763671875,-3.294889450073242,-3.715322494506836,0.8923721313476562
1695712611892509700,10.454509765625,-4.16450309753418,-4.940387725830078,0.8348770141601562
1695712611902061800,10.464061767578125,-5.291646957397461,-6.525396347045898,1.0046672821044922
1695712611911583200,10.473583251953125,-6.602056503295898,-8.828495025634766,1.4807987213134766
1695712611921135400,10.48313525390625,-8.772796630859375,-12.254545211791992,2.0407772064208984
1695712611930718000,10.492718017578126,-10.645879745483398,-16.656814575195312,2.0695247650146484
1695712611940269800,10.502269775390625,-10.75547981262207,-20.992904663085938,2.6866989135742188
1695712611949822000,10.511822021484376,-10.815071105957031,-23.90479278564453,4.486116409301758
1695712611959343400,10.52134326171875,-13.688629150390625,-23.556528091430664,6.036388397216797
1695712611968895200,10.530895263671875,-13.691024780273438,-18.230144500732422,6.586784362792969
1695712611978447400,10.540447265625,-8.105613708496094,-9.925394058227539,5.964818954467773
1695712611987999200,10.549999267578125,-1.3505363464355469,-1.8814678192138672,4.99818229675293
1695712611997521000,10.55952099609375,0.6417293548583984,3.255361557006836,5.108081817626953
1695712612007072800,10.56907275390625,0.58453369140625,4.030048370361328,5.237445831298828
1695712612016625000,10.578625,-2.236919403076172,-0.6896419525146484,4.708610534667969
1695712612026176800,10.5881767578125,-4.419637680053711,-8.539522171020508,4.820905685424805
1695712612035698200,10.5976982421875,-5.420412063598633,-16.77539825439453,5.799520492553711
1695712612045250300,10.607250244140625,-3.4616851806640625,-23.63228988647461,6.240016937255859
1695712612054802200,10.61680224609375,3.8108482360839844,-23.807769775390625,4.713401794433594
1695712612064354300,10.626354248046875,3.243682861328125,-18.90062141418457,2.208171844482422
1695712612073906200,10.63590625,-7.795978546142578,-12.664497375488281,-2.8019886016845703
1695712612083427800,10.645427734375,-0.8237972259521484,-5.810001373291016,-4.644227981567383
1695712612092979700,10.654979736328125,7.099149703979492,-1.317596435546875,-2.591472625732422
1695712612102531800,10.66453173828125,4.992792129516602,0.2533378601074219,-0.18206787109375
1695712612112083700,10.674083740234375,0.4318122863769531,-1.2535133361816406,0.9402847290039062
1695712612121605400,10.68360546875,-1.252614974975586,-6.736211776733398,1.787139892578125
1695712612131157200,10.6931572265625,-0.5902233123779297,-12.648027420043945,2.8136672973632812
1695712612140709400,10.70270947265625,0.7153949737548828,-16.2043399810791,2.4378528594970703
1695712612150261200,10.71226123046875,1.4945735931396484,-16.26363182067871,1.545480728149414
1695712612159782700,10.72178271484375,1.0229339599609375,-14.704675674438477,0.8851852416992188
1695712612169334800,10.731334716796875,-0.349761962890625,-12.086252212524414,1.3445472717285156
1695712612178886700,10.74088671875,-1.212188720703125,-9.503763198852539,2.8735580444335938
1695712612188438800,10.750438720703125,-1.6649627685546875,-7.733692169189453,4.294765472412109
1695712612197960200,10.759960205078125,-1.6601715087890625,-6.816764831542969,4.648719787597656
1695712612207512300,10.76951220703125,-1.2550106048583984,-6.546657562255859,3.935720443725586
1695712612217094700,10.7790947265625,-0.7285709381103516,-7.169820785522461,2.7417984008789062
1695712612226646800,10.788646728515625,0.1365509033203125,-8.454177856445312,1.535898208618164
1695712612236198700,10.79819873046875,1.5637474060058594,-9.586711883544922,0.7177906036376953
1695712612245720300,10.80772021484375,2.4884605407714844,-9.491785049438477,0.20812034606933594
1695712612255272200,10.817272216796875,2.1380996704101562,-8.39249038696289,-0.033538818359375
1695712612264824300,10.82682421875,1.1421165466308594,-7.3785400390625,0.24405479431152344
1695712612274376200,10.836376220703125,0.5081729888916016,-6.821556091308594,0.7845687866210938
1695712612283897900,10.84589794921875,0.20332908630371094,-6.885639190673828,1.2103919982910156
1695712612293449700,10.85544970703125,-0.03982734680175781,-7.594146728515625,1.0310192108154297
1695712612303001900,10.865001953125,0.6225643157958984,-7.878328323364258,0.8684158325195312
1695712612312553700,10.8745537109375,0.991790771484375,-7.977746963500977,0.8420639038085938
1695712612322075100,10.8840751953125,0.8750038146972656,-8.136756896972656,0.8636245727539062
1695712612331627300,10.893627197265625,0.6153774261474609,-8.228988647460938,0.9546585083007812
1695712612341179100,10.90317919921875,0.2745990753173828,-8.285884857177734,1.1244487762451172
1695712612350731300,10.912731201171875,-0.023057937622070312,-8.32151985168457,1.3756904602050781
1695712612360283100,10.922283203125,-0.1398448944091797,-8.37122917175293,1.478403091430664
1695712612369804800,10.9318046875,-0.27579689025878906,-8.560783386230469,1.4379768371582031
1695712612379356700,10.941356689453125,-0.4710407257080078,-8.807233810424805,1.3828773498535156
1695712612388908800,10.95090869140625,-0.6857490539550781,-8.8734130859375,1.3038215637207031
1695712612398460700,10.960460693359375,-0.8738059997558594,-9.03451919555664,1.4427680969238281
1695712612407982300,10.969982421875,-0.8429622650146484,-9.191133499145508,1.7176666259765625
1695712612417534200,10.9795341796875,-0.6593971252441406,-9.40434455871582,2.0168209075927734
1695712612427086300,10.98908642578125,-0.5021839141845703,-9.676847457885742,2.184215545654297
1695712612436638200,10.99863818359375,-0.5474014282226562,-9.984685897827148,2.1030635833740234
1695712612446159600,11.00815966796875,-0.5521926879882812,-10.34732437133789,1.796722412109375
1695712612455711700,11.017711669921875,-0.1781749725341797,-10.773746490478516,1.4140205383300781
1695712612465263600,11.027263671875,0.4509773254394531,-11.195377349853516,0.9474716186523438
1695712612474815700,11.036815673828125,0.9465732574462891,-11.482254028320312,0.22009849548339844
1695712612484337200,11.046337158203125,0.7749862670898438,-11.477462768554688,-0.4857139587402344
1695712612493889300,11.05588916015625,0.2557334899902344,-11.515493392944336,-0.5935173034667969
1695712612503471600,11.0654716796875,-0.311431884765625,-12.069782257080078,0.06917381286621094
1695712612513023700,11.075023681640625,-0.8190059661865234,-13.05318832397461,0.9807109832763672
1695712612522575600,11.08457568359375,-1.1289405822753906,-13.498476028442383,1.1675701141357422
1695712612532097300,11.09409716796875,-1.221771240234375,-13.59579849243164,0.6698780059814453
1695712612541649200,11.103649169921875,-1.166971206665039,-14.05755615234375,-0.0982208251953125
1695712612551201300,11.113201171875,-0.5782451629638672,-14.28753662109375,-0.6989250183105469
1695712612560753200,11.122753173828125,0.48900794982910156,-13.944063186645508,-1.0648574829101562
1695712612570274800,11.13227490234375,2.228534698486328,-14.00784683227539,-1.1678695678710938
1695712612579826700,11.14182666015625,3.6820831298828125,-14.406120300292969,-0.5815391540527344
1695712612589378800,11.15137890625,3.408082962036133,-13.732948303222656,0.7630081176757812
1695712612598930700,11.1609306640625,2.507326126098633,-12.18117904663086,2.222545623779297
1695712612608452000,11.1704521484375,1.7329387664794922,-10.804590225219727,4.091136932373047
1695712612618004200,11.180004150390625,1.020538330078125,-10.134113311767578,6.180126190185547
1695712612627556000,11.18955615234375,0.4485816955566406,-10.449138641357422,7.5150909423828125
1695712612637108200,11.199108154296875,0.09133338928222656,-11.186094284057617,7.742376327514648
1695712612646660000,11.20866015625,-0.27579689025878906,-12.138357162475586,7.292596817016602
1695712612656181800,11.218181640625,-1.0286235809326172,-12.970239639282227,6.294816970825195
1695712612665733600,11.227733642578125,-2.2605762481689453,-13.609872817993164,4.792457580566406
1695712612675285800,11.23728564453125,-3.573680877685547,-13.92729377746582,3.4308414459228516
1695712612684837600,11.246837646484375,-4.104911804199219,-13.744926452636719,2.502534866333008
1695712612694359300,11.256359375,-3.7593421936035156,-13.199920654296875,1.724853515625
1695712612703911200,11.2659111328125,-2.3773632049560547,-12.588735580444336,1.5670413970947266
1695712612713463300,11.27546337890625,-0.7689971923828125,-12.628862380981445,1.8206787109375
1695712612723015200,11.28501513671875,2.076112747192383,-12.63365364074707,2.337535858154297
1695712612732536600,11.29453662109375,5.176057815551758,-12.474943161010742,2.906797409057617
1695712612742088700,11.304088623046875,6.474788665771484,-11.683486938476562,2.7585678100585938
1695712612751640600,11.313640625,5.0140533447265625,-9.392366409301758,1.7895355224609375
1695712612761192700,11.323192626953125,2.4049129486083984,-7.451906204223633,0.7225818634033203
1695712612770714000,11.332714111328125,0.5393161773681641,-6.4945526123046875,0.6674823760986328
1695712612780266200,11.342266357421876,-0.6974277496337891,-6.049264907836914,0.9807109832763672
1695712612789848600,11.3518486328125,-1.3409538269042969,-5.535102844238281,1.2607002258300781
1695712612799400700,11.361400634765625,-1.3574237823486328,-5.186838150024414,1.588602066040039
1695712612808952600,11.37095263671875,-1.5577583312988281,-5.054180145263672,2.1461849212646484
1695712612818474200,11.38047412109375,-1.681732177734375,-4.909543991088867,2.5432605743408203
1695712612828026000,11.390026123046875,-1.5338020324707031,-4.840669631958008,2.7897109985351562
1695712612837578200,11.399578125,-1.186136245727539,-4.717594146728516,2.8639755249023438
1695712612847130000,11.409130126953125,-0.5782451629638672,-4.511569976806641,2.7849197387695312
1695712612856651800,11.41865185546875,-0.1829662322998047,-4.241462707519531,2.512117385864258
1695712612866203600,11.42820361328125,-0.12577056884765625,-3.940511703491211,2.265666961669922
1695712612875755800,11.437755859375,-0.311431884765625,-3.703643798828125,2.057546615600586
1695712612885307600,11.4473076171875,-0.6522102355957031,-3.5706863403320312,1.9188995361328125
1695712612894829000,11.4568291015625,-1.0406017303466797,-3.405088424682617,1.75360107421875
1695712612904381200,11.466381103515625,-1.5221233367919922,-3.2700347900390625,1.602975845336914
1695712612913933000,11.47593310546875,-1.9413585662841797,-3.1394729614257812,1.487985610961914
1695712612923485200,11.485485107421875,-2.2701587677001953,-3.042449951171875,1.4283943176269531
1695712612933037000,11.495037109375,-2.572906494140625,-3.063711166381836,1.483194351196289
1695712612942558700,11.504558837890626,-3.049337387084961,-3.3290271759033203,1.6149539947509766
1695712612952110600,11.514110595703125,-3.444915771484375,-3.9998035430908203,1.631723403930664
1695712612961662700,11.523662841796876,-3.9024810791015625,-5.054180145263672,1.5430850982666016
1695712612971214600,11.533214599609375,-4.543312072753906,-6.50653076171875,1.478403091430664
1695712612980736300,11.542736328125,-5.468025207519531,-8.553596496582031,1.739227294921875
1695712612990288100,11.5522880859375,-7.052434921264648,-11.299886703491211,2.119832992553711
1695712612999840300,11.56184033203125,-9.292348861694336,-15.064619064331055,2.0599422454833984
1695712613009392000,11.57139208984375,-10.474292755126953,-18.746702194213867,2.0455684661865234
1695712613018913500,11.58091357421875,-9.716375350952148,-21.073457717895508,3.1891822814941406
1695712613028465700,11.590465576171875,-9.444770812988281,-21.2249813079834,4.586433410644531
1695712613038034200,11.6000341796875,-11.927841186523438,-18.957517623901367,5.7327423095703125
1695712613047586000,11.6095859375,-11.808658599853516,-14.242618560791016,6.225643157958984
1695712613057107700,11.619107666015625,-8.403570175170898,-8.010986328125,5.404840469360352
1695712613066659600,11.62865966796875,-4.684055328369141,-2.011730194091797,3.906972885131836
1695712613076242200,11.6382421875,-2.2845325469970703,1.3717975616455078,3.562601089477539
1695712613085794000,11.6477939453125,-1.0549755096435547,1.3930587768554688,3.80426025390625
1695712613095346200,11.65734619140625,-0.8333797454833984,-2.5046310424804688,3.404489517211914
1695712613104867600,11.66686767578125,-3.494924545288086,-9.117467880249023,3.799468994140625
1695712613114419700,11.676419677734375,-8.298761367797852,-17.659086227416992,5.103290557861328
1695712613123971600,11.6859716796875,-9.811901092529297,-25.705707550048828,5.62493896484375
1695712613133523700,11.695523681640625,-2.584585189819336,-27.075109481811523,4.220500946044922
1695712613143045000,11.705045166015625,6.193601608276367,-18.455333709716797,3.4068851470947266
1695712613152597000,11.714596923828125,2.497743606567383,-10.643484115600586,2.6627426147460938
1695712613162149000,11.724149169921875,-2.193798065185547,-3.499715805053711,0.04282188415527344
1695712613171701000,11.733700927734375,2.002147674560547,2.0350875854492188,-1.1846389770507812
1695712613181222700,11.74322265625,6.269962310791016,3.9189510345458984,0.5668659210205078
1695712613190774500,11.7527744140625,4.76640510559082,2.9166793823242188,2.9858531951904297
1695712613200326700,11.76232666015625,-0.04940986633300781,-1.9263858795166016,3.442819595336914
1695712613209878500,11.77187841796875,-2.394132614135742,-9.435188293457031,2.332744598388672
1695712613219430700,11.7814306640625,-2.227336883544922,-15.884523391723633,1.2271614074707031
1695712613228952000,11.7909521484375,-1.0882148742675781,-18.815576553344727,-0.1269683837890625
1695712613238504200,11.800504150390625,0.7013206481933594,-18.211278915405273,-0.5551872253417969
1695712613248056000,11.81005615234375,1.91650390625,-16.443603515625,-0.138946533203125
1695712613257608200,11.819608154296875,1.2349472045898438,-13.110084533691406,1.1316356658935547
1695712613267129600,11.829129638671875,0.4153423309326172,-9.95623779296875,2.8136672973632812
1695712613276681500,11.838681396484375,-0.3473663330078125,-7.674699783325195,4.134258270263672
1695712613286233600,11.848233642578125,-0.5093708038330078,-6.478082656860352,4.318721771240234
1695712613295785500,11.857785400390625,-0.9453754425048828,-6.103765487670898,3.1748085021972656
1695712613305307100,11.86730712890625,-1.5053539276123047,-6.402320861816406,1.617349624633789
1695712613314859000,11.87685888671875,-1.212188720703125,-7.255165100097656,0.4713401794433594
1695712613324411100,11.8864111328125,-0.05420112609863281,-8.634149551391602,0.04761314392089844
1695712613333963000,11.895962890625,1.5877037048339844,-9.937372207641602,0.14104270935058594
1695712613343515100,11.90551513671875,2.462108612060547,-10.46800422668457,0.4114494323730469
1695712613353036500,11.91503662109375,2.1045608520507812,-9.944559097290039,0.3994712829589844
1695712613362619100,11.924619140625,1.1993122100830078,-8.655410766601562,0.19853782653808594
1695712613372171000,11.9341708984375,0.5153598785400391,-7.451906204223633,0.4330101013183594
1695712613381723100,11.94372314453125,0.12457275390625,-6.989849090576172,0.8181076049804688
1695712613391244500,11.95324462890625,0.4294166564941406,-7.283613204956055,1.0310192108154297
1695712613400796700,11.962796630859375,0.9013557434082031,-7.769327163696289,1.1436138153076172
1695712613410348500,11.9723486328125,1.094503402709961,-8.446990966796875,1.3732948303222656
1695712613419900700,11.981900634765625,1.0441951751708984,-8.477834701538086,1.4568424224853516
1695712613429422000,11.991422119140625,0.7630081176757812,-8.010986328125,1.3613166809082031
1695712613438974000,12.000973876953125,0.2581291198730469,-7.695960998535156,1.2343482971191406
1695712613448526000,12.010526123046875,-0.20901870727539062,-7.672304153442383,1.1052837371826172
1695712613458078000,12.020077880859375,-0.4138450622558594,-7.996912002563477,0.8708114624023438
1695712613467630000,12.029630126953125,-0.40216636657714844,-8.437408447265625,0.7010211944580078
1695712613477151500,12.0391513671875,-0.29735755920410156,-8.854547500610352,0.7010211944580078
1695712613486703600,12.04870361328125,-0.38539695739746094,-9.160289764404297,0.7725906372070312
1695712613496255500,12.05825537109375,-0.5354232788085938,-9.53460693359375,0.9831066131591797
1695712613505807600,12.0678076171875,-0.8142147064208984,-9.724161148071289,1.2583045959472656
1695712613515329000,12.0773291015625,-0.9690322875976562,-9.81429672241211,1.559854507446289
1695712613524881200,12.086881103515625,-0.8142147064208984,-9.927789688110352,1.674844741821289
1695712613534433000,12.09643310546875,-0.6189708709716797,-10.250001907348633,1.593393325805664
1695712613543985200,12.105985107421875,-0.25423622131347656,-10.773746490478516,1.492776870727539
1695712613553506600,12.115506591796875,0.24135971069335938,-11.138481140136719,1.3708992004394531
1695712613563058400,12.125058349609375,0.49379920959472656,-11.160041809082031,0.8636245727539062
1695712613572610600,12.134610595703125,0.2985553741455078,-11.143272399902344,0.24165916442871094
1695712613582162400,12.144162353515625,0.05779457092285156,-11.446619033813477,0.03803062438964844
1695712613591684000,12.15368408203125,-0.23776626586914062,-12.038938522338867,0.3443717956542969
1695712613601236000,12.163236083984375,-0.5854320526123047,-12.567474365234375,0.7606124877929688
1695712613610788000,12.1727880859375,-0.7977447509765625,-12.709415435791016,0.9807109832763672
1695712613620340000,12.182340087890625,-0.5926189422607422,-12.39199447631836,0.7510299682617188
1695712613629892000,12.19189208984375,-0.4734363555908203,-12.71420669555664,0.22488975524902344
1695712613639413500,12.20141357421875,-0.3258056640625,-14.401329040527344,0.09313011169433594
1695712613648996000,12.21099609375,0.024555206298828125,-15.559915542602539,-0.052703857421875
1695712613658548000,12.2205478515625,0.8085250854492188,-15.417675018310547,-0.6342430114746094
1695712613668100000,12.23010009765625,2.1141433715820312,-14.721145629882812,-0.5527915954589844
