time,seconds_elapsed,z,y,x
1695712601623498200,0.185498291015625,0.0714111328125,-0.1641845703125,-1.16363525390625
1695712601633080800,0.195080810546875,-0.03143310546875,-0.1593017578125,-1.122283935546875
1695712601642602200,0.204602294921875,0.113525390625,-0.312347412109375,-1.114044189453125
1695712601652154400,0.214154296875,0.32562255859375,-0.705413818359375,-1.101837158203125
1695712601661706200,0.223706298828125,0.4364013671875,-0.90362548828125,-1.114044189453125
1695712601671258400,0.23325830078125,0.455322265625,-0.702362060546875,-1.083221435546875
1695712601680779800,0.24277978515625,0.4058837890625,-0.52001953125,-1.003570556640625
1695712601690331600,0.25233154296875,0.216827392578125,-0.56365966796875,-0.91094970703125
1695712601699883800,0.2618837890625,-0.040435791015625,-0.877685546875,-0.751495361328125
1695712601709435600,0.271435546875,-0.191802978515625,-1.26922607421875,-0.333404541015625
1695712601718987800,0.28098779296875,-0.185699462890625,-1.69219970703125,0.28717041015625
1695712601728509200,0.29050927734375,-0.095672607421875,-2.31414794921875,0.96435546875
1695712601738061300,0.300061279296875,-0.03204345703125,-3.0902099609375,1.578369140625
1695712601747613200,0.30961328125,-0.078887939453125,-3.8653564453125,2.01995849609375
1695712601757165300,0.319165283203125,-0.27252197265625,-4.53033447265625,2.218780517578125
1695712601766686700,0.328686767578125,-0.574798583984375,-4.789886474609375,2.208404541015625
1695712601776238800,0.33823876953125,-0.922088623046875,-4.358978271484375,2.00714111328125
1695712601785790700,0.347790771484375,-1.276397705078125,-3.51409912109375,1.553497314453125
1695712601795342800,0.3573427734375,-1.45477294921875,-2.33245849609375,1.062164306640625
1695712601804864300,0.3668642578125,-1.32293701171875,-1.175384521484375,0.717620849609375
1695712601814416100,0.376416015625,-0.95123291015625,-0.340118408203125,0.457000732421875
1695712601823968300,0.38596826171875,-0.554962158203125,0.4449462890625,0.2398681640625
1695712601833520000,0.39552001953125,-0.210418701171875,0.858154296875,-0.04547119140625
1695712601843041800,0.405041748046875,0.1141357421875,0.945281982421875,-0.353546142578125
1695712601852593700,0.41459375,0.4443359375,0.962677001953125,-0.58502197265625
1695712601862145800,0.424145751953125,0.79681396484375,1.12518310546875,-0.649261474609375
1695712601871697700,0.43369775390625,1.136474609375,1.432647705078125,-0.54962158203125
1695712601881219000,0.443218994140625,1.327667236328125,1.663055419921875,-0.42877197265625
1695712601890771200,0.452771240234375,1.233978271484375,1.706695556640625,-0.402069091796875
1695712601900323000,0.462322998046875,0.84014892578125,1.664581298828125,-0.4864501953125
1695712601909875200,0.471875244140625,0.316162109375,1.55792236328125,-0.679473876953125
1695712601919457800,0.481457763671875,-0.073699951171875,1.436309814453125,-0.88897705078125
1695712601928979200,0.490979248046875,-0.215301513671875,1.374969482421875,-1.038970947265625
1695712601938531300,0.50053125,-0.132904052734375,1.23260498046875,-1.126708984375
1695712601948083200,0.510083251953125,0.120391845703125,0.951080322265625,-1.1492919921875
1695712601957635300,0.51963525390625,0.4351806640625,0.52490234375,-1.1273193359375
1695712601967156700,0.52915673828125,0.672607421875,0.14923095703125,-1.070404052734375
1695712601976708600,0.53870849609375,0.77484130859375,0.10589599609375,-0.93658447265625
1695712601986260700,0.5482607421875,0.73272705078125,0.297698974609375,-0.752105712890625
1695712601995812600,0.5578125,0.552215576171875,0.4852294921875,-0.55999755859375
1695712602005364700,0.56736474609375,0.290374755859375,0.51727294921875,-0.376129150390625
1695712602014886100,0.57688623046875,0.05340576171875,0.249481201171875,-0.2099609375
1695712602024438300,0.586438232421875,-0.03692626953125,-0.397796630859375,-0.033721923828125
1695712602033990100,0.595990234375,-0.00091552734375,-1.145782470703125,0.2294921875
1695712602043542300,0.605542236328125,0.087890625,-1.872100830078125,0.58349609375
1695712602053063700,0.615063720703125,0.177764892578125,-2.547149658203125,1.020355224609375
1695712602062615600,0.624615478515625,0.222320556640625,-3.16741943359375,1.508636474609375
1695712602072167700,0.634167724609375,0.220794677734375,-3.76251220703125,2.0263671875
1695712602081719800,0.6437197265625,0.196380615234375,-4.362335205078125,2.552032470703125
1695712602091241200,0.6532412109375,0.144195556640625,-4.977264404296875,3.04534912109375
1695712602100793000,0.66279296875,0.0335693359375,-5.5859375,3.46893310546875
1695712602110345200,0.67234521484375,-0.150909423828125,-6.180572509765625,3.79852294921875
1695712602119897000,0.68189697265625,-0.413055419921875,-6.68975830078125,4.024505615234375
1695712602129418800,0.691418701171875,-0.6317138671875,-5.90087890625,3.700103759765625
1695712602138970600,0.700970703125,-0.699462890625,-3.77532958984375,2.532501220703125
1695712602148522800,0.710522705078125,-0.71441650390625,-1.96624755859375,1.21551513671875
1695712602158074600,0.72007470703125,-0.560455322265625,-0.5914306640625,0.106964111328125
1695712602167626800,0.729626708984375,-0.27130126953125,0.603179931640625,-0.637359619140625
1695712602177148200,0.739148193359375,0.05401611328125,1.62445068359375,-1.14990234375
1695712602186700000,0.748699951171875,0.34637451171875,1.9384765625,-1.436004638671875
1695712602196252200,0.758252197265625,0.532379150390625,1.9647216796875,-1.450958251953125
1695712602205834800,0.767834716796875,0.592803955078125,1.85150146484375,-1.314544677734375
1695712602215356200,0.777356201171875,0.550079345703125,1.391448974609375,-1.16546630859375
1695712602224908300,0.786908203125,0.46356201171875,0.7769775390625,-1.018524169921875
1695712602234460200,0.796460205078125,0.3607177734375,0.1446533203125,-0.85418701171875
1695712602244012300,0.80601220703125,0.214080810546875,-0.1739501953125,-0.607147216796875
1695712602253533700,0.81553369140625,0.0201416015625,0.089111328125,-0.257720947265625
1695712602263085600,0.82508544921875,-0.175323486328125,0.707244873046875,0.051116943359375
1695712602272637700,0.8346376953125,-0.296630859375,1.26739501953125,0.14678955078125
1695712602282189600,0.844189453125,-0.28839111328125,1.5667724609375,0.052032470703125
1695712602291741700,0.85374169921875,-0.084381103515625,1.774444580078125,-0.12115478515625
1695712602301263000,0.86326318359375,0.279388427734375,2.020111083984375,-0.297698974609375
1695712602310815200,0.872815185546875,0.637054443359375,2.121429443359375,-0.46600341796875
1695712602320367000,0.8823671875,0.8123779296875,1.9342041015625,-0.613250732421875
1695712602329919200,0.891919189453125,0.750732421875,1.369781494140625,-0.707855224609375
1695712602339440600,0.901440673828125,0.42388916015625,0.632171630859375,-0.639801025390625
1695712602348992500,0.910992431640625,-0.01739501953125,-0.016326904296875,-0.318450927734375
1695712602358544600,0.920544677734375,-0.448760986328125,-0.499267578125,0.19866943359375
1695712602368096500,0.930096435546875,-0.780792236328125,-0.846405029296875,0.783843994140625
1695712602377618200,0.9396181640625,-0.9600830078125,-1.096038818359375,1.29547119140625
1695712602387170000,0.949170166015625,-0.9912109375,-1.3427734375,1.612548828125
1695712602396722200,0.95872216796875,-0.872039794921875,-1.544952392578125,1.72760009765625
1695712602406274000,0.968274169921875,-0.61737060546875,-1.496734619140625,1.58782958984375
1695712602415795700,0.977795654296875,-0.2801513671875,-1.3134765625,1.155548095703125
1695712602425347600,0.98734765625,0.02655029296875,-1.183013916015625,0.615234375
1695712602434899700,0.996899658203125,0.194244384765625,-0.8673095703125,0.15960693359375
1695712602444451600,1.00645166015625,0.12054443359375,-0.477752685546875,-0.13916015625
1695712602454003700,1.016003662109375,0.01190185546875,-0.14190673828125,-0.351104736328125
1695712602463525000,1.025525146484375,0.02197265625,0.0531005859375,-0.440673828125
1695712602473077000,1.035076904296875,0.05157470703125,0.15472412109375,-0.423583984375
1695712602482629000,1.044629150390625,0.06500244140625,0.1690673828125,-0.4144287109375
1695712602492211700,1.054211669921875,0.133819580078125,0.04302978515625,-0.47760009765625
1695712602501733000,1.063733154296875,0.285491943359375,-0.20477294921875,-0.5706787109375
1695712602511285000,1.073284912109375,0.47119140625,-0.463104248046875,-0.612030029296875
1695712602520837000,1.082837158203125,0.645904541015625,-0.64178466796875,-0.533447265625
1695712602530389000,1.092388916015625,0.7293701171875,-0.688018798828125,-0.324554443359375
1695712602539910700,1.10191064453125,0.659027099609375,-0.786590576171875,-0.1104736328125
1695712602549462500,1.111462646484375,0.45318603515625,-0.57708740234375,0.123291015625
1695712602559014700,1.1210146484375,0.249481201171875,-0.345306396484375,0.320281982421875
1695712602568566500,1.13056640625,0.158538818359375,-0.24932861328125,0.411834716796875
1695712602578118700,1.14011865234375,0.172882080078125,-0.388031005859375,0.408782958984375
1695712602587640000,1.14964013671875,0.224456787109375,-0.59906005859375,0.373382568359375
1695712602597192200,1.159192138671875,0.222320556640625,-0.800933837890625,0.358428955078125
1695712602606744000,1.168744140625,0.149078369140625,-0.9893798828125,0.422515869140625
1695712602616296200,1.178296142578125,0.02593994140625,-1.095733642578125,0.5914306640625
1695712602625817600,1.187817626953125,-0.095977783203125,-1.107330322265625,0.85296630859375
1695712602635369500,1.197369384765625,-0.166778564453125,-0.986328125,1.174163818359375
1695712602644921600,1.206921630859375,-0.147552490234375,-0.93048095703125,1.528167724609375
1695712602654473500,1.216473388671875,-0.059967041015625,-1.124725341796875,1.857757568359375
1695712602663995100,1.2259951171875,0.08544921875,-1.528472900390625,2.08343505859375
1695712602673547000,1.235547119140625,0.226593017578125,-1.851959228515625,2.189788818359375
1695712602683099100,1.24509912109375,0.216827392578125,-1.98638916015625,2.08160400390625
1695712602692651000,1.254651123046875,0.113525390625,-1.853485107421875,1.808013916015625
1695712602702172700,1.264172607421875,0.106201171875,-1.467132568359375,1.5924072265625
1695712602711724500,1.273724609375,0.210418701171875,-0.99822998046875,1.419525146484375
1695712602721276700,1.283276611328125,0.37811279296875,-0.471649169921875,1.190032958984375
1695712602730828500,1.29282861328125,0.558013916015625,0.09124755859375,0.8673095703125
1695712602740350000,1.302349853515625,0.71685791015625,0.46783447265625,0.48095703125
1695712602749902000,1.311902099609375,0.941314697265625,0.50689697265625,0.15472412109375
1695712602759454000,1.321453857421875,1.1895751953125,0.404052734375,-0.05096435546875
1695712602769006000,1.331006103515625,1.42425537109375,0.1922607421875,-0.1104736328125
1695712602778588700,1.340588623046875,1.702117919921875,-0.19378662109375,-0.007781982421875
1695712602788110000,1.350110107421875,1.983795166015625,-0.8538818359375,0.319671630859375
1695712602797662000,1.359661865234375,2.1148681640625,-1.72027587890625,0.87371826171875
1695712602807214000,1.369214111328125,2.1258544921875,-2.625579833984375,1.446685791015625
1695712602816766000,1.378765869140625,2.18780517578125,-3.238677978515625,1.814727783203125
1695712602826287600,1.38828759765625,2.347869873046875,-3.402099609375,2.03948974609375
1695712602835839500,1.397839599609375,2.56805419921875,-3.251800537109375,2.283935546875
1695712602845391600,1.4073916015625,2.85736083984375,-3.0364990234375,2.612457275390625
1695712602854943500,1.416943603515625,3.26202392578125,-2.905731201171875,3.076171875
1695712602864495600,1.42649560546875,3.847808837890625,-2.834930419921875,3.692169189453125
1695712602874017000,1.43601708984375,4.6630859375,-2.78167724609375,4.375762939453125
1695712602883569200,1.445569091796875,5.555877685546875,-2.629241943359375,4.91363525390625
1695712602893121000,1.45512109375,6.361846923828125,-2.177581787109375,5.102691650390625
1695712602902673200,1.464673095703125,7.2515869140625,-1.353759765625,5.012054443359375
1695712602912194600,1.474194580078125,7.88604736328125,-0.693206787109375,4.640350341796875
1695712602921746400,1.483746337890625,8.01116943359375,-0.458221435546875,4.208984375
1695712602931298600,1.493298583984375,7.725677490234375,-0.5096435546875,4.022674560546875
1695712602940850400,1.502850341796875,7.21038818359375,-0.732879638671875,4.156494140625
1695712602950372000,1.5123720703125,6.769256591796875,-1.187591552734375,4.476318359375
1695712602959924000,1.521924072265625,6.4886474609375,-1.73736572265625,4.8028564453125
1695712602969476000,1.53147607421875,6.324005126953125,-2.177886962890625,5.077667236328125
1695712602979028000,1.541028076171875,6.305389404296875,-2.29278564453125,5.340118408203125
1695712602988549600,1.550549560546875,6.346282958984375,-2.209930419921875,5.467681884765625
1695712602998101500,1.5601015625,6.324310302734375,-2.008056640625,5.481719970703125
1695712603007653600,1.569653564453125,6.1846923828125,-1.741180419921875,5.417022705078125
1695712603017205500,1.57920556640625,5.920562744140625,-1.498870849609375,5.28778076171875
1695712603026757600,1.588757568359375,5.544281005859375,-1.26190185546875,5.118560791015625
1695712603045799700,1.607799560546875,4.3170166015625,-1.157073974609375,4.670562744140625
1695712603055351600,1.6173515625,3.54827880859375,-1.200408935546875,4.45098876953125
1695712603064934100,1.62693408203125,2.790374755859375,-1.057586669921875,4.264373779296875
1695712603074455600,1.63645556640625,2.075347900390625,-0.750885009765625,4.10186767578125
1695712603084007700,1.646007568359375,1.470947265625,-0.65399169921875,4.016876220703125
1695712603093559600,1.6555595703125,0.981903076171875,-1.23046875,4.065093994140625
1695712603103111700,1.665111572265625,1.02264404296875,-5.1904296875,3.259429931640625
1695712603112633000,1.674633056640625,1.352996826171875,-9.61761474609375,1.446685791015625
1695712603122185200,1.684185302734375,1.8365478515625,-8.654327392578125,0.2789306640625
1695712603131737000,1.693737060546875,2.302703857421875,-3.4539794921875,-0.749969482421875
1695712603141289200,1.703289306640625,2.714385986328125,0.578765869140625,-0.47760009765625
1695712603150841000,1.712841064453125,3.094024658203125,1.53106689453125,0.769500732421875
1695712603160362500,1.722362548828125,3.26446533203125,1.5155029296875,1.884918212890625
1695712603169914600,1.73191455078125,2.91900634765625,0.317230224609375,2.249603271484375
1695712603179466500,1.741466552734375,2.14447021484375,-0.889892578125,1.848602294921875
1695712603189018600,1.7510185546875,1.4971923828125,-1.030426025390625,1.22589111328125
1695712603198540000,1.7605400390625,1.16424560546875,-0.518798828125,0.687408447265625
1695712603208092200,1.770092041015625,1.002655029296875,0.19378662109375,0.362701416015625
1695712603217644000,1.77964404296875,0.75531005859375,0.618133544921875,0.297698974609375
1695712603227196200,1.789196044921875,0.39886474609375,0.674285888671875,0.316009521484375
1695712603236717600,1.798717529296875,0.0689697265625,0.18798828125,0.28228759765625
1695712603246269700,1.808269775390625,-0.064239501953125,-0.832366943359375,0.16937255859375
1695712603255821600,1.817821533203125,-0.048065185546875,-1.6864013671875,0.174560546875
1695712603265373700,1.827373779296875,-0.051116943359375,-1.910552978515625,0.379180908203125
1695712603274895000,1.83689501953125,-0.2374267578125,-1.732177734375,0.818634033203125
1695712603284447000,1.846447021484375,-0.2960205078125,-1.59698486328125,1.113433837890625
1695712603293999000,1.8559990234375,0.07720947265625,-1.127166748046875,0.94268798828125
1695712603303551000,1.865551025390625,0.66741943359375,-0.092620849609375,0.60028076171875
1695712603313103000,1.87510302734375,1.200714111328125,0.43548583984375,0.18646240234375
1695712603322624500,1.88462451171875,1.583709716796875,0.46234130859375,-0.1312255859375
1695712603332176600,1.8941767578125,1.715850830078125,0.41015625,-0.258941650390625
1695712603341728500,1.903728515625,1.717987060546875,0.346527099609375,-0.277557373046875
1695712603351311000,1.91331103515625,1.7681884765625,0.216217041015625,-0.335235595703125
1695712603360832500,1.92283251953125,1.938018798828125,0.17333984375,-0.4443359375
1695712603370384600,1.932384521484375,2.323150634765625,0.19012451171875,-0.49835205078125
1695712603379936500,1.9419365234375,2.58758544921875,0.311126708984375,-0.56182861328125
1695712603389488600,1.951488525390625,2.402496337890625,0.254364013671875,-0.504150390625
1695712603399010000,1.961010009765625,2.237548828125,0.585479736328125,-0.605316162109375
1695712603408562200,1.970562255859375,2.13623046875,1.50848388671875,-1.029205322265625
1695712603418114000,1.980114013671875,1.78009033203125,1.768646240234375,-1.129150390625
1695712603427666200,1.989666259765625,1.320343017578125,1.5557861328125,-0.978240966796875
1695712603437218000,1.999218017578125,1.15020751953125,1.438751220703125,-0.92529296875
1695712603446739500,2.008739501953125,1.215972900390625,1.259765625,-0.8551025390625
1695712603456291600,2.01829150390625,1.46209716796875,1.464385986328125,-0.78277587890625
1695712603465843500,2.027843505859375,1.592254638671875,1.58477783203125,-0.675506591796875
1695712603475395600,2.0373955078125,1.572418212890625,1.739044189453125,-0.45379638671875
1695712603484917000,2.0469169921875,1.4886474609375,2.810821533203125,0.16998291015625
1695712603494469000,2.05646923828125,1.564788818359375,4.08599853515625,0.782623291015625
1695712603504051500,2.066051513671875,1.49200439453125,3.193511962890625,0.12908935546875
1695712603513664500,2.07566455078125,0.919036865234375,1.86767578125,-0.047760009765625
1695712603523277600,2.085277587890625,0.273590087890625,0.642242431640625,-0.019378662109375
1695712603532890600,2.094890625,-0.144195556640625,0.1287841796875,0.18310546875
1695712603542503700,2.104503662109375,-0.119171142578125,-0.2423095703125,0.56671142578125
1695712603552116700,2.11411669921875,0.182342529296875,-0.95184326171875,1.2359619140625
1695712603561729800,2.123729736328125,0.3118896484375,-1.920623779296875,1.66717529296875
1695712603571373300,2.133373291015625,0.233306884765625,-3.08837890625,1.450042724609375
1695712603589836500,2.15183642578125,0.543670654296875,-2.466888427734375,0.016937255859375
1695712603599388400,2.161388427734375,0.771484375,-1.5826416015625,-0.53070068359375
1695712603608971000,2.170970947265625,1.03546142578125,-1.143341064453125,-0.8935546875
1695712603618553600,2.1805537109375,1.316986083984375,-1.090850830078125,-1.090850830078125
1695712603628105500,2.19010546875,1.55364990234375,-1.133880615234375,-1.1566162109375
1695712603637688000,2.19968798828125,1.654205322265625,-1.21826171875,-1.1907958984375
1695712603647209500,2.20920947265625,1.583404541015625,-1.23779296875,-1.15753173828125
1695712603656761600,2.21876171875,1.573944091796875,-1.189727783203125,-1.16973876953125
1695712603666313500,2.2283134765625,1.576690673828125,-1.116180419921875,-1.19476318359375
1695712603675865600,2.237865478515625,1.591339111328125,-0.9503173828125,-1.1236572265625
1695712603685387000,2.247386962890625,1.81610107421875,-0.800018310546875,-1.15386962890625
1695712603694939100,2.256939208984375,2.11944580078125,-0.53863525390625,-1.22222900390625
1695712603704491000,2.266490966796875,2.4951171875,-0.323028564453125,-1.26953125
1695712603714043100,2.276043212890625,2.63580322265625,-0.012969970703125,-1.396026611328125
1695712603723595000,2.285594970703125,2.413177490234375,0.17059326171875,-1.360931396484375
1695712603733116400,2.295116455078125,2.2369384765625,0.241241455078125,-1.13128662109375
1695712603742668500,2.30466845703125,1.8914794921875,0.45013427734375,-1.005401611328125
1695712603752220400,2.314220458984375,1.375274658203125,0.737457275390625,-0.8526611328125
1695712603761772500,2.3237724609375,0.994415283203125,1.020965576171875,-0.590972900390625
1695712603771294000,2.3332939453125,0.66314697265625,1.22772216796875,-0.347137451171875
1695712603780846000,2.34284619140625,0.35797119140625,1.370697021484375,-0.1922607421875
1695712603790398000,2.35239794921875,0.106201171875,1.4935302734375,-0.10833740234375
1695712603799950000,2.3619501953125,0.02960205078125,1.561279296875,-0.079345703125
1695712603809471500,2.371471435546875,0.06439208984375,1.55181884765625,-0.15655517578125
1695712603819023600,2.381023681640625,0.189666748046875,1.19171142578125,-0.233917236328125
1695712603828575500,2.390575439453125,0.560760498046875,1.025238037109375,-0.1678466796875
1695712603838127600,2.400127685546875,0.6927490234375,1.16973876953125,-0.22186279296875
1695712603847679500,2.409679443359375,0.6890869140625,1.51641845703125,-0.276031494140625
1695712603857201000,2.419200927734375,0.574188232421875,1.804962158203125,-0.261077880859375
1695712603866753000,2.4287529296875,0.269317626953125,1.754302978515625,-0.09857177734375
1695712603876305000,2.438304931640625,0.165252685546875,0.995941162109375,0.094757080078125
1695712603885857000,2.44785693359375,0.44891357421875,0.40435791015625,0.098114013671875
1695712603895378400,2.45737841796875,0.775146484375,-0.027618408203125,-0.029144287109375
1695712603904930600,2.4669306640625,1.09893798828125,-0.185546875,-0.078125
1695712603914482400,2.476482421875,1.39373779296875,0.04058837890625,-0.0567626953125
1695712603924065000,2.48606494140625,1.628875732421875,0.5047607421875,-0.13214111328125
1695712603933586400,2.49558642578125,1.763916015625,1.000213623046875,-0.293731689453125
1695712603943138600,2.505138671875,1.7889404296875,1.259765625,-0.45989990234375
1695712603952690400,2.5146904296875,1.722259521484375,1.084747314453125,-0.56427001953125
1695712603962242600,2.52424267578125,1.607208251953125,0.56427001953125,-0.5743408203125
1695712603971794400,2.53379443359375,1.453857421875,0.0689697265625,-0.53436279296875
1695712603981316000,2.543316162109375,1.270599365234375,-0.16387939453125,-0.4876708984375
1695712603990868000,2.552867919921875,1.03759765625,-0.1275634765625,-0.45166015625
1695712604000420000,2.562420166015625,0.73760986328125,0.1788330078125,-0.41015625
1695712604009972000,2.571971923828125,0.38055419921875,0.615081787109375,-0.334930419921875
1695712604019493400,2.581493408203125,0.06683349609375,1.038970947265625,-0.20294189453125
1695712604029045500,2.59104541015625,-0.108795166015625,1.372222900390625,-0.10162353515625
1695712604038597400,2.600597412109375,0.126495361328125,1.092376708984375,-1.090850830078125
1695712604048149500,2.6101494140625,0.915679931640625,-0.091094970703125,-1.640625
1695712604057671000,2.6196708984375,0.971221923828125,-0.643310546875,-0.676727294921875
1695712604067223000,2.62922314453125,1.0467529296875,-0.076751708984375,-0.298919677734375
1695712604076775000,2.63877490234375,1.226043701171875,0.633697509765625,-0.352935791015625
1695712604086327000,2.6483271484375,1.636199951171875,0.89874267578125,-0.342864990234375
1695712604095848400,2.657848388671875,2.013702392578125,0.716400146484375,0.099334716796875
1695712604105400300,2.667400390625,2.48992919921875,0.5352783203125,0.12054443359375
1695712604114952400,2.676952392578125,2.718353271484375,0.404052734375,-0.674896240234375
1695712604124504300,2.68650439453125,2.63763427734375,0.247344970703125,-1.697845458984375
1695712604134056400,2.696056396484375,2.395782470703125,-0.402984619140625,-1.533203125
1695712604143577900,2.705577880859375,2.059173583984375,-0.833282470703125,-1.50848388671875
1695712604153130000,2.7151298828125,1.38214111328125,-0.792083740234375,-1.459808349609375
1695712604162681900,2.724681884765625,0.81787109375,0.696563720703125,-0.2178955078125
1695712604172234000,2.73423388671875,0.662689208984375,3.07281494140625,2.03155517578125
1695712604181755400,2.74375537109375,0.7904052734375,4.35211181640625,3.536834716796875
1695712604191307500,2.7533076171875,1.195068359375,4.01824951171875,3.647918701171875
1695712604200889900,2.762889892578125,1.661834716796875,2.903289794921875,3.268890380859375
1695712604210442000,2.77244189453125,1.873779296875,1.383819580078125,2.7783203125
1695712604219963400,2.78196337890625,1.45751953125,-0.17547607421875,1.770477294921875
1695712604229515500,2.791515625,0.46966552734375,-1.2774658203125,0.845947265625
1695712604239067400,2.8010673828125,-0.70098876953125,-1.36688232421875,0.308380126953125
1695712604248619500,2.81061962890625,-1.192474365234375,-1.063690185546875,0.19683837890625
1695712604258171400,2.82017138671875,-0.893707275390625,-0.440826416015625,0.318756103515625
1695712604267692800,2.82969287109375,-0.170745849609375,0.072021484375,0.509033203125
1695712604277245000,2.839244873046875,0.43182373046875,-0.103302001953125,0.55328369140625
1695712604286796800,2.848796875,0.279083251953125,-0.411529541015625,0.56121826171875
1695712604296349000,2.858348876953125,0.08697509765625,-0.51544189453125,0.439605712890625
1695712604305870300,2.867870361328125,0.1080322265625,-0.330657958984375,0.19195556640625
1695712604315422500,2.87742236328125,0.136871337890625,-0.061492919921875,0.074310302734375
1695712604324974300,2.886974365234375,0.189361572265625,-0.072784423828125,0.051422119140625
1695712604334526500,2.8965263671875,0.197601318359375,-0.3033447265625,0.108489990234375
1695712604344047900,2.9060478515625,0.225982666015625,-0.4949951171875,0.21240234375
1695712604353600000,2.91560009765625,0.236663818359375,-0.471343994140625,0.26336669921875
1695712604363152000,2.92515185546875,0.215911865234375,-0.374298095703125,0.29266357421875
1695712604372704000,2.9347041015625,0.197906494140625,-0.267333984375,0.380096435546875
1695712604382225400,2.944225341796875,0.141143798828125,-0.174560546875,0.5810546875
1695712604391777300,2.95377734375,0.06927490234375,-0.111846923828125,0.802154541015625
1695712604401329400,2.963329345703125,0.003662109375,-0.110015869140625,0.95550537109375
1695712604410881300,2.97288134765625,0.00335693359375,-0.25146484375,0.97747802734375
1695712604420433400,2.982433349609375,0.0079345703125,-0.50445556640625,0.8990478515625
1695712604429954800,2.991954833984375,-0.0140380859375,-0.685882568359375,0.809783935546875
1695712604439507000,3.0015068359375,-0.037841796875,-0.8709716796875,0.664825439453125
1695712604449058800,3.011058837890625,-0.103302001953125,-1.139373779296875,0.403900146484375
1695712604458611000,3.02061083984375,-0.106353759765625,-0.766143798828125,0.473175048828125
1695712604468132400,3.03013232421875,-0.122833251953125,-0.4937744140625,0.684051513671875
1695712604477684500,3.0396845703125,-0.131988525390625,-0.5584716796875,0.683746337890625
1695712604487266800,3.049266845703125,-0.140228271484375,-0.677337646484375,0.54534912109375
1695712604496819000,3.05881884765625,-0.145111083984375,-0.734710693359375,0.437469482421875
1695712604506340400,3.06834033203125,-0.143280029296875,-0.774078369140625,0.399627685546875
1695712604515892500,3.077892578125,-0.142059326171875,-0.822296142578125,0.381622314453125
1695712604525444400,3.0874443359375,-0.142974853515625,-0.85845947265625,0.363006591796875
1695712604534996500,3.09699658203125,-0.144195556640625,-0.85235595703125,0.368499755859375
1695712604544548400,3.10654833984375,-0.150909423828125,-0.807952880859375,0.396270751953125
1695712604554069800,3.11606982421875,-0.161285400390625,-0.760345458984375,0.432586669921875
1695712604563622000,3.125621826171875,-0.173187255859375,-0.722503662109375,0.458831787109375
1695712604573173800,3.135173828125,-0.186309814453125,-0.693206787109375,0.467376708984375
1695712604582726000,3.144725830078125,-0.189666748046875,-0.664825439453125,0.449676513671875
1695712604592247300,3.154247314453125,-0.175628662109375,-0.65155029296875,0.413970947265625
1695712604601799400,3.16379931640625,-0.150909423828125,-0.670013427734375,0.370330810546875
1695712604611351300,3.173351318359375,-0.114593505859375,-0.720672607421875,0.325164794921875
1695712604620903400,3.1829033203125,-0.077056884765625,-0.753021240234375,0.267333984375
1695712604630424800,3.1924248046875,-0.047149658203125,-0.734100341796875,0.19317626953125
1695712604639977000,3.20197705078125,-0.0335693359375,-0.702362060546875,0.113983154296875
1695712604649528800,3.21152880859375,-0.03936767578125,-0.668792724609375,0.047760009765625
1695712604659081000,3.2210810546875,-0.055999755859375,-0.63446044921875,-0.003509521484375
1695712604668602400,3.230602294921875,-0.089263916015625,-0.61920166015625,-0.037689208984375
1695712604678154200,3.240154296875,-0.172576904296875,-0.645751953125,-0.038604736328125
1695712604687706400,3.249706298828125,-0.24871826171875,-0.756378173828125,-0.040130615234375
1695712604697258200,3.25925830078125,-0.29815673828125,-0.8587646484375,-0.05096435546875
1695712604706810400,3.268810302734375,-0.33599853515625,-0.88531494140625,-0.08544921875
1695712604716331800,3.278331787109375,-0.361328125,-0.841522216796875,-0.15594482421875
1695712604725884000,3.2878837890625,-0.36285400390625,-0.736541748046875,-0.247955322265625
1695712604735435800,3.297435791015625,-0.3277587890625,-0.60272216796875,-0.343780517578125
1695712604744988000,3.30698779296875,-0.2496337890625,-0.448150634765625,-0.43670654296875
1695712604754509300,3.31650927734375,-0.125885009765625,-0.24658203125,-0.5206298828125
1695712604764061400,3.3260615234375,0.02532958984375,-0.024871826171875,-0.615997314453125
1695712604773643800,3.335643798828125,0.202178955078125,0.15594482421875,-0.734710693359375
1695712604783196000,3.34519580078125,0.36865234375,0.288238525390625,-0.875244140625
1695712604792717300,3.35471728515625,0.485687255859375,0.413818359375,-1.038970947265625
1695712604802269400,3.36426953125,0.533905029296875,0.53497314453125,-1.260986328125
1695712604811821300,3.3738212890625,0.518035888671875,0.634307861328125,-1.52557373046875
1695712604821373400,3.38337353515625,0.4443359375,0.705413818359375,-1.793670654296875
1695712604830925300,3.39292529296875,0.323486328125,0.78216552734375,-2.075042724609375
1695712604840446700,3.40244677734375,0.190582275390625,0.8233642578125,-2.398834228515625
1695712604849998800,3.411998779296875,0.081787109375,0.79010009765625,-2.70721435546875
1695712604859550700,3.42155078125,0.00640869140625,0.691070556640625,-2.904815673828125
1695712604869102800,3.431102783203125,-0.046234130859375,0.48675537109375,-2.96966552734375
1695712604878624300,3.440624267578125,-0.065765380859375,0.13671875,-2.92510986328125
1695712604888176400,3.45017626953125,-0.03021240234375,-0.17852783203125,-2.752532958984375
1695712604897728300,3.459728271484375,0.01708984375,-0.446014404296875,-2.495269775390625
1695712604907280400,3.4692802734375,0.05035400390625,-0.726165771484375,-2.257080078125
1695712604916801800,3.4788017578125,0.06683349609375,-0.88470458984375,-2.079620361328125
1695712604926354000,3.48835400390625,0.06744384765625,-0.90301513671875,-2.00225830078125
1695712604935905800,3.49790576171875,0.03204345703125,-0.870361328125,-2.031402587890625
1695712604945458000,3.5074580078125,0.0018310546875,-0.65582275390625,-2.104034423828125
1695712604955009800,3.517009765625,0.001220703125,-0.17730712890625,-2.116851806640625
1695712604964531200,3.52653125,-0.00396728515625,0.44158935546875,-2.046661376953125
1695712604974083300,3.536083251953125,0.0335693359375,0.90087890625,-1.95648193359375
1695712604983635200,3.54563525390625,0.084228515625,1.032257080078125,-1.84417724609375
1695712604993187300,3.555187255859375,0.11566162109375,0.8648681640625,-1.730499267578125
1695712605002708700,3.564708740234375,0.130462646484375,0.5548095703125,-1.61224365234375
1695712605012260900,3.5742607421875,0.144805908203125,0.20782470703125,-1.5423583984375
1695712605021812700,3.583812744140625,0.155181884765625,-0.019378662109375,-1.456756591796875
1695712605031364900,3.59336474609375,0.182037353515625,-0.059356689453125,-1.334991455078125
1695712605040886300,3.60288623046875,0.240020751953125,0.034027099609375,-1.2054443359375
1695712605050438400,3.6124384765625,0.30670166015625,0.1806640625,-1.091156005859375
1695712605060020700,3.622020751953125,0.3533935546875,0.280303955078125,-0.983123779296875
1695712605069572900,3.63157275390625,0.3692626953125,0.351409912109375,-0.89691162109375
1695712605079124700,3.641124755859375,0.36285400390625,0.419921875,-0.82305908203125
1695712605088646400,3.650646484375,0.35186767578125,0.45623779296875,-0.724945068359375
1695712605098198300,3.6601982421875,0.32928466796875,0.4669189453125,-0.596160888671875
1695712605107750400,3.66975048828125,0.283966064453125,0.4779052734375,-0.452880859375
1695712605117302300,3.67930224609375,0.221099853515625,0.474853515625,-0.288848876953125
1695712605126823700,3.68882373046875,0.148162841796875,0.447998046875,-0.10040283203125
1695712605136375800,3.698375732421875,0.0677490234375,0.373992919921875,0.109710693359375
1695712605145927700,3.707927734375,-0.001220703125,0.247650146484375,0.331268310546875
1695712605155479800,3.717479736328125,-0.062713623046875,0.0836181640625,0.555419921875
1695712605165001200,3.727001220703125,-0.106964111328125,-0.106658935546875,0.770721435546875
1695712605174553300,3.73655322265625,-0.125885009765625,-0.286865234375,0.9881591796875
1695712605184105200,3.746105224609375,-0.141448974609375,-0.426483154296875,1.20758056640625
1695712605193657300,3.7556572265625,-0.164031982421875,-0.4925537109375,1.400299072265625
1695712605203178800,3.7651787109375,-0.179290771484375,-0.484771728515625,1.558837890625
1695712605212731000,3.77473095703125,-0.164337158203125,-0.447235107421875,1.68304443359375
1695712605222282800,3.78428271484375,-0.111236572265625,-0.322113037109375,1.7333984375
1695712605231835000,3.7938349609375,-0.0311279296875,-0.084686279296875,1.67694091796875
1695712605241386800,3.80338671875,0.0775146484375,0.242156982421875,1.498260498046875
1695712605250908200,3.812908203125,0.203399658203125,0.597686767578125,1.180572509765625
1695712605260460300,3.822460205078125,0.31463623046875,0.914306640625,0.664215087890625
1695712605270012200,3.83201220703125,0.457763671875,1.111602783203125,-0.0628662109375
1695712605279564300,3.841564208984375,0.66375732421875,0.960235595703125,-0.7794189453125
1695712605289085700,3.851085693359375,0.858306884765625,0.330963134765625,-1.2066650390625
1695712605298637800,3.860637939453125,0.966033935546875,-0.399017333984375,-1.345672607421875
1695712605308189700,3.870189697265625,0.960845947265625,-0.679473876953125,-1.323089599609375
1695712605317741800,3.879741943359375,0.879364013671875,-0.455474853515625,-1.1981201171875
1695712605327263200,3.88926318359375,0.6805419921875,-0.088653564453125,-0.954132080078125
1695712605336815400,3.8988154296875,0.41229248046875,0.287933349609375,-0.642547607421875
1695712605346397700,3.908397705078125,0.240936279296875,0.984954833984375,-0.337982177734375
1695712605355949800,3.91794970703125,0.0885009765625,1.774444580078125,0.051727294921875
1695712605365501700,3.927501708984375,-0.203704833984375,1.57440185546875,0.682525634765625
1695712605375023400,3.9370234375,-0.64361572265625,0.8514404296875,1.334228515625
1695712605384575200,3.9465751953125,-1.0101318359375,-0.1617431640625,1.693115234375
1695712605394127400,3.95612744140625,-0.801849365234375,-1.36871337890625,1.154937744140625
1695712605403679200,3.96567919921875,-0.2703857421875,-1.70654296875,0.16326904296875
1695712605413200600,3.97520068359375,0.208282470703125,-0.821990966796875,-0.90728759765625
1695712605422752800,3.984752685546875,0.4376220703125,-0.263671875,-0.689239501953125
1695712605432304600,3.9943046875,0.33721923828125,-0.355072021484375,0.54412841796875
1695712605441856800,4.003856689453125,0.0970458984375,-0.837249755859375,1.399383544921875
1695712605451378200,4.013378173828125,-0.202178955078125,-1.561737060546875,1.735992431640625
1695712605460930300,4.022930419921875,-0.529022216796875,-1.550750732421875,1.649169921875
1695712605470482200,4.032482177734375,-0.73516845703125,-0.6024169921875,1.36199951171875
1695712605480034300,4.042034423828125,-0.764923095703125,0.0732421875,1.3043212890625
1695712605489555700,4.0515556640625,-0.60089111328125,-0.047454833984375,1.546173095703125
1695712605499107800,4.06110791015625,-0.29754638671875,-0.784759521484375,1.805877685546875
1695712605508659700,4.07065966796875,0.03265380859375,-1.37603759765625,1.834564208984375
1695712605518211800,4.0802119140625,0.340576171875,-1.433258056640625,1.56158447265625
1695712605527763700,4.089763671875,0.509185791015625,-1.090850830078125,1.184844970703125
1695712605537285000,4.09928515625,0.47698974609375,-0.779266357421875,0.98541259765625
1695712605546837200,4.108837158203125,0.278472900390625,-0.712127685546875,1.050567626953125
1695712605556389000,4.11838916015625,-0.02349853515625,-0.8673095703125,1.25274658203125
1695712605565941200,4.127941162109375,-0.30975341796875,-1.049041748046875,1.420440673828125
1695712605575462700,4.137462646484375,-0.512237548828125,-1.109771728515625,1.452178955078125
1695712605585014800,4.147014892578125,-0.594482421875,-1.053619384765625,1.3092041015625
1695712605594566700,4.156566650390625,-0.528411865234375,-0.808868408203125,1.188201904296875
1695712605604118800,4.166118896484375,-0.34637451171875,-0.5474853515625,1.20269775390625
1695712605613640200,4.17564013671875,-0.171356201171875,-0.4962158203125,1.29119873046875
1695712605623192000,4.185192138671875,-0.106353759765625,-0.58563232421875,1.3677978515625
1695712605632774700,4.194774658203125,-0.132904052734375,-0.66070556640625,1.378326416015625
1695712605642326800,4.204326904296875,-0.2252197265625,-0.64971923828125,1.32904052734375
1695712605651878700,4.213878662109375,-0.316162109375,-0.5670166015625,1.26373291015625
1695712605661400300,4.223400390625,-0.36224365234375,-0.481414794921875,1.22100830078125
1695712605670952200,4.2329521484375,-0.37506103515625,-0.420989990234375,1.21612548828125
1695712605680504300,4.24250439453125,-0.36956787109375,-0.420684814453125,1.204833984375
1695712605690056200,4.25205615234375,-0.37384033203125,-0.468902587890625,1.137237548828125
1695712605699577600,4.26157763671875,-0.39154052734375,-0.52215576171875,1.063690185546875
1695712605709129700,4.271129638671875,-0.415496826171875,-0.58135986328125,1.045379638671875
1695712605718681600,4.280681640625,-0.436859130859375,-0.6317138671875,1.051177978515625
1695712605728233700,4.290233642578125,-0.457611083984375,-0.61920166015625,1.053924560546875
1695712605737755100,4.299755126953125,-0.490875244140625,-0.56365966796875,1.066436767578125
1695712605747307300,4.309307373046875,-0.523834228515625,-0.52764892578125,1.067962646484375
1695712605756859100,4.318859130859375,-0.546112060546875,-0.52520751953125,1.062469482421875
1695712605766411300,4.328411376953125,-0.555267333984375,-0.55389404296875,1.046600341796875
1695712605775932700,4.3379326171875,-0.551910400390625,-0.621337890625,0.99945068359375
1695712605785484500,4.347484619140625,-0.541839599609375,-0.674591064453125,0.89691162109375
1695712605795036700,4.35703662109375,-0.523834228515625,-0.659027099609375,0.740509033203125
1695712605804588800,4.3665888671875,-0.501251220703125,-0.63262939453125,0.57373046875
1695712605814140700,4.376140625,-0.460052490234375,-0.671844482421875,0.431060791015625
1695712605823662000,4.385662109375,-0.39306640625,-0.741424560546875,0.336761474609375
1695712605833214200,4.395214111328125,-0.31463623046875,-0.758819580078125,0.281982421875
1695712605842766000,4.40476611328125,-0.25482177734375,-0.704498291015625,0.2294921875
1695712605852318200,4.414318115234375,-0.23468017578125,-0.5810546875,0.16632080078125
1695712605861839600,4.423839599609375,-0.26397705078125,-0.427093505859375,0.120849609375
1695712605871391700,4.433391845703125,-0.3375244140625,-0.3033447265625,0.109100341796875
1695712605880943600,4.442943603515625,-0.407257080078125,-0.25482177734375,0.102691650390625
1695712605890495700,4.452495849609375,-0.415496826171875,-0.337677001953125,0.053863525390625
1695712605900017200,4.46201708984375,-0.3753662109375,-0.50811767578125,-0.05218505859375
1695712605909569000,4.471569091796875,-0.3173828125,-0.62164306640625,-0.1751708984375
1695712605919151600,4.481151611328125,-0.24383544921875,-0.589599609375,-0.282745361328125
1695712605928703700,4.490703857421875,-0.156097412109375,-0.428314208984375,-0.399932861328125
1695712605938255600,4.500255615234375,-0.068206787109375,-0.21240234375,-0.5535888671875
1695712605947777000,4.509777099609375,0.02532958984375,0.019683837890625,-0.738677978515625
1695712605957329200,4.5193291015625,0.119171142578125,0.313568115234375,-0.955047607421875
1695712605966881300,4.52888134765625,0.230255126953125,0.624237060546875,-1.224365234375
1695712605976433200,4.53843310546875,0.3515625,0.82977294921875,-1.54937744140625
1695712605985954600,4.54795458984375,0.4083251953125,0.869140625,-1.907958984375
1695712605995506700,4.557506591796875,0.41595458984375,0.75714111328125,-2.2796630859375
1695712606005058600,4.56705859375,0.428466796875,0.572967529296875,-2.63641357421875
1695712606014610700,4.576610595703125,0.4266357421875,0.457763671875,-2.935791015625
1695712606024132000,4.586132080078125,0.411376953125,0.416259765625,-3.134613037109375
1695712606033684200,4.595684326171875,0.36285400390625,0.339202880859375,-3.232879638671875
1695712606043236000,4.605236083984375,0.294952392578125,0.246429443359375,-3.185882568359375
1695712606052788200,4.614788330078125,0.264129638671875,0.10833740234375,-2.97943115234375
1695712606062340000,4.624340087890625,0.247650146484375,-0.24078369140625,-2.7032470703125
1695712606071861500,4.633861572265625,0.226287841796875,-0.8831787109375,-2.474212646484375
1695712606081413600,4.64341357421875,0.268707275390625,-1.539154052734375,-2.3760986328125
1695712606090965500,4.652965576171875,0.31494140625,-1.883697509765625,-2.3602294921875
1695712606100517600,4.662517578125,0.277862548828125,-1.74774169921875,-2.30438232421875
1695712606110039000,4.6720390625,0.231170654296875,-1.108551025390625,-2.172393798828125
1695712606119591200,4.681591064453125,0.175628662109375,-0.056610107421875,-1.94671630859375
1695712606129143000,4.69114306640625,0.204315185546875,0.992279052734375,-1.792449951171875
1695712606138695200,4.700695068359375,0.30792236328125,1.779632568359375,-1.723785400390625
1695712606148216600,4.710216552734375,0.3741455078125,2.116851806640625,-1.705474853515625
1695712606157768700,4.719768798828125,0.37689208984375,1.96929931640625,-1.735687255859375
1695712606167320600,4.729320556640625,0.3369140625,1.56036376953125,-1.753387451171875
1695712606176872700,4.738872802734375,0.335693359375,1.071624755859375,-1.697540283203125
1695712606186424600,4.748424560546875,0.38116455078125,0.690765380859375,-1.5380859375
1695712606195946000,4.757946044921875,0.447998046875,0.516357421875,-1.320343017578125
1695712606205528600,4.767528564453125,0.527801513671875,0.5023193359375,-1.093902587890625
1695712606215080700,4.777080810546875,0.615081787109375,0.56121826171875,-0.90057373046875
1695712606224632600,4.786632568359375,0.6927490234375,0.645599365234375,-0.763702392578125
1695712606234154000,4.796154052734375,0.71197509765625,0.76141357421875,-0.684356689453125
1695712606243706000,4.8057060546875,0.67626953125,0.882568359375,-0.630645751953125
1695712606253258000,4.815258056640625,0.617218017578125,0.975494384765625,-0.574951171875
1695712606262810000,4.82481005859375,0.542144775390625,1.045379638671875,-0.5029296875
1695712606272331500,4.83433154296875,0.47698974609375,1.056976318359375,-0.386505126953125
1695712606281883600,4.843883544921875,0.41015625,0.967864990234375,-0.22003173828125
1695712606291435500,4.853435546875,0.3363037109375,0.7830810546875,0.003204345703125
1695712606300987600,4.862987548828125,0.257720947265625,0.56396484375,0.27435302734375
1695712606310509000,4.872509033203125,0.177764892578125,0.358734130859375,0.57159423828125
1695712606320061200,4.882061279296875,0.1055908203125,0.20172119140625,0.880126953125
1695712606329613000,4.891613037109375,0.0506591796875,0.11138916015625,1.185150146484375
1695712606339165200,4.901165283203125,0.0067138671875,0.07720947265625,1.468353271484375
1695712606348717000,4.910717041015625,-0.03265380859375,0.08331298828125,1.71600341796875
1695712606358238500,4.920238525390625,-0.057220458984375,0.1397705078125,1.906585693359375
1695712606367790600,4.92979052734375,-0.049896240234375,0.250701904296875,2.00225830078125
1695712606377342500,4.939342529296875,-0.00457763671875,0.42205810546875,1.93389892578125
1695712606386894600,4.94889453125,0.08270263671875,0.674896240234375,1.65374755859375
1695712606396416000,4.958416015625,0.216827392578125,0.93505859375,1.166839599609375
1695712606405968100,4.967968017578125,0.35125732421875,1.12335205078125,0.478515625
1695712606415520000,4.97752001953125,0.487823486328125,1.318511962890625,-0.363006591796875
1695712606425072000,4.987072021484375,0.646820068359375,1.23565673828125,-1.113433837890625
1695712606434593500,4.996593505859375,0.80230712890625,0.5218505859375,-1.4849853515625
1695712606444145700,5.006145751953125,0.882110595703125,-0.407867431640625,-1.435394287109375
1695712606453697500,5.015697509765625,0.842437744140625,-0.724029541015625,-1.2347412109375
1695712606463249700,5.025249755859375,0.6646728515625,-0.323638916015625,-1.065216064453125
1695712606472801500,5.034801513671875,0.39520263671875,0.284881591796875,-0.85906982421875
1695712606482323000,5.044322998046875,0.196685791015625,0.8392333984375,-0.56060791015625
1695712606491905500,5.053905517578125,0.148162841796875,1.429901123046875,-0.13092041015625
1695712606501457700,5.063457763671875,0.0250244140625,1.83319091796875,0.422515869140625
1695712606511009500,5.073009521484375,-0.250244140625,1.627197265625,1.031341552734375
1695712606520531000,5.082531005859375,-0.599365234375,0.56915283203125,1.801910400390625
1695712606530083000,5.0920830078125,-0.7403564453125,-1.3031005859375,2.184600830078125
1695712606539635000,5.101635009765625,-0.31707763671875,-2.8118896484375,1.123809814453125
1695712606549187000,5.11118701171875,0.185394287109375,-1.779022216796875,-0.648956298828125
1695712606558708500,5.12070849609375,0.516204833984375,0.375518798828125,-1.1376953125
1695712606568260600,5.130260498046875,0.591278076171875,0.4486083984375,-0.03753662109375
1695712606577812500,5.1398125,0.3369140625,-0.718841552734375,1.110992431640625
1695712606587364600,5.149364501953125,-0.149078369140625,-0.94329833984375,1.71478271484375
1695712606596886000,5.158885986328125,-0.501556396484375,-0.412139892578125,1.6436767578125
1695712606606438100,5.168438232421875,-0.69427490234375,0.162353515625,1.2677001953125
1695712606615990000,5.177989990234375,-0.803070068359375,0.06927490234375,1.2384033203125
1695712606625542100,5.187542236328125,-0.771942138671875,-0.418548583984375,1.546478271484375
1695712606635094000,5.197093994140625,-0.60211181640625,-0.9820556640625,1.897735595703125
1695712606644615400,5.206615478515625,-0.37384033203125,-1.429290771484375,2.04010009765625
1695712606654167600,5.21616748046875,-0.051116943359375,-1.30584716796875,1.907196044921875
1695712606663719400,5.225719482421875,0.276336669921875,-0.760955810546875,1.497344970703125
1695712606673271600,5.235271484375,0.39215087890625,-0.449371337890625,1.100616455078125
1695712606682793000,5.24479296875,0.30487060546875,-0.462188720703125,1.00830078125
1695712606692345000,5.254344970703125,0.12115478515625,-0.62255859375,1.141815185546875
1695712606701897000,5.26389697265625,-0.091705322265625,-0.845184326171875,1.33697509765625
1695712606711449000,5.273448974609375,-0.3399658203125,-1.016845703125,1.482391357421875
1695712606720970500,5.282970458984375,-0.540924072265625,-1.133270263671875,1.481475830078125
1695712606730522600,5.292522705078125,-0.60821533203125,-1.109771728515625,1.386260986328125
1695712606740074500,5.302074462890625,-0.516510009765625,-0.8587646484375,1.32720947265625
1695712606749626600,5.311626708984375,-0.322265625,-0.545654296875,1.3299560546875
1695712606759178500,5.321178466796875,-0.151519775390625,-0.394744873046875,1.34765625
1695712606768700000,5.330699951171875,-0.074615478515625,-0.390167236328125,1.3482666015625
1695712606778282500,5.340282470703125,-0.097503662109375,-0.453033447265625,1.3165283203125
1695712606787834600,5.349834716796875,-0.153045654296875,-0.5419921875,1.25274658203125
1695712606797386500,5.359386474609375,-0.206756591796875,-0.57861328125,1.191558837890625
1695712606806908000,5.368907958984375,-0.2618408203125,-0.54534912109375,1.155548095703125
1695712606816460000,5.3784599609375,-0.3045654296875,-0.451202392578125,1.157073974609375
1695712606826012000,5.388011962890625,-0.323486328125,-0.352630615234375,1.181182861328125
1695712606835564000,5.39756396484375,-0.33416748046875,-0.312957763671875,1.189422607421875
1695712606845085400,5.40708544921875,-0.357666015625,-0.329437255859375,1.175079345703125
1695712606854637600,5.416637451171875,-0.39093017578125,-0.365142822265625,1.170806884765625
1695712606864189400,5.426189453125,-0.429840087890625,-0.389251708984375,1.180572509765625
1695712606873741600,5.435741455078125,-0.477447509765625,-0.401763916015625,1.190032958984375
1695712606883293400,5.44529345703125,-0.517730712890625,-0.385894775390625,1.20635986328125
1695712606892815000,5.454815185546875,-0.553436279296875,-0.352630615234375,1.23382568359375
1695712606902367000,5.464366943359375,-0.581817626953125,-0.366973876953125,1.240234375
1695712606911919000,5.473919189453125,-0.604248046875,-0.409393310546875,1.21337890625
1695712606921471000,5.483470947265625,-0.6304931640625,-0.447845458984375,1.144256591796875
1695712606930992400,5.492992431640625,-0.64697265625,-0.470123291015625,1.026763916015625
1695712606940544500,5.50254443359375,-0.6451416015625,-0.468902587890625,0.8636474609375
1695712606950096400,5.512096435546875,-0.61553955078125,-0.474090576171875,0.684967041015625
1695712606959648500,5.5216484375,-0.554962158203125,-0.53192138671875,0.53558349609375
1695712606969170000,5.531169921875,-0.461883544921875,-0.5908203125,0.449676513671875
1695712606978722000,5.54072216796875,-0.36376953125,-0.5853271484375,0.396881103515625
1695712606988274000,5.55027392578125,-0.30914306640625,-0.52978515625,0.328216552734375
1695712606997826000,5.559825927734375,-0.3076171875,-0.460357666015625,0.2374267578125
1695712607007378000,5.5693779296875,-0.3594970703125,-0.413055419921875,0.16876220703125
1695712607016899600,5.578899658203125,-0.442962646484375,-0.403900146484375,0.1416015625
1695712607026451500,5.588451416015625,-0.492706298828125,-0.441436767578125,0.106048583984375
1695712607036003600,5.598003662109375,-0.476531982421875,-0.54595947265625,0.003204345703125
1695712607045555500,5.607555419921875,-0.421600341796875,-0.676116943359375,-0.16326904296875
1695712607055076900,5.617076904296875,-0.34576416015625,-0.724334716796875,-0.330963134765625
1695712607064659500,5.626659423828125,-0.217742919921875,-0.60455322265625,-0.482177734375
1695712607074211600,5.636211669921875,-0.044097900390625,-0.357513427734375,-0.643157958984375
1695712607083763500,5.645763427734375,0.108642578125,-0.029144287109375,-0.8154296875
1695712607093284900,5.655284912109375,0.223236083984375,0.374908447265625,-1.017608642578125
1695712607102837000,5.6648369140625,0.38604736328125,0.733795166015625,-1.28021240234375
1695712607112388900,5.674388916015625,0.572052001953125,0.933990478515625,-1.6082763671875
1695712607121941000,5.68394091796875,0.645599365234375,0.941925048828125,-1.96868896484375
1695712607131462400,5.69346240234375,0.617218017578125,0.80718994140625,-2.3388671875
1695712607141014500,5.7030146484375,0.548248291015625,0.627288818359375,-2.71575927734375
1695712607150566400,5.71256640625,0.36468505859375,0.50262451171875,-3.04840087890625
1695712607160118500,5.722118408203125,0.133209228515625,0.41046142578125,-3.304443359375
1695712607169670400,5.73167041015625,-0.081024169921875,0.260162353515625,-3.4228515625
1695712607179192000,5.741192138671875,-0.2655029296875,0.150146484375,-3.35693359375
1695712607188744000,5.750743896484375,-0.35736083984375,0.15838623046875,-3.0963134765625
1695712607198296000,5.760296142578125,-0.35369873046875,0.016326904296875,-2.769927978515625
1695712607207848000,5.769847900390625,-0.31005859375,-0.49774169921875,-2.536163330078125
1695712607217369300,5.779369384765625,-0.25115966796875,-1.151580810546875,-2.453460693359375
1695712607226921500,5.78892138671875,-0.217132568359375,-1.5997314453125,-2.450714111328125
1695712607236473300,5.798473388671875,-0.177154541015625,-1.64276123046875,-2.402496337890625
1695712607246025500,5.808025390625,-0.116424560546875,-1.193389892578125,-2.24517822265625
1695712607255547000,5.817546875,-0.043487548828125,-0.13885498046875,-1.9879150390625
1695712607265099000,5.82709912109375,0.09246826171875,1.037139892578125,-1.84600830078125
1695712607274651000,5.83665087890625,0.216217041015625,1.733245849609375,-1.92901611328125
1695712607284203000,5.846203125,0.221405029296875,1.828155517578125,-2.086334228515625
1695712607293755000,5.8557548828125,0.194549560546875,1.51092529296875,-2.166595458984375
1695712607303276500,5.865276611328125,0.206451416015625,1.095733642578125,-2.079315185546875
1695712607312828400,5.874828369140625,0.261993408203125,0.7879638671875,-1.8853759765625
1695712607322380500,5.884380615234375,0.3076171875,0.634613037109375,-1.672821044921875
1695712607331932400,5.893932373046875,0.3515625,0.597381591796875,-1.454315185546875
1695712607341453800,5.903453857421875,0.39459228515625,0.616912841796875,-1.23138427734375
1695712607351036400,5.913036376953125,0.4388427734375,0.652618408203125,-1.024017333984375
1695712607360588500,5.922588623046875,0.479278564453125,0.686187744140625,-0.84136962890625
1695712607370140400,5.932140380859375,0.493621826171875,0.701751708984375,-0.691986083984375
1695712607379661800,5.941661865234375,0.488739013671875,0.717620849609375,-0.57891845703125
1695712607389214000,5.9512138671875,0.47760009765625,0.748748779296875,-0.469970703125
1695712607398765800,5.960765869140625,0.4632568359375,0.80169677734375,-0.348968505859375
1695712607408318000,5.97031787109375,0.44158935546875,0.84625244140625,-0.2081298828125
1695712607417839400,5.97983935546875,0.4046630859375,0.8343505859375,-0.034332275390625
1695712607427391500,5.9893916015625,0.3546142578125,0.7574462890625,0.1849365234375
1695712607436943400,5.998943359375,0.30609130859375,0.630340576171875,0.450286865234375
1695712607446495500,6.00849560546875,0.260467529296875,0.4852294921875,0.750579833984375
1695712607456047400,6.01804736328125,0.218353271484375,0.363006591796875,1.075286865234375
1695712607465569000,6.027569091796875,0.189971923828125,0.295257568359375,1.399383544921875
1695712607475121000,6.037120849609375,0.179595947265625,0.297088623046875,1.7071533203125
1695712607484673000,6.046673095703125,0.193023681640625,0.374298095703125,1.96990966796875
1695712607494225000,6.056224853515625,0.240631103515625,0.5181884765625,2.153167724609375
1695712607503746300,6.065746337890625,0.3228759765625,0.706329345703125,2.172393798828125
1695712607513298400,6.07529833984375,0.42388916015625,0.92529296875,1.904144287109375
1695712607522850300,6.084850341796875,0.535430908203125,1.028594970703125,1.30462646484375
1695712607532402400,6.09440234375,0.625152587890625,0.93658447265625,0.48736572265625
1695712607541923800,6.103923828125,0.621490478515625,0.981292724609375,-0.40985107421875
1695712607551476000,6.11347607421875,0.597381591796875,1.064910888671875,-1.2005615234375
1695712607561027800,6.12302783203125,0.653839111328125,0.742340087890625,-1.6339111328125
1695712607570580000,6.132580078125,0.73394775390625,-0.087127685546875,-1.536865234375
1695712607580131800,6.1421318359375,0.72418212890625,-0.634765625,-1.22589111328125
1695712607589653200,6.1516533203125,0.629119873046875,-0.426788330078125,-1.034393310546875
1695712607599205400,6.161205322265625,0.4107666015625,0.19195556640625,-0.9088134765625
1695712607608757200,6.17075732421875,0.153656005859375,0.703887939453125,-0.710296630859375
1695712607618309400,6.180309326171875,0.05279541015625,1.107635498046875,-0.397796630859375
1695712607627830800,6.189830810546875,0.08880615234375,1.60675048828125,0.039215087890625
1695712607637413400,6.199413330078125,-0.038299560546875,2.071990966796875,0.55145263671875
1695712607646965500,6.208965576171875,-0.2789306640625,2.057037353515625,1.23504638671875
1695712607656517400,6.218517333984375,-0.517120361328125,0.89508056640625,2.179412841796875
1695712607666038800,6.228038818359375,-0.420074462890625,-1.62384033203125,2.184906005859375
1695712607675591000,6.2375908203125,0.00701904296875,-2.979278564453125,0.50018310546875
1695712607685142800,6.247142822265625,0.230560302734375,-1.176605224609375,-1.116485595703125
1695712607694695000,6.25669482421875,0.547332763671875,0.637969970703125,-1.071319580078125
1695712607704216300,6.26621630859375,0.623626708984375,-0.003204345703125,0.380096435546875
1695712607713768400,6.2757685546875,0.266265869140625,-0.947265625,1.5728759765625
1695712607723320300,6.2853203125,-0.235595703125,-0.650634765625,2.00439453125
1695712607732872400,6.29487255859375,-0.548553466796875,0.266265869140625,1.66717529296875
1695712607742424300,6.30442431640625,-0.6878662109375,0.87554931640625,1.29364013671875
1695712607751945700,6.31394580078125,-0.743408203125,0.52276611328125,1.436309814453125
1695712607761497900,6.323497802734375,-0.70068359375,-0.21759033203125,1.878509521484375
1695712607771050000,6.333050048828125,-0.561065673828125,-1.00555419921875,2.257843017578125
1695712607780601900,6.342601806640625,-0.3369140625,-1.427154541015625,2.30255126953125
1695712607790123300,6.352123291015625,0.025634765625,-1.22222900390625,2.00164794921875
1695712607799675400,6.36167529296875,0.3594970703125,-0.6292724609375,1.440887451171875
1695712607809227300,6.371227294921875,0.45654296875,-0.2362060546875,1.076202392578125
1695712607818779400,6.380779296875,0.3692626953125,-0.123138427734375,1.098785400390625
1695712607828300800,6.39030078125,0.252532958984375,-0.19073486328125,1.3104248046875
1695712607837853000,6.39985302734375,0.127716064453125,-0.382537841796875,1.536407470703125
1695712607847404800,6.40940478515625,-0.090484619140625,-0.699920654296875,1.65496826171875
1695712607856957000,6.41895703125,-0.30548095703125,-1.072540283203125,1.65557861328125
1695712607866508800,6.4285087890625,-0.419769287109375,-1.24847412109375,1.58355712890625
1695712607876030200,6.4380302734375,-0.415496826171875,-1.116180419921875,1.517791748046875
1695712607885582300,6.447582275390625,-0.29876708984375,-0.807037353515625,1.486358642578125
1695712607895134200,6.45713427734375,-0.133514404296875,-0.54412841796875,1.461334228515625
1695712607904686300,6.466686279296875,0.0042724609375,-0.435028076171875,1.439971923828125
1695712607914207700,6.476207763671875,0.05950927734375,-0.434722900390625,1.433868408203125
1695712607923790300,6.485790283203125,0.02960205078125,-0.50323486328125,1.416168212890625
1695712607933342200,6.49534228515625,-0.054473876953125,-0.5609130859375,1.36322021484375
1695712607942894300,6.504894287109375,-0.151824951171875,-0.54046630859375,1.282958984375
1695712607952415700,6.514415771484375,-0.220489501953125,-0.468902587890625,1.2158203125
1695712607961967900,6.5239677734375,-0.2667236328125,-0.391998291015625,1.188201904296875
1695712607971519700,6.533519775390625,-0.3009033203125,-0.330352783203125,1.191864013671875
1695712607981072000,6.54307177734375,-0.33477783203125,-0.28350830078125,1.20513916015625
1695712607990623700,6.552623779296875,-0.361328125,-0.25634765625,1.22344970703125
1695712608000145400,6.5621455078125,-0.3857421875,-0.2392578125,1.2506103515625
1695712608009697300,6.571697265625,-0.420684814453125,-0.21331787109375,1.287841796875
1695712608019249400,6.58124951171875,-0.460052490234375,-0.2093505859375,1.318359375
1695712608028801300,6.59080126953125,-0.491485595703125,-0.2685546875,1.33148193359375
1695712608038322700,6.60032275390625,-0.510101318359375,-0.346527099609375,1.32598876953125
1695712608047874800,6.609874755859375,-0.524444580078125,-0.380706787109375,1.2890625
1695712608057426700,6.6194267578125,-0.543975830078125,-0.370330810546875,1.20330810546875
1695712608066978800,6.628978759765625,-0.578460693359375,-0.357208251953125,1.069793701171875
1695712608076500200,6.638500244140625,-0.62469482421875,-0.418243408203125,0.89813232421875
1695712608086052400,6.64805224609375,-0.6396484375,-0.548095703125,0.712127685546875
1695712608095604200,6.657604248046875,-0.59417724609375,-0.6640625,0.5535888671875
1695712608105156400,6.66715625,-0.493621826171875,-0.671844482421875,0.449066162109375
1695712608114677800,6.676677734375,-0.38360595703125,-0.5712890625,0.378265380859375
1695712608124230000,6.68622998046875,-0.32684326171875,-0.460357666015625,0.301971435546875
1695712608133781800,6.69578173828125,-0.352783203125,-0.429229736328125,0.2130126953125
1695712608143334000,6.705333984375,-0.424346923828125,-0.474395751953125,0.12908935546875
1695712608152885800,6.7148857421875,-0.475616455078125,-0.5242919921875,0.057220458984375
1695712608162407200,6.7244072265625,-0.480194091796875,-0.56732177734375,-0.032806396484375
1695712608171959300,6.733959228515625,-0.428924560546875,-0.61126708984375,-0.16632080078125
1695712608181511200,6.74351123046875,-0.32501220703125,-0.5767822265625,-0.323944091796875
1695712608191063300,6.753063232421875,-0.165557861328125,-0.423431396484375,-0.501708984375
1695712608200584700,6.762584716796875,0.02227783203125,-0.24200439453125,-0.702056884765625
1695712608210167300,6.772167236328125,0.175018310546875,-0.073394775390625,-0.902099609375
1695712608219719200,6.78171923828125,0.274505615234375,0.18310546875,-1.106414794921875
1695712608229271300,6.791271240234375,0.42572021484375,0.5340576171875,-1.348724365234375
1695712608238792700,6.800792724609375,0.582733154296875,0.750885009765625,-1.64306640625
1695712608248344800,6.8103447265625,0.611419677734375,0.719757080078125,-1.9940185546875
1695712608257896700,6.819896728515625,0.576934814453125,0.5499267578125,-2.401885986328125
1695712608267448800,6.82944873046875,0.536956787109375,0.365447998046875,-2.823944091796875
1695712608277000700,6.839000732421875,0.46539306640625,0.15655517578125,-3.191070556640625
1695712608286522400,6.8485224609375,0.39276123046875,-0.13336181640625,-3.4149169921875
1695712608296074200,6.85807421875,0.3466796875,-0.417022705078125,-3.44329833984375
1695712608305626400,6.86762646484375,0.31890869140625,-0.471038818359375,-3.32122802734375
1695712608315178200,6.87717822265625,0.294189453125,-0.27008056640625,-3.112945556640625
1695712608324699600,6.88669970703125,0.235748291015625,-0.16815185546875,-2.861785888671875
1695712608334251800,6.896251708984375,0.131378173828125,-0.449066162109375,-2.67608642578125
1695712608343803600,6.9058037109375,-0.008544921875,-0.92498779296875,-2.58880615234375
1695712608353355800,6.915355712890625,-0.218658447265625,-1.35101318359375,-2.561492919921875
1695712608362877200,6.924877197265625,-0.39306640625,-1.482391357421875,-2.510528564453125
1695712608372429300,6.93442919921875,-0.479583740234375,-0.98785400390625,-2.2833251953125
1695712608381981200,6.943981201171875,-0.469818115234375,0.08941650390625,-1.986083984375
1695712608391533300,6.953533203125,-0.2392578125,1.13739013671875,-1.91131591796875
1695712608401085200,6.963085205078125,0.0494384765625,1.63604736328125,-2.037506103515625
1695712608410606800,6.97260693359375,0.207366943359375,1.314544677734375,-2.30377197265625
1695712608420158700,6.98215869140625,0.267791748046875,0.79681396484375,-2.3773193359375
1695712608429710800,6.9917109375,0.3533935546875,0.382537841796875,-2.26470947265625
1695712608439262700,7.0012626953125,0.43792724609375,0.20721435546875,-2.062530517578125
1695712608448784100,7.0107841796875,0.504913330078125,0.246124267578125,-1.833038330078125
1695712608458336300,7.020336181640625,0.560150146484375,0.372772216796875,-1.59881591796875
1695712608467888000,7.02988818359375,0.608367919921875,0.5291748046875,-1.383514404296875
1695712608477440300,7.039440185546875,0.653228759765625,0.644683837890625,-1.19384765625
1695712608486961700,7.048961669921875,0.658416748046875,0.762939453125,-1.025543212890625
1695712608496544300,7.058544189453125,0.621795654296875,0.92559814453125,-0.8673095703125
1695712608506096000,7.06809619140625,0.584869384765625,1.067352294921875,-0.700836181640625
1695712608515648300,7.077648193359375,0.564117431640625,1.15203857421875,-0.545654296875
1695712608525169700,7.087169677734375,0.533294677734375,1.15966796875,-0.388946533203125
1695712608534721800,7.0967216796875,0.484161376953125,1.101837158203125,-0.19989013671875
1695712608544273700,7.106273681640625,0.41839599609375,0.983123779296875,0.038604736328125
1695712608553825800,7.11582568359375,0.33905029296875,0.806884765625,0.329437255859375
1695712608563377700,7.125377685546875,0.267791748046875,0.623016357421875,0.65948486328125
1695712608572899300,7.1348994140625,0.217437744140625,0.482177734375,1.01043701171875
1695712608582451200,7.144451171875,0.184173583984375,0.4156494140625,1.36260986328125
1695712608592003300,7.15400341796875,0.163421630859375,0.430908203125,1.70318603515625
1695712608601555200,7.16355517578125,0.163421630859375,0.5316162109375,2.0074462890625
1695712608611076600,7.17307666015625,0.178680419921875,0.712738037109375,2.214202880859375
1695712608620628700,7.182628662109375,0.193023681640625,0.92559814453125,2.216949462890625
1695712608630180600,7.1921806640625,0.213775634765625,1.1328125,1.91802978515625
1695712608639732700,7.201732666015625,0.280914306640625,1.25518798828125,1.3482666015625
1695712608649254100,7.211254150390625,0.3692626953125,1.374664306640625,0.5523681640625
1695712608658806300,7.22080615234375,0.3704833984375,1.52984619140625,-0.42266845703125
1695712608668358100,7.230358154296875,0.276031494140625,1.561279296875,-1.328887939453125
1695712608677910300,7.23991015625,0.215606689453125,1.033172607421875,-1.722564697265625
1695712608687462100,7.249462158203125,0.301971435546875,-0.12237548828125,-1.443634033203125
1695712608696983800,7.25898388671875,0.4742431640625,-0.817108154296875,-1.094512939453125
1695712608706535700,7.26853564453125,0.489349365234375,-0.699005126953125,-0.955657958984375
1695712608716087800,7.278087890625,0.257720947265625,-0.1629638671875,-0.914306640625
1695712608725639700,7.2876396484375,0.04364013671875,0.48004150390625,-0.8544921875
1695712608735161000,7.2971611328125,-0.110626220703125,1.28448486328125,-0.56732177734375
1695712608744713200,7.306713134765625,-0.434722900390625,1.98516845703125,-0.026702880859375
1695712608754265000,7.31626513671875,-0.764923095703125,1.990966796875,0.761871337890625
1695712608763817200,7.325817138671875,-0.866241455078125,0.472412109375,1.37115478515625
1695712608773338600,7.335338623046875,-0.486602783203125,-1.6387939453125,0.9063720703125
1695712608782921200,7.344921142578125,-0.097198486328125,-1.3623046875,-0.240936279296875
1695712608792473000,7.35447314453125,0.221099853515625,0.354156494140625,-0.77484130859375
1695712608802025200,7.364025146484375,0.47515869140625,-0.24627685546875,0.327911376953125
1695712608811546600,7.373546630859375,0.515899658203125,-1.079864501953125,1.63482666015625
1695712608821098800,7.3830986328125,0.32989501953125,-0.63201904296875,2.06207275390625
1695712608830650600,7.392650634765625,0.03631591796875,0.15167236328125,1.772918701171875
1695712608840202800,7.40220263671875,-0.2783203125,0.373077392578125,1.451873779296875
1695712608849754600,7.411754638671875,-0.460662841796875,-0.056610107421875,1.5838623046875
1695712608859276300,7.4212763671875,-0.443878173828125,-0.682830810546875,2.01019287109375
1695712608868828200,7.430828125,-0.289306640625,-1.089019775390625,2.3687744140625
1695712608878380300,7.44038037109375,-0.103912353515625,-1.131744384765625,2.373046875
1695712608887932200,7.44993212890625,0.11749267578125,-0.839080810546875,1.97967529296875
1695712608897453600,7.45945361328125,0.243682861328125,-0.5316162109375,1.505279541015625
1695712608907005700,7.469005615234375,0.213775634765625,-0.349884033203125,1.2933349609375
1695712608916557600,7.4785576171875,0.0970458984375,-0.315704345703125,1.3287353515625
1695712608926109700,7.488109619140625,-0.0146484375,-0.381622314453125,1.504364013671875
1695712608935631000,7.497631103515625,-0.097198486328125,-0.4840087890625,1.715087890625
1695712608945183200,7.507183349609375,-0.196990966796875,-0.56671142578125,1.869964599609375
1695712608954735000,7.516735107421875,-0.294189453125,-0.62530517578125,1.93511962890625
1695712608964287200,7.526287353515625,-0.2972412109375,-0.604248046875,1.873626708984375
1695712608973839000,7.535839111328125,-0.181121826171875,-0.4986572265625,1.73858642578125
1695712608983360800,7.54536083984375,-0.01953125,-0.354461669921875,1.6375732421875
1695712608992912600,7.55491259765625,0.10406494140625,-0.235595703125,1.61407470703125
1695712609002464800,7.56446484375,0.155487060546875,-0.27587890625,1.617431640625
1695712609012016600,7.5740166015625,0.138092041015625,-0.388641357421875,1.6217041015625
1695712609021538000,7.5835380859375,0.0567626953125,-0.504150390625,1.5728759765625
1695712609031090200,7.593090087890625,-0.0372314453125,-0.57891845703125,1.474456787109375
1695712609040642000,7.60264208984375,-0.124969482421875,-0.5926513671875,1.380767822265625
1695712609050194200,7.612194091796875,-0.203094482421875,-0.5816650390625,1.34124755859375
1695712609059715600,7.621715576171875,-0.2508544921875,-0.53924560546875,1.348876953125
1695712609069298200,7.631298095703125,-0.26336669921875,-0.463714599609375,1.35894775390625
1695712609078850000,7.64085009765625,-0.26763916015625,-0.365753173828125,1.3482666015625
1695712609088402200,7.650402099609375,-0.2899169921875,-0.28656005859375,1.322021484375
1695712609097954000,7.6599541015625,-0.3265380859375,-0.2471923828125,1.304931640625
1695712609107475700,7.669475830078125,-0.386962890625,-0.242919921875,1.287841796875
1695712609117027600,7.679027587890625,-0.457000732421875,-0.23956298828125,1.26617431640625
1695712609126579700,7.688579833984375,-0.515289306640625,-0.29052734375,1.236572265625
1695712609136131600,7.698131591796875,-0.548553466796875,-0.423126220703125,1.1993408203125
1695712609145653200,7.7076533203125,-0.554046630859375,-0.57708740234375,1.158905029296875
1695712609155205000,7.717205078125,-0.541534423828125,-0.703277587890625,1.099090576171875
1695712609164757200,7.72675732421875,-0.522613525390625,-0.773773193359375,0.98846435546875
1695712609174309000,7.73630908203125,-0.504913330078125,-0.786285400390625,0.819854736328125
1695712609183830500,7.74583056640625,-0.484771728515625,-0.739288330078125,0.63201904296875
1695712609193382700,7.755382568359375,-0.444183349609375,-0.6396484375,0.4876708984375
1695712609202934500,7.7649345703125,-0.364990234375,-0.5322265625,0.406646728515625
1695712609212486700,7.774486572265625,-0.2813720703125,-0.470428466796875,0.355987548828125
1695712609222038500,7.78403857421875,-0.2569580078125,-0.459442138671875,0.2984619140625
1695712609231560200,7.793560302734375,-0.29571533203125,-0.483856201171875,0.23162841796875
1695712609241112000,7.803112060546875,-0.36102294921875,-0.49835205078125,0.17608642578125
1695712609250664200,7.812664306640625,-0.39154052734375,-0.478363037109375,0.1318359375
1695712609260216000,7.822216064453125,-0.37567138671875,-0.476226806640625,0.070343017578125
1695712609269737500,7.831737548828125,-0.32989501953125,-0.51116943359375,-0.05218505859375
1695712609279289600,7.84128955078125,-0.24444580078125,-0.5096435546875,-0.240631103515625
1695712609288841700,7.850841796875,-0.091094970703125,-0.402679443359375,-0.47271728515625
1695712609298393600,7.8603935546875,0.10894775390625,-0.14251708984375,-0.693511962890625
1695712609307915000,7.8699150390625,0.274810791015625,0.19622802734375,-0.869140625
1695712609317467100,7.879467041015625,0.3558349609375,0.570220947265625,-1.043243408203125
1695712609327019000,7.88901904296875,0.4266357421875,0.93414306640625,-1.27655029296875
1695712609336571100,7.898571044921875,0.490264892578125,1.093597412109375,-1.56829833984375
1695712609346092500,7.908092529296875,0.495758056640625,1.012420654296875,-1.93756103515625
1695712609355675100,7.917675048828125,0.443115234375,0.755157470703125,-2.38250732421875
1695712609365227000,7.92722705078125,0.31097412109375,0.381317138671875,-2.96417236328125
1695712609374779100,7.936779052734375,0.1214599609375,-0.12542724609375,-3.488311767578125
1695712609384331000,7.9463310546875,0.05279541015625,-0.574951171875,-3.731689453125
1695712609393852700,7.955852783203125,0.133209228515625,-0.826568603515625,-3.64776611328125
1695712609403404500,7.965404541015625,0.215301513671875,-0.85479736328125,-3.316650390625
1695712609412956700,7.974956787109375,0.227203369140625,-0.773162841796875,-2.928466796875
1695712609422508500,7.984508544921875,0.186614990234375,-0.92254638671875,-2.65625
1695712609432030200,7.9940302734375,0.163421630859375,-1.407623291015625,-2.5592041015625
1695712609441582000,8.00358203125,0.141754150390625,-1.902313232421875,-2.569580078125
1695712609451134200,8.01313427734375,0.09979248046875,-2.0611572265625,-2.6153564453125
1695712609460686000,8.02268603515625,0.04302978515625,-1.7291259765625,-2.60345458984375
1695712609470207500,8.03220751953125,0.0457763671875,-0.9478759765625,-2.436981201171875
1695712609479759600,8.041759521484375,0.1019287109375,0.1312255859375,-2.121429443359375
1695712609489311500,8.0513115234375,0.146331787109375,1.2799072265625,-1.822052001953125
1695712609498863600,8.060863525390625,0.265045166015625,2.169036865234375,-1.801300048828125
1695712609508415500,8.07041552734375,0.37353515625,2.24334716796875,-2.075653076171875
1695712609517937200,8.079937255859376,0.445556640625,1.6461181640625,-2.3284912109375
1695712609527489000,8.089489013671875,0.495147705078125,0.973968505859375,-2.36083984375
1695712609537041200,8.099041259765626,0.539093017578125,0.543212890625,-2.216796875
1695712609546593000,8.108593017578125,0.568695068359375,0.4205322265625,-1.961669921875
1695712609556114400,8.118114501953125,0.575408935546875,0.4364013671875,-1.676483154296875
1695712609565666600,8.12766650390625,0.581817626953125,0.504150390625,-1.405487060546875
1695712609575218400,8.137218505859375,0.603179931640625,0.644378662109375,-1.18804931640625
1695712609584770600,8.1467705078125,0.627288818359375,0.80657958984375,-1.049041748046875
1695712609594292000,8.1562919921875,0.655670166015625,0.934906005859375,-0.958709716796875
1695712609603844000,8.165843994140625,0.663909912109375,1.040191650390625,-0.855712890625
1695712609613396000,8.17539599609375,0.648651123046875,1.13677978515625,-0.727996826171875
1695712609622948000,8.184947998046875,0.619354248046875,1.18316650390625,-0.58258056640625
1695712609632469500,8.194469482421875,0.580291748046875,1.16424560546875,-0.42022705078125
1695712609642052000,8.204052001953125,0.523223876953125,1.101226806640625,-0.225982666015625
1695712609651604000,8.21360400390625,0.457763671875,0.992279052734375,0.020294189453125
1695712609661156000,8.223156005859375,0.3973388671875,0.84503173828125,0.326995849609375
1695712609670708000,8.2327080078125,0.34912109375,0.697784423828125,0.679473876953125
1695712609680229600,8.242229736328126,0.3118896484375,0.590972900390625,1.063995361328125
1695712609689781500,8.251781494140625,0.291595458984375,0.54962158203125,1.457366943359375
1695712609699333600,8.261333740234376,0.292816162109375,0.611114501953125,1.836395263671875
1695712609708885500,8.270885498046875,0.3271484375,0.78643798828125,2.161712646484375
1695712609718407000,8.280406982421875,0.37139892578125,1.019744873046875,2.3883056640625
1695712609727959000,8.289958984375,0.394287109375,1.2738037109375,2.40234375
1695712609737511000,8.299510986328125,0.406494140625,1.49627685546875,2.0880126953125
1695712609747063000,8.30906298828125,0.4315185546875,1.50238037109375,1.411590576171875
1695712609756584400,8.31858447265625,0.4058837890625,1.322784423828125,0.48309326171875
1695712609766136600,8.328136474609375,0.273895263671875,1.387481689453125,-0.5712890625
1695712609775688400,8.3376884765625,0.165252685546875,1.6387939453125,-1.5130615234375
1695712609785240600,8.347240478515625,0.241241455078125,1.23565673828125,-1.84295654296875
1695712609794792400,8.35679248046875,0.491485595703125,-0.006866455078125,-1.488037109375
1695712609804314000,8.366314208984376,0.72998046875,-0.85052490234375,-1.053009033203125
1695712609813866000,8.375865966796875,0.66436767578125,-0.701446533203125,-0.83831787109375
1695712609823418000,8.385418212890626,0.31097412109375,-0.060577392578125,-0.707244873046875
1695712609832970000,8.394969970703125,0.0482177734375,0.583648681640625,-0.5633544921875
1695712609842491400,8.404491455078125,0.0311279296875,1.16790771484375,-0.252227783203125
1695712609852043500,8.41404345703125,-0.01007080078125,1.87957763671875,0.23284912109375
1695712609861595400,8.423595458984375,-0.193023681640625,2.471160888671875,0.91888427734375
1695712609871147500,8.4331474609375,-0.39947509765625,2.129669189453125,2.119293212890625
1695712609880669000,8.4426689453125,-0.60028076171875,0.05035400390625,3.0413818359375
1695712609890221000,8.452220947265625,-0.34820556640625,-3.0389404296875,1.906890869140625
1695712609899773000,8.46177294921875,0.04638671875,-3.05938720703125,-0.710906982421875
1695712609909325000,8.471324951171875,0.43731689453125,-0.13671875,-2.0135498046875
1695712609918846500,8.480846435546875,0.845184326171875,1.162109375,-0.83526611328125
1695712609928429000,8.490428955078125,0.894927978515625,0.291900634765625,1.168975830078125
1695712609937981000,8.49998095703125,0.47119140625,-0.614013671875,2.214202880859375
1695712609947533000,8.509532958984375,0.107421875,-1.028594970703125,2.184295654296875
1695712609957085000,8.5190849609375,-0.147247314453125,-0.464324951171875,1.427459716796875
1695712609966606600,8.528606689453126,-0.529022216796875,0.382843017578125,0.9173583984375
1695712609976158500,8.538158447265625,-0.856781005859375,0.287017822265625,1.21673583984375
1695712609985710600,8.547710693359376,-1.07635498046875,-0.339508056640625,1.877899169921875
1695712609995262500,8.557262451171875,-1.019287109375,-1.33331298828125,2.478179931640625
1695712610004783900,8.566783935546875,-0.520782470703125,-2.206268310546875,2.606964111328125
1695712610014336000,8.5763359375,0.164337158203125,-2.223663330078125,2.113494873046875
1695712610023888000,8.585887939453125,0.574798583984375,-1.26434326171875,1.393280029296875
1695712610033440000,8.59543994140625,0.659637451171875,-0.321197509765625,1.032257080078125
1695712610042961400,8.60496142578125,0.524139404296875,0.1654052734375,1.118927001953125
1695712610052513500,8.614513427734375,0.30792236328125,0.330963134765625,1.37725830078125
1695712610062065400,8.6240654296875,0.07965087890625,0.229339599609375,1.57379150390625
1695712610071617500,8.633617431640625,-0.104522705078125,-0.095062255859375,1.62567138671875
1695712610081169400,8.64316943359375,-0.179901123046875,-0.438995361328125,1.58599853515625
1695712610090691000,8.652691162109376,-0.126495361328125,-0.60394287109375,1.533660888671875
1695712610100243000,8.662242919921875,0.0079345703125,-0.4949951171875,1.525726318359375
1695712610109795000,8.671795166015626,0.124969482421875,-0.2734375,1.546173095703125
1695712610119347000,8.681346923828125,0.215911865234375,-0.18341064453125,1.57928466796875
1695712610128868400,8.690868408203125,0.222320556640625,-0.317230224609375,1.58416748046875
1695712610138420500,8.70042041015625,0.137786865234375,-0.50994873046875,1.513519287109375
1695712610147972400,8.709972412109375,0.02838134765625,-0.64697265625,1.388397216796875
1695712610157524500,8.7195244140625,-0.065765380859375,-0.704803466796875,1.28509521484375
1695712610167046000,8.7290458984375,-0.137481689453125,-0.699310302734375,1.23779296875
1695712610176598000,8.738597900390625,-0.185089111328125,-0.6494140625,1.24114990234375
1695712610186150000,8.74814990234375,-0.203094482421875,-0.5902099609375,1.2890625
1695712610195702000,8.757701904296875,-0.220794677734375,-0.57373046875,1.33026123046875
1695712610205223400,8.767223388671875,-0.2520751953125,-0.5889892578125,1.33056640625
1695712610214806000,8.776805908203125,-0.30029296875,-0.61981201171875,1.314697265625
1695712610224358000,8.78635791015625,-0.3631591796875,-0.60882568359375,1.307373046875
1695712610233910000,8.795909912109375,-0.431671142578125,-0.56427001953125,1.29791259765625
1695712610243462000,8.8054619140625,-0.486907958984375,-0.501708984375,1.30279541015625
1695712610252983600,8.814983642578126,-0.526275634765625,-0.472259521484375,1.3037109375
1695712610262535400,8.824535400390625,-0.532989501953125,-0.4876708984375,1.27899169921875
1695712610272087600,8.834087646484376,-0.514984130859375,-0.57586669921875,1.220703125
1695712610281639400,8.843639404296875,-0.479583740234375,-0.701751708984375,1.126251220703125
1695712610291160800,8.853160888671875,-0.433197021484375,-0.766448974609375,0.99395751953125
1695712610300713000,8.862712890625,-0.37353515625,-0.774078369140625,0.836944580078125
1695712610310264800,8.872264892578125,-0.3155517578125,-0.748443603515625,0.690460205078125
1695712610319817000,8.88181689453125,-0.28106689453125,-0.66070556640625,0.5657958984375
1695712610329338400,8.89133837890625,-0.28167724609375,-0.55816650390625,0.442657470703125
1695712610338890500,8.900890380859375,-0.32196044921875,-0.52276611328125,0.323028564453125
1695712610348442400,8.9104423828125,-0.3765869140625,-0.53619384765625,0.2294921875
1695712610357994500,8.919994384765625,-0.408172607421875,-0.54168701171875,0.16204833984375
1695712610367546400,8.92954638671875,-0.398712158203125,-0.54443359375,0.077972412109375
1695712610377068000,8.939068115234376,-0.360107421875,-0.57861328125,-0.0567626953125
1695712610386620000,8.948619873046875,-0.2978515625,-0.62042236328125,-0.237274169921875
1695712610396172000,8.958172119140626,-0.192718505859375,-0.65185546875,-0.45806884765625
1695712610405724000,8.967723876953125,-0.0396728515625,-0.59600830078125,-0.680389404296875
1695712610415245300,8.977245361328125,0.0823974609375,-0.367889404296875,-0.911865234375
1695712610424797400,8.98679736328125,0.138092041015625,-0.008392333984375,-1.16546630859375
1695712610434349300,8.996349365234375,0.166168212890625,0.371551513671875,-1.450347900390625
1695712610443901400,9.0059013671875,0.221099853515625,0.615997314453125,-1.785736083984375
1695712610453422800,9.0154228515625,0.284576416015625,0.664215087890625,-2.171173095703125
1695712610462975000,9.02497509765625,0.322265625,0.52001953125,-2.6324462890625
1695712610472526800,9.03452685546875,0.3179931640625,0.14434814453125,-3.06610107421875
1695712610482079000,9.044078857421875,0.31036376953125,-0.382537841796875,-3.35601806640625
1695712610491630800,9.053630859375,0.32806396484375,-0.809783935546875,-3.45184326171875
1695712610501183000,9.063182861328125,0.3436279296875,-0.96282958984375,-3.345947265625
1695712610510734800,9.07273486328125,0.31524658203125,-0.84991455078125,-3.111724853515625
1695712610520287000,9.082286865234375,0.233001708984375,-0.663909912109375,-2.869415283203125
1695712610529838800,9.0918388671875,0.125885009765625,-0.696563720703125,-2.7056884765625
1695712610539360500,9.101360595703126,0.0457763671875,-1.032257080078125,-2.62939453125
1695712610548912400,9.110912353515625,-0.0323486328125,-1.503143310546875,-2.59307861328125
1695712610558464500,9.120464599609376,-0.121612548828125,-1.93023681640625,-2.554779052734375
1695712610568016400,9.130016357421875,-0.174713134765625,-2.01568603515625,-2.465057373046875
1695712610577537800,9.139537841796875,-0.174713134765625,-1.530609130859375,-2.23297119140625
1695712610587090000,9.14908984375,-0.193023681640625,-0.397186279296875,-1.817779541015625
1695712610596641800,9.158641845703125,-0.091094970703125,0.80780029296875,-1.60400390625
1695712610606194000,9.16819384765625,0.076904296875,1.700592041015625,-1.701202392578125
1695712610615745800,9.177745849609375,0.248260498046875,1.776580810546875,-2.048187255859375
1695712610625267500,9.187267333984375,0.3546142578125,1.318511962890625,-2.31781005859375
1695712610634819300,9.1968193359375,0.3985595703125,0.8001708984375,-2.35382080078125
1695712610644371500,9.206371337890625,0.41412353515625,0.479736328125,-2.183380126953125
1695712610653923300,9.21592333984375,0.4248046875,0.40771484375,-1.8988037109375
1695712610663445000,9.225445068359376,0.435791015625,0.49530029296875,-1.56768798828125
1695712610672996900,9.234996826171875,0.4302978515625,0.595245361328125,-1.315460205078125
1695712610682549000,9.244549072265626,0.426025390625,0.685577392578125,-1.1456298828125
1695712610692100900,9.254100830078125,0.4278564453125,0.81268310546875,-1.016082763671875
1695712610701622300,9.263622314453125,0.4400634765625,0.949859619140625,-0.89599609375
1695712610711174400,9.27317431640625,0.450439453125,1.034393310546875,-0.757598876953125
1695712610720726300,9.282726318359375,0.45623779296875,1.055450439453125,-0.57830810546875
1695712610730278400,9.2922783203125,0.45684814453125,1.021270751953125,-0.370941162109375
1695712610739799800,9.3017998046875,0.439453125,0.957489013671875,-0.1513671875
1695712610749352000,9.31135205078125,0.40374755859375,0.882568359375,0.079193115234375
1695712610758903800,9.32090380859375,0.36102294921875,0.7861328125,0.336456298828125
1695712610768456000,9.3304560546875,0.32745361328125,0.688629150390625,0.63201904296875
1695712610778007800,9.3400078125,0.306396484375,0.622100830078125,0.9539794921875
1695712610787560000,9.349559814453125,0.3009033203125,0.597991943359375,1.28021240234375
1695712610797111800,9.35911181640625,0.30487060546875,0.629119873046875,1.5972900390625
1695712610806664000,9.368663818359375,0.31768798828125,0.713348388671875,1.883392333984375
1695712610816215800,9.3782158203125,0.3460693359375,0.84136962890625,2.123870849609375
1695712610825737500,9.387737548828126,0.3717041015625,1.030426025390625,2.28179931640625
1695712610835289300,9.397289306640625,0.3955078125,1.305084228515625,2.275848388671875
1695712610844841500,9.406841552734376,0.44158935546875,1.56707763671875,1.97967529296875
1695712610854393300,9.416393310546875,0.518341064453125,1.679229736328125,1.25091552734375
1695712610863914800,9.425914794921875,0.507049560546875,1.653900146484375,0.18035888671875
1695712610873467000,9.435466796875,0.35430908203125,1.612548828125,-1.068267822265625
1695712610883018800,9.445018798828125,0.209808349609375,1.13922119140625,-1.92840576171875
1695712610892571000,9.45457080078125,0.283966064453125,0.016632080078125,-1.96685791015625
1695712610902122800,9.464122802734375,0.507049560546875,-0.840606689453125,-1.6021728515625
1695712610911644400,9.47364453125,0.66253662109375,-0.775909423828125,-1.358795166015625
1695712610921196300,9.4831962890625,0.540008544921875,-0.076141357421875,-1.2005615234375
1695712610930748400,9.49274853515625,0.3411865234375,0.682830810546875,-1.046295166015625
1695712610940300300,9.50230029296875,0.197296142578125,1.50146484375,-0.689849853515625
1695712610949822000,9.511822021484376,-0.146942138671875,2.25067138671875,-0.034637451171875
1695712610959373800,9.521373779296875,-0.59478759765625,2.163238525390625,0.89111328125
1695712610968926000,9.530926025390626,-0.898895263671875,0.802001953125,1.837615966796875
1695712610978477800,9.540477783203125,-0.558929443359375,-1.25274658203125,1.443939208984375
1695712610987999200,9.549999267578125,-0.00457763671875,-1.787872314453125,-0.232696533203125
1695712610997551400,9.55955126953125,0.218658447265625,-0.57708740234375,-1.20147705078125
1695712611007103200,9.569103271484375,0.582427978515625,0.363311767578125,-0.374298095703125
1695712611016655400,9.5786552734375,0.81390380859375,0.1495361328125,1.182098388671875
1695712611026176800,9.5881767578125,0.66162109375,-0.445404052734375,2.04559326171875
1695712611035729000,9.59772900390625,0.285186767578125,-0.680389404296875,2.096405029296875
1695712611045280800,9.60728076171875,-0.186004638671875,-0.356597900390625,1.66046142578125
1695712611054833000,9.6168330078125,-0.500946044921875,-0.2960205078125,1.61651611328125
1695712611064384800,9.626384765625,-0.508880615234375,-0.5035400390625,1.888580322265625
1695712611073937000,9.63593701171875,-0.33782958984375,-0.724334716796875,2.161407470703125
1695712611083488800,9.64548876953125,-0.085906982421875,-1.031341552734375,2.160491943359375
1695712611093041000,9.655041015625,0.159149169921875,-1.026458740234375,1.797332763671875
1695712611102592800,9.6645927734375,0.30120849609375,-0.6170654296875,1.390533447265625
1695712611112114400,9.674114501953126,0.284271240234375,-0.2716064453125,1.22650146484375
1695712611121666300,9.683666259765625,0.204925537109375,-0.23712158203125,1.35162353515625
1695712611131218400,9.693218505859376,0.1123046875,-0.2972412109375,1.5765380859375
1695712611140770300,9.702770263671875,0.018310546875,-0.312652587890625,1.788177490234375
1695712611150291700,9.712291748046875,-0.121612548828125,-0.346221923828125,1.9525146484375
1695712611159843800,9.72184375,-0.247802734375,-0.456085205078125,2.02484130859375
1695712611169395700,9.731395751953125,-0.25665283203125,-0.60333251953125,1.9989013671875
1695712611178947800,9.74094775390625,-0.131683349609375,-0.6475830078125,1.903533935546875
1695712611188499700,9.750499755859375,0.06256103515625,-0.4998779296875,1.794281005859375
1695712611198021400,9.760021484375,0.205230712890625,-0.2239990234375,1.7047119140625
1695712611207573200,9.7695732421875,0.222015380859375,-0.088043212890625,1.6302490234375
1695712611217125400,9.77912548828125,0.138702392578125,-0.135498046875,1.558990478515625
1695712611226677200,9.78867724609375,0.05401611328125,-0.19989013671875,1.493377685546875
1695712611236198700,9.79819873046875,-0.02899169921875,-0.220947265625,1.439056396484375
1695712611245750800,9.807750732421875,-0.115203857421875,-0.23406982421875,1.405181884765625
1695712611255303000,9.817302978515626,-0.169830322265625,-0.2227783203125,1.380767822265625
1695712611264854800,9.826854736328125,-0.195465087890625,-0.2337646484375,1.36871337890625
1695712611274376200,9.836376220703125,-0.214691162109375,-0.301055908203125,1.368408203125
1695712611283928300,9.84592822265625,-0.24078369140625,-0.417938232421875,1.386260986328125
1695712611293480200,9.855480224609375,-0.2691650390625,-0.5621337890625,1.406707763671875
1695712611303032300,9.8650322265625,-0.30029296875,-0.670928955078125,1.418304443359375
1695712611312553700,9.8745537109375,-0.3448486328125,-0.66192626953125,1.423187255859375
1695712611322105900,9.88410595703125,-0.3973388671875,-0.526123046875,1.420135498046875
1695712611331657700,9.89365771484375,-0.441436767578125,-0.395965576171875,1.401214599609375
1695712611341209900,9.9032099609375,-0.476837158203125,-0.344696044921875,1.384124755859375
1695712611350761700,9.91276171875,-0.504302978515625,-0.391082763671875,1.34735107421875
1695712611360313900,9.92231396484375,-0.505828857421875,-0.483856201171875,1.2762451171875
1695712611369865700,9.93186572265625,-0.483856201171875,-0.5755615234375,1.172637939453125
1695712611379417900,9.94141796875,-0.449676513671875,-0.6402587890625,1.045684814453125
1695712611388969700,9.9509697265625,-0.39764404296875,-0.66162109375,0.88836669921875
1695712611398491100,9.9604912109375,-0.33905029296875,-0.6280517578125,0.724639892578125
1695712611408043300,9.970043212890625,-0.299072265625,-0.50445556640625,0.5712890625
1695712611417595400,9.979595458984376,-0.29266357421875,-0.383758544921875,0.439910888671875
1695712611427147300,9.989147216796875,-0.32745361328125,-0.412750244140625,0.331573486328125
1695712611436668700,9.998668701171875,-0.36865234375,-0.54779052734375,0.23651123046875
1695712611446220800,10.008220703125,-0.36041259765625,-0.62896728515625,0.14312744140625
1695712611455772700,10.017772705078125,-0.29449462890625,-0.5755615234375,0.048065185546875
1695712611465324800,10.02732470703125,-0.218658447265625,-0.404815673828125,-0.081787109375
1695712611474876700,10.036876708984375,-0.153045654296875,-0.18829345703125,-0.254364013671875
1695712611484398300,10.0463984375,-0.052642822265625,-0.041046142578125,-0.4766845703125
1695712611493950200,10.0559501953125,0.07781982421875,0.033416748046875,-0.704498291015625
1695712611503502300,10.06550244140625,0.142364501953125,0.13519287109375,-0.952301025390625
1695712611513054200,10.07505419921875,0.189361572265625,0.366668701171875,-1.2689208984375
1695712611522575600,10.08457568359375,0.34820556640625,0.57525634765625,-1.593017578125
1695712611532127700,10.094127685546875,0.517120361328125,0.614166259765625,-1.89239501953125
1695712611541679600,10.1036796875,0.554656982421875,0.597076416015625,-2.22503662109375
1695712611551231700,10.113231689453125,0.527801513671875,0.50018310546875,-2.65350341796875
1695712611560753200,10.122753173828125,0.46142578125,0.1220703125,-3.154144287109375
1695712611570305300,10.13230517578125,0.4010009765625,-0.51788330078125,-3.465423583984375
1695712611579857200,10.141857177734375,0.3680419921875,-1.058807373046875,-3.493804931640625
1695712611589409300,10.1514091796875,0.3228759765625,-1.187286376953125,-3.350830078125
1695712611598961200,10.160961181640625,0.219879150390625,-0.855712890625,-3.184661865234375
1695712611608482800,10.17048291015625,0.0604248046875,-0.340118408203125,-3.05450439453125
1695712611618034700,10.18003466796875,-0.105438232421875,-0.054168701171875,-2.979736328125
1695712611627586800,10.1895869140625,-0.2423095703125,-0.2001953125,-2.92877197265625
1695712611637138700,10.199138671875,-0.386962890625,-0.6024169921875,-2.865753173828125
1695712611646690800,10.20869091796875,-0.562896728515625,-1.042633056640625,-2.777557373046875
1695712611656242700,10.21824267578125,-0.67169189453125,-1.32110595703125,-2.618408203125
1695712611665794800,10.227794921875,-0.61004638671875,-1.260986328125,-2.398223876953125
1695712611675346700,10.2373466796875,-0.3863525390625,-0.732879638671875,-2.131500244140625
1695712611684868000,10.2468681640625,-0.155487060546875,0.08453369140625,-1.93634033203125
1695712611694420200,10.256420166015625,-0.051422119140625,0.7928466796875,-1.9378662109375
1695712611703972000,10.26597216796875,-0.0421142578125,0.945281982421875,-2.153472900390625
1695712611713524200,10.275524169921875,-0.00274658203125,0.562744140625,-2.393646240234375
1695712611723076000,10.285076171875,0.0921630859375,0.19683837890625,-2.407989501953125
1695712611732597800,10.29459765625,0.206756591796875,0.0958251953125,-2.20611572265625
1695712611742149600,10.304149658203125,0.298919677734375,0.20538330078125,-1.88690185546875
1695712611751701800,10.31370166015625,0.36773681640625,0.334930419921875,-1.58447265625
1695712611761253600,10.323253662109375,0.42083740234375,0.389251708984375,-1.353912353515625
1695712611770775300,10.332775390625,0.478515625,0.45318603515625,-1.16119384765625
1695712611780327200,10.3423271484375,0.531768798828125,0.5499267578125,-0.991058349609375
1695712611789879300,10.35187939453125,0.551910400390625,0.685272216796875,-0.83282470703125
1695712611799431200,10.36143115234375,0.550384521484375,0.80322265625,-0.662384033203125
1695712611808952600,10.37095263671875,0.547027587890625,0.88653564453125,-0.46142578125
1695712611818504700,10.380504638671875,0.535430908203125,0.935821533203125,-0.231475830078125
1695712611828056600,10.390056640625,0.507049560546875,0.943450927734375,0.023345947265625
1695712611837608700,10.399608642578125,0.46875,0.90057373046875,0.29754638671875
1695712611847130000,10.409130126953125,0.435791015625,0.838623046875,0.599365234375
1695712611856682200,10.41868212890625,0.40985107421875,0.78338623046875,0.91766357421875
1695712611866234000,10.428234130859375,0.39306640625,0.756683349609375,1.26434326171875
1695712611875786200,10.4377861328125,0.39703369140625,0.819091796875,1.639404296875
1695712611885338000,10.447338134765625,0.43609619140625,0.977020263671875,2.003173828125
1695712611894859800,10.45685986328125,0.496368408203125,1.16973876953125,2.3150634765625
1695712611904411600,10.46641162109375,0.536041259765625,1.375579833984375,2.492828369140625
1695712611913963800,10.4759638671875,0.558319091796875,1.6058349609375,2.38677978515625
1695712611923515600,10.485515625,0.618133544921875,1.694793701171875,1.851043701171875
1695712611933067800,10.49506787109375,0.679931640625,1.5875244140625,0.8587646484375
1695712611942619600,10.50461962890625,0.531768798828125,1.6033935546875,-0.4962158203125
1695712611952171800,10.514171875,0.194854736328125,1.583251953125,-1.85516357421875
1695712611961723600,10.5237236328125,0.10101318359375,0.79193115234375,-2.30865478515625
1695712611971245000,10.5332451171875,0.345458984375,-0.52978515625,-1.88079833984375
1695712611980797200,10.542797119140625,0.550689697265625,-1.141204833984375,-1.23016357421875
1695712611990349000,10.55234912109375,0.4583740234375,-0.63751220703125,-0.81787109375
1695712611999901200,10.561901123046875,0.212249755859375,0.272369384765625,-0.746917724609375
1695712612009453000,10.571453125,0.01983642578125,1.12152099609375,-0.7708740234375
1695712612018974700,10.580974609375,-0.2862548828125,1.786651611328125,-0.472412109375
1695712612028526600,10.590526611328125,-0.70159912109375,1.8994140625,0.364532470703125
1695712612038078700,10.60007861328125,-1.00067138671875,0.78948974609375,1.461639404296875
1695712612047630600,10.609630615234375,-0.762786865234375,-1.26220703125,1.444244384765625
1695712612057152300,10.61915234375,-0.29632568359375,-1.522064208984375,-0.036163330078125
1695712612066704100,10.6287041015625,-0.112152099609375,0.724639892578125,-1.087493896484375
1695712612076256300,10.63825634765625,0.265045166015625,0.583648681640625,-0.033111572265625
1695712612085808000,10.64780810546875,0.612030029296875,-0.791473388671875,1.63818359375
1695712612095329500,10.65732958984375,0.7110595703125,-0.9259033203125,2.260284423828125
1695712612104881700,10.666881591796875,0.512847900390625,-0.350494384765625,1.927490234375
1695712612114433500,10.67643359375,0.10894775390625,0.023040771484375,1.459197998046875
1695712612123985700,10.685985595703125,-0.29449462890625,-0.062713623046875,1.66015625
1695712612133507000,10.695507080078125,-0.38421630859375,-0.2862548828125,2.144927978515625
1695712612143059200,10.70505908203125,-0.152435302734375,-0.53009033203125,2.468109130859375
1695712612152611000,10.714611083984375,0.150299072265625,-0.633544921875,2.435302734375
1695712612162163200,10.7241630859375,0.38604736328125,-0.446319580078125,2.04315185546875
1695712612171715000,10.733715087890625,0.511627197265625,-0.23162841796875,1.6058349609375
1695712612181236700,10.74323681640625,0.517425537109375,-0.15533447265625,1.383209228515625
1695712612190788600,10.75278857421875,0.44586181640625,-0.16265869140625,1.37298583984375
1695712612200340700,10.7623408203125,0.3173828125,-0.13702392578125,1.546478271484375
1695712612209892600,10.771892578125,0.146331787109375,-0.101470947265625,1.788787841796875
1695712612219444700,10.78144482421875,-0.010986328125,-0.164794921875,1.95587158203125
1695712612228996600,10.79099658203125,-0.074310302734375,-0.382232666015625,1.97784423828125
1695712612238548700,10.800548828125,0.01068115234375,-0.54443359375,1.849212646484375
1695712612248100600,10.8101005859375,0.170440673828125,-0.5328369140625,1.683349609375
1695712612257622000,10.8196220703125,0.245513916015625,-0.431976318359375,1.58782958984375
1695712612267174100,10.829174072265625,0.212249755859375,-0.347442626953125,1.56707763671875
1695712612276726000,10.83872607421875,0.120697021484375,-0.3045654296875,1.56585693359375
1695712612286278100,10.848278076171875,0.01556396484375,-0.336761474609375,1.515045166015625
1695712612295830000,10.857830078125,-0.107879638671875,-0.415802001953125,1.416778564453125
1695712612305351700,10.8673515625,-0.165557861328125,-0.479278564453125,1.27838134765625
1695712612314903600,10.876903564453125,-0.178985595703125,-0.470123291015625,1.182098388671875
1695712612324455700,10.88645556640625,-0.185089111328125,-0.426788330078125,1.175384521484375
1695712612334007600,10.896007568359375,-0.189361572265625,-0.345611572265625,1.23046875
1695712612343529200,10.905529296875,-0.200653076171875,-0.23834228515625,1.2957763671875
1695712612353081000,10.9150810546875,-0.22430419921875,-0.15106201171875,1.34033203125
1695712612362633200,10.92463330078125,-0.25787353515625,-0.103302001953125,1.35833740234375
1695712612372185000,10.93418505859375,-0.2935791015625,-0.101776123046875,1.35711669921875
1695712612381706500,10.94370654296875,-0.3265380859375,-0.15899658203125,1.343994140625
1695712612391258600,10.953258544921875,-0.36590576171875,-0.24871826171875,1.33453369140625
1695712612400810500,10.962810546875,-0.401611328125,-0.364532470703125,1.32568359375
1695712612410362600,10.972362548828125,-0.433502197265625,-0.496826171875,1.29852294921875
1695712612419884000,10.981884033203125,-0.467681884765625,-0.59234619140625,1.2420654296875
1695712612429436200,10.991436279296876,-0.494232177734375,-0.61676025390625,1.153411865234375
1695712612438988000,11.000988037109375,-0.500030517578125,-0.6231689453125,1.038360595703125
1695712612448540200,11.0105400390625,-0.471954345703125,-0.683746337890625,0.9014892578125
1695712612458092000,11.020092041015625,-0.408172607421875,-0.775909423828125,0.743560791015625
1695712612467613700,11.02961376953125,-0.321044921875,-0.778961181640625,0.59112548828125
1695712612477165600,11.03916552734375,-0.24658203125,-0.66680908203125,0.449371337890625
1695712612486717700,11.0487177734375,-0.220794677734375,-0.615234375,0.319671630859375
1695712612496269600,11.05826953125,-0.2410888671875,-0.709686279296875,0.213623046875
1695712612505821700,11.06782177734375,-0.2545166015625,-0.800323486328125,0.12725830078125
1695712612515373600,11.07737353515625,-0.22491455078125,-0.718231201171875,0.046234130859375
1695712612524925700,11.08692578125,-0.175933837890625,-0.472564697265625,-0.0555419921875
1695712612534477600,11.0964775390625,-0.131988525390625,-0.213623046875,-0.22064208984375
1695712612543999000,11.1059990234375,-0.075531005859375,-0.096893310546875,-0.47515869140625
1695712612553551000,11.115551025390625,0.02685546875,-0.120391845703125,-0.764617919921875
1695712612563103000,11.12510302734375,0.145416259765625,-0.15106201171875,-1.015777587890625
1695712612572655000,11.134655029296875,0.202484130859375,-0.032806396484375,-1.25518798828125
1695712612582207000,11.14420703125,0.242767333984375,0.323944091796875,-1.5362548828125
1695712612591728600,11.153728759765626,0.32806396484375,0.677642822265625,-1.826324462890625
1695712612601280500,11.163280517578125,0.39031982421875,0.83251953125,-2.140350341796875
1695712612610832600,11.17283251953125,0.35125732421875,0.78765869140625,-2.57965087890625
1695712612620384500,11.182384521484375,0.256500244140625,0.48828125,-3.082275390625
1695712612629906200,11.19190625,0.204315185546875,0.002899169921875,-3.41583251953125
1695712612639458000,11.2014580078125,0.214080810546875,-0.429534912109375,-3.539886474609375
1695712612649010200,11.21101025390625,0.252227783203125,-0.698394775390625,-3.458404541015625
1695712612658562000,11.22056201171875,0.271148681640625,-0.848388671875,-3.227691650390625
1695712612668083500,11.23008349609375,0.233612060546875,-0.99609375,-2.94891357421875
1695712612677635600,11.239635498046875,0.134429931640625,-1.2420654296875,-2.69866943359375
1695712612687187500,11.2491875,0.01190185546875,-1.549835205078125,-2.543792724609375
1695712612696739600,11.258739501953125,-0.089569091796875,-1.791534423828125,-2.464141845703125
1695712612706291500,11.26829150390625,-0.181427001953125,-1.819305419921875,-2.395782470703125
1695712612715813000,11.277813232421876,-0.172271728515625,-1.535186767578125,-2.25067138671875
1695712612725365000,11.287364990234375,-0.066375732421875,-0.767364501953125,-1.94183349609375
1695712612734917000,11.296917236328126,0.08880615234375,0.408935546875,-1.56829833984375
1695712612744469000,11.306468994140625,0.282135009765625,1.439971923828125,-1.5118408203125
1695712612753990700,11.31599072265625,0.31402587890625,1.86920166015625,-1.835479736328125
1695712612763542500,11.32554248046875,0.237579345703125,1.725006103515625,-2.23785400390625
1695712612773094700,11.3350947265625,0.168609619140625,1.424407958984375,-2.444915771484375
1695712612782646500,11.344646484375,0.183868408203125,1.1163330078125,-2.444915771484375
1695712612792198700,11.35419873046875,0.233001708984375,0.8990478515625,-2.3358154296875
1695712612801750500,11.36375048828125,0.297393798828125,0.85235595703125,-2.099151611328125
1695712612811302700,11.373302734375,0.38482666015625,0.88714599609375,-1.786346435546875
1695712612820854500,11.3828544921875,0.48004150390625,0.9100341796875,-1.475067138671875
1695712612830376000,11.3923759765625,0.572052001953125,0.9130859375,-1.20635986328125
1695712612839928000,11.401927978515625,0.640716552734375,0.91522216796875,-0.998382568359375
1695712612849480000,11.41147998046875,0.68023681640625,0.955963134765625,-0.8587646484375
1695712612859032000,11.421031982421875,0.68450927734375,1.030120849609375,-0.763702392578125
1695712612868584000,11.430583984375,0.6591796875,1.103973388671875,-0.670318603515625
1695712612878105600,11.440105712890626,0.627288818359375,1.14776611328125,-0.54443359375
1695712612887657500,11.449657470703125,0.612335205078125,1.14288330078125,-0.366973876953125
1695712612897209600,11.459209716796876,0.606231689453125,1.098175048828125,-0.14068603515625
1695712612906761500,11.468761474609375,0.604095458984375,1.009674072265625,0.1348876953125
1695712612916283100,11.478283203125,0.605621337890625,0.8953857421875,0.455474853515625
1695712612925835000,11.4878349609375,0.599517822265625,0.792236328125,0.809173583984375
1695712612935387100,11.49738720703125,0.583953857421875,0.728912353515625,1.177215576171875
1695712612944939000,11.50693896484375,0.570831298828125,0.708160400390625,1.544036865234375
1695712612954460400,11.51646044921875,0.576629638671875,0.765380859375,1.879425048828125
1695712612964012500,11.526012451171875,0.603790283203125,0.8905029296875,2.140045166015625
1695712612973564400,11.535564453125,0.627288818359375,1.055755615234375,2.252044677734375
1695712612983116500,11.545116455078125,0.630645751953125,1.2310791015625,2.08251953125
1695712612992668400,11.55466845703125,0.626373291015625,1.322784423828125,1.525726318359375
1695712613002190000,11.564190185546876,0.601654052734375,1.2286376953125,0.678253173828125
1695712613011742000,11.573741943359375,0.472412109375,1.19720458984375,-0.275115966796875
1695712613021294000,11.583294189453126,0.233612060546875,1.377410888671875,-1.335906982421875
1695712613030862600,11.592862548828125,0.05523681640625,1.458587646484375,-2.108001708984375
1695712613040384000,11.602384033203125,0.139007568359375,0.8026123046875,-2.184906005859375
1695712613049936000,11.611935791015625,0.40740966796875,-0.225830078125,-1.714935302734375
1695712613059488000,11.621488037109375,0.599517822265625,-0.741424560546875,-1.15386962890625
1695712613069039900,11.631039794921875,0.518341064453125,-0.58990478515625,-0.745391845703125
1695712613078592000,11.640592041015625,0.3314208984375,-0.014190673828125,-0.54718017578125
1695712613088144000,11.650143798828125,0.231781005859375,0.819091796875,-0.41473388671875
1695712613097696000,11.659696044921875,0.0213623046875,1.878662109375,-0.12664794921875
1695712613107247900,11.669247802734375,-0.30548095703125,2.65899658203125,0.356597900390625
1695712613116800000,11.678800048828125,-0.579376220703125,2.181854248046875,1.151885986328125
1695712613126321400,11.6883212890625,-0.496978759765625,0.0445556640625,1.490936279296875
1695712613135873500,11.69787353515625,0.09124755859375,-1.916351318359375,0.61614990234375
1695712613145425400,11.70742529296875,0.36102294921875,-1.489410400390625,-0.45562744140625
1695712613154977500,11.7169775390625,0.640716552734375,-0.368194580078125,-0.618133544921875
1695712613164499000,11.7264990234375,0.895843505859375,-0.28076171875,0.710601806640625
1695712613174051000,11.736051025390625,0.83251953125,-0.738983154296875,1.96258544921875
1695712613183603000,11.74560302734375,0.42236328125,-0.677947998046875,2.254180908203125
1695712613193155000,11.755155029296875,-0.124053955078125,0.06195068359375,1.669921875
1695712613202676500,11.764676513671875,-0.6097412109375,0.591278076171875,1.3134765625
1695712613212228400,11.774228271484375,-0.766448974609375,0.325775146484375,1.6650390625
1695712613221780500,11.783780517578125,-0.59173583984375,-0.306854248046875,2.173919677734375
1695712613231332400,11.793332275390625,-0.27252197265625,-1.160430908203125,2.586212158203125
1695712613240854000,11.80285400390625,0.04119873046875,-1.811370849609375,2.631683349609375
1695712613250406000,11.812406005859375,0.39581298828125,-1.782684326171875,2.148284912109375
1695712613259958000,11.8219580078125,0.603485107421875,-1.25640869140625,1.541290283203125
1695712613269510000,11.831510009765625,0.658111572265625,-0.700531005859375,1.28509521484375
1695712613279062000,11.84106201171875,0.611724853515625,-0.334625244140625,1.35284423828125
1695712613288583400,11.85058349609375,0.47271728515625,-0.068206787109375,1.540985107421875
1695712613298135600,11.860135498046875,0.273284912109375,0.027923583984375,1.749725341796875
1695712613307687400,11.8696875,0.068359375,-0.20416259765625,1.92352294921875
1695712613317239600,11.879239501953125,-0.086212158203125,-0.64849853515625,1.9635009765625
1695712613326761000,11.888760986328125,-0.141448974609375,-1.060943603515625,1.92596435546875
1695712613336312800,11.898312744140625,-0.067291259765625,-1.163177490234375,1.867523193359375
1695712613345865000,11.907864990234375,0.06378173828125,-0.93963623046875,1.797027587890625
1695712613355416800,11.917416748046875,0.157012939453125,-0.64849853515625,1.70928955078125
1695712613364969000,11.926968994140625,0.164947509765625,-0.474395751953125,1.6131591796875
1695712613374520800,11.936520751953125,0.0860595703125,-0.432891845703125,1.538848876953125
1695712613384073000,11.946072998046875,-0.0140380859375,-0.509033203125,1.469573974609375
1695712613393624800,11.955624755859375,-0.081939697265625,-0.60302734375,1.410369873046875
1695712613403177000,11.965177001953125,-0.123138427734375,-0.634765625,1.377105712890625
1695712613412698400,11.974698486328125,-0.152435302734375,-0.61767578125,1.35223388671875
1695712613422250500,11.98425048828125,-0.166168212890625,-0.54595947265625,1.35009765625
1695712613431802400,11.99380224609375,-0.181427001953125,-0.425567626953125,1.390838623046875
1695712613441354500,12.0033544921875,-0.209503173828125,-0.332183837890625,1.434173583984375
1695712613450876000,12.0128759765625,-0.2423095703125,-0.315093994140625,1.449737548828125
1695712613460428000,12.022427978515625,-0.27679443359375,-0.373687744140625,1.450042724609375
1695712613469980000,12.03197998046875,-0.31707763671875,-0.445404052734375,1.444854736328125
1695712613479532000,12.041531982421875,-0.362548828125,-0.5029296875,1.428375244140625
1695712613489053400,12.051053466796875,-0.408172607421875,-0.57464599609375,1.391143798828125
1695712613498605300,12.060605224609375,-0.438995361328125,-0.628662109375,1.336669921875
1695712613508157400,12.070157470703125,-0.460052490234375,-0.663604736328125,1.2628173828125
1695712613517709300,12.079709228515625,-0.475921630859375,-0.710906982421875,1.152496337890625
1695712613527231000,12.08923095703125,-0.485076904296875,-0.758514404296875,0.99853515625
1695712613536782800,12.098782958984375,-0.478057861328125,-0.818023681640625,0.816192626953125
1695712613546335000,12.1083349609375,-0.441436767578125,-0.91583251953125,0.63751220703125
1695712613555886800,12.117886962890625,-0.37994384765625,-0.96405029296875,0.49163818359375
1695712613565439000,12.12743896484375,-0.3240966796875,-0.908203125,0.387725830078125
1695712613574960400,12.13696044921875,-0.30609130859375,-0.8807373046875,0.302886962890625
1695712613584512500,12.146512451171875,-0.3240966796875,-0.96038818359375,0.22186279296875
1695712613594064400,12.156064453125,-0.3472900390625,-1.049041748046875,0.1409912109375
1695712613603616500,12.165616455078125,-0.3692626953125,-1.0125732421875,0.054473876953125
1695712613613138000,12.175137939453125,-0.3717041015625,-0.812530517578125,-0.07232666015625
1695712613622689800,12.184689697265625,-0.3564453125,-0.52703857421875,-0.261077880859375
1695712613632242000,12.194241943359375,-0.31524658203125,-0.339508056640625,-0.5047607421875
1695712613641793800,12.203793701171875,-0.177459716796875,-0.3082275390625,-0.7855224609375
1695712613651346000,12.213345947265625,0.04913330078125,-0.304107666015625,-1.012725830078125
1695712613660897800,12.222897705078125,0.207061767578125,-0.20416259765625,-1.20849609375
1695712613670450000,12.232449951171875,0.30303955078125,0.05157470703125,-1.454010009765625
1695712613680001800,12.242001708984375,0.45684814453125,0.348052978515625,-1.762847900390625
1695712613689554000,12.251553955078125,0.592803955078125,0.51177978515625,-2.090911865234375
1695712613699075300,12.261075439453125,0.601959228515625,0.56976318359375,-2.435150146484375
1695712613708627500,12.27062744140625,0.504608154296875,0.477294921875,-2.873077392578125
1695712613718179300,12.280179443359375,0.37933349609375,0.0970458984375,-3.267059326171875
1695712613727731500,12.2897314453125,0.32623291015625,-0.467681884765625,-3.44970703125
1695712613737252900,12.2992529296875,0.29998779296875,-0.90362548828125,-3.4185791015625
1695712613746805000,12.308804931640625,0.232391357421875,-0.95306396484375,-3.274383544921875
1695712613756356900,12.31835693359375,0.126495361328125,-0.6610107421875,-3.112945556640625
1695712613765909000,12.327908935546875,0.01190185546875,-0.368194580078125,-2.96112060546875
1695712613775430400,12.337430419921875,-0.110626220703125,-0.394134521484375,-2.836151123046875
1695712613784982300,12.346982177734375,-0.245361328125,-0.736846923828125,-2.747344970703125
1695712613794534400,12.356534423828125,-0.3680419921875,-1.2384033203125,-2.65777587890625
1695712613804086300,12.366086181640625,-0.425567626953125,-1.6009521484375,-2.490692138671875
1695712613813608000,12.37560791015625,-0.419158935546875,-1.466522216796875,-2.225341796875
1695712613823159800,12.385159912109375,-0.2325439453125,-0.788726806640625,-1.9049072265625
1695712613832712000,12.3947119140625,0.130157470703125,0.13702392578125,-1.705474853515625
1695712613842263800,12.404263916015625,0.32257080078125,0.935211181640625,-1.817779541015625
1695712613851816000,12.41381591796875,0.300445556640625,1.1383056640625,-2.164154052734375
1695712613861337300,12.42333740234375,0.242767333984375,0.8782958984375,-2.442779541015625
1695712613870889200,12.43288916015625,0.247650146484375,0.53802490234375,-2.483367919921875
1695712613880441300,12.44244140625,0.325927734375,0.353851318359375,-2.322998046875
1695712613889993500,12.451993408203125,0.416259765625,0.329437255859375,-2.054595947265625
1695712613899515000,12.461514892578125,0.493316650390625,0.349578857421875,-1.734466552734375
1695712613909066800,12.471066650390625,0.557403564453125,0.411376953125,-1.436614990234375
1695712613918619000,12.480618896484375,0.606842041015625,0.5120849609375,-1.21490478515625
1695712613928170800,12.490170654296875,0.628814697265625,0.658416748046875,-1.064910888671875
1695712613937723000,12.499722900390625,0.637664794921875,0.806884765625,-0.93902587890625
1695712613947274800,12.509274658203125,0.645599365234375,0.92437744140625,-0.7855224609375
1695712613956827000,12.518826904296875,0.651397705078125,1.016387939453125,-0.600433349609375
1695712613966378800,12.528378662109375,0.656280517578125,1.097564697265625,-0.402069091796875
1695712613975931000,12.537930908203125,0.632781982421875,1.131591796875,-0.196533203125
1695712613985452300,12.547452392578125,0.585479736328125,1.1248779296875,0.031890869140625
1695712613995004400,12.55700439453125,0.530853271484375,1.077423095703125,0.298919677734375
1695712614004556300,12.566556396484375,0.47576904296875,0.996246337890625,0.61309814453125
1695712614014108400,12.5761083984375,0.43914794921875,0.89385986328125,0.955810546875
1695712614023629800,12.5856298828125,0.43701171875,0.80963134765625,1.317138671875
1695712614033181700,12.595181640625,0.443115234375,0.740509033203125,1.68701171875
1695712614042733800,12.60473388671875,0.462646484375,0.695648193359375,2.041015625
1695712614052286000,12.614285888671875,0.503082275390625,0.688323974609375,2.342529296875
1695712614061807400,12.623807373046875,0.520172119140625,0.77301025390625,2.516632080078125
1695712614071359200,12.633359130859375,0.507049560546875,0.973968505859375,2.4322509765625
1695712614080911400,12.642911376953125,0.520172119140625,1.201171875,1.96563720703125
1695712614090463200,12.652463134765625,0.544281005859375,1.25396728515625,1.094818115234375
1695712614100015400,12.662015380859375,0.428466796875,1.23046875,-0.0830078125
1695712614109536800,12.671536865234375,0.168609619140625,1.17950439453125,-1.379241943359375
1695712614119089000,12.6810888671875,0.06561279296875,0.79498291015625,-2.085113525390625
1695712614128640800,12.690640869140625,0.330810546875,-0.058746337890625,-2.042083740234375
1695712614138193000,12.70019287109375,0.643157958984375,-0.57861328125,-1.691741943359375
1695712614147714300,12.70971435546875,0.659637451171875,-0.479583740234375,-1.326446533203125
1695712614157266200,12.71926611328125,0.438232421875,-0.073699951171875,-0.993499755859375
1695712614166818300,12.728818359375,0.266876220703125,0.521240234375,-0.725250244140625
1695712614176370200,12.7383701171875,0.10528564453125,1.305389404296875,-0.296783447265625
1695712614185891800,12.747891845703125,-0.215301513671875,2.22381591796875,0.314178466796875
1695712614195443700,12.757443603515625,-0.5902099609375,2.524261474609375,1.071624755859375
1695712614204995800,12.766995849609375,-0.784149169921875,0.972137451171875,1.6864013671875
1695712614214547700,12.776547607421875,-0.423736572265625,-1.917572021484375,1.130523681640625
1695712614224099800,12.786099853515625,-0.0311279296875,-2.579498291015625,-0.233917236328125
1695712614233651700,12.795651611328125,0.260772705078125,-0.371551513671875,-1.059112548828125
1695712614243203800,12.805203857421875,0.615081787109375,0.287322998046875,-0.1336669921875
1695712614252755700,12.814755615234375,0.73822021484375,-0.333404541015625,1.31134033203125
1695712614262307800,12.824307861328125,0.573577880859375,-0.22918701171875,2.0361328125
1695712614271829200,12.833829345703125,0.206451416015625,0.55816650390625,1.809844970703125
1695712614281381400,12.84338134765625,-0.158843994140625,0.972137451171875,1.422882080078125
1695712614290933200,12.852933349609375,-0.420379638671875,0.41717529296875,1.739044189453125
1695712614300485400,12.8624853515625,-0.446929931640625,-0.464630126953125,2.31231689453125
1695712614310006800,12.8720068359375,-0.213775634765625,-1.383209228515625,2.723388671875
1695712614319558700,12.88155859375,0.142364501953125,-1.995849609375,2.7532958984375
1695712614329110800,12.89111083984375,0.547943115234375,-1.854400634765625,2.217254638671875
1695712614338662700,12.90066259765625,0.751953125,-1.109161376953125,1.538238525390625
1695712614348184300,12.910184326171875,0.74859619140625,-0.389862060546875,1.2542724609375
1695712614357736200,12.919736083984375,0.653839111328125,0.025787353515625,1.290283203125
1695712614367288300,12.929288330078125,0.486602783203125,0.20050048828125,1.454315185546875
1695712614376840200,12.938840087890625,0.273590087890625,0.0848388671875,1.683349609375
1695712614386392300,12.948392333984375,0.05035400390625,-0.340118408203125,1.902618408203125
