time,seconds_elapsed,z,y,x
1695713676362083000,0.2480830078125,0.10058403015136719,5.176703453063965,0.699676513671875
1695713676381156400,0.26715625,1.2897849082946777,5.01584005355835,0.5797774791717529
1695713676400260400,0.28626025390625,2.008596420288086,5.334636688232422,-0.18234539031982422
1695713676419334000,0.305333984375,-2.966341018676758,5.657716751098633,-1.7664055824279785
1695713676438438000,0.32443798828125,-7.052613258361816,8.23079776763916,-5.304121017456055
1695713676457542000,0.3435419921875,-5.098511695861816,7.6344733238220215,-6.121751308441162
1695713676476615400,0.362615478515625,-1.698897361755371,7.4902849197387695,-6.841599941253662
1695713676495719400,0.381719482421875,1.8504676818847656,4.3400726318359375,-4.165980339050293
1695713676514793000,0.40079296875,1.0784120559692383,3.5785555839538574,-1.2708971500396729
1695713676533927400,0.419927490234375,-5.468140602111816,5.316758155822754,-0.9038087725639343
1695713676552970500,0.438970458984375,-7.587729454040527,4.89560604095459,-0.5569881200790405
1695713676572074500,0.458074462890625,-3.5865001678466797,2.8986973762512207,-0.4712311029434204
1695713676591178500,0.477178466796875,-0.08501243591308594,4.518101692199707,-1.8192859888076782
1695713676610252000,0.496251953125,1.3010368347167969,6.462452411651611,-2.7518415451049805
1695713676629386500,0.515386474609375,3.0389018058776855,6.98844575881958,-3.102386713027954
1695713676648460000,0.5344599609375,1.117431640625,4.168818473815918,-2.10054612159729
1695713676667564000,0.55356396484375,-8.7496919631958,1.0090198516845703,1.8799242973327637
1695713676686637300,0.57263720703125,-3.754821300506592,8.062484741210938,-2.654923677444458
1695713676705741300,0.5917412109375,-4.118699550628662,4.454728126525879,-0.59918212890625
1695713676724845300,0.61084521484375,-4.032874584197998,5.408005714416504,0.5336289405822754
1695713676743918800,0.6299189453125,1.1512055397033691,6.02783203125,0.6931605339050293
1695713676763022800,0.64902294921875,2.2028846740722656,6.136927604675293,0.007949352264404297
1695713676782096400,0.668096435546875,-4.994077682495117,5.477311134338379,-1.0564756393432617
1695713676801200400,0.687200439453125,-4.586184024810791,5.723064422607422,-0.9300045967102051
1695713676820304400,0.706304443359375,0.6100015640258789,5.247745037078857,0.44727134704589844
1695713676839378000,0.7253779296875,2.6846113204956055,5.899698257446289,1.2530312538146973
1695713676858482000,0.74448193359375,1.3085975646972656,7.134479999542236,1.398869514465332
1695713676877555500,0.763555419921875,0.3993082046508789,8.73508071899414,1.377286434173584
1695713676896659500,0.782659423828125,-1.171349048614502,9.330482482910156,0.294034481048584
1695713676915763500,0.801763427734375,-3.805647373199463,7.625370025634766,-1.2200307846069336
1695713676934867500,0.820867431640625,-4.602953910827637,5.753920078277588,-0.9607515335083008
1695713676953971500,0.839971435546875,-4.46120548248291,6.230107307434082,-1.0981435775756836
1695713676973045000,0.859044921875,-3.346342086791992,5.0050048828125,-2.2033681869506836
1695713676992149000,0.87814892578125,-3.6667356491088867,3.4201173782348633,-3.5096940994262695
1695713677011222300,0.89722216796875,-4.552061557769775,2.5964293479919434,-3.869426727294922
1695713677030326300,0.916326171875,-4.16536283493042,2.4473793506622314,-4.490537643432617
1695713677049399800,0.93539990234375,-3.10568904876709,1.7889281511306763,-4.816708564758301
1695713677068503800,0.95450390625,-3.537700653076172,1.2233524322509766,-4.490893363952637
1695713677087607800,0.97360791015625,-3.4473624229431152,0.8576083183288574,-4.17525577545166
1695713677106681300,0.992681396484375,-4.710056781768799,1.2114229202270508,-2.85284423828125
1695713677125785300,1.011785400390625,-4.379593849182129,1.6086854934692383,-2.054213523864746
1695713677144859000,1.03085888671875,-0.7467975616455078,0.08423995971679688,-0.48279857635498047
1695713677163963000,1.049962890625,1.7134647369384766,0.019443750381469727,0.1492900848388672
1695713677183036400,1.069036376953125,3.094071865081787,0.1904149055480957,-0.23828887939453125
1695713677202171000,1.0881708984375,-5.687160491943359,2.811521291732788,-4.065975189208984
1695713677221275000,1.10727490234375,-4.673364639282227,0.4606504440307617,-1.0268630981445312
1695713677240348400,1.126348388671875,-3.2289743423461914,-1.7113738059997559,-0.3478975296020508
1695713677259452400,1.145452392578125,-4.860800743103027,-0.06393814086914062,-2.957113265991211
1695713677278526000,1.16452587890625,-5.5090718269348145,-0.700380802154541,-2.296687126159668
1695713677297630000,1.1836298828125,-3.222343921661377,-0.8331880569458008,-1.1144905090332031
1695713677316703200,1.202703125,-3.5181567668914795,1.3911066055297852,-0.1454610824584961
1695713677335807200,1.22180712890625,-5.390932559967041,1.2168173789978027,0.5620293617248535
1695713677354911200,1.2409111328125,-5.2083940505981445,0.25431299209594727,-1.5478711128234863
1695713677373984800,1.25998486328125,-5.813333511352539,-0.7765583992004395,-2.783355712890625
1695713677393088800,1.2790888671875,-6.853456497192383,0.14510202407836914,-2.926598072052002
1695713677412162300,1.298162353515625,-5.6711297035217285,-0.3454728126525879,-2.136669635772705
1695713677431266300,1.317266357421875,-3.7507660388946533,-0.7543911933898926,-2.0416502952575684
1695713677450370300,1.336370361328125,-2.7498817443847656,-2.0997471809387207,-3.191993236541748
1695713677469474300,1.355474365234375,-4.662137031555176,-2.652094841003418,-1.9208784103393555
1695713677488700400,1.374700439453125,-7.23159122467041,-2.5044541358947754,-1.0555386543273926
1695713677507926500,1.393926513671875,-7.980288982391357,-2.1806769371032715,-0.09243965148925781
1695713677527152600,1.413152587890625,-7.005210876464844,-1.8736186027526855,0.7506108283996582
1695713677545890300,1.431890380859375,-3.2520151138305664,-1.2595338821411133,0.07580709457397461
1695713677564903000,1.45090283203125,-3.1711549758911133,-0.16806316375732422,-0.721386194229126
1695713677584037400,1.470037353515625,-5.88771390914917,-2.625030517578125,-2.9852423667907715
1695713677603111000,1.48911083984375,-7.2994914054870605,-2.8063459396362305,-3.0927367210388184
1695713677622215000,1.50821484375,-6.743523597717285,-2.9537601470947266,-1.8941388130187988
1695713677641288200,1.5272880859375,2.136159896850586,-2.5236520767211914,0.9972288608551025
1695713677660392200,1.54639208984375,-5.745784282684326,-2.9039502143859863,0.015693306922912598
1695713677679465700,1.5654658203125,-1.2742376327514648,-0.9171266555786133,0.8749592304229736
1695713677698569700,1.58456982421875,-7.200904846191406,-0.9008693695068359,-1.514380693435669
1695713677717673700,1.603673828125,-4.028374195098877,-3.7124781608581543,-3.0174310207366943
1695713677736747300,1.622747314453125,-4.07921028137207,-2.879493236541748,-1.7042489051818848
1695713677755851300,1.641851318359375,-4.917039394378662,-3.08233642578125,0.9445455074310303
1695713677774955300,1.660955322265625,-6.174258708953857,-0.9340066909790039,0.6211349964141846
1695713677794059300,1.680059326171875,2.336289405822754,6.242642879486084,5.8256731033325195
1695713677813132800,1.6991328125,2.5136237144470215,32.793739318847656,11.882651329040527
1695713677832236800,1.71823681640625,-4.615446090698242,24.12820053100586,2.4691221714019775
1695713677851340800,1.7373408203125,-4.904374599456787,1.5597352981567383,-4.4638872146606445
1695713677870414300,1.756414306640625,-8.766902923583984,-3.9530138969421387,-4.865128040313721
1695713677889518300,1.775518310546875,-9.959146499633789,-2.381011486053467,-2.754385471343994
1695713677908591900,1.794591796875,-4.877326011657715,-0.32033348083496094,-0.16095858812332153
1695713677927696000,1.81369580078125,-3.3923797607421875,0.9139671325683594,0.9391011595726013
1695713677946799900,1.8327998046875,-3.729907512664795,1.5664196014404297,0.8202213644981384
1695713677965873200,1.851873046875,-3.5304250717163086,1.1128478050231934,0.27741026878356934
1695713677984977200,1.87097705078125,-3.053586959838867,0.7678313255310059,0.3503572940826416
1695713678004050700,1.89005078125,-1.94547700881958,1.2101802825927734,0.6422981023788452
1695713678023154700,1.90915478515625,-1.2704710960388184,1.84706449508667,1.7828222513198853
1695713678042228200,1.928228271484375,0.6175999641418457,5.286214351654053,4.164277076721191
1695713678061362700,1.94736279296875,0.06796455383300781,7.454484462738037,3.3401732444763184
1695713678080466700,1.966466796875,-1.6668915748596191,5.724391460418701,0.03293001651763916
1695713678099540200,1.985540283203125,-2.209852695465088,0.3125648498535156,-2.125916004180908
1695713678118644200,2.004644287109375,-3.120354175567627,-3.4293031692504883,-2.5399348735809326
1695713678137717800,2.0237177734375,-4.143544673919678,-2.7966456413269043,-2.3546013832092285
1695713678156821800,2.04282177734375,-4.810529708862305,2.4115347862243652,-0.3625539243221283
1695713678175895300,2.061895263671875,-3.1053242683410645,11.17773151397705,2.2466070652008057
1695713678194999300,2.080999267578125,-5.451560974121094,18.038671493530273,0.9878861904144287
1695713678214103300,2.100103271484375,-4.698991298675537,9.740854263305664,-1.4152531623840332
1695713678233176800,2.1191767578125,-0.3912801742553711,-5.3264265060424805,-0.6994185447692871
1695713678252280800,2.13828076171875,-12.5733003616333,-10.547711372375488,-0.7241503596305847
1695713678271354000,2.15735400390625,-15.834662437438965,-4.7584547996521,-1.4101754426956177
1695713678290458000,2.1764580078125,-4.186036109924316,5.85489559173584,4.767967700958252
1695713678309531600,2.19553173828125,-1.1853280067443848,10.21699333190918,9.133685111999512
1695713678328635600,2.2146357421875,-8.189064025878906,4.060154914855957,3.7070140838623047
1695713678347770000,2.23377001953125,-8.675846099853516,-1.0284533500671387,-1.7595500946044922
1695713678366843600,2.25284375,-4.333952903747559,-1.2102913856506348,-2.6716389656066895
1695713678385947600,2.27194775390625,-1.1256976127624512,0.5375771522521973,-0.4068711996078491
1695713678405021200,2.291021240234375,-4.1705403327941895,2.0084352493286133,1.1339998245239258
1695713678424125200,2.310125244140625,-8.685880661010742,2.0140323638916016,1.0491732358932495
1695713678443229200,2.329229248046875,-8.029973030090332,0.5668258666992188,0.5596866607666016
1695713678462302700,2.348302734375,-5.382164001464844,-0.14587688446044922,0.13770174980163574
1695713678481406700,2.36740673828125,-5.015413761138916,0.061217308044433594,0.23478519916534424
1695713678500480300,2.386480224609375,-5.289645671844482,0.5446319580078125,0.3752936124801636
1695713678519584300,2.405584228515625,-5.053112030029297,0.5935802459716797,0.3138768672943115
1695713678538657800,2.42465771484375,-4.5405049324035645,0.23761463165283203,0.03493046760559082
1695713678557761800,2.44376171875,-4.107215404510498,0.2335958480834961,-0.16432678699493408
1695713678576896300,2.462896240234375,-3.821270227432251,0.4556884765625,0.03214907646179199
1695713678595939000,2.48193896484375,-3.117702007293701,0.9621410369873047,0.24111616611480713
1695713678615043000,2.50104296875,-2.3841428756713867,1.3418045043945312,0.43728959560394287
1695713678634147000,2.52014697265625,-2.2077040672302246,1.1234159469604492,0.8003593683242798
1695713678653251000,2.5392509765625,-2.823589563369751,1.2287712097167969,0.9584035873413086
1695713678672324600,2.55832470703125,-3.188647747039795,1.1753854751586914,1.0785998106002808
1695713678691428600,2.5774287109375,-3.5965492725372314,1.022385597229004,2.249765396118164
1695713678710532600,2.59653271484375,-3.5010805130004883,1.363443374633789,2.82928729057312
1695713678729606100,2.615606201171875,-2.5760445594787598,2.920710563659668,2.4859743118286133
1695713678748710100,2.634710205078125,-2.6099207401275635,4.54090690612793,3.449533462524414
1695713678767783700,2.65378369140625,-4.9565839767456055,4.326372146606445,4.068392753601074
1695713678786887700,2.6728876953125,-6.604494094848633,3.2512331008911133,2.6874938011169434
1695713678805961200,2.691961181640625,-6.070769786834717,2.0077104568481445,-0.196028470993042
1695713678825065200,2.711065185546875,-5.550498008728027,1.9609622955322266,-2.912083625793457
1695713678844169200,2.730169189453125,-5.236261367797852,2.9507055282592773,-3.786133289337158
1695713678863242800,2.74924267578125,-5.2969560623168945,4.223596572875977,-3.2084336280822754
1695713678882346800,2.7683466796875,-5.691729545593262,5.488951206207275,-2.625443935394287
1695713678901420000,2.787419921875,-4.790633201599121,6.444647789001465,-1.8775466680526733
1695713678920554800,2.8065546875,-6.271148204803467,5.31599235534668,-1.1082353591918945
1695713678939628000,2.8256279296875,-9.549270629882812,5.194209575653076,-0.5204744338989258
1695713678958732000,2.84473193359375,-8.452330589294434,3.6034717559814453,0.42521607875823975
1695713678977836000,2.8638359375,-5.715014934539795,1.2775521278381348,1.3330557346343994
1695713678996909600,2.88290966796875,-5.02813196182251,0.8691234588623047,0.7984161376953125
1695713679016013600,2.902013671875,-6.4770989418029785,0.9815864562988281,-0.12470690160989761
1695713679035087000,2.921087158203125,-7.286062717437744,0.7478456497192383,-0.7467184066772461
1695713679054191000,2.940191162109375,-7.49431037902832,0.037190914154052734,-0.9784132838249207
1695713679073295000,2.959295166015625,-7.543230056762695,-0.6376957893371582,-0.647191047668457
1695713679092368600,2.97836865234375,-7.066693305969238,-1.5388507843017578,-0.058051228523254395
1695713679111472600,2.99747265625,-6.2545976638793945,-2.1899194717407227,0.5548517107963562
1695713679130546200,3.016546142578125,-5.218244552612305,-2.140162467956543,0.5460374355316162
1695713679149650200,3.035650146484375,-4.602545738220215,-1.5687270164489746,0.22100311517715454
1695713679168723700,3.0547236328125,-3.685699939727783,-0.9232525825500488,0.20735597610473633
1695713679187827700,3.07382763671875,-1.9675493240356445,0.7526426315307617,0.4958004355430603
1695713679206931700,3.092931640625,0.1184854507446289,4.229053020477295,1.0957013368606567
1695713679226035700,3.11203564453125,1.152862548828125,9.365133285522461,3.701265811920166
1695713679245139700,3.1311396484375,1.958113670349121,12.269177436828613,4.521126747131348
1695713679264213000,3.150212890625,2.4350733757019043,8.563232421875,1.3570201396942139
1695713679283317000,3.16931689453125,-3.7096023559570312,-0.7593374252319336,-1.8928765058517456
1695713679302390500,3.188390625,-3.4922285079956055,-5.043986797332764,-4.522026062011719
1695713679321494500,3.20749462890625,-1.8735337257385254,-0.5712728500366211,-3.3942012786865234
1695713679340598500,3.2265986328125,0.11878490447998047,9.267518043518066,0.04266434907913208
1695713679359672000,3.245672119140625,-9.534246444702148,19.197254180908203,1.636153221130371
1695713679378776000,3.264776123046875,-5.590744972229004,8.806756973266602,1.2963480949401855
1695713679397849600,3.283849609375,-11.640390396118164,-8.032792091369629,3.761082410812378
1695713679416953600,3.30295361328125,-12.797784805297852,-8.78052043914795,-0.7690384984016418
1695713679436027100,3.322027099609375,-4.769989490509033,1.262176513671875,1.52567720413208
1695713679455131100,3.341131103515625,-5.828886985778809,9.251365661621094,5.010434150695801
1695713679474235100,3.360235107421875,-7.5475754737854,10.031341552734375,3.8208937644958496
1695713679493339100,3.379339111328125,-6.574335098266602,3.6559624671936035,-0.25519317388534546
1695713679512443100,3.398443115234375,-4.406960487365723,-0.4333200454711914,-1.9450206756591797
1695713679531516700,3.4175166015625,-5.097519397735596,-1.4002556800842285,-0.4439164400100708
1695713679550620700,3.43662060546875,-7.0024261474609375,-0.14318466186523438,0.9798846244812012
1695713679569724700,3.455724609375,-6.945285797119141,0.8271675109863281,0.8874556422233582
1695713679588798000,3.4747978515625,-5.366966247558594,-0.4672117233276367,0.285602867603302
1695713679607902000,3.49390185546875,-5.501027584075928,-0.8654823303222656,-0.022226929664611816
1695713679626975500,3.5129755859375,-5.607297897338867,0.07276153564453125,0.32680439949035645
1695713679646079500,3.53207958984375,-5.029159069061279,0.1138448715209961,0.574761152267456
1695713679665153000,3.551153076171875,-4.085008144378662,-0.7740535736083984,0.6605685949325562
1695713679684257000,3.570257080078125,-3.695258617401123,-0.8054656982421875,1.009986162185669
1695713679703361000,3.589361083984375,-3.2126169204711914,0.09564876556396484,1.2002242803573608
1695713679722434600,3.6084345703125,-2.613300323486328,0.8677730560302734,0.7586941719055176
1695713679741538600,3.62753857421875,-2.6351318359375,0.8150825500488281,0.0954822301864624
1695713679760612000,3.646612060546875,-2.6389896869659424,1.0662031173706055,0.47774672508239746
1695713679779746600,3.66574658203125,-3.480254888534546,1.5855340957641602,0.762812614440918
1695713679798820000,3.684820068359375,-4.064194679260254,1.5673208236694336,1.5180702209472656
1695713679817924000,3.703924072265625,-3.2887368202209473,1.986699104309082,2.187265157699585
1695713679837028000,3.723028076171875,-1.3649661540985107,2.5175962448120117,1.7671594619750977
1695713679856101600,3.7421015625,-1.0696673393249512,3.091109275817871,1.2587502002716064
1695713679875205600,3.76120556640625,-3.357832193374634,4.0223188400268555,2.4879932403564453
1695713679894279000,3.78027880859375,-5.577669143676758,4.036761283874512,4.200359344482422
1695713679913383000,3.7993828125,-6.651196479797363,3.8099803924560547,3.150629997253418
1695713679932456400,3.81845654296875,-5.6723737716674805,2.723940849304199,-0.7919924855232239
1695713679951560400,3.837560546875,-5.371852397918701,3.1195144653320312,-4.693115234375
1695713679970664400,3.85666455078125,-5.148301601409912,4.186020851135254,-5.407966136932373
1695713679989738000,3.875738037109375,-4.668558597564697,5.4959869384765625,-4.365490913391113
1695713680008842000,3.894842041015625,-3.8602428436279297,6.474883079528809,-2.195309638977051
1695713680027915500,3.91391552734375,-3.84855318069458,5.875741004943848,-0.38959264755249023
1695713680047019500,3.93301953125,-9.766502380371094,5.419315338134766,-0.09017229080200195
1695713680066123500,3.95212353515625,-11.2098388671875,4.52333402633667,0.041127800941467285
1695713680085227500,3.9712275390625,-7.637821197509766,1.4070649147033691,0.7363895177841187
1695713680104331500,3.99033154296875,-5.749981880187988,0.15356826782226562,1.134462833404541
1695713680123405000,4.009405029296875,-5.5738205909729,0.2736787796020508,0.4170582890510559
1695713680142509000,4.028509033203125,-5.943943023681641,0.3100094795227051,-0.49361318349838257
1695713680161582600,4.04758251953125,-6.607858657836914,0.3207693099975586,-1.166395902633667
1695713680180686600,4.0666865234375,-7.473417282104492,0.11725711822509766,-1.1522343158721924
1695713680199790600,4.08579052734375,-7.5327043533325195,-0.5701432228088379,-0.77486652135849
1695713680218863900,4.10486376953125,-6.96157169342041,-1.495236873626709,-0.36771219968795776
1695713680237968000,4.1239677734375,-6.175594329833984,-1.9869694709777832,-0.06129121780395508
1695713680257041400,4.14304150390625,-4.991307258605957,-2.2473297119140625,0.0020371675491333008
1695713680276145400,4.1621455078125,-3.7633986473083496,-2.1431193351745605,-0.10066425800323486
1695713680295219000,4.181218994140625,-2.3918118476867676,-1.4285144805908203,-0.022935092449188232
1695713680314323000,4.200322998046875,-1.1604986190795898,0.979860782623291,-0.04168742895126343
1695713680333427000,4.219427001953125,0.40353822708129883,6.235931873321533,1.0120139122009277
1695713680352531000,4.238531005859375,0.9617929458618164,13.77149772644043,3.12428617477417
1695713680371635000,4.257635009765625,4.810381889343262,15.457409858703613,1.558200716972351
1695713680390708500,4.27670849609375,-0.3745427131652832,4.171224117279053,-1.435733675956726
1695713680409812500,4.2958125,-3.7875547409057617,-7.203415870666504,-3.1656687259674072
1695713680428886000,4.314885986328125,-4.000514984130859,-8.603809356689453,-3.7934257984161377
1695713680447990000,4.333989990234375,-0.9145660400390625,-0.801729679107666,-0.8306631445884705
1695713680467094000,4.353093994140625,-0.6327476501464844,13.842517852783203,3.5542027950286865
1695713680486167600,4.37216748046875,-17.831584930419922,22.987802505493164,0.8979746103286743
1695713680505271600,4.391271484375,-2.0204238891601562,6.179812908172607,1.862565279006958
1695713680524344800,4.4103447265625,-14.108262062072754,-10.18984317779541,0.7745400667190552
1695713680543448800,4.42944873046875,-7.470974922180176,-8.143320083618164,-3.368776559829712
1695713680562522400,4.4485224609375,-4.1146697998046875,3.24869441986084,1.5796071290969849
1695713680581626400,4.46762646484375,-6.301897048950195,10.276131629943848,5.1581339836120605
1695713680600730400,4.48673046875,-7.948093891143799,8.881937026977539,2.452820301055908
1695713680619804000,4.505803955078125,-6.366578102111816,2.216095447540283,-1.5347232818603516
1695713680638938400,4.5249384765625,-5.038023471832275,-1.6608052253723145,-1.3447153568267822
1695713680658012000,4.544011962890625,-5.815227508544922,-2.239743232727051,0.3553805351257324
1695713680677116000,4.563115966796875,-6.2924089431762695,-0.38584041595458984,0.07115399837493896
1695713680696220000,4.582219970703125,-5.641709804534912,0.27953338623046875,-0.6411121487617493
1695713680715293400,4.60129345703125,-5.390382289886475,-1.0281448364257812,-0.22644078731536865
1695713680734397400,4.6203974609375,-5.625390529632568,-0.5530195236206055,-0.019127845764160156
1695713680753471000,4.639470947265625,-5.221085071563721,0.1717538833618164,0.19309377670288086
1695713680772575000,4.658574951171875,-4.600039005279541,-0.26003170013427734,0.159898042678833
1695713680791648500,4.6776484375,-3.7458817958831787,-0.660008430480957,0.3573434352874756
1695713680810752500,4.69675244140625,-2.5535495281219482,-0.24105262756347656,0.7717704772949219
1695713680829856500,4.7158564453125,-1.9787695407867432,0.6673240661621094,0.49833500385284424
1695713680848929800,4.7349296875,-2.1449365615844727,1.102828025817871,-0.3073691129684448
1695713680868033800,4.75403369140625,-2.1716148853302,1.1406688690185547,-0.475909948348999
1695713680887107300,4.773107421875,-1.9302265644073486,1.587545394897461,0.4776465892791748
1695713680906211300,4.79221142578125,-2.658710241317749,2.144902229309082,0.8168542385101318
1695713680925315300,4.8113154296875,-2.62165904045105,2.0144596099853516,1.002273678779602
1695713680944419300,4.83041943359375,-2.047558069229126,1.9447393417358398,0.9134094715118408
1695713680963523300,4.8495234375,-1.5659794807434082,1.9011306762695312,0.34821683168411255
1695713680982596900,4.868596923828125,-1.7505104541778564,2.384902000427246,1.0837228298187256
1695713681001700900,4.887700927734375,-3.1563642024993896,4.179644584655762,2.9528181552886963
1695713681020774400,4.9067744140625,-5.695847511291504,4.048636436462402,3.7967910766601562
1695713681039878400,4.92587841796875,-6.929195404052734,3.105379104614258,1.9759474992752075
1695713681058952000,4.944951904296875,-5.9159088134765625,2.0067977905273438,-0.9036350846290588
1695713681078056000,4.964055908203125,-5.496459484100342,2.326340675354004,-4.119114875793457
1695713681097160000,4.983159912109375,-5.342315196990967,3.312246322631836,-4.786676406860352
1695713681116233500,5.0022333984375,-4.927351951599121,4.638710975646973,-4.114600658416748
1695713681135337500,5.02133740234375,-2.8685593605041504,5.372916221618652,-1.86704421043396
1695713681154410800,5.04041064453125,-2.275956153869629,4.733465671539307,-0.3147318959236145
1695713681173514800,5.0595146484375,-8.048834800720215,4.6536478996276855,-0.6329320073127747
1695713681192588300,5.07858837890625,-12.095586776733398,4.619668483734131,-1.0974116325378418
1695713681211722800,5.09772265625,-8.918773651123047,1.9097785949707031,-0.17320014536380768
1695713681230826800,5.11682666015625,-5.341867923736572,0.44542980194091797,1.0594935417175293
1695713681249900300,5.135900390625,-4.550519943237305,0.19422101974487305,0.9637656211853027
1695713681269004300,5.15500439453125,-5.582087993621826,0.12231731414794922,-0.09830105304718018
1695713681288077800,5.174077880859375,-6.4124321937561035,0.1455249786376953,-0.9036376476287842
1695713681307181800,5.193181884765625,-6.683933734893799,-0.18398666381835938,-0.9609773755073547
1695713681326285800,5.212285888671875,-7.275193214416504,-1.0664715766906738,-0.6173083782196045
1695713681345359400,5.231359375,-6.98764181137085,-2.0313162803649902,-0.3665792942047119
1695713681364463400,5.25046337890625,-5.592187881469727,-2.507524013519287,-0.2785400152206421
1695713681383537000,5.269536865234375,-4.2472124099731445,-2.529661178588867,-0.2059779167175293
1695713681402641000,5.288640869140625,-3.238924980163574,-2.2857398986816406,0.10428273677825928
1695713681421714400,5.30771435546875,-2.2497901916503906,-0.9260811805725098,0.5305730104446411
1695713681440818400,5.326818359375,-0.9585280418395996,2.122135639190674,0.9463965892791748
1695713681459922400,5.34592236328125,0.6202893257141113,7.176528453826904,2.085071086883545
1695713681478995700,5.36499560546875,0.750819206237793,11.43770980834961,1.8478538990020752
1695713681498130400,5.38413037109375,5.018467903137207,10.291173934936523,-0.11589395999908447
1695713681517203700,5.40320361328125,-0.7147631645202637,1.274289608001709,-1.9722304344177246
1695713681536307700,5.4223076171875,-4.311627388000488,-5.953760147094727,-3.262512445449829
1695713681555412000,5.441411865234375,-3.1640329360961914,-2.9816970825195312,-2.6087818145751953
1695713681574485200,5.4604853515625,3.534925937652588,9.739288330078125,0.4306448698043823
1695713681593589200,5.47958935546875,-8.884706497192383,18.96336555480957,1.2088121175765991
1695713681612662800,5.498662841796875,-10.147575378417969,9.154085159301758,-0.9653016924858093
1695713681631766800,5.517766845703125,-5.65114688873291,-7.719260215759277,3.814359664916992
1695713681650840300,5.53684033203125,-12.44096565246582,-11.45638656616211,0.9637587070465088
1695713681669944300,5.5559443359375,-5.813696384429932,-1.420760154724121,1.1727482080459595
1695713681689017900,5.575017822265625,-4.5467000007629395,9.835290908813477,4.998120307922363
1695713681708121900,5.594121826171875,-7.268405437469482,12.245935440063477,3.7470946311950684
1695713681727225900,5.613225830078125,-8.185300827026367,5.46509313583374,-0.7847155332565308
1695713681746299400,5.63229931640625,-5.60133171081543,-1.0278129577636719,-2.9235386848449707
1695713681765403400,5.6514033203125,-4.283019542694092,-2.4223222732543945,-2.0596461296081543
1695713681784507400,5.67050732421875,-4.599484920501709,-0.2722635269165039,-0.4872840940952301
1695713681803611400,5.689611328125,-6.206253528594971,1.5578832626342773,-0.22433745861053467
1695713681822715400,5.70871533203125,-5.915872097015381,0.21347427368164062,0.392734169960022
1695713681841788700,5.72778857421875,-5.326070785522461,-1.3087406158447266,0.7980153560638428
1695713681860892700,5.746892578125,-5.617988586425781,-0.8936347961425781,0.6828543543815613
1695713681879966200,5.76596630859375,-4.905071258544922,-0.2127370834350586,0.5298088788986206
1695713681899070200,5.7850703125,-4.142033100128174,-0.6210622787475586,0.5734587907791138
1695713681918143700,5.804143798828125,-3.612189292907715,-1.060831069946289,0.655436635017395
1695713681937247700,5.823247802734375,-2.823157548904419,-0.8747434616088867,0.6941747665405273
1695713681956351700,5.842351806640625,-1.930420160293579,-0.2669706344604492,0.583738386631012
1695713681975425300,5.86142529296875,-1.4747076034545898,0.4099607467651367,0.3753918409347534
1695713681994529300,5.880529296875,-1.9203863143920898,0.7694015502929688,0.36203908920288086
1695713682013602800,5.899602783203125,-3.086061716079712,1.1688575744628906,0.6683754920959473
1695713682032706800,5.918706787109375,-2.9471595287323,1.324662208557129,1.0477888584136963
1695713682051780400,5.9377802734375,-2.2030789852142334,1.4262418746948242,1.8763668537139893
1695713682070914800,5.956914794921875,-1.7594549655914307,2.262160301208496,1.9807939529418945
1695713682090018800,5.976018798828125,-0.8450946807861328,2.7329797744750977,1.1151373386383057
1695713682109092400,5.99509228515625,-1.074465036392212,2.9960174560546875,0.9077906608581543
1695713682128196400,6.0141962890625,-2.7925145626068115,3.630520820617676,1.8585267066955566
1695713682147269600,6.03326953125,-5.079972743988037,3.6311302185058594,3.023744821548462
1695713682166373600,6.05237353515625,-6.4152092933654785,2.8277950286865234,2.060262441635132
1695713682185447200,6.071447265625,-5.64286994934082,1.897221565246582,-0.6814743280410767
1695713682204551200,6.09055126953125,-5.101663589477539,1.7748594284057617,-4.291559219360352
1695713682223655200,6.1096552734375,-4.578969955444336,3.1457481384277344,-5.216043472290039
1695713682242728700,6.128728759765625,-3.733152389526367,4.739947319030762,-4.384802341461182
1695713682261832700,6.147832763671875,-2.1559062004089355,5.927107810974121,-2.1015613079071045
1695713682280906200,6.16690625,-3.0014004707336426,4.848252773284912,0.20762401819229126
1695713682300010200,6.18601025390625,-9.194204330444336,4.949315547943115,0.3843889832496643
1695713682319083800,6.205083740234375,-11.502277374267578,4.089589595794678,0.17901718616485596
1695713682338187800,6.224187744140625,-7.820518493652344,1.3347034454345703,0.7764067649841309
1695713682357322200,6.243322265625,-4.813564300537109,-0.08769416809082031,1.3043423891067505
1695713682376395800,6.262395751953125,-4.4328227043151855,-0.14357948303222656,0.7742366790771484
1695713682395499800,6.281499755859375,-5.103987693786621,-0.07499265670776367,-0.4205416440963745
1695713682414573300,6.3005732421875,-5.807084560394287,-0.17239141464233398,-1.4615225791931152
1695713682433677300,6.31967724609375,-6.661713600158691,-0.6540055274963379,-1.2657063007354736
1695713682452781300,6.33878125,-7.331681251525879,-1.5280981063842773,-0.3196229934692383
1695713682471854600,6.3578544921875,-6.6763916015625,-2.5445165634155273,0.1604447364807129
1695713682490958600,6.37695849609375,-5.565598011016846,-3.1778526306152344,0.31179308891296387
1695713682510032100,6.3960322265625,-4.503303527832031,-3.0234713554382324,0.07126092910766602
1695713682529136000,6.41513623046875,-3.0950965881347656,-2.5264968872070312,0.010637044906616211
1695713682548209700,6.434209716796875,-1.2748966217041016,-1.028620719909668,0.1481410264968872
1695713682567313700,6.453313720703125,0.014491558074951172,2.3159408569335938,0.2943248748779297
1695713682586417700,6.472417724609375,1.2303719520568848,9.003952026367188,1.8551762104034424
1695713682605491200,6.4914912109375,1.6561641693115234,15.0457763671875,1.5027707815170288
1695713682624595200,6.51059521484375,4.949341773986816,11.373982429504395,-0.8868459463119507
1695713682643699200,6.52969921875,-1.9125261306762695,-0.9029030799865723,-2.899421215057373
1695713682662833700,6.548833740234375,-3.885995388031006,-9.380132675170898,-2.8369922637939453
1695713682681876700,6.567876708984375,-4.088429927825928,-7.243899345397949,-1.8159468173980713
1695713682700980700,6.586980712890625,1.6148381233215332,4.247979640960693,1.2407972812652588
1695713682720084700,6.606084716796875,-2.3255090713500977,17.882816314697266,3.7642149925231934
1695713682739158300,6.625158203125,-11.918047904968262,15.423113822937012,-1.3038356304168701
1695713682758262300,6.64426220703125,-7.319550037384033,-4.009898662567139,3.473423957824707
1695713682777335600,6.66333544921875,-13.645771026611328,-10.740456581115723,0.014593780040740967
1695713682796448500,6.682448486328125,-4.435860633850098,-2.49751615524292,-0.8264805674552917
1695713682815521800,6.701521728515625,-2.9672770500183105,6.9380879402160645,3.669968366622925
1695713682834625800,6.720625732421875,-5.958090782165527,9.175088882446289,3.5726914405822754
1695713682853729800,6.739729736328125,-8.129021644592285,4.815386772155762,-0.2987093925476074
1695713682872803300,6.75880322265625,-5.648787498474121,0.6109609603881836,-2.268514633178711
1695713682891907300,6.7779072265625,-4.413609981536865,-1.032278060913086,-0.025245249271392822
1695713682910980900,6.79698095703125,-4.53158712387085,-0.8087129592895508,1.75065279006958
1695713682930115300,6.816115234375,-5.352674961090088,0.1966543197631836,0.45730337500572205
1695713682949188900,6.83518896484375,-5.000334739685059,-0.7867460250854492,-0.40469998121261597
1695713682968292900,6.85429296875,-5.130871295928955,-1.5896539688110352,-0.034629836678504944
1695713682987396900,6.87339697265625,-4.551513195037842,-0.6222066879272461,0.4265912175178528
1695713683006470400,6.892470458984375,-4.046760559082031,0.05624198913574219,0.7303991317749023
1695713683025574400,6.911574462890625,-3.4423739910125732,-0.5706882476806641,0.7523527145385742
1695713683044648000,6.93064794921875,-2.706789493560791,-1.2419872283935547,0.8307175040245056
1695713683063752000,6.949751953125,-1.9875690937042236,-0.6908025741577148,1.1264551877975464
1695713683082856000,6.96885595703125,-1.4854190349578857,0.11166763305664062,1.1615023612976074
1695713683101929500,6.987929443359375,-1.639739751815796,0.3000679016113281,0.9842329621315002
1695713683121033500,7.007033447265625,-2.2230217456817627,0.7825078964233398,0.9372429251670837
1695713683140106800,7.026106689453125,-2.4265453815460205,1.5764389038085938,0.8097274303436279
1695713683159210800,7.045210693359375,-2.521757125854492,1.7618837356567383,1.3031642436981201
1695713683178284300,7.0642841796875,-1.8275940418243408,1.9355440139770508,2.04738187789917
1695713683197388300,7.08338818359375,-0.6798452138900757,2.521317481994629,1.5526573657989502
1695713683216523000,7.10252294921875,-0.016493797302246094,2.680220603942871,1.0051532983779907
1695713683235596300,7.12159619140625,-1.1906993389129639,3.0509586334228516,1.8194074630737305
1695713683254700300,7.1407001953125,-3.181095600128174,3.706660270690918,3.3256428241729736
1695713683273773800,7.15977392578125,-5.370749473571777,3.651081085205078,3.735504388809204
1695713683292877800,7.1788779296875,-5.633387565612793,2.420273780822754,1.7710628509521484
1695713683311951400,7.197951416015625,-4.931021690368652,1.4711580276489258,-1.5265922546386719
1695713683331055400,7.217055419921875,-4.990242958068848,1.453993797302246,-4.547482490539551
1695713683350159400,7.236159423828125,-4.24931001663208,2.842245101928711,-4.855838298797607
1695713683369233000,7.25523291015625,-3.250938892364502,4.103015899658203,-3.4441044330596924
1695713683388337000,7.2743369140625,-1.0875473022460938,4.9283342361450195,-1.0868113040924072
1695713683407410400,7.293410400390625,-2.4946389198303223,4.134737968444824,0.1233220100402832
1695713683426514400,7.312514404296875,-8.856940269470215,4.563658237457275,0.03690880537033081
1695713683445587700,7.331587646484375,-11.07995319366455,4.082663059234619,-0.2230592966079712
1695713683464691700,7.350691650390625,-7.370739459991455,1.235417366027832,1.2847532033920288
1695713683483795700,7.369795654296875,-4.904453754425049,-0.2912116050720215,1.9994996786117554
1695713683502899700,7.388899658203125,-4.312461853027344,-0.48972272872924805,1.097727656364441
1695713683522003700,7.408003662109375,-4.925495147705078,-0.29419898986816406,-0.3567737340927124
1695713683541077200,7.4270771484375,-5.811007499694824,-0.4229912757873535,-1.146716594696045
1695713683560181200,7.44618115234375,-6.970850467681885,-1.230522632598877,-0.6131564378738403
1695713683579285200,7.46528515625,-7.17249870300293,-2.294041633605957,0.08805930614471436
1695713683598389200,7.48438916015625,-6.012199878692627,-3.2550811767578125,0.4128934144973755
1695713683617462800,7.503462890625,-4.922269344329834,-3.552175998687744,0.6465861797332764
1695713683636536300,7.522536376953125,-4.035592079162598,-3.094101905822754,0.5553162097930908
1695713683655640300,7.541640380859375,-2.987971782684326,-2.369168281555176,0.46367645263671875
1695713683674713900,7.5607138671875,-1.403245449066162,-0.5973525047302246,0.4283655881881714
1695713683693817900,7.57981787109375,0.6349029541015625,3.038538932800293,0.7043677568435669
1695713683712921900,7.598921875,3.069302558898926,9.079371452331543,2.647883653640747
1695713683731995400,7.617995361328125,3.746885299682617,13.181841850280762,0.9259171485900879
1695713683751099400,7.637099365234375,4.943251609802246,9.05586051940918,-2.7922816276550293
1695713683770172700,7.656172607421875,-1.8753609657287598,-2.4372329711914062,-3.7448220252990723
1695713683789307400,7.675307373046875,-4.5786824226379395,-7.518845558166504,-3.6476919651031494
1695713683808380700,7.694380615234375,-4.3121466636657715,-1.6916513442993164,-2.635023593902588
1695713683827484700,7.713484619140625,0.5791792869567871,10.174221992492676,-0.7908210754394531
1695713683846588700,7.732588623046875,-5.40083122253418,14.685453414916992,1.7515654563903809
1695713683865662200,7.751662109375,-1.689420223236084,3.979241371154785,3.234466314315796
1695713683884766200,7.77076611328125,-11.54241943359375,-7.885286808013916,4.60115385055542
1695713683903839700,7.78983984375,-10.928075790405273,-7.760031700134277,1.397472620010376
1695713683922943700,7.80894384765625,-4.729238033294678,3.1401381492614746,3.0599122047424316
1695713683942017300,7.828017333984375,-5.969448089599609,8.102282524108887,4.3728814125061035
1695713683961121300,7.847121337890625,-7.336544036865234,7.654767036437988,1.9743874073028564
1695713683980225300,7.866225341796875,-4.507930755615234,2.5009279251098633,-1.4236884117126465
1695713683999298800,7.885298828125,-2.3985772132873535,-0.5178852081298828,-2.0745654106140137
1695713684018402800,7.90440283203125,-2.8377132415771484,-0.9122600555419922,0.102394700050354
1695713684037476400,7.923476318359375,-5.473357677459717,-0.1522960662841797,1.7843351364135742
1695713684056580400,7.942580322265625,-6.465658664703369,0.14067745208740234,1.7746765613555908
1695713684075684400,7.961684326171875,-4.732975959777832,-1.099466323852539,1.3688088655471802
1695713684094788400,7.980788330078125,-3.867396354675293,-1.7487154006958008,0.9395393133163452
1695713684113892400,7.999892333984375,-4.210195541381836,-0.9382734298706055,0.6540429592132568
1695713684132965600,8.018965576171874,-3.767547369003296,-0.47449779510498047,0.6409857869148254
1695713684152069600,8.038069580078124,-2.762826681137085,-0.7028608322143555,0.6009806990623474
1695713684171143200,8.05714306640625,-2.14310622215271,-1.0214958190917969,0.5342283844947815
1695713684190247200,8.0762470703125,-1.3696296215057373,-0.6318025588989258,0.8368359804153442
1695713684209320700,8.09532080078125,-0.31583666801452637,0.08917808532714844,1.338613510131836
1695713684228424700,8.1144248046875,-0.30014050006866455,0.5538597106933594,1.2619411945343018
1695713684247528700,8.13352880859375,-1.3504341840744019,1.0998172760009766,0.8457973003387451
1695713684266602200,8.152602294921875,-2.399549961090088,1.733560562133789,1.024584412574768
1695713684285706200,8.171706298828125,-2.2628583908081055,1.9637784957885742,2.5272574424743652
1695713684304779800,8.19077978515625,-0.16054797172546387,2.342761993408203,2.7530431747436523
1695713684323883800,8.2098837890625,0.2489689588546753,3.0844221115112305,1.823353886604309
1695713684342987800,8.22898779296875,-1.0400818586349487,3.584980010986328,2.1203372478485107
1695713684362091800,8.248091796875,-1.886123538017273,3.9685916900634766,3.2371106147766113
1695713684381195800,8.26719580078125,-4.175126552581787,4.182114601135254,3.9480600357055664
1695713684400269300,8.286269287109375,-5.777975559234619,2.9637680053710938,2.682722568511963
1695713684419373300,8.305373291015625,-4.950150489807129,1.5811519622802734,-1.2322958707809448
1695713684438446600,8.324446533203124,-4.725437164306641,0.8883771896362305,-4.824841022491455
1695713684457550600,8.343550537109374,-4.261083126068115,2.1276426315307617,-5.048274517059326
1695713684476654600,8.362654541015624,-3.2985999584198,3.4030160903930664,-3.420973777770996
1695713684495728000,8.38172802734375,-1.6386499404907227,4.677220344543457,-1.611680269241333
1695713684514832100,8.40083203125,-1.11506986618042,4.0481414794921875,-0.3033049702644348
1695713684533936000,8.41993603515625,-7.228114604949951,3.663693428039551,-0.04371374845504761
1695713684553009700,8.439009765625,-11.169109344482422,4.09604549407959,-0.39655470848083496
1695713684572083200,8.458083251953125,-7.772412300109863,1.4459929466247559,0.8316575288772583
1695713684591187200,8.477187255859375,-4.811328411102295,-0.5699949264526367,2.2303194999694824
1695713684610291200,8.496291259765625,-4.303220272064209,-1.008436679840088,1.656654715538025
1695713684629364700,8.51536474609375,-4.686723232269287,-0.9503931999206543,0.20710241794586182
1695713684648499200,8.534499267578125,-5.604033946990967,-1.1297593116760254,-0.8147927522659302
1695713684667572700,8.55357275390625,-6.598822593688965,-1.6871213912963867,-0.7257241010665894
1695713684686676700,8.5726767578125,-6.578747272491455,-2.5174474716186523,-0.14171457290649414
1695713684705750300,8.591750244140625,-5.91849946975708,-3.3473920822143555,0.4513523578643799
1695713684724854300,8.610854248046875,-4.704686164855957,-3.6949424743652344,0.868354082107544
1695713684743958300,8.629958251953125,-3.5335497856140137,-3.358637809753418,0.7863028049468994
1695713684763031600,8.649031494140624,-2.379362106323242,-2.827369213104248,0.597712516784668
1695713684782135600,8.668135498046874,-0.9200549125671387,-1.3871712684631348,0.1999506950378418
1695713684801209000,8.687208984375,0.3709144592285156,1.8877019882202148,-0.5548382997512817
1695713684820313000,8.70631298828125,1.879025936126709,8.408273696899414,0.7372226715087891
1695713684839386600,8.72538671875,3.2868666648864746,15.410642623901367,0.3426095247268677
1695713684858490600,8.74449072265625,6.681925296783447,11.560503005981445,-2.0300605297088623
1695713684877594600,8.7635947265625,-1.03621244430542,-3.3112239837646484,-2.441089391708374
1695713684896668200,8.782668212890625,-3.544583320617676,-10.558259010314941,-2.7380013465881348
1695713684915772200,8.801772216796875,-3.7582831382751465,-6.173944473266602,-1.3832874298095703
1695713684934876200,8.820876220703125,1.508101463317871,7.824238300323486,-0.5631296634674072
1695713684953980200,8.839980224609375,-7.889474391937256,18.451675415039062,-0.08197569847106934
1695713684973084200,8.859084228515625,-4.834751605987549,9.602558135986328,-0.052600860595703125
1695713684992157700,8.87815771484375,-6.921790599822998,-7.365121364593506,4.66244649887085
1695713685011261700,8.89726171875,-10.25344467163086,-10.457171440124512,1.6316193342208862
1695713685030335200,8.916335205078125,-5.1331281661987305,0.22069740295410156,2.218855857849121
1695713685049439200,8.935439208984375,-6.116292476654053,8.281082153320312,3.682135581970215
1695713685068512500,8.954512451171874,-7.1210527420043945,8.335101127624512,2.438093662261963
1695713685087616500,8.973616455078124,-5.842848300933838,2.96389102935791,-1.036272406578064
1695713685106720500,8.992720458984374,-3.49350643157959,-0.8943243026733398,-2.2369072437286377
1695713685125794000,9.0117939453125,-2.436223030090332,-1.506260871887207,0.1525551676750183
1695713685144898000,9.03089794921875,-3.987227201461792,-0.5436458587646484,1.0684884786605835
1695713685163971600,9.0499716796875,-5.418521881103516,0.14254474639892578,0.5296787619590759
1695713685183075600,9.06907568359375,-4.630690574645996,-1.0237541198730469,0.46522659063339233
1695713685202149000,9.088149169921875,-4.018490791320801,-1.9094820022583008,0.6241760849952698
1695713685221283600,9.10728369140625,-3.883753538131714,-1.130758285522461,0.40378427505493164
1695713685240387600,9.1263876953125,-3.360809803009033,-0.5829124450683594,0.515055775642395
1695713685259461000,9.145461181640625,-2.1993744373321533,-0.9389486312866211,0.6036301851272583
1695713685278565000,9.164565185546875,-1.2714638710021973,-1.0642976760864258,1.089400053024292
1695713685297638700,9.183638671875,-0.7541320323944092,-0.4051046371459961,1.6534528732299805
1695713685316742700,9.20274267578125,-0.4161747694015503,0.06594657897949219,1.9456311464309692
1695713685335816200,9.221816162109375,-0.7205796241760254,0.016878128051757812,1.643977403640747
1695713685354920200,9.240920166015625,-1.0414198637008667,0.8832321166992188,1.0766215324401855
1695713685374024200,9.260024169921875,-1.6707453727722168,1.7155885696411133,0.8919935822486877
1695713685393097500,9.279097412109374,-2.1873903274536133,1.6070079803466797,2.103206157684326
1695713685412201500,9.298201416015624,-0.4300786256790161,1.970871925354004,2.451040267944336
1695713685431275000,9.31727490234375,1.0792782306671143,2.350823402404785,1.4960209131240845
1695713685450379000,9.33637890625,0.3743093013763428,2.0136423110961914,0.8663176894187927
1695713685469483000,9.35548291015625,-1.6130048036575317,2.757004737854004,1.5660531520843506
1695713685488556500,9.374556640625,-2.959998607635498,3.526961326599121,2.6719155311584473
1695713685507691000,9.39369091796875,-4.864721775054932,2.8691282272338867,2.857893943786621
1695713685526764500,9.4127646484375,-5.860100746154785,1.699885368347168,1.4404637813568115
1695713685545868500,9.43186865234375,-5.046481132507324,1.5374174118041992,-3.0087995529174805
1695713685564942000,9.450942138671875,-3.826338529586792,2.762640953063965,-5.091157913208008
1695713685584046000,9.470046142578125,-1.8309226036071777,4.369357109069824,-4.5672101974487305
1695713685603150000,9.489150146484375,0.21912050247192383,4.941349983215332,-2.197566509246826
1695713685622223600,9.5082236328125,0.31865835189819336,4.235919952392578,0.37977278232574463
1695713685641358000,9.527358154296875,-5.8654465675354,3.7473316192626953,0.36465394496917725
1695713685660401200,9.546401123046875,-12.845975875854492,4.27557373046875,-0.4992424249649048
1695713685679505200,9.565505126953125,-10.41203784942627,2.036771774291992,-0.5141443014144897
1695713685698578400,9.584578369140624,-4.328916072845459,-0.4550933837890625,0.8668414354324341
1695713685717682400,9.603682373046874,-3.0306220054626465,-1.1571779251098633,1.3434422016143799
1695713685736786400,9.622786376953124,-4.378743648529053,-1.2929434776306152,0.7615631818771362
1695713685755860000,9.64185986328125,-5.256437301635742,-1.8401203155517578,0.03241169452667236
1695713685774964000,9.6609638671875,-5.429045677185059,-2.1536059379577637,-0.30665504932403564
1695713685794068000,9.68006787109375,-5.986997604370117,-2.3616490364074707,-0.05398130416870117
1695713685813172000,9.699171875,-6.220311164855957,-3.006894588470459,0.30991482734680176
1695713685832245500,9.71824560546875,-4.9705915451049805,-3.6001033782958984,0.36510133743286133
1695713685851349500,9.737349609375,-3.536532402038574,-3.607386589050293,0.1500227451324463
1695713685870453500,9.75645361328125,-2.406020164489746,-3.180840492248535,0.13051247596740723
1695713685889527000,9.775527099609375,-1.0272793769836426,-2.0350775718688965,0.47455883026123047
1695713685908631000,9.794631103515625,0.5461158752441406,0.5569686889648438,0.6404352188110352
1695713685927704600,9.81370458984375,3.1038174629211426,5.7722673416137695,1.5625574588775635
1695713685946808600,9.83280859375,3.0438995361328125,11.460926055908203,0.6067317724227905
1695713685965882000,9.851882080078125,6.668684959411621,11.065003395080566,-3.0932295322418213
1695713685984986000,9.870986083984375,1.002523422241211,1.4049506187438965,-4.735387802124023
1695713686004090000,9.890090087890625,-3.7673211097717285,-5.787541389465332,-4.358806133270264
1695713686023163400,9.909163330078124,-4.02309513092041,-2.3489694595336914,-2.9473373889923096
1695713686042267400,9.928267333984374,-0.06975698471069336,8.01028823852539,-1.7898142337799072
1695713686061341000,9.9473408203125,-4.3004302978515625,12.2520170211792,2.363725185394287
1695713686080475400,9.966475341796874,-3.4244613647460938,3.246291160583496,2.437023162841797
1695713686099549000,9.985548828125,-4.859313011169434,-6.45375394821167,5.409078121185303
1695713686118653000,10.00465283203125,-11.454813957214355,-8.39181137084961,3.1671504974365234
1695713686137757000,10.0237568359375,-7.21172571182251,2.5631799697875977,2.2634055614471436
1695713686156830500,10.04283056640625,-6.01909065246582,8.2030029296875,2.764991283416748
1695713686175934500,10.0619345703125,-6.100412368774414,7.02297306060791,1.4166659116744995
1695713686195008000,10.081008056640625,-3.5346832275390625,0.7089910507202148,-1.0412870645523071
1695713686214112000,10.100112060546875,-3.175631046295166,-2.0554895401000977,-2.879244565963745
1695713686233216000,10.119216064453125,-2.296276092529297,-1.5324697494506836,-1.047376275062561
1695713686252289500,10.13828955078125,-3.924701452255249,0.1036376953125,1.124471664428711
1695713686271393500,10.1573935546875,-5.410988807678223,0.6992158889770508,1.978676676750183
1695713686290467000,10.176467041015625,-4.005429267883301,-0.7736577987670898,2.1268396377563477
1695713686309571000,10.195571044921875,-3.3822014331817627,-1.6872568130493164,1.4741406440734863
1695713686328644400,10.214644287109374,-3.6119656562805176,-1.051865577697754,0.6789419054985046
1695713686347748400,10.233748291015624,-2.867328643798828,-0.24179458618164062,0.2769377827644348
1695713686366883000,10.252883056640625,-1.5869028568267822,-0.7457084655761719,0.28154104948043823
1695713686385956400,10.271956298828124,-1.3417922258377075,-1.282827377319336,0.462962806224823
1695713686405060400,10.291060302734374,-1.3407694101333618,-1.140519142150879,0.7446954846382141
1695713686424134000,10.3101337890625,-0.0774073600769043,-0.5163984298706055,1.2552686929702759
1695713686443238000,10.32923779296875,1.2308658361434937,0.5754623413085938,1.5380632877349854
1695713686462311400,10.3483115234375,0.4400174021720886,0.9317035675048828,1.2356410026550293
1695713686481415400,10.36741552734375,-1.0349960327148438,1.2870569229125977,0.6406676173210144
1695713686500519400,10.38651953125,-1.0231735706329346,1.4332332611083984,0.9803476929664612
1695713686519593000,10.405593017578125,0.028542697429656982,1.5496225357055664,1.9767435789108276
1695713686538697000,10.424697021484375,0.8005797266960144,2.216982841491699,1.8723400831222534
1695713686557770500,10.4437705078125,0.5371004343032837,2.5818357467651367,1.6275842189788818
1695713686576905000,10.462905029296875,-0.6370341777801514,4.043415069580078,2.955404281616211
1695713686595948000,10.481947998046875,-2.0826025009155273,4.767852783203125,3.958101749420166
1695713686615052000,10.501052001953125,-4.410348892211914,3.531264305114746,3.650434970855713
1695713686634156000,10.520156005859375,-5.260228633880615,1.342315673828125,1.4524277448654175
1695713686653260000,10.539260009765625,-4.741323471069336,1.122171401977539,-2.9559617042541504
1695713686672364000,10.558364013671875,-3.824632167816162,2.797565460205078,-4.819160461425781
1695713686691437300,10.577437255859374,-3.4111826419830322,3.8785171508789062,-4.5766119956970215
1695713686710541300,10.596541259765624,-1.3307106494903564,4.326664924621582,-2.401627779006958
1695713686729614800,10.61561474609375,0.37650156021118164,3.465153694152832,0.26410549879074097
1695713686748718800,10.63471875,-4.90677547454834,3.455120086669922,0.562316358089447
1695713686767822800,10.65382275390625,-9.555283546447754,3.991792678833008,-0.8492119312286377
1695713686786896400,10.672896484375,-8.636598587036133,1.7649345397949219,-0.01971256732940674
1695713686806000400,10.69200048828125,-5.723509788513184,-0.8561115264892578,1.7230690717697144
1695713686825074000,10.711073974609375,-4.493531703948975,-1.704904556274414,1.5230803489685059
1695713686844178000,10.730177978515625,-5.472884654998779,-2.134799003601074,0.42862844467163086
1695713686863282000,10.749281982421875,-5.578338146209717,-2.747438907623291,-0.6103271245956421
1695713686882355500,10.76835546875,-5.773307800292969,-2.5868444442749023,-1.0427420139312744
1695713686901459500,10.78745947265625,-6.144277572631836,-2.7984228134155273,-0.4676356315612793
1695713686920533000,10.806532958984375,-5.448362350463867,-3.207949161529541,0.2731510400772095
1695713686939667500,10.82566748046875,-4.217047691345215,-3.4320144653320312,0.7879495620727539
1695713686958741000,10.844740966796875,-3.1641640663146973,-3.3222479820251465,0.8643574714660645
1695713686977845000,10.863844970703125,-1.361363410949707,-3.0368385314941406,0.8384239673614502
1695713686996949000,10.882948974609375,0.6539602279663086,-1.6450481414794922,0.7747036218643188
1695713687016022300,10.902022216796874,2.150318145751953,2.163092613220215,0.5272088050842285
1695713687035126300,10.921126220703124,2.8610310554504395,9.259566307067871,1.0284076929092407
1695713687054199800,10.94019970703125,2.6425437927246094,15.329841613769531,-0.7654014825820923
1695713687073303800,10.9593037109375,5.705268859863281,10.114703178405762,-4.2764973640441895
1695713687092377300,10.97837744140625,0.41866445541381836,-3.186002254486084,-4.243527889251709
1695713687111481300,10.9974814453125,-3.425088882446289,-8.969018936157227,-3.3479461669921875
1695713687130585300,11.01658544921875,-3.775984764099121,-3.8788647651672363,-1.4120548963546753
1695713687149659000,11.035658935546875,-0.8333044052124023,7.076634883880615,0.28369200229644775
1695713687168763000,11.054762939453125,-9.508890151977539,11.05710220336914,1.9158759117126465
1695713687187836400,11.07383642578125,-3.216358184814453,4.006163597106934,2.553061008453369
1695713687206940400,11.0929404296875,-7.62605619430542,-5.875688552856445,4.017580032348633
1695713687226044400,11.11204443359375,-7.621145725250244,-4.921606063842773,0.7130424976348877
1695713687245148400,11.1311484375,-3.9218692779541016,4.11893367767334,0.6071838140487671
1695713687264252400,11.15025244140625,-4.067968845367432,6.110309600830078,1.7057149410247803
1695713687283326000,11.169325927734375,-4.634886264801025,2.7686996459960938,0.2765686511993408
1695713687302430000,11.188429931640625,-3.921212673187256,-0.3684825897216797,-2.1545581817626953
1695713687321503200,11.207503173828124,-3.040097236633301,-0.5375385284423828,-0.7110251188278198
1695713687340607200,11.226607177734374,-2.1697378158569336,0.7854099273681641,1.432703971862793
1695713687359680800,11.2456806640625,-3.2596795558929443,1.053788185119629,2.0983707904815674
1695713687378784800,11.26478466796875,-3.84537935256958,-0.2172393798828125,1.7700049877166748
1695713687397888800,11.283888671875,-3.635925054550171,-1.6761407852172852,1.5187718868255615
1695713687416962300,11.30296240234375,-3.5194742679595947,-2.2312774658203125,1.4489681720733643
1695713687436066300,11.32206640625,-3.3492555618286133,-1.8012371063232422,1.401139736175537
1695713687455139800,11.341139892578125,-2.4049057960510254,-1.4987001419067383,0.9595614075660706
1695713687474243800,11.360243896484375,-2.0399532318115234,-1.9774646759033203,0.4746246337890625
1695713687493317400,11.3793173828125,-1.8710651397705078,-1.6767797470092773,0.14267832040786743
1695713687512451800,11.398451904296875,-0.17592722177505493,-0.36155033111572266,0.32076990604400635
1695713687531555800,11.417555908203125,1.2361595630645752,0.8477163314819336,0.6628320217132568
1695713687550629400,11.43662939453125,2.1220951080322266,1.9522705078125,0.9873490929603577
1695713687569733400,11.4557333984375,0.11392146348953247,2.5951108932495117,0.9091684818267822
1695713687588807000,11.474806884765625,-1.2098864316940308,2.1227731704711914,1.7450568675994873
1695713687607911000,11.493910888671875,-0.2785034775733948,1.7830610275268555,2.5353591442108154
1695713687626984200,11.512984130859374,0.5187991857528687,1.9399299621582031,2.1923046112060547
1695713687646088200,11.532088134765624,0.26402488350868225,1.6394939422607422,1.6600494384765625
1695713687665192200,11.551192138671874,-0.544110119342804,2.6098623275756836,2.6506056785583496
1695713687684265700,11.570265625,-1.529618263244629,5.181894302368164,4.4629807472229
1695713687703369700,11.58936962890625,-3.362349271774292,4.853475570678711,4.315515995025635
1695713687722443300,11.608443359375,-4.441564083099365,2.495011329650879,1.2258861064910889
1695713687741547300,11.62754736328125,-4.064736366271973,0.6310997009277344,-3.27775239944458
1695713687760651300,11.6466513671875,-3.5825233459472656,0.06839561462402344,-5.433727264404297
1695713687779724800,11.665724853515625,-2.9412691593170166,1.7191658020019531,-4.359476089477539
1695713687798859300,11.684859375,-2.176872491836548,3.5418272018432617,-2.1420702934265137
1695713687817932800,11.703932861328125,-0.05512571334838867,3.5752477645874023,-0.3534930944442749
1695713687837036800,11.723036865234375,-3.2940478324890137,2.356320381164551,0.00040781497955322266
1695713687856110300,11.7421103515625,-9.138788223266602,3.0938663482666016,-0.37740612030029297
1695713687875214300,11.76121435546875,-9.596014022827148,2.1892518997192383,-0.6804159879684448
1695713687894318300,11.780318359375,-5.138464450836182,-0.46045398712158203,1.0419893264770508
1695713687913391900,11.799391845703125,-3.1637444496154785,-1.1184616088867188,1.5402190685272217
1695713687932496000,11.818495849609375,-3.610156536102295,-0.9117231369018555,0.766515851020813
1695713687951569200,11.837569091796874,-3.940614700317383,-1.0522685050964355,-0.3645056486129761
1695713687970673200,11.856673095703124,-4.310676097869873,-1.6065497398376465,-1.1055974960327148
1695713687989746700,11.87574658203125,-5.4528584480285645,-2.7001218795776367,-0.8362513780593872
1695713688008850700,11.8948505859375,-5.48539924621582,-3.980360507965088,-0.29201269149780273
1695713688027954700,11.91395458984375,-4.560787200927734,-4.862751007080078,0.00026297569274902344
1695713688047028200,11.9330283203125,-3.164809226989746,-5.043903350830078,0.3088419437408447
1695713688066132200,11.95213232421875,-1.7787480354309082,-4.026242256164551,0.6554795503616333
1695713688085236200,11.971236328125,-0.40786027908325195,-2.0644264221191406,0.652188777923584
1695713688104340200,11.99034033203125,0.6219687461853027,2.100522041320801,0.253462553024292
1695713688123413800,12.009413818359375,3.463754653930664,8.708828926086426,1.2407255172729492
1695713688142517800,12.028517822265625,3.2351551055908203,14.195590019226074,-0.5434056520462036
1695713688161621800,12.047621826171875,6.822131633758545,8.577319145202637,-2.6411867141723633
1695713688180695300,12.0666953125,-0.6194319725036621,-3.9626893997192383,-3.20139217376709
1695713688199799300,12.08579931640625,-4.406801700592041,-8.329492568969727,-2.683504819869995
1695713688218872800,12.104872802734375,-1.9458413124084473,0.11454296112060547,-0.36952435970306396
1695713688237976800,12.123976806640625,0.013072967529296875,9.215310096740723,0.9943677186965942
1695713688257080800,12.143080810546875,-8.598794937133789,6.315997123718262,0.2983095645904541
1695713688276154000,12.162154052734374,-5.634192943572998,-2.060596466064453,2.180703639984131
1695713688295258000,12.181258056640624,-8.6524076461792,-5.546950340270996,1.3172355890274048
1695713688314331600,12.20033154296875,-4.142810821533203,0.8714771270751953,2.3661017417907715
1695713688333435600,12.219435546875,-5.323470115661621,4.322406768798828,3.099142551422119
1695713688352509200,12.23850927734375,-5.5843658447265625,3.716555595397949,1.5445901155471802
1695713688371643600,12.2576435546875,-4.540235996246338,1.237685203552246,-1.3012773990631104
1695713688390747600,12.27674755859375,-3.211212158203125,-0.8217401504516602,-1.6137030124664307
1695713688409821200,12.2958212890625,-2.9798452854156494,-0.584503173828125,0.8317717909812927
1695713688428925200,12.31492529296875,-3.115849256515503,0.3657951354980469,2.0674405097961426
1695713688447998700,12.333998779296875,-3.650820255279541,0.08774089813232422,1.6147103309631348
1695713688467102700,12.353102783203125,-3.692782402038574,-1.586745262145996,0.8425402641296387
1695713688486176300,12.37217626953125,-2.938900947570801,-2.5699214935302734,0.6591314077377319
1695713688505280300,12.3912802734375,-2.523698329925537,-1.5496511459350586,0.6844416260719299
1695713688524384300,12.41038427734375,-1.8535199165344238,-0.6621007919311523,1.0241707563400269
1695713688543457800,12.429457763671875,-0.6267141103744507,-0.03947162628173828,1.2796134948730469
1695713688562561800,12.448561767578125,0.4717346429824829,-0.033599853515625,1.3921769857406616
1695713688581635000,12.467635009765624,1.2177399396896362,0.22667312622070312,1.364987850189209
1695713688600739000,12.486739013671874,1.0540140867233276,0.40674781799316406,1.1784694194793701
1695713688619812600,12.5058125,0.3826671242713928,0.9704933166503906,0.42535340785980225
1695713688638916600,12.52491650390625,-0.416459321975708,1.4100322723388672,0.5266495943069458
1695713688658051300,12.54405126953125,0.19270211458206177,1.361872673034668,2.0206003189086914
1695713688677124600,12.56312451171875,1.1325809955596924,1.9719505310058594,2.4156494140625
1695713688696228600,12.582228515625,0.19319766759872437,2.9661827087402344,1.6461305618286133
1695713688715302100,12.60130224609375,0.1972011923789978,3.2604808807373047,1.2124147415161133
1695713688734406100,12.62040625,-0.5068185329437256,3.7717933654785156,1.5115047693252563
1695713688753479700,12.639479736328125,-3.0089337825775146,2.554732322692871,2.420205593109131
1695713688772583700,12.658583740234375,-4.151796817779541,0.7230949401855469,2.1928045749664307
1695713688791687700,12.677687744140625,-4.532204627990723,0.7513313293457031,-0.5281736850738525
1695713688810761200,12.69676123046875,-3.1071982383728027,2.4446449279785156,-3.2371575832366943
1695713688829865200,12.715865234375,-1.9928827285766602,2.5934581756591797,-3.999443769454956
1695713688848938800,12.734938720703125,-3.002138614654541,2.674504280090332,-2.6639204025268555
1695713688868042800,12.754042724609375,-1.6665616035461426,3.5521116256713867,0.39332544803619385
1695713688887116000,12.773115966796874,-3.895008087158203,3.742703437805176,0.9286051988601685
1695713688906220000,12.792219970703124,-7.492307186126709,2.00040340423584,1.013239860534668
1695713688925324000,12.811323974609374,-5.7285332679748535,-1.0367069244384766,1.0766098499298096
1695713688944428000,12.830427978515624,-3.9201416969299316,-2.547085762023926,1.043470025062561
1695713688963532000,12.849531982421874,-3.182344436645508,-2.999765396118164,0.5626150369644165
1695713688982605600,12.86860546875,-2.845250129699707,-3.3353347778320312,-0.6016665697097778
1695713689001709600,12.88770947265625,-3.0654196739196777,-3.3552703857421875,-1.0924957990646362
1695713689020813600,12.9068134765625,-3.778799057006836,-3.413435935974121,-0.4189894199371338
1695713689039887000,12.92588720703125,-4.431058406829834,-3.2547874450683594,-0.0060253143310546875
1695713689058991000,12.9449912109375,-4.324667453765869,-2.246419906616211,0.03863978385925293
1695713689078064600,12.964064697265625,-1.4388833045959473,0.20464420318603516,0.2201603651046753
1695713689097168600,12.983168701171875,2.526559352874756,3.8226490020751953,0.7584657669067383
1695713689116242200,13.0022421875,3.275847911834717,7.318023681640625,0.046796560287475586
1695713689135346200,13.02134619140625,0.9575800895690918,6.624790191650391,-1.3074599504470825
1695713689154450200,13.0404501953125,3.116272449493408,-0.09838008880615234,0.26001226902008057
1695713689173523700,13.059523681640625,-1.3789653778076172,-6.077492713928223,0.9172630310058594
1695713689192627700,13.078627685546875,-6.161566257476807,-3.9838991165161133,1.0982030630111694
1695713689211701000,13.097700927734374,-2.863682746887207,4.460779190063477,1.82651686668396
1695713689230835700,13.116835693359375,0.7211275100708008,7.645105361938477,1.3558111190795898
1695713689249909000,13.135908935546874,-2.1161999702453613,-0.12357807159423828,1.4804702997207642
1695713689269013000,13.155012939453124,-10.419283866882324,-6.217979431152344,-0.39642417430877686
1695713689288117200,13.1741171875,-9.453786849975586,-2.3933982849121094,-3.75321102142334
1695713689307190500,13.1931904296875,-2.773003339767456,3.89267635345459,-1.2210931777954102
1695713689326294500,13.21229443359375,-4.29172420501709,3.5304527282714844,1.747470736503601
1695713689345368000,13.2313681640625,-4.865725040435791,2.2741880416870117,0.7450117468833923
1695713689364472000,13.25047216796875,-1.4071564674377441,2.6353063583374023,0.0001596212387084961
1695713689383545600,13.269545654296875,-1.3957862854003906,3.2107229232788086,0.23368918895721436
1695713689402649600,13.288649658203125,-4.561975479125977,3.211690902709961,-0.3872188329696655
1695713689421753600,13.307753662109375,-7.3497114181518555,2.633639335632324,-0.589812159538269
1695713689440827100,13.3268271484375,-5.706557273864746,1.700387954711914,0.27579206228256226
1695713689459931100,13.34593115234375,-2.066709041595459,0.3194866180419922,1.286981463432312
1695713689479004700,13.365004638671875,3.4894862174987793,-5.117557525634766,2.498793125152588
1695713689498108700,13.384108642578125,4.688607215881348,-13.352458000183105,4.086582183837891
1695713689517212700,13.403212646484375,-2.3605804443359375,-17.907806396484375,4.270320892333984
1695713689536316700,13.422316650390625,-7.824298858642578,-18.65041732788086,4.804008960723877
1695713689555420700,13.441420654296875,-9.819263458251953,-19.505630493164062,4.491795539855957
1695713689574494000,13.460493896484374,-10.00737476348877,-20.530296325683594,2.397306442260742
1695713689593598000,13.479597900390624,-6.40575647354126,-16.73722267150879,-2.952054023742676
1695713689612671500,13.49867138671875,4.266304969787598,-4.633453369140625,-4.354508399963379
1695713689631775500,13.517775390625,-0.2445507049560547,1.0057125091552734,-0.49220508337020874
1695713689650849000,13.53684912109375,-3.799262762069702,6.171710014343262,-2.2452681064605713
1695713689669953000,13.555953125,-30.286449432373047,44.14170837402344,-13.890523910522461
1695713689689057000,13.57505712890625,-22.130727767944336,17.87553596496582,-17.30327033996582
1695713689708130600,13.594130615234375,-10.63763427734375,3.079352378845215,-12.852607727050781
1695713689727234600,13.613234619140625,0.8553245067596436,1.464625358581543,1.658405065536499
1695713689746308000,13.63230810546875,1.1385855674743652,0.34087181091308594,10.661537170410156
1695713689765412000,13.651412109375,4.197535991668701,-0.4210348129272461,11.000697135925293
1695713689784516000,13.67051611328125,-3.201943874359131,4.328163146972656,-1.4781715869903564
1695713689803620000,13.6896201171875,-4.2358317375183105,9.144721031188965,-7.446282863616943
1695713689822724000,13.70872412109375,-4.6156697273254395,6.500863075256348,-2.7150092124938965
1695713689841797600,13.727797607421875,1.3946270942687988,1.130906105041504,3.645292282104492
1695713689860901600,13.746901611328125,4.527713298797607,2.0535717010498047,5.512917995452881
1695713689879975000,13.765974853515624,-0.10578441619873047,4.225153923034668,1.5397067070007324
1695713689899079000,13.785078857421874,-2.897578716278076,4.754001617431641,-2.3378870487213135
1695713689918183000,13.804182861328124,1.656214714050293,9.761381149291992,1.7839763164520264
1695713689937256400,13.82325634765625,2.383422374725342,14.115898132324219,-1.9712135791778564
1695713689956360400,13.8423603515625,-0.7306547164916992,6.174897193908691,-7.5836005210876465
1695713689975434000,13.86143408203125,-4.476812362670898,-4.240694999694824,-1.0302703380584717
1695713689994538000,13.8805380859375,-2.4525279998779297,-3.264674186706543,1.3388761281967163
1695713690013611500,13.899611572265625,-0.34273242950439453,-0.8004837036132812,-0.7387031316757202
1695713690032715500,13.918715576171875,0.13589000701904297,-1.2743511199951172,-1.0314477682113647
1695713690051819500,13.937819580078125,-1.518887996673584,-0.3457040786743164,-0.6962904930114746
1695713690070893000,13.95689306640625,-1.222691535949707,1.9459056854248047,1.5572994947433472
1695713690090027500,13.976027587890625,-0.08952999114990234,1.9336023330688477,1.5705862045288086
1695713690109101000,13.99510107421875,-1.1627516746520996,0.952667236328125,0.6601670384407043
1695713690128205000,14.014205078125,-2.867941379547119,0.4579963684082031,0.08224304765462875
1695713690147278600,14.033278564453125,-2.3770928382873535,0.4937610626220703,-0.23658487200737
1695713690166382600,14.052382568359375,-1.9069139957427979,1.3733606338500977,0.29531824588775635
1695713690185486600,14.071486572265625,-2.4585814476013184,1.4197025299072266,0.858433187007904
1695713690204560000,14.090559814453124,-2.1890368461608887,0.8725624084472656,1.554572343826294
1695713690223663900,14.109663818359374,-2.20900559425354,0.5231351852416992,0.7767270803451538
1695713690242737400,14.1287373046875,-1.8202793598175049,0.06995677947998047,-0.0006624162197113037
1695713690261841400,14.14784130859375,-1.483238935470581,0.04545116424560547,-0.22344326972961426
1695713690280915000,14.1669150390625,-1.6292641162872314,0.13604736328125,0.10807889699935913
1695713690300019000,14.18601904296875,-1.9772255420684814,0.20466995239257812,0.13351291418075562
1695713690319123000,14.205123046875,-1.6142597198486328,0.5295639038085938,0.14073246717453003
1695713690338196500,14.224196533203125,-1.2823493480682373,0.6991729736328125,0.29262983798980713
1695713690357300500,14.243300537109375,-1.4762156009674072,0.5871782302856445,0.3669934868812561
1695713690376404500,14.262404541015625,-2.082878828048706,0.39025402069091797,0.5914889574050903
1695713690395508500,14.281508544921875,-2.3387556076049805,0.3482379913330078,0.6768378615379333
1695713690414582000,14.30058203125,-2.1763179302215576,0.37802886962890625,0.32355421781539917
1695713690433686000,14.31968603515625,-1.938751220703125,0.5031881332397461,-0.16178631782531738
1695713690452790000,14.3387900390625,-1.8938612937927246,0.42426395416259766,-0.16582977771759033
1695713690471863600,14.357863525390625,-2.508784770965576,0.3930673599243164,0.18017345666885376
1695713690490967600,14.376967529296875,-2.4601099491119385,0.06142139434814453,0.2097022533416748
1695713690510040800,14.396040771484374,-2.094572067260742,-0.19165325164794922,0.09420448541641235
1695713690529144800,14.415144775390624,-1.9173297882080078,0.9033060073852539,0.4708400368690491
1695713690548218400,14.43421826171875,-0.6818687915802002,0.8518743515014648,0.566881000995636
1695713690567322400,14.453322265625,-0.8747508525848389,0.3279085159301758,0.23498964309692383
1695713690586426400,14.47242626953125,-2.2855536937713623,0.6129751205444336,0.7327549457550049
1695713690605500000,14.4915,-3.143564462661743,0.881500244140625,-0.19568082690238953
1695713690624604000,14.51060400390625,-2.180455207824707,0.7973880767822266,-1.2063453197479248
1695713690643677400,14.529677490234375,-1.3016154766082764,0.6479778289794922,-1.3157157897949219
1695713690662842400,14.54884228515625,-1.3864171504974365,0.3690977096557617,-0.6039857864379883
1695713690681916000,14.567916015625,-1.795666217803955,0.1680316925048828,-0.03177806735038757
1695713690700989400,14.586989501953125,-1.7199265956878662,-0.0005340576171875,0.322559118270874
1695713690720093400,14.606093505859375,-1.4204981327056885,0.08379364013671875,0.13869714736938477
1695713690739167000,14.6251669921875,-1.1757633686065674,0.20722389221191406,-0.04010587930679321
1695713690758271000,14.64427099609375,-1.1881306171417236,0.20036602020263672,0.07221503555774689
1695713690777344500,14.663344482421875,-1.2949097156524658,0.296783447265625,-0.09492206573486328
1695713690796448500,14.682448486328125,-1.0064213275909424,0.2985210418701172,-0.28583824634552
1695713690815552500,14.701552490234375,-0.8326635360717773,0.48093128204345703,-0.19708967208862305
1695713690834625800,14.720625732421874,-1.0002624988555908,0.43669700622558594,0.04687473177909851
1695713690853729800,14.739729736328124,-1.123201847076416,0.27291011810302734,-0.2941052317619324
1695713690872803300,14.75880322265625,-0.9738538265228271,0.26204490661621094,-0.3519746959209442
1695713690891907300,14.7779072265625,-0.7777011394500732,0.13612747192382812,-0.26333460211753845
1695713690910980900,14.79698095703125,-0.9414892196655273,-0.0023584365844726562,-0.32136598229408264
1695713690930115300,14.816115234375,-1.4845991134643555,0.057251930236816406,-0.32467931509017944
1695713690949219300,14.83521923828125,-1.7952907085418701,0.11769771575927734,-0.15230675041675568
1695713690968292900,14.85429296875,-1.9975440502166748,0.216461181640625,0.10762257128953934
1695713690987396900,14.87339697265625,-2.09903621673584,0.39714813232421875,0.07736971229314804
1695713691006470400,14.892470458984375,-2.0964982509613037,0.5239944458007812,0.05692385137081146
1695713691025574400,14.911574462890625,-2.104024887084961,0.48517704010009766,0.015457434579730034
1695713691044648000,14.93064794921875,-2.2425122261047363,0.4364967346191406,-0.07001649588346481
1695713691063752000,14.949751953125,-2.2002649307250977,0.37837696075439453,-0.04968763142824173
1695713691082856000,14.96885595703125,-1.985138177871704,0.33136463165283203,-0.03453211113810539
1695713691101929500,14.987929443359375,-1.90932297706604,0.2664051055908203,0.03314189612865448
1695713691121033500,15.007033447265625,-2.150618553161621,0.19358158111572266,-0.06358564645051956
1695713691140106800,15.026106689453124,-1.9962475299835205,0.238372802734375,-0.3886028230190277
1695713691159210800,15.045210693359374,-1.358595371246338,0.2990236282348633,-0.546598494052887
1695713691178284300,15.0642841796875,-1.1820170879364014,0.15979480743408203,-0.26476210355758667
1695713691197388300,15.08338818359375,-1.4903655052185059,0.22704124450683594,-0.08488137274980545
1695713691216492300,15.1024921875,-1.6710155010223389,0.21906185150146484,-0.047709520906209946
1695713691235596300,15.12159619140625,-1.7335200309753418,0.29312992095947266,-0.051323726773262024
1695713691254700300,15.1407001953125,-1.7486050128936768,0.2618885040283203,-0.16128969192504883
1695713691273773800,15.15977392578125,-1.6479642391204834,0.23418617248535156,-0.2078002393245697
1695713691292877800,15.1788779296875,-1.5034546852111816,0.21872615814208984,-0.2072455734014511
1695713691311951400,15.197951416015625,-1.5500540733337402,0.24755001068115234,-0.12025684118270874
1695713691331055400,15.217055419921875,-1.6817729473114014,0.2501649856567383,0.1375107765197754
1695713691350159400,15.236159423828125,-1.844763994216919,0.26683521270751953,0.1596636176109314
1695713691369233000,15.25523291015625,-1.7280633449554443,0.24124908447265625,0.11091886460781097
1695713691388337000,15.2743369140625,-1.6899852752685547,0.15935420989990234,0.06124060973525047
1695713691407410400,15.293410400390625,-1.6977136135101318,0.17238426208496094,0.039627376943826675
1695713691426514400,15.312514404296875,-1.6483700275421143,0.1777048110961914,-0.08250567317008972
1695713691445618400,15.331618408203125,-1.478973388671875,0.1655750274658203,-0.1564456820487976
1695713691464691700,15.350691650390624,-1.4168968200683594,0.17481613159179688,-0.13733333349227905
1695713691483795700,15.369795654296874,-1.4439749717712402,0.19326400756835938,-0.12602858245372772
1695713691502899700,15.388899658203124,-1.2400307655334473,0.22004413604736328,-0.13115602731704712
1695713691522003700,15.408003662109374,-1.3443963527679443,0.15598297119140625,-0.17126789689064026
1695713691541077200,15.4270771484375,-1.2813081741333008,0.124755859375,-0.10635754466056824
1695713691560181200,15.44618115234375,-1.2923486232757568,0.07891273498535156,-0.08320827782154083
1695713691579285200,15.46528515625,-1.2822260856628418,0.0921478271484375,-0.12650366127490997
1695713691598389200,15.48438916015625,-1.294899582862854,0.1312999725341797,-0.10632450133562088
1695713691617462800,15.503462890625,-1.4923933744430542,0.1428070068359375,-0.044720157980918884
1695713691636536300,15.522536376953125,-1.5369348526000977,0.16354751586914062,0.0037232208997011185
1695713691655640300,15.541640380859375,-1.4919114112854004,0.15236663818359375,-0.005372482351958752
1695713691674713900,15.5607138671875,-1.5108939409255981,0.15443801879882812,-0.03237441927194595
1695713691693817900,15.57981787109375,-1.5853983163833618,0.1709585189819336,-0.14348353445529938
1695713691712921900,15.598921875,-1.5589134693145752,0.1371173858642578,-0.21381157636642456
1695713691731995400,15.617995361328125,-1.6519417762756348,0.10386943817138672,-0.14350733160972595
1695713691751099400,15.637099365234375,-1.8353285789489746,0.07842445373535156,-0.14757022261619568
1695713691770172700,15.656172607421874,-2.108083724975586,0.11765289306640625,-0.2934446930885315
1695713691789276700,15.675276611328124,-1.9096672534942627,0.0927267074584961,-0.1502504199743271
1695713691808380700,15.694380615234374,-1.6933695077896118,0.18830490112304688,-0.02515304833650589
1695713691827484700,15.713484619140624,-1.9658464193344116,0.30096435546875,0.021146148443222046
1695713691846588700,15.732588623046874,-1.9095964431762695,0.31597137451171875,-0.13063381612300873
1695713691865662200,15.751662109375,-1.6004713773727417,0.37224674224853516,-0.1836998462677002
1695713691884766200,15.77076611328125,-1.539657711982727,0.3447751998901367,-0.06880126893520355
1695713691903839700,15.78983984375,-1.676473617553711,0.26750946044921875,0.09731976687908173
1695713691922943700,15.80894384765625,-1.8759862184524536,0.2306976318359375,0.06534472107887268
1695713691942017300,15.828017333984375,-1.704636573791504,0.20773029327392578,-0.010179474949836731
1695713691961121300,15.847121337890625,-1.664268136024475,0.15227413177490234,0.04214091598987579
1695713691980225300,15.866225341796875,-1.6491743326187134,0.27410125732421875,0.48829561471939087
1695713691999298800,15.885298828125,-1.4934357404708862,0.22618675231933594,0.48083776235580444
1695713692018402800,15.90440283203125,-1.5939936637878418,0.0793294906616211,0.05075022578239441
1695713692037476400,15.923476318359375,-1.6733731031417847,0.08687210083007812,-0.20422443747520447
1695713692056580400,15.942580322265625,-1.876961350440979,0.1370086669921875,0.008000418543815613
1695713692075684400,15.961684326171875,-1.788053274154663,0.007292747497558594,-0.10889337956905365
1695713692094788400,15.980788330078125,-1.5086820125579834,-0.06888484954833984,-0.4734768271446228
1695713692113892400,15.999892333984375,-1.4211843013763428,0.08869743347167969,-0.7705346345901489
1695713692132965600,16.018965576171876,-0.7623069286346436,0.14809036254882812,-0.6394580006599426
1695713692152069600,16.038069580078126,-0.344407320022583,0.01912403106689453,-0.2512317895889282
1695713692171143200,16.05714306640625,-0.6250576972961426,0.05978584289550781,0.03255057334899902
1695713692190247200,16.0762470703125,-1.0513725280761719,0.17448711395263672,0.014666765928268433
1695713692209320700,16.09532080078125,-1.0709631443023682,0.22457599639892578,-0.09817031025886536
1695713692228424700,16.1144248046875,-0.8832359313964844,0.3214740753173828,-0.22917470335960388
1695713692247528700,16.13352880859375,-0.5958361625671387,0.24621009826660156,-0.25823497772216797
1695713692266602200,16.152602294921873,-0.8698239326477051,0.1029043197631836,-0.3449271619319916
1695713692285706200,16.171706298828123,-1.153662919998169,0.1325550079345703,-0.4007830321788788
1695713692304779800,16.19077978515625,-1.030665397644043,0.1376943588256836,-0.34543755650520325
1695713692323883800,16.2098837890625,-0.9904892444610596,0.09394645690917969,-0.2726544737815857
1695713692342987800,16.22898779296875,-1.2011737823486328,0.0716867446899414,0.12827670574188232
1695713692362091800,16.248091796875,-1.6190478801727295,0.18043994903564453,0.3016769289970398
1695713692381195800,16.26719580078125,-1.6427448987960815,0.30264949798583984,0.14676403999328613
1695713692400269300,16.286269287109373,-1.6373612880706787,0.1100015640258789,0.05398336052894592
1695713692419373300,16.305373291015623,-1.5523180961608887,0.07678508758544922,-0.3251538574695587
1695713692438446600,16.324446533203126,-1.3056297302246094,0.0935211181640625,-0.48170170187950134
1695713692457550600,16.343550537109376,-1.064111351966858,0.1281147003173828,-0.10507616400718689
1695713692476654600,16.362654541015626,-1.1110700368881226,0.11852550506591797,0.3127254545688629
1695713692495728000,16.38172802734375,-1.4399139881134033,0.07854652404785156,0.34640535712242126
1695713692514832100,16.40083203125,-1.481971263885498,0.07059288024902344,0.164093017578125
1695713692533936000,16.41993603515625,-1.3559386730194092,0.11255455017089844,-0.051044344902038574
1695713692553009700,16.439009765625,-1.3215118646621704,0.1689901351928711,-0.23513811826705933
1695713692572083200,16.458083251953123,-1.436978816986084,0.18446636199951172,-0.42153647541999817
1695713692591187200,16.477187255859373,-1.5454133749008179,0.21195697784423828,-0.476680189371109
1695713692610291200,16.496291259765623,-1.690934658050537,0.17161846160888672,-0.36364224553108215
1695713692629364700,16.51536474609375,-1.7173657417297363,0.2505226135253906,-0.1526564359664917
1695713692648468700,16.53446875,-1.5393879413604736,0.2981109619140625,-0.01157534122467041
1695713692667572700,16.55357275390625,-1.3831230401992798,0.22741222381591797,-0.011712133884429932
1695713692686676700,16.5726767578125,-1.4371309280395508,0.22791385650634766,-0.07460838556289673
1695713692705750300,16.591750244140623,-1.4699019193649292,0.2619905471801758,-0.3222126066684723
1695713692724854300,16.610854248046873,-1.3831214904785156,0.0631265640258789,-0.5474597215652466
1695713692743958300,16.629958251953123,-1.3179923295974731,-0.026514053344726562,-0.6127363443374634
1695713692763031600,16.649031494140626,-1.1636217832565308,0.07095718383789062,-0.5605326294898987
1695713692782135600,16.668135498046876,-1.0028831958770752,0.12329673767089844,-0.2618146240711212
1695713692801209000,16.687208984375,-1.1626126766204834,0.13242244720458984,-0.1729387640953064
1695713692820313000,16.70631298828125,-1.265799880027771,0.11406612396240234,-0.05616524815559387
1695713692839386600,16.72538671875,-1.2404731512069702,0.12985897064208984,0.07052367925643921
1695713692858496500,16.74449658203125,-1.1398910284042358,0.11600780487060547,-0.040490686893463135
1695713692877600500,16.7636005859375,-1.2254955768585205,0.09020042419433594,-0.1453312635421753
1695713692896674000,16.782674072265625,-1.2718300819396973,-0.006966590881347656,-0.04656890034675598
1695713692915778000,16.801778076171875,-1.4273818731307983,0.04024696350097656,-0.03928107023239136
1695713692934882000,16.820882080078125,-1.519660234451294,0.07936477661132812,0.031446993350982666
1695713692953986000,16.839986083984375,-1.448217749595642,0.10338783264160156,0.07789787650108337
1695713692973059600,16.8590595703125,-1.4523838758468628,0.1717214584350586,-0.04523205757141113
1695713692992163600,16.87816357421875,-1.3071339130401611,0.20981788635253906,-0.07388681173324585
1695713693011267600,16.897267578125,-1.1969387531280518,0.18521499633789062,-0.12292352318763733
1695713693030341000,16.916341064453125,-1.2671164274215698,0.18424701690673828,-0.23469728231430054
1695713693049445000,16.935445068359375,-1.3560506105422974,0.1216421127319336,-0.2369977831840515
1695713693068518400,16.954518310546874,-1.2438775300979614,0.08304405212402344,-0.26979270577430725
1695713693087622400,16.973622314453124,-1.2557227611541748,0.05774211883544922,-0.07868722081184387
1695713693106696000,16.992696044921875,-1.1589142084121704,0.041787147521972656,-0.12958452105522156
1695713693125800000,17.011800048828125,-1.1016275882720947,0.08154582977294922,-0.20441150665283203
1695713693144904000,17.030904052734375,-0.9175138473510742,0.10003089904785156,0.023778945207595825
1695713693163977500,17.0499775390625,-0.9147506952285767,0.1427316665649414,0.17451611161231995
1695713693183081500,17.06908154296875,-1.0505180358886719,0.16116046905517578,0.21176549792289734
1695713693202155000,17.088155029296875,-1.2311804294586182,0.14004135131835938,0.13366550207138062
1695713693221289500,17.10728955078125,-1.1887831687927246,0.0998544692993164,0.03434765338897705
1695713693240363000,17.126363037109375,-1.191990852355957,0.0786590576171875,-0.12670326232910156
1695713693259467000,17.145467041015625,-1.1868572235107422,0.059805870056152344,-0.15659257769584656
1695713693278571000,17.164571044921875,-1.263231635093689,0.09150505065917969,-0.25605201721191406
1695713693297644500,17.18364453125,-1.3126776218414307,0.13280296325683594,-0.4314303696155548
1695713693316748500,17.20274853515625,-1.3071496486663818,0.1721630096435547,-0.27051782608032227
1695713693335822000,17.221822021484375,-1.3266942501068115,0.1406726837158203,-0.05933558940887451
1695713693354926000,17.240926025390625,-1.1923234462738037,0.09389305114746094,0.03795364499092102
1695713693374030000,17.260030029296875,-1.0855214595794678,0.05872344970703125,-0.09581279754638672
1695713693393103400,17.279103271484374,-1.1586010456085205,0.04941558837890625,-0.1439754068851471
1695713693412207400,17.298207275390624,-1.0204863548278809,0.08514404296875,-0.14589303731918335
1695713693431281000,17.317281005859375,-1.1939181089401245,0.08978080749511719,-0.047378599643707275
1695713693450385000,17.336385009765625,-1.1374841928482056,0.0718994140625,-0.01157417893409729
1695713693469489000,17.355489013671875,-1.1520522832870483,0.0788116455078125,0.04385194182395935
1695713693488562400,17.3745625,-1.1665353775024414,0.1316366195678711,-0.035685986280441284
1695713693507666400,17.39366650390625,-1.0627228021621704,0.12652015686035156,-0.10302996635437012
1695713693526770400,17.4127705078125,-1.176626205444336,0.10691356658935547,-0.035907357931137085
1695713693545874400,17.43187451171875,-1.256516933441162,0.08132362365722656,-0.030534952878952026
1695713693564948000,17.450947998046875,-1.25090754032135,0.11166954040527344,-0.04030230641365051
1695713693584052000,17.470052001953125,-1.2952466011047363,0.09099578857421875,0.02534887194633484
1695713693603125500,17.48912548828125,-1.2212108373641968,0.11543560028076172,-0.010662674903869629
1695713693622229500,17.5082294921875,-1.0962549448013306,0.09133243560791016,-0.04335707426071167
1695713693641364000,17.527364013671875,-1.0606034994125366,0.08617401123046875,-0.16408765316009521
1695713693660407000,17.546406982421875,-1.01152503490448,0.0809621810913086,-0.11547192931175232
1695713693679511000,17.565510986328125,-1.06694757938385,0.06711959838867188,-0.14855927228927612
1695713693698584300,17.584584228515624,-1.078011393547058,0.10403919219970703,-0.1383047103881836
1695713693717688300,17.603688232421874,-1.124819040298462,0.13134002685546875,-0.17193204164505005
1695713693736761900,17.622761962890625,-1.1204792261123657,0.18246078491210938,-0.1820150911808014
1695713693755865900,17.641865966796875,-1.1117308139801025,0.09135913848876953,-0.3151201605796814
1695713693774969900,17.660969970703125,-1.0643744468688965,-0.014962196350097656,-0.4168337285518646
1695713693794073900,17.680073974609375,-1.1784393787384033,0.12305927276611328,-0.49565941095352173
1695713693813177900,17.699177734375,-1.2433264255523682,0.08383941650390625,-0.4264679551124573
1695713693832251400,17.71825146484375,-1.2205458879470825,-0.017078399658203125,-0.47312289476394653
1695713693851355400,17.73735546875,-1.4010117053985596,0.11239814758300781,-0.235243558883667
1695713693870429000,17.756428955078125,-1.3231337070465088,0.01718425750732422,-0.061601489782333374
1695713693889533000,17.775532958984375,-1.1841424703598022,0.012249946594238281,-0.07319715619087219
1695713693908637000,17.794636962890625,-1.1677613258361816,0.20528030395507812,-0.2200932800769806
1695713693927710500,17.81371044921875,-1.29686439037323,0.16011714935302734,-0.010577142238616943
1695713693946814500,17.832814453125,-1.1241931915283203,0.08205318450927734,0.14738139510154724
1695713693965888000,17.851887939453125,-1.089058756828308,0.11912250518798828,-0.033627867698669434
1695713693984992000,17.870991943359375,-1.1090091466903687,0.11357498168945312,-0.14339390397071838
1695713694004065300,17.890065185546874,-1.0019962787628174,0.05697441101074219,-0.05380520224571228
1695713694023169300,17.909169189453124,-1.1525354385375977,0.0521697998046875,-0.1235164999961853
1695713694042273300,17.928273193359374,-1.1006362438201904,0.06535625457763672,-0.1516069769859314
1695713694061346800,17.947346923828125,-0.9915378093719482,0.03229236602783203,-0.07165396213531494
1695713694080450800,17.966450927734375,-1.0572060346603394,0.03709125518798828,-0.07612094283103943
1695713694099554800,17.985554931640625,-1.0578855276107788,0.0668182373046875,-0.036954909563064575
1695713694118658800,18.004658935546875,-0.954888105392456,0.11750030517578125,-0.13506856560707092
1695713694137732400,18.023732421875,-0.9051985740661621,0.044999122619628906,-0.27735263109207153
1695713694156836400,18.04283642578125,-0.9664829969406128,0.1169137954711914,-0.06009915471076965
1695713694175940400,18.0619404296875,-1.0963135957717896,0.11171913146972656,0.16445812582969666
1695713694195014000,18.081013916015625,-1.0618345737457275,0.03166675567626953,0.057234108448028564
1695713694214118000,18.100117919921875,-1.041365385055542,0.030966758728027344,-0.09740722179412842
1695713694233191400,18.11919140625,-1.0504281520843506,0.062236785888671875,-0.2454637587070465
1695713694252295400,18.13829541015625,-1.0034812688827515,0.1055154800415039,-0.3616001307964325
1695713694271369000,18.157368896484375,-1.0527139902114868,0.06471061706542969,-0.2321814000606537
1695713694290473000,18.176472900390625,-1.079072117805481,0.08196449279785156,-0.11013609170913696
1695713694309577000,18.195576904296875,-1.1134381294250488,0.07430744171142578,0.0031883418560028076
1695713694328650200,18.214650146484374,-1.149696946144104,0.0691070556640625,0.09678736329078674
1695713694347754200,18.233754150390624,-1.093821406364441,0.08887577056884766,0.040104418992996216
1695713694366858200,18.252858154296874,-1.0263445377349854,0.0814065933227539,-0.08792957663536072
1695713694385962200,18.271962158203124,-1.0387612581253052,0.06922531127929688,-0.15358752012252808
1695713694405066200,18.291066162109374,-1.117394208908081,0.027368545532226562,-0.16204088926315308
1695713694424139800,18.310139892578125,-1.060776948928833,0.058013916015625,-0.14673393964767456
1695713694443243800,18.329243896484375,-0.9987680912017822,0.07098579406738281,-0.08733835816383362
1695713694462317300,18.3483173828125,-0.9583165645599365,0.10291862487792969,-0.12437459826469421
1695713694481421300,18.36742138671875,-0.9707409143447876,0.07431983947753906,-0.08266958594322205
1695713694500494800,18.386494873046875,-0.9688198566436768,0.0645456314086914,-0.13489404320716858
1695713694519598800,18.405598876953125,-0.9428116083145142,0.04883575439453125,-0.1516788899898529
1695713694538702800,18.424702880859375,-0.9618010520935059,0.03307819366455078,-0.13272029161453247
1695713694557776400,18.4437763671875,-0.9730238914489746,0.041131019592285156,-0.09021598100662231
1695713694576910800,18.462910888671875,-1.038318395614624,0.030164718627929688,-0.07583987712860107
1695713694595954000,18.481953857421875,-1.0973373651504517,0.08193206787109375,-0.09856724739074707
1695713694615058000,18.501057861328125,-1.0462284088134766,0.07927799224853516,-0.0862976610660553
1695713694634131200,18.520131103515624,-1.0785435438156128,0.08493423461914062,-0.08454084396362305
1695713694653266000,18.539265869140625,-1.1162314414978027,0.03853130340576172,-0.06830713152885437
1695713694672370000,18.558369873046875,-1.1033308506011963,0.052623748779296875,-0.1094108521938324
1695713694691443200,18.577443115234374,-1.0607515573501587,0.08703327178955078,-0.11191758513450623
1695713694710547200,18.596547119140624,-1.0426115989685059,0.09423160552978516,-0.07438701391220093
1695713694729620700,18.615620849609375,-1.0545169115066528,0.10030269622802734,-0.06539714336395264
1695713694748724700,18.634724853515625,-0.986717939376831,0.08163642883300781,-0.06895631551742554
1695713694767798300,18.65379833984375,-0.9223190546035767,0.060698509216308594,-0.067148357629776
1695713694786902300,18.67290234375,-0.9908595085144043,0.05746746063232422,-0.08202874660491943
1695713694806006300,18.69200634765625,-1.025707483291626,0.06248664855957031,-0.07998484373092651
1695713694825079800,18.711079833984375,-1.0803732872009277,0.0889129638671875,-0.08732250332832336
1695713694844183800,18.730183837890625,-0.9118843078613281,0.09881305694580078,0.007062673568725586
1695713694863257300,18.74925732421875,-0.8992161750793457,-0.00148773193359375,0.029286891222000122
1695713694882361300,18.768361328125,-0.9566824436187744,0.005810737609863281,0.063028484582901
1695713694901435000,18.787434814453125,-0.9458492994308472,0.08644294738769531,0.13778671622276306
1695713694920539000,18.806538818359375,-0.9784742593765259,0.1421527862548828,0.013959437608718872
1695713694939643000,18.825642822265625,-0.9619866609573364,0.11045360565185547,-0.23975488543510437
1695713694958747000,18.844746826171875,-0.8432793617248535,0.0692138671875,-0.27194079756736755
1695713694977851000,18.863850830078125,-0.7934325933456421,0.0017852783203125,-0.2207496166229248
1695713694996924200,18.882924072265624,-0.8314648866653442,-0.016053199768066406,-0.03777298331260681
1695713695016028200,18.902028076171874,-0.9723564386367798,0.047614097595214844,0.12311232089996338
1695713695035101700,18.921101806640625,-0.8723640441894531,0.06739330291748047,0.21033963561058044
1695713695054205700,18.940205810546875,-0.8302521705627441,0.05609321594238281,0.02932417392730713
1695713695073309700,18.959309814453125,-0.7428033351898193,0.026801109313964844,-0.15776187181472778
1695713695092383200,18.97838330078125,-0.7917286157608032,-0.01935863494873047,-0.23489710688591003
1695713695111487200,18.9974873046875,-0.8560552597045898,-0.018320083618164062,-0.22273072600364685
1695713695130560800,19.016560791015625,-0.8829374313354492,0.030058860778808594,-0.23643526434898376
1695713695149664800,19.035664794921875,-0.9381948709487915,0.06783199310302734,-0.25647324323654175
1695713695168768800,19.054768798828125,-0.9302937984466553,0.09621620178222656,-0.25410863757133484
1695713695187842300,19.07384228515625,-0.9811619520187378,0.07120132446289062,-0.18451550602912903
1695713695206946300,19.0929462890625,-1.0893434286117554,0.04629230499267578,-0.13632768392562866
1695713695226050300,19.11205029296875,-1.1177303791046143,0.03103160858154297,-0.1413940191268921
1695713695245154300,19.131154296875,-1.2010846138000488,0.0929555892944336,-0.1582624912261963
1695713695264227800,19.150227783203125,-1.226281762123108,0.11715221405029297,0.06798058748245239
1695713695283331800,19.169331787109375,-1.1194376945495605,0.08489131927490234,0.1726142168045044
1695713695302435800,19.188435791015625,-1.3682353496551514,0.12181663513183594,-0.16085106134414673
1695713695321509000,19.207509033203124,-1.3300280570983887,0.14743709564208984,-0.3458826541900635
1695713695340613000,19.226613037109374,-0.9968932867050171,0.10145759582519531,-0.37094077467918396
1695713695359686700,19.245686767578125,-0.9842547178268433,0.13646221160888672,-0.3782884180545807
1695713695378790700,19.264790771484375,-1.0670311450958252,0.1405200958251953,-0.23376336693763733
1695713695397864200,19.2838642578125,-0.938730001449585,0.08000755310058594,-0.02248901128768921
1695713695416968200,19.30296826171875,-0.9896292686462402,0.02539539337158203,0.0227830708026886
1695713695436072200,19.322072265625,-0.8811049461364746,-0.019484519958496094,-0.10837632417678833
1695713695455145700,19.341145751953125,-0.7777670621871948,-0.018411636352539062,-0.3101620078086853
1695713695474249700,19.360249755859375,-0.7200430631637573,0.09658336639404297,-0.3183201253414154
1695713695493323300,19.3793232421875,-0.6844600439071655,0.07756805419921875,-0.09548017382621765
1695713695512457700,19.398457763671875,-0.6884803771972656,0.034516334533691406,-0.03863406181335449
1695713695531531300,19.41753125,-0.607125997543335,-0.014925003051757812,-0.01288101077079773
1695713695550635300,19.43663525390625,-0.6487340927124023,-0.0018825531005859375,0.04767289757728577
1695713695569739300,19.4557392578125,-0.7034987211227417,0.06527519226074219,0.11194878816604614
1695713695588812800,19.474812744140625,-0.7946282625198364,0.08107948303222656,-0.04810944199562073
1695713695607916800,19.493916748046875,-0.9543215036392212,0.05891895294189453,-0.21951693296432495
1695713695626990000,19.512989990234374,-0.8636367321014404,0.07010650634765625,-0.22699320316314697
1695713695646094000,19.532093994140624,-0.8271133899688721,0.07426929473876953,-0.26116421818733215
1695713695665167600,19.551167724609375,-0.7379648685455322,0.042824745178222656,-0.14160454273223877
1695713695684271600,19.570271728515625,-0.8220795392990112,0.08001708984375,-0.036593466997146606
1695713695703375600,19.589375732421875,-0.8648077249526978,0.07695579528808594,0.03050735592842102
1695713695722449200,19.60844921875,-0.8305953741073608,0.08445358276367188,0.023471027612686157
1695713695741553200,19.62755322265625,-0.8051725625991821,0.059851646423339844,-0.03232461214065552
1695713695760626700,19.646626708984375,-0.7789024114608765,0.03981781005859375,-0.07925084233283997
1695713695779730700,19.665730712890625,-0.7982150316238403,0.060115814208984375,-0.09808602929115295
1695713695798834700,19.684834716796875,-0.8240379095077515,0.09686851501464844,-0.055898070335388184
1695713695817938700,19.703938720703125,-0.8234264850616455,0.05764007568359375,-0.10719159245491028
1695713695837042700,19.723042724609375,-0.6949596405029297,0.034905433654785156,-0.14522290229797363
1695713695856116200,19.7421162109375,-0.7506009340286255,0.027521133422851562,-0.15585115551948547
1695713695875220200,19.76122021484375,-0.7808225154876709,0.059134483337402344,-0.13135385513305664
1695713695894293800,19.780293701171875,-0.7690110206604004,0.05278587341308594,-0.0934668779373169
1695713695913397800,19.799397705078125,-0.8652069568634033,0.058417320251464844,-0.1576676070690155
1695713695932471000,19.818470947265624,-0.885714054107666,0.12792015075683594,-0.18448013067245483
1695713695951575000,19.837574951171874,-0.7239882946014404,0.0587921142578125,-0.11057475209236145
1695713695970679000,19.856678955078124,-0.6760827302932739,0.03814888000488281,-0.027851879596710205
1695713695989752600,19.875752685546875,-0.7606899738311768,0.0409393310546875,0.04128080606460571
1695713696008856600,19.894856689453125,-0.8236088752746582,0.033020973205566406,0.040909767150878906
1695713696027930000,19.91393017578125,-0.9194607734680176,0.07118606567382812,-0.037248432636260986
1695713696047034000,19.9330341796875,-0.7752953767776489,0.057250022888183594,-0.08158141374588013
1695713696066107600,19.952107666015625,-0.7395802736282349,0.05496501922607422,-0.11339688301086426
1695713696085242000,19.9712421875,-0.7841569185256958,0.020450592041015625,-0.07254451513290405
1695713696104346000,19.99034619140625,-0.8057259321212769,0.011968612670898438,-0.11430618166923523
1695713696123419600,20.009419677734375,-0.8063099384307861,0.05327033996582031,-0.16389667987823486
1695713696142523600,20.028523681640625,-0.7022981643676758,0.054340362548828125,-0.1704096496105194
1695713696161597200,20.04759716796875,-0.7605448961257935,0.05885887145996094,-0.16135749220848083
1695713696180701200,20.066701171875,-0.8108190298080444,0.051387786865234375,-0.14959284663200378
1695713696199774700,20.085774658203125,-0.7977570295333862,0.03679466247558594,-0.09303656220436096
1695713696218878700,20.104878662109375,-0.8692846298217773,0.016137123107910156,-0.14713910222053528
1695713696237982700,20.123982666015625,-0.9444081783294678,0.08337593078613281,-0.18740269541740417
1695713696257056000,20.143055908203124,-0.9822323322296143,0.09029483795166016,-0.1716020107269287
1695713696276160000,20.162159912109374,-0.810975193977356,0.046402931213378906,-0.12046018242835999
1695713696295233500,20.181233642578125,-0.9513152837753296,0.04752159118652344,-0.23453333973884583
1695713696314337500,20.200337646484375,-1.021295428276062,0.10104560852050781,-0.23766541481018066
1695713696333441500,20.219441650390625,-0.870449423789978,0.13122177124023438,-0.1393912136554718
1695713696352515000,20.23851513671875,-0.816510796546936,0.05501270294189453,-0.1157655119895935
1695713696371649500,20.2576494140625,-0.8281682729721069,0.10791301727294922,-0.20510059595108032
1695713696390723000,20.27672314453125,-0.5892471075057983,0.0021562576293945312,-0.15670323371887207
1695713696409827000,20.2958271484375,-0.6404228210449219,0.021658897399902344,-0.20991644263267517
1695713696428900600,20.314900634765625,-0.7401636838912964,0.045912742614746094,-0.1622648537158966
1695713696448004600,20.334004638671875,-0.7058167457580566,0.06295490264892578,-0.14674592018127441
1695713696467078100,20.353078125,-0.5135699510574341,0.046875953674316406,-0.0662822425365448
1695713696486182100,20.37218212890625,-0.7214552164077759,-0.001552581787109375,-0.09272295236587524
1695713696505286100,20.3912861328125,-0.9078705310821533,0.019834518432617188,-0.2413623332977295
1695713696524359700,20.410359619140625,-0.8289200067520142,0.04146862030029297,-0.29029566049575806
1695713696543463700,20.429463623046875,-0.7537682056427002,0.039450645446777344,-0.3086291253566742
1695713696562537000,20.448536865234374,-0.7326714992523193,0.055405616760253906,-0.1903952956199646
1695713696581641000,20.467640869140624,-0.8248177766799927,0.06667613983154297,-0.018026202917099
1695713696600745000,20.486744873046874,-0.9278038740158081,0.06380748748779297,0.10428372025489807
1695713696619818500,20.505818603515625,-1.0375444889068604,0.11210823059082031,0.10121482610702515
1695713696638922500,20.524922607421875,-0.9091079235076904,0.05401325225830078,0.0662233829498291
1695713696658026500,20.544026611328125,-0.7304015159606934,0.03149986267089844,-0.04913228750228882
1695713696677130500,20.563130615234375,-0.7841298580169678,0.00045108795166015625,-0.1372363567352295
1695713696696204000,20.5822041015625,-0.8348706960678101,0.028708457946777344,-0.23221004009246826
1695713696715308000,20.60130810546875,-0.7951005697250366,0.027441978454589844,-0.1994665265083313
1695713696734412000,20.620412109375,-0.6933712959289551,-0.015172004699707031,-0.21210592985153198
1695713696753485600,20.639485595703125,-0.7225673198699951,0.0537261962890625,-0.17341089248657227
1695713696772589600,20.658589599609375,-0.7656419277191162,0.0999460220336914,-0.12087303400039673
1695713696791663000,20.6776630859375,-0.747154712677002,0.051425933837890625,-0.1150389313697815
1695713696810767000,20.69676708984375,-0.7593051195144653,0.019382476806640625,-0.14843428134918213
1695713696829840600,20.715840576171875,-0.8409980535507202,0.03957176208496094,-0.2270999550819397
1695713696848944600,20.734944580078125,-0.8354856967926025,0.054116249084472656,-0.22605234384536743
1695713696868048600,20.754048583984375,-0.7852404117584229,0.04281330108642578,-0.12134593725204468
1695713696887122000,20.773121826171874,-0.71954345703125,0.06012535095214844,-0.00010609626770019531
1695713696906226000,20.792225830078124,-0.7758631706237793,0.06431961059570312,0.044205307960510254
1695713696925299500,20.811299560546875,-0.8431949615478516,0.07451057434082031,0.09290069341659546
1695713696944434000,20.830433837890624,-0.890068531036377,0.06832027435302734,0.05647933483123779
1695713696963507500,20.849507568359375,-0.6857891082763672,0.06205558776855469,0.10086321830749512
1695713696982611500,20.868611572265625,-0.6875842809677124,0.06155204772949219,0.060844361782073975
1695713697001715500,20.887715576171875,-0.7881286144256592,-0.035094261169433594,-0.004184365272521973
1695713697020789000,20.9067890625,-0.7882753610610962,0.021040916442871094,0.05664551258087158
1695713697039893000,20.92589306640625,-0.8551018238067627,0.024026870727539062,-0.1183425784111023
1695713697058966500,20.944966552734375,-0.5327985286712646,-0.07255172729492188,-0.4220482110977173
1695713697078070500,20.964070556640625,-0.42359817028045654,-0.005776405334472656,-0.45251965522766113
1695713697097144000,20.98314404296875,-0.6948559284210205,0.08102798461914062,-0.36070024967193604
1695713697116248000,21.002248046875,-0.6938066482543945,0.09222984313964844,-0.26732778549194336
1695713697135352000,21.02135205078125,-0.6170107126235962,0.028717041015625,-0.07512742280960083
1695713697154425600,21.040425537109375,-0.7013695240020752,0.07058334350585938,0.03972893953323364
1695713697173529600,21.059529541015625,-0.920290470123291,0.10533523559570312,0.10819530487060547
1695713697192603000,21.078602783203124,-0.8152637481689453,0.059599876403808594,0.05591303110122681
1695713697211707000,21.097706787109374,-0.6093337535858154,0.043609619140625,-0.02615666389465332
1695713697230811000,21.116810791015624,-0.7448759078979492,0.02517414093017578,0.019668281078338623
1695713697249915000,21.135914794921874,-0.8742619752883911,0.07423019409179688,-0.019071221351623535
1695713697269019000,21.155018798828124,-0.6765743494033813,0.0036802291870117188,-0.1161949634552002
1695713697288092400,21.174092529296875,-0.3309946060180664,-0.08931732177734375,-0.2848787307739258
1695713697307196400,21.193196533203125,-0.3825559616088867,-0.016649246215820312,-0.2894124388694763
1695713697326270000,21.21227001953125,-0.4898184537887573,0.018932342529296875,-0.1703433394432068
1695713697345374000,21.2313740234375,-0.41577231884002686,-0.020285606384277344,-0.03672283887863159
1695713697364478000,21.25047802734375,-0.47786760330200195,0.038704872131347656,0.04999339580535889
1695713697383551500,21.269551513671875,-0.6748111248016357,0.055947303771972656,0.03805267810821533
1695713697402655500,21.288655517578125,-0.7921233177185059,0.08491039276123047,-0.045622289180755615
1695713697421729000,21.30772900390625,-0.7062304019927979,0.06416606903076172,-0.07281315326690674
1695713697440833000,21.3268330078125,-0.668291449546814,0.010245323181152344,0.003499925136566162
1695713697459906600,21.345906494140625,-0.7153586149215698,0.04991340637207031,0.09760558605194092
1695713697479010600,21.365010498046875,-0.7334575653076172,0.024260520935058594,0.10878574848175049
1695713697498114600,21.384114501953125,-0.667868971824646,-0.006098747253417969,-0.006879866123199463
1695713697517218600,21.403218505859375,-0.6464306116104126,-0.005573272705078125,-0.1469358205795288
1695713697536322600,21.422322509765625,-0.6753526926040649,0.011507987976074219,-0.23013079166412354
1695713697555426600,21.441426513671875,-0.6201848983764648,-0.02612018585205078,-0.3072355389595032
1695713697574499800,21.460499755859374,-0.5724717378616333,-0.06260204315185547,-0.2906569242477417
1695713697593573400,21.479573486328125,-0.7081187963485718,0.011279106140136719,-0.23543977737426758
1695713697612677400,21.498677490234375,-0.9194793701171875,0.08302783966064453,-0.32523423433303833
1695713697631781400,21.517781494140625,-0.691169261932373,0.08397293090820312,-0.1398189663887024
1695713697650855000,21.53685498046875,-0.5493205785751343,0.11704540252685547,0.11692965030670166
1695713697669959000,21.555958984375,-1.0027235746383667,0.16902446746826172,0.14681118726730347
1695713697689032400,21.575032470703125,-0.8873680830001831,0.08136177062988281,0.09750139713287354
1695713697708136400,21.594136474609375,-0.7772879600524902,0.050757408142089844,-0.10287809371948242
1695713697727210000,21.6132099609375,-0.7190113067626953,0.0061016082763671875,-0.16408497095108032
1695713697746314000,21.63231396484375,-0.6183027029037476,-0.03032398223876953,-0.007390320301055908
1695713697765418000,21.65141796875,-0.6333564519882202,-0.02413463592529297,0.1373656988143921
1695713697784491500,21.670491455078125,-0.6134908199310303,-0.03589916229248047,0.15104562044143677
1695713697803626000,21.6896259765625,-0.5944386720657349,0.01616382598876953,0.13159066438674927
1695713697822699500,21.708699462890625,-0.685030460357666,0.030101776123046875,0.01892024278640747
1695713697841803500,21.727803466796875,-0.7809768915176392,0.06307029724121094,-0.04414266347885132
1695713697860876800,21.746876708984374,-0.7582436800003052,0.027437210083007812,-0.06178998947143555
1695713697879980800,21.765980712890624,-0.678193211555481,0.05708503723144531,0.018835127353668213
1695713697899084800,21.785084716796874,-0.7077754735946655,0.07724285125732422,0.002398967742919922
1695713697918158300,21.804158447265625,-0.5801292657852173,0.00263214111328125,0.05445528030395508
1695713697937262300,21.823262451171875,-0.5475190877914429,0.009674072265625,0.03188669681549072
1695713697956335900,21.8423359375,-0.5800559520721436,-0.015343666076660156,-0.06654113531112671
1695713697975440000,21.86143994140625,-0.5813370943069458,-0.006003379821777344,-0.11310917139053345
1695713697994513400,21.880513427734375,-0.4725574254989624,0.03296375274658203,-0.2505655884742737
1695713698013617400,21.899617431640625,-0.5310142040252686,0.015016555786132812,-0.27361756563186646
1695713698032721400,21.918721435546875,-1.207350254058838,0.8487520217895508,0.4012397527694702
1695713698051795000,21.937794921875,-0.16675901412963867,-0.32540321350097656,-1.5545823574066162
1695713698070899000,21.95689892578125,1.1304651498794556,-1.6784210205078125,-2.705650806427002
1695713698090003000,21.9760029296875,-1.0958971977233887,0.2743663787841797,-0.5362220406532288
1695713698109107000,21.99510693359375,-1.9281589984893799,1.7355022430419922,1.1168521642684937
1695713698128180500,22.014180419921875,-0.36131417751312256,0.3489341735839844,0.9469150304794312
1695713698147284500,22.033284423828125,-0.27655482292175293,-1.061314582824707,-0.34928804636001587
1695713698166388500,22.052388427734375,0.08986115455627441,-0.16837692260742188,-0.6133822798728943
1695713698185461800,22.071461669921874,-0.18729233741760254,0.2719993591308594,-0.38487714529037476
1695713698204565800,22.090565673828124,-1.8380593061447144,0.25057220458984375,0.01781994104385376
1695713698223639300,22.109639404296875,-1.4469488859176636,0.14580917358398438,0.1682867407798767
1695713698242743300,22.128743408203125,-0.35451292991638184,-0.16874313354492188,-0.08646118640899658
1695713698261816800,22.14781689453125,-0.4208698272705078,-0.2329235076904297,-0.15767067670822144
1695713698280920800,22.1669208984375,-0.6444828510284424,0.04938793182373047,0.15828275680541992
1695713698300024800,22.18602490234375,-0.6552069187164307,0.2020549774169922,0.5338979959487915
1695713698319098400,22.205098388671875,-0.8108513355255127,0.07714271545410156,0.36641979217529297
1695713698338202400,22.224202392578125,-0.7378562688827515,0.09973716735839844,0.1574256420135498
1695713698357276000,22.24327587890625,-0.4988147020339966,0.1319112777709961,-0.18445813655853271
1695713698376410400,22.262410400390625,-0.4350701570510864,0.04419708251953125,-0.5003487467765808
1695713698395514400,22.281514404296875,-0.5032656192779541,-0.06607818603515625,-0.4071008563041687
1695713698414588000,22.300587890625,-0.4236234426498413,-0.13483047485351562,-0.10233914852142334
1695713698433692000,22.31969189453125,-0.425173282623291,-0.04606819152832031,0.13286542892456055
1695713698452765400,22.338765380859375,-0.3924063444137573,0.02225971221923828,0.22251468896865845
1695713698471869400,22.357869384765625,-0.3404656648635864,-0.033165931701660156,0.30054038763046265
1695713698490973400,22.376973388671875,-0.4925203323364258,0.021012306213378906,0.301768958568573
1695713698510046700,22.396046630859374,-0.8137893676757812,0.19922351837158203,0.4331275224685669
1695713698529150700,22.415150634765624,-1.2547332048416138,-0.00786590576171875,0.6949855089187622
1695713698548224300,22.434224365234375,-0.5193545818328857,-0.3697385787963867,0.12715774774551392
1695713698567328300,22.453328369140625,0.17768311500549316,0.18286609649658203,-0.2361847162246704
1695713698586401800,22.47240185546875,-0.5908751487731934,0.3646087646484375,0.04027801752090454
1695713698605505800,22.491505859375,-1.8347342014312744,0.04399299621582031,0.27530592679977417
1695713698624579300,22.510579345703125,-0.29752326011657715,-0.2690763473510742,-0.008941650390625
1695713698643683300,22.529683349609375,0.27738523483276367,-0.17363548278808594,-0.19420981407165527
1695713698662848300,22.54884814453125,-0.8321048021316528,0.18859195709228516,-0.2111707329750061
1695713698681891300,22.567891357421875,-0.7671395540237427,0.0968780517578125,-0.09122234582901001
1695713698700995300,22.586995361328125,-0.7322784662246704,0.05166816711425781,0.07383459806442261
1695713698720068900,22.60606884765625,-0.7532206773757935,0.12056446075439453,0.060886383056640625
1695713698739172900,22.6251728515625,-0.5795763731002808,0.034516334533691406,-0.04521411657333374
1695713698758246400,22.644246337890625,-0.4822014570236206,0.00405120849609375,-0.144148588180542
1695713698777350400,22.663350341796875,-0.5804996490478516,0.1842641830444336,0.043731749057769775
1695713698796454400,22.682454345703125,-1.0024663209915161,1.3886375427246094,-0.20136255025863647
1695713698815527700,22.701527587890624,1.2153410911560059,-2.898906707763672,-4.230268955230713
1695713698834631700,22.720631591796874,1.2045483589172363,-0.2767181396484375,0.9927008152008057
1695713698853705200,22.739705322265625,-2.2433390617370605,1.5961065292358398,0.833968997001648
1695713698872809200,22.758809326171875,-2.16843843460083,0.3649406433105469,0.3915364146232605
1695713698891882800,22.7778828125,0.06536376476287842,-0.4442119598388672,0.2598673701286316
1695713698910986800,22.79698681640625,0.8011455535888672,-0.27788543701171875,-0.31447017192840576
1695713698930090800,22.8160908203125,-0.29412782192230225,0.11273860931396484,-0.5341127514839172
1695713698949194800,22.83519482421875,-1.5131490230560303,0.34898948669433594,-0.694203794002533
1695713698968298800,22.854298828125,-1.6417967081069946,0.2508125305175781,0.4934975504875183
1695713698987372300,22.873372314453125,-0.492081880569458,-0.11404800415039062,0.6134445667266846
1695713699006476300,22.892476318359375,-0.22187447547912598,-0.2086505889892578,-0.27556824684143066
1695713699025549800,22.9115498046875,-0.6445194482803345,-0.027515411376953125,-0.45374685525894165
1695713699044653800,22.93065380859375,-0.7538596391677856,0.09428596496582031,-0.047901451587677
1695713699063757800,22.9497578125,-0.7641745805740356,0.10858440399169922,0.11712604761123657
1695713699082831400,22.968831298828125,-0.7125760316848755,0.009203910827636719,0.22720587253570557
1695713699101935400,22.987935302734375,-0.5350922346115112,0.022429466247558594,-0.047354161739349365
1695713699121008600,23.007008544921874,-0.4437065124511719,0.004822731018066406,-0.3948203921318054
1695713699140112600,23.026112548828124,-0.5439170598983765,0.039229393005371094,-0.31060099601745605
1695713699159186200,23.045186279296875,-0.7279635667800903,0.08910942077636719,-0.043507933616638184
1695713699178290200,23.064290283203125,-0.5559132099151611,-0.02550029754638672,0.22413718700408936
1695713699197394200,23.083394287109375,-0.5239821672439575,0.016345977783203125,0.13908565044403076
1695713699216467700,23.1024677734375,-0.5397166013717651,0.050968170166015625,-0.03641700744628906
1695713699235602200,23.121602294921875,-0.46020638942718506,0.017833709716796875,-0.14488732814788818
1695713699254675700,23.14067578125,-0.47647666931152344,-0.016463279724121094,-0.08640843629837036
1695713699273779700,23.15977978515625,-0.534638524055481,-0.0863637924194336,-0.05693715810775757
1695713699292853200,23.178853271484375,-0.4367583990097046,-0.009357452392578125,-0.06938862800598145
1695713699311957200,23.197957275390625,-0.4733923673629761,0.07483291625976562,-0.03472644090652466
1695713699331061200,23.217061279296875,-0.6595839262008667,0.18030452728271484,0.0836637020111084
1695713699350134800,23.236134765625,-1.2796554565429688,1.1874217987060547,0.14561063051223755
1695713699369238800,23.25523876953125,1.0920907258987427,-1.8745250701904297,-2.9960508346557617
1695713699388312300,23.274312255859375,0.7045729160308838,-0.4230318069458008,0.29854118824005127
1695713699407416300,23.293416259765625,-1.7069255113601685,0.9150485992431641,0.22524619102478027
1695713699426520300,23.312520263671875,-1.462054967880249,0.5251131057739258,0.3177782893180847
1695713699445593600,23.331593505859374,-0.9211660623550415,-0.19673824310302734,0.5382639765739441
1695713699464697600,23.350697509765624,0.08422160148620605,-0.40885066986083984,-0.277191698551178
1695713699483771100,23.369771240234375,0.3592334985733032,-0.02501201629638672,-0.6062734723091125
1695713699502875100,23.388875244140625,-0.73279869556427,0.20283985137939453,-0.6149121522903442
1695713699521979100,23.407979248046875,-1.5896997451782227,0.3226737976074219,0.36425960063934326
1695713699541083100,23.427083251953125,-1.0081661939620972,0.1519308090209961,0.9322706460952759
1695713699560187100,23.446187255859375,-0.3926570415496826,0.33151817321777344,0.8766841292381287
1695713699579260700,23.4652607421875,-0.39623403549194336,-0.5703487396240234,0.33966970443725586
1695713699598395100,23.48439501953125,-0.1379774808883667,-0.6358070373535156,-0.27474844455718994
1695713699617438200,23.503438232421875,0.4556698799133301,0.34548377990722656,-0.46208834648132324
1695713699636542200,23.522542236328125,-0.3089921474456787,0.14871978759765625,0.036057472229003906
1695713699655615700,23.54161572265625,-1.7433524131774902,0.052527427673339844,0.21614015102386475
1695713699674719700,23.5607197265625,0.17665541172027588,-0.2199115753173828,0.21219909191131592
1695713699693793000,23.57979296875,0.3308483362197876,-0.14368057250976562,-0.11808943748474121
1695713699712897300,23.598897216796875,-0.981846809387207,0.3036642074584961,-0.10942888259887695
1695713699732001300,23.618001220703125,-0.7862416505813599,0.17642879486083984,0.06965422630310059
1695713699751074600,23.637074462890624,-0.4528690576553345,0.012760162353515625,0.0673404335975647
1695713699770178600,23.656178466796874,-0.6529039144515991,0.0020856857299804688,-0.09101611375808716
1695713699789252000,23.675252197265625,-0.47995686531066895,-0.0354461669921875,-0.23106813430786133
1695713699808386600,23.694386474609374,-0.32300257682800293,-0.02785778045654297,-0.21385526657104492
1695713699827490600,23.713490478515624,-0.3324068784713745,0.008030891418457031,-0.1647120714187622
1695713699846564000,23.732564208984375,-0.49959731101989746,0.008192062377929688,-0.2189948558807373
1695713699865668000,23.751668212890625,-0.39319419860839844,-0.05446147918701172,-0.2989954352378845
1695713699884741600,23.77074169921875,-0.2928190231323242,-0.0400848388671875,-0.23810946941375732
1695713699903845600,23.789845703125,-0.4784787893295288,0.019193649291992188,-0.12313765287399292
1695713699922919200,23.808919189453125,-0.5784651041030884,0.06659889221191406,-0.12590700387954712
1695713699942023200,23.828023193359375,-0.64643394947052,0.07740020751953125,-0.17323613166809082
1695713699961127200,23.847127197265625,-0.6859256029129028,0.10146141052246094,-0.21176952123641968
1695713699980200700,23.86620068359375,-0.6223101615905762,0.04052257537841797,-0.16058683395385742
1695713699999304700,23.8853046875,-0.5870257616043091,-0.004891395568847656,-0.1535370945930481
1695713700018378200,23.904378173828125,-0.6429044008255005,0.026800155639648438,-0.1218680739402771
1695713700037482200,23.923482177734375,-0.518642783164978,0.0065765380859375,-0.08515900373458862
1695713700056555500,23.942555419921874,-0.5225554704666138,0.013659477233886719,-0.05894172191619873
1695713700075659500,23.961659423828124,-0.47987210750579834,-0.011149406433105469,-0.03831404447555542
1695713700094794200,23.980794189453125,-0.420928955078125,-0.013418197631835938,-0.03214031457901001
1695713700113867500,23.999867431640624,-0.42401623725891113,-0.01817607879638672,-0.10566157102584839
