time,seconds_elapsed,z,y,x
1695713676223746800,0.109746826171875,9.050689697265625,1.5329036712646484,0.9378890991210938
1695713676233268200,0.119268310546875,7.187189102172852,1.5185298919677734,1.2439308166503906
1695713676242820400,0.1288203125,5.547979354858398,2.362091064453125,-0.0838470458984375
1695713676252372200,0.138372314453125,3.515287399291992,2.8430137634277344,-1.2442302703857422
1695713676261894000,0.147893798828125,2.0997695922851562,3.466176986694336,-2.09857177734375
1695713676271445800,0.15744580078125,1.4685211181640625,4.3193206787109375,-2.8067798614501953
1695713676280998000,0.166997802734375,0.5773468017578125,3.4473114013671875,-2.2947139739990234
1695713676290549800,0.1765498046875,-1.6958065032958984,0.5590801239013672,-0.0574951171875
1695713676300071200,0.1860712890625,2.1213302612304688,1.3765888214111328,-1.4523506164550781
1695713676309623300,0.195623291015625,6.193601608276367,1.8218765258789062,-2.409404754638672
1695713676319175200,0.205175048828125,6.8035888671875,1.909616470336914,-2.5938682556152344
1695713676328727300,0.214727294921875,3.9824352264404297,1.4595375061035156,-2.253988265991211
1695713676338248700,0.224248779296875,4.5804443359375,1.5589561462402344,-3.151151657104492
1695713676347831300,0.233831298828125,5.4788055419921875,1.679636001586914,-3.6847782135009766
1695713676357383200,0.243383056640625,6.293619155883789,1.6655616760253906,-3.3664588928222656
1695713676366935300,0.252935302734375,6.672428131103516,1.6395092010498047,-3.0340652465820312
1695713676376487200,0.262487060546875,6.200788497924805,1.6655616760253906,-3.203855514526367
1695713676386008800,0.2720087890625,4.887683868408203,1.4071331024169922,-3.0939559936523438
1695713676395560700,0.281560791015625,4.599609375,0.9995765686035156,-2.5986595153808594
1695713676405112800,0.29111279296875,5.771970748901367,0.7294692993164062,-1.954833984375
1695713676414664700,0.300664794921875,8.161911010742188,0.5947151184082031,-1.1151657104492188
1695713676424186400,0.310186279296875,13.063369750976562,-0.3129291534423828,0.5740528106689453
1695713676433738200,0.31973828125,14.798105239868164,-2.3363380432128906,3.4835453033447266
1695713676443290400,0.329290283203125,15.374553680419922,-3.310161590576172,3.9908199310302734
1695713676452842200,0.33884228515625,14.133018493652344,-2.559131622314453,4.447786331176758
1695713676462394400,0.348394287109375,12.605804443359375,-2.478578567504883,5.220676422119141
1695713676471915800,0.357915771484375,10.930660247802734,-2.7106552124023438,5.988775253295898
1695713676481467600,0.367467529296875,9.167476654052734,-2.180023193359375,5.634521484375
1695713676491019800,0.377019775390625,7.332723617553711,-0.3862953186035156,4.203731536865234
1695713676500571600,0.386571533203125,5.636018753051758,1.9757957458496094,2.8615798950195312
1695713676510123800,0.396123779296875,5.993566513061523,2.9070968627929688,1.559854507446289
1695713676519645200,0.405645263671875,8.402372360229492,0.4689445495605469,1.0429973602294922
1695713676529197300,0.415197265625,12.136260986328125,0.196441650390625,1.3565254211425781
1695713676538749200,0.424749267578125,15.155353546142578,-0.12097930908203125,2.1126461029052734
1695713676548301300,0.43430126953125,16.110910415649414,0.016469955444335938,2.0168209075927734
1695713676557822700,0.44382275390625,15.224527359008789,0.9546585083007812,1.9209957122802734
1695713676567374800,0.453374755859375,13.079839706420898,2.288724899291992,1.801513671875
1695713676576926700,0.4629267578125,10.187116622924805,2.629802703857422,2.4713916778564453
1695713676586478800,0.472478759765625,8.509576797485352,1.3694019317626953,3.3877201080322266
1695713676596030700,0.48203076171875,7.771123886108398,0.16110610961914062,3.9572811126708984
1695713676605552000,0.49155224609375,7.168024063110352,-0.7393512725830078,4.619972229003906
1695713676615104300,0.501104248046875,6.236423492431641,-1.6562786102294922,5.110477447509766
1695713676624656100,0.51065625,4.949670791625977,-1.8197803497314453,5.378488540649414
1695713676634238700,0.52023876953125,4.494501113891602,-1.2678871154785156,5.868993759155273
1695713676643790800,0.529790771484375,5.607570648193359,0.2605247497558594,5.964818954467773
1695713676653312300,0.539312255859375,6.677219390869141,3.0846729278564453,4.371126174926758
1695713676662864100,0.548864013671875,16.358558654785156,7.707340240478516,0.3731193542480469
1695713676672416300,0.558416259765625,14.631309509277344,2.6061458587646484,3.0002269744873047
1695713676681968000,0.567968017578125,10.904308319091797,-2.8148651123046875,6.883543014526367
1695713676691489800,0.57748974609375,9.932281494140625,-1.1705646514892578,6.170543670654297
1695713676701041700,0.587041748046875,10.625516891479492,1.1181602478027344,5.349740982055664
1695713676710593800,0.59659375,11.066312789916992,1.6583747863769531,4.055501937866211
1695713676720145700,0.606145751953125,11.035469055175781,1.6251354217529297,2.8160629272460938
1695713676729697800,0.61569775390625,10.618629455566406,-1.0546760559082031,4.522050857543945
1695713676739219200,0.62521923828125,7.320745468139648,-1.066354751586914,3.9141597747802734
1695713676748771300,0.634771240234375,4.094430923461914,0.20123291015625,3.158039093017578
1695713676758323200,0.6443232421875,3.403291702270508,-0.9028530120849609,3.8210296630859375
1695713676767875300,0.653875244140625,5.807605743408203,-0.3838996887207031,5.041004180908203
1695713676777427200,0.66342724609375,10.539873123168945,0.3767127990722656,5.479104995727539
1695713676786948600,0.672948486328125,12.674978256225586,-0.47882652282714844,6.237621307373047
1695713676796500700,0.682500732421875,12.026660919189453,-0.48601341247558594,6.228038787841797
1695713676806052600,0.692052490234375,10.187116622924805,-0.26082420349121094,5.6512908935546875
1695713676815604700,0.701604736328125,7.230010986328125,0.08504486083984375,4.935895919799805
1695713676825156600,0.711156494140625,4.680461883544922,-0.20632362365722656,4.41185188293457
1695713676834678300,0.72067822265625,3.7964744567871094,-0.7156944274902344,4.115093231201172
1695713676844230100,0.730230224609375,3.868043899536133,-1.0070629119873047,4.033941268920898
1695713676853782300,0.7397822265625,4.556488037109375,-1.708383560180664,4.194149017333984
1695713676863334100,0.749334228515625,5.347644805908203,-2.6444759368896484,4.40226936340332
1695713676872855800,0.758855712890625,5.578823089599609,-3.5329551696777344,4.564872741699219
1695713676882407700,0.76840771484375,5.238044738769531,-4.1276702880859375,5.081729888916016
1695713676891959800,0.777959716796875,5.759992599487305,-4.708011627197266,6.024410247802734
1695713676901511700,0.78751171875,6.855993270874023,-4.409456253051758,7.110828399658203
1695713676911063800,0.797063720703125,7.84239387512207,-3.504507064819336,7.972057342529297
1695713676920615700,0.80661572265625,8.297563552856445,-2.8031864166259766,9.706792831420898
1695713676930167800,0.816167724609375,8.523950576782227,-1.4382762908935547,8.924320220947266
1695713676939719700,0.8257197265625,7.327932357788086,-2.1776275634765625,9.685232162475586
1695713676949271800,0.835271728515625,7.2659454345703125,-3.1230030059814453,9.749914169311523
1695713676958823700,0.84482373046875,6.536775588989258,-2.8409175872802734,10.30510139465332
1695713676968345000,0.854344970703125,5.319196701049805,-2.663341522216797,11.096857070922852
1695713676977897200,0.863897216796875,4.678066253662109,-2.3459205627441406,11.991924285888672
1695713676987449000,0.873448974609375,4.5732574462890625,-1.8365497589111328,12.83877944946289
1695713676997001200,0.883001220703125,4.540018081665039,-1.4502544403076172,13.393966674804688
1695713677006553000,0.892552978515625,4.861631393432617,-1.4478588104248047,13.518239974975586
1695713677016074800,0.90207470703125,4.5636749267578125,-1.6562786102294922,13.726360321044922
1695713677025626600,0.911626708984375,4.015674591064453,-1.9572296142578125,14.130922317504883
1695713677035178800,0.9211787109375,3.403291702270508,-2.322263717651367,14.439359664916992
1695713677044730600,0.930730712890625,2.362091064453125,-2.2557849884033203,14.59028434753418
1695713677054252300,0.940252197265625,1.932973861694336,-2.149179458618164,14.55195426940918
1695713677063804200,0.94980419921875,2.2857303619384766,-2.2866287231445312,14.231239318847656
1695713677073356300,0.959356201171875,2.035686492919922,-2.312681198120117,14.056657791137695
1695713677082908200,0.968908203125,1.7781562805175781,-2.333942413330078,13.826976776123047
1695713677092460300,0.978460205078125,1.6901168823242188,-2.6348934173583984,13.566152572631836
1695713677101981700,0.987981689453125,2.2213478088378906,-3.540142059326172,12.90585708618164
1695713677111533600,0.997533447265625,3.284109115600586,-2.9523143768310547,11.589757919311523
1695713677121085700,1.007085693359375,2.7004737854003906,-3.9072723388671875,11.953594207763672
1695713677130637600,1.016637451171875,1.971303939819336,-3.983034133911133,10.76685905456543
1695713677140189700,1.026189697265625,0.031742095947265625,-2.9286575317382812,9.859813690185547
1695713677149711000,1.035711181640625,-2.7585678100585938,-2.4761829376220703,9.537002563476562
1695713677159263200,1.04526318359375,-3.3425025939941406,-2.59686279296875,9.000980377197266
1695713677168815000,1.054815185546875,-4.7553253173828125,-3.1727123260498047,8.874011993408203
1695713677178367200,1.0643671875,-9.895149230957031,-2.9879493713378906,8.897968292236328
1695713677187888600,1.073888671875,-2.048563003540039,-3.4547977447509766,9.328882217407227
1695713677197440800,1.083440673828125,1.6137561798095703,-5.568342208862305,12.862735748291016
1695713677207023000,1.093023193359375,2.8361263275146484,-6.435260772705078,12.48213005065918
1695713677216575200,1.1025751953125,1.7425212860107422,-5.6273345947265625,10.73811149597168
1695713677226127000,1.112127197265625,1.0229339599609375,-2.329151153564453,8.407463073730469
1695713677235648800,1.121648681640625,0.4201335906982422,-1.1729602813720703,7.878927230834961
1695713677245200600,1.13120068359375,-0.24465370178222656,-2.919374465942383,9.816991806030273
1695713677254752800,1.140752685546875,0.9941864013671875,-3.8147411346435547,11.250177383422852
1695713677264304600,1.1503046875,2.312082290649414,-3.843189239501953,11.491836547851562
1695713677273856800,1.159856689453125,2.767251968383789,-3.5802688598632812,10.963001251220703
1695713677283378200,1.169378173828125,1.7544994354248047,-3.1610336303710938,10.25718879699707
1695713677292930000,1.178929931640625,0.36533355712890625,-2.893321990966797,9.680440902709961
1695713677302482200,1.188482177734375,-0.5426101684570312,-3.952190399169922,8.93869400024414
1695713677312034000,1.198033935546875,-0.4330101013183594,-5.499467849731445,8.407463073730469
1695713677321555700,1.2075556640625,0.5321292877197266,-6.207975387573242,7.919353485107422
1695713677331107600,1.217107666015625,1.5853080749511719,-5.833658218383789,6.907499313354492
1695713677340659700,1.22665966796875,1.9973564147949219,-6.0633392333984375,7.574981689453125
1695713677350211600,1.236211669921875,1.7233562469482422,-5.748313903808594,8.498497009277344
1695713677359763700,1.245763671875,1.420907974243164,-4.893074035644531,9.742727279663086
1695713677369285000,1.25528515625,1.7661781311035156,-4.416643142700195,10.197298049926758
1695713677378837200,1.264837158203125,2.5049304962158203,-4.964044570922852,9.905330657958984
1695713677388389000,1.27438916015625,3.1077308654785156,-5.826471328735352,9.88137435913086
1695713677397941200,1.283941162109375,3.0912609100341797,-6.264871597290039,9.730749130249023
1695713677407493000,1.2934931640625,2.3309478759765625,-6.086996078491211,8.905155181884766
1695713677417014500,1.3030146484375,1.3349647521972656,-5.961524963378906,8.163707733154297
1695713677426566700,1.312566650390625,0.21979904174804688,-6.338237762451172,7.751958847045898
1695713677436118500,1.322118408203125,-0.5117664337158203,-5.871389389038086,7.993618011474609
1695713677445670700,1.331670654296875,-1.276571273803711,-4.945178985595703,8.484123229980469
1695713677455222500,1.341222412109375,-1.0834236145019531,-5.506654739379883,8.316728591918945
1695713677464744200,1.350744140625,-0.24944496154785156,-5.106285095214844,7.201562881469727
1695713677474326500,1.360326416015625,1.6472949981689453,-4.817012786865234,6.139400482177734
1695713677483939600,1.369939697265625,3.1673221588134766,-5.016149520874023,5.797124862670898
1695713677493552600,1.379552734375,3.3748435974121094,-5.20330810546875,5.816289901733398
1695713677503165700,1.389165771484375,3.684478759765625,-5.184442520141602,4.986204147338867
1695713677512778800,1.39877880859375,4.361244201660156,-5.684230804443359,4.703819274902344
1695713677522391800,1.408391845703125,3.694061279296875,-5.800418853759766,4.289974212646484
1695713677532004900,1.4180048828125,2.407308578491211,-5.684230804443359,3.7156219482421875
1695713677541648400,1.4276484375,0.24375534057617188,-6.207975387573242,2.7705459594726562
1695713677560172500,1.446172607421875,-1.9105148315429688,-9.23365592956543,1.7751617431640625
1695713677569755100,1.455755126953125,-0.22818374633789062,-7.8073577880859375,2.993040084838867
1695713677579337700,1.465337646484375,1.2897472381591797,-6.347820281982422,3.8518733978271484
1695713677588889600,1.4748896484375,1.6041736602783203,-5.802814483642578,3.930929183959961
1695713677598411000,1.484410888671875,2.1213302612304688,-5.689022064208984,3.519479751586914
1695713677607963100,1.493963134765625,3.105335235595703,-5.930681228637695,3.0529308319091797
1695713677617515000,1.503514892578125,3.4341354370117188,-5.800418853759766,2.1674461364746094
1695713677627067100,1.513067138671875,0.1365509033203125,-5.198516845703125,0.7366561889648438
1695713677636619000,1.522618896484375,-7.969961166381836,-5.821680068969727,-1.5505714416503906
1695713677646140700,1.532140625,-6.747591018676758,-5.591999053955078,-2.6534595489501953
1695713677655692500,1.541692626953125,-1.4146194458007812,-5.269786834716797,-2.4501304626464844
1695713677665244700,1.55124462890625,2.214160919189453,-4.899961471557617,-1.4978675842285156
1695713677674796500,1.560796630859375,-3.6308765411376953,-6.404716491699219,-3.6416568756103516
1695713677684318200,1.570318115234375,-4.858037948608398,-7.065610885620117,-3.483844757080078
1695713677693870000,1.5798701171875,-1.602975845336914,-5.6321258544921875,-1.3951549530029297
1695713677703422200,1.589422119140625,4.511270523071289,-7.179403305053711,-1.8449344635009766
1695713677712974000,1.59897412109375,-2.806180953979492,-3.7746143341064453,-0.33748435974121094
1695713677722526200,1.608526123046875,-1.7005977630615234,-2.6184234619140625,0.3587455749511719
1695713677732047600,1.618047607421875,-0.8214015960693359,-3.9237422943115234,0.13864707946777344
1695713677741599500,1.627599609375,-4.612485885620117,-3.464080810546875,-1.959625244140625
1695713677751151600,1.637151611328125,-3.108928680419922,-2.2866287231445312,-4.764009475708008
1695713677760703500,1.646703369140625,-1.262197494506836,-4.43101692199707,-1.2729778289794922
1695713677770255600,1.656255615234375,-0.023057937622070312,-5.603677749633789,-1.0337142944335938
1695713677779807500,1.665807373046875,-2.0105323791503906,-5.565946578979492,-3.0580215454101562
1695713677789359600,1.675359619140625,-7.505208969116211,-7.333322525024414,-4.543910980224609
1695713677798911500,1.684911376953125,-11.546636581420898,-18.422094345092773,-8.55150032043457
1695713677808463600,1.694463623046875,-12.197050094604492,-35.06214141845703,-12.032649993896484
1695713677817985000,1.703985107421875,-7.226417541503906,-43.84781265258789,-12.178783416748047
1695713677827537200,1.713537109375,-2.3629894256591797,-38.64720153808594,-5.491382598876953
1695713677837089000,1.723089111328125,-2.663341522216797,-23.078001022338867,1.0693492889404297
1695713677846641200,1.73264111328125,-2.7681503295898438,-11.432544708251953,4.361543655395508
1695713677856193000,1.742193115234375,-1.4029407501220703,-5.418914794921875,5.5386962890625
1695713677865714700,1.751714599609375,0.6845512390136719,-3.184690475463867,5.58660888671875
1695713677875266600,1.7612666015625,3.0029220581054688,-2.7771339416503906,5.098499298095703
1695713677884818700,1.770818603515625,4.1228790283203125,-3.893198013305664,4.000402450561523
1695713677894370600,1.78037060546875,1.88775634765625,-5.153598785400391,2.4282703399658203
1695713677903922700,1.789922607421875,-1.266988754272461,-6.122631072998047,1.1412181854248047
1695713677913444000,1.799444091796875,-3.030172348022461,-6.888034820556641,0.24405479431152344
1695713677922996000,1.808995849609375,-3.6736984252929688,-7.463584899902344,-0.28957176208496094
1695713677932548000,1.818548095703125,-3.7141246795654297,-7.887910842895508,-0.4952964782714844
1695713677942100000,1.828099853515625,-3.4305419921875,-8.276302337646484,-0.42612266540527344
1695713677951652000,1.837652099609375,-3.2972850799560547,-8.366437911987305,-0.148529052734375
1695713677961173500,1.847173583984375,-3.5069026947021484,-7.970859527587891,0.2533378601074219
1695713677970725600,1.8567255859375,-3.540142059326172,-7.849880218505859,0.23447227478027344
1695713677980277500,1.866277587890625,-3.771320343017578,-7.679191589355469,0.19135093688964844
1695713677989829600,1.87582958984375,-4.119285583496094,-7.570489883422852,0.07396507263183594
1695713677999351000,1.88535107421875,-4.631650924682617,-8.027755737304688,-0.23207664489746094
1695713678008903200,1.894903076171875,-5.406038284301758,-8.186466217041016,-0.22968101501464844
1695713678018455000,1.904455078125,-5.887260437011719,-8.271810531616211,-0.6534080505371094
1695713678028007200,1.914007080078125,-5.551273345947266,-9.176759719848633,-2.3330440521240234
1695713678037559000,1.92355908203125,-6.852399826049805,-11.081884384155273,-3.86175537109375
1695713678047080400,1.93308056640625,-8.539522171020508,-13.067262649536133,-4.0054931640625
1695713678056632600,1.942632568359375,-8.04153060913086,-13.94645881652832,-3.560504913330078
1695713678066215200,1.952215087890625,-6.499643325805664,-14.275558471679688,-2.6726245880126953
1695713678075767000,1.96176708984375,-5.608469009399414,-13.311317443847656,-1.0912094116210938
1695713678085319200,1.971319091796875,-5.806407928466797,-11.072301864624023,1.3637123107910156
1695713678094840600,1.980840576171875,-5.601282119750977,-7.982538223266602,2.0695247650146484
1695713678104392400,1.990392333984375,-4.986503601074219,-5.276674270629883,2.483369827270508
1695713678113944600,1.999944580078125,-4.636442184448242,-3.2700347900390625,2.7082595825195312
1695713678123496400,2.009496337890625,-4.212116241455078,-2.40521240234375,2.7825241088867188
1695713678133048600,2.019048583984375,-3.6569290161132812,-2.791208267211914,2.7968978881835938
1695713678142570000,2.028570068359375,-3.0469417572021484,-4.257932662963867,2.5288867950439453
1695713678152122000,2.0381220703125,-2.57769775390625,-6.904504776000977,1.5191287994384766
1695713678161674000,2.047674072265625,-2.5369720458984375,-10.849508285522461,-0.023956298828125
1695713678171226000,2.05722607421875,-3.6856765747070312,-15.469779968261719,-1.5026588439941406
1695713678180747500,2.06674755859375,-4.476833343505859,-20.220613479614258,-2.2515926361083984
1695713678190299600,2.076299560546875,-2.810972213745117,-24.158430099487305,-1.6224403381347656
1695713678199851500,2.0858515625,-0.36862754821777344,-25.57754135131836,-0.114990234375
1695713678209403600,2.095403564453125,-0.1422405242919922,-21.34596061706543,1.2079963684082031
1695713678218955500,2.10495556640625,-4.662494659423828,-11.669412612915039,1.3661079406738281
1695713678228477000,2.114476806640625,-7.841196060180664,-3.91925048828125,0.6291522979736328
1695713678238029000,2.124029052734375,-5.713277816772461,1.1894302368164062,0.22728538513183594
1695713678247581000,2.133580810546875,2.3644866943359375,3.6793880462646484,-0.1724853515625
1695713678257133000,2.143133056640625,8.85993766784668,3.6533355712890625,0.3132286071777344
1695713678266685000,2.152684814453125,10.627912521362305,0.2605247497558594,1.0094585418701172
1695713678276206600,2.16220654296875,7.601932525634766,-4.937992095947266,0.12427330017089844
1695713678285758500,2.171758544921875,0.8750038146972656,-10.693193435668945,-3.373645782470703
1695713678295310600,2.181310546875,-5.6896209716796875,-15.484153747558594,-7.486642837524414
1695713678304862500,2.190862548828125,-7.169221878051758,-18.06903839111328,-9.879278182983398
1695713678314384100,2.200384033203125,-3.306568145751953,-17.140132904052734,-9.651992797851562
1695713678323936000,2.20993603515625,0.9037513732910156,-13.598194122314453,-6.438854217529297
1695713678333488000,2.219488037109375,3.1316871643066406,-9.672056198120117,-2.732515335083008
1695713678343040000,2.2290400390625,3.279317855834961,-7.195873260498047,-0.00958251953125
1695713678352622600,2.23862255859375,2.1380996704101562,-6.177131652832031,1.4236030578613281
1695713678362144000,2.24814404296875,-0.37102317810058594,-6.302602767944336,1.9188995361328125
1695713678371696000,2.257696044921875,-2.6157283782958984,-6.9257659912109375,1.3708992004394531
1695713678381248000,2.267248046875,-4.445690155029297,-7.999307632446289,0.10510826110839844
1695713678390800100,2.276800048828125,-4.672077178955078,-8.951570510864258,-1.2011089324951172
1695713678400352000,2.28635205078125,-2.8277416229248047,-9.764287948608398,-1.9716033935546875
1695713678409873400,2.295873291015625,0.15781211853027344,-10.363794326782227,-2.3282527923583984
1695713678419425500,2.305425537109375,2.867269515991211,-10.292823791503906,-2.349813461303711
1695713678428977400,2.314977294921875,3.9036788940429688,-10.079612731933594,-2.07940673828125
1695713678438529500,2.324529541015625,3.5820655822753906,-9.24533462524414,-1.9332733154296875
1695713678448081400,2.334081298828125,2.223743438720703,-8.423334121704102,-1.713174819946289
1695713678457603000,2.34360302734375,0.7725906372070312,-8.155622482299805,-1.5865058898925781
1695713678467155000,2.353155029296875,0.029346466064453125,-8.259832382202148,-1.2514171600341797
1695713678476707000,2.36270703125,0.114990234375,-8.342781066894531,-1.4283943176269531
1695713678486259000,2.372259033203125,0.2745990753173828,-8.67218017578125,-1.6176490783691406
1695713678495780600,2.381780517578125,0.49619483947753906,-8.95396614074707,-1.7155704498291016
1695713678505332500,2.39133251953125,0.8085250854492188,-9.22407341003418,-1.6607704162597656
1695713678514884600,2.400884521484375,0.7013206481933594,-9.266895294189453,-1.7251529693603516
1695713678524436500,2.4104365234375,0.5273380279541016,-9.207603454589844,-1.6008796691894531
1695713678533988600,2.419988525390625,0.35335540771484375,-9.03451919555664,-1.5266151428222656
1695713678543510000,2.429510009765625,0.2581291198730469,-8.921026229858398,-1.3089122772216797
1695713678553062000,2.439061767578125,0.1221771240234375,-9.025236129760742,-1.2490215301513672
1695713678562614000,2.448614013671875,0.012577056884765625,-9.098602294921875,-1.2346477508544922
1695713678572166000,2.458165771484375,0.05300331115722656,-9.24323844909668,-1.4023418426513672
1695713678581718000,2.467718017578125,-0.12337493896484375,-9.48489761352539,-1.4954719543457031
1695713678591239400,2.477239501953125,-0.4186363220214844,-9.797527313232422,-1.5841102600097656
1695713678600791600,2.48679150390625,-0.7046146392822266,-10.093687057495117,-1.722757339477539
1695713678610343400,2.496343505859375,-1.0334148406982422,-10.444347381591797,-1.7491092681884766
1695713678619895600,2.5058955078125,-1.2337493896484375,-10.340137481689453,-1.919198989868164
1695713678629447400,2.515447509765625,-1.300527572631836,-10.295219421386719,-2.1297149658203125
1695713678638999600,2.52499951171875,-1.0406017303466797,-10.162561416625977,-2.239614486694336
1695713678648551400,2.534551513671875,-0.6426277160644531,-10.314085006713867,-2.330648422241211
1695713678658103600,2.544103515625,-0.24944496154785156,-10.432668685913086,-2.359395980834961
1695713678667655400,2.553655517578125,-0.03743171691894531,-10.453929901123047,-2.3282527923583984
1695713678677177000,2.563177001953125,0.024555206298828125,-10.23592758178711,-2.620220184326172
1695713678686729000,2.57272900390625,0.32939910888671875,-10.323667526245117,-3.2877025604248047
1695713678696281000,2.582281005859375,0.5533905029296875,-10.088895797729492,-3.99591064453125
1695713678705833000,2.5918330078125,0.5369205474853516,-10.243114471435547,-4.299856185913086
1695713678715385000,2.601385009765625,0.17458152770996094,-10.86837387084961,-4.074666976928711
1695713678724906500,2.610906494140625,-0.37581443786621094,-11.659830093383789,-3.715921401977539
1695713678734458400,2.620458251953125,-0.8214015960693359,-12.565078735351562,-3.8401947021484375
1695713678744010500,2.630010498046875,-0.9429798126220703,-13.500871658325195,-4.409755706787109
1695713678753562400,2.639562255859375,-0.3186187744140625,-13.934480667114258,-4.955360412597656
1695713678763114500,2.649114501953125,0.9013557434082031,-13.714082717895508,-5.225767135620117
1695713678772636000,2.658635986328125,2.312082290649414,-13.216690063476562,-5.354831695556641
1695713678782188000,2.66818798828125,3.1221046447753906,-12.652519226074219,-4.644227981567383
1695713678791740000,2.677739990234375,3.050535202026367,-12.003303527832031,-3.155942916870117
1695713678801292000,2.6872919921875,2.5693130493164062,-11.380439758300781,-1.6607704162597656
1695713678810813400,2.6968134765625,2.042573928833008,-10.600662231445312,-0.28957176208496094
1695713678820365600,2.706365478515625,1.6137561798095703,-10.484773635864258,1.2391395568847656
1695713678829917400,2.71591748046875,1.2349472045898438,-11.100749969482422,2.3830528259277344
1695713678839469600,2.725469482421875,0.8202037811279297,-11.275930404663086,2.7729415893554688
1695713678849021400,2.735021484375,0.4009685516357422,-11.797279357910156,2.6819076538085938
1695713678858542800,2.74454296875,0.19853782653808594,-12.309045791625977,2.3207664489746094
1695713678868095000,2.754094970703125,0.036533355712890625,-12.654914855957031,1.8997344970703125
1695713678877646800,2.763646728515625,-0.04461860656738281,-13.08403205871582,1.5718326568603516
1695713678887199000,2.773198974609375,0.07935523986816406,-13.723665237426758,1.3181953430175781
1695713678896750800,2.782750732421875,-0.4378013610839844,-14.240222930908203,0.9235153198242188
1695713678906272500,2.7922724609375,-2.1893062591552734,-13.815896987915039,0.4090538024902344
1695713678915824400,2.801824462890625,-1.5361976623535156,-12.84446907043457,0.04042625427246094
1695713678925407000,2.811406982421875,1.080129623413086,-12.278202056884766,-0.27280235290527344
1695713678934958800,2.820958740234375,2.268960952758789,-12.287784576416016,-0.47403526306152344
1695713678944480500,2.83048046875,3.1816959381103516,-12.022468566894531,-0.6917381286621094
1695713678954032400,2.840032470703125,2.3596954345703125,-11.067510604858398,-1.0720443725585938
1695713678963584500,2.84958447265625,0.34856414794921875,-9.586711883544922,-1.3831768035888672
1695713678973136400,2.859136474609375,-1.0834236145019531,-8.193353652954102,-1.809000015258789
1695713678982688500,2.8686884765625,-2.277345657348633,-7.215038299560547,-1.8401432037353516
1695713678992210000,2.8782099609375,-2.7945022583007812,-6.9353485107421875,-1.3376598358154297
1695713679001762000,2.887761962890625,-2.479776382446289,-7.037162780761719,-0.7489337921142578
1695713679011314000,2.89731396484375,-1.652984619140625,-6.977870941162109,-0.16290283203125
1695713679020866000,2.906865966796875,-1.1145668029785156,-6.722137451171875,0.2868766784667969
1695713679030418000,2.91641796875,-0.780975341796875,-6.563426971435547,0.6794605255126953
1695713679039939300,2.925939208984375,-0.6450233459472656,-6.2885284423828125,1.0166454315185547
1695713679049491500,2.935491455078125,-0.6498146057128906,-5.779157638549805,1.2511177062988281
1695713679059043300,2.945043212890625,-0.5545883178710938,-5.359622955322266,1.2607002258300781
1695713679068595500,2.954595458984375,-0.4926013946533203,-5.008962631225586,1.1939220428466797
1695713679078147300,2.964147216796875,-0.7405490875244141,-4.566070556640625,1.0429973602294922
1695713679087669000,2.9736689453125,-1.0310192108154297,-4.056400299072266,0.8636245727539062
1695713679097220900,2.983220947265625,-1.21697998046875,-3.5826644897460938,0.5716571807861328
1695713679106773000,2.99277294921875,-1.662567138671875,-3.2248172760009766,0.3012504577636719
1695713679116324900,3.002324951171875,-2.2153587341308594,-3.063711166381836,0.19853782653808594
1695713679125846500,3.011846435546875,-2.746889114379883,-3.130189895629883,0.24405479431152344
1695713679135398400,3.0213984375,-3.1352806091308594,-3.341005325317383,0.4138450622558594
1695713679144950500,3.030950439453125,-3.359272003173828,-3.7581443786621094,0.6219654083251953
1695713679154502400,3.04050244140625,-3.5760765075683594,-4.1276702880859375,0.6483173370361328
1695713679164054500,3.050054443359375,-3.9429073333740234,-4.511569976806641,0.6243610382080078
1695713679173576000,3.059575927734375,-4.514863967895508,-5.129941940307617,0.5141620635986328
1695713679183127800,3.0691279296875,-5.332073211669922,-6.0753173828125,0.2629203796386719
1695713679192680000,3.078679931640625,-6.128021240234375,-7.520481109619141,0.06917381286621094
1695713679202231800,3.088231689453125,-6.9928436279296875,-9.389970779418945,-0.186859130859375
1695713679211784000,3.097783935546875,-8.177183151245117,-11.745174407958984,-0.8926715850830078
1695713679221335800,3.107335693359375,-8.844366073608398,-14.609748840332031,-2.364187240600586
1695713679230888000,3.116887939453125,-8.112800598144531,-17.1236629486084,-3.9456024169921875
1695713679240439800,3.126439697265625,-8.339187622070312,-18.737119674682617,-4.247152328491211
1695713679249992000,3.135991943359375,-10.271562576293945,-18.72783660888672,-3.411975860595703
1695713679259543800,3.145543701171875,-11.093862533569336,-16.76342010498047,-1.6248359680175781
1695713679269065500,3.1550654296875,-8.741952896118164,-12.960657119750977,0.4186363220214844
1695713679278617300,3.164617431640625,-4.629255294799805,-7.653139114379883,1.7176666259765625
1695713679288169500,3.17416943359375,-3.1469593048095703,-3.1822948455810547,3.258655548095703
1695713679297721300,3.183721435546875,-4.083650588989258,-0.9738235473632812,4.715797424316406
1695713679307243000,3.193242919921875,-4.233676910400391,-1.1657733917236328,5.462335586547852
1695713679316795000,3.202794921875,-5.179651260375977,-3.606321334838867,4.885587692260742
1695713679326347000,3.212346923828125,-6.344825744628906,-7.494428634643555,3.253864288330078
1695713679335899000,3.22189892578125,-7.88641357421875,-12.745050430297852,1.7080841064453125
1695713679345451000,3.231450927734375,-7.345600128173828,-18.334354400634766,-0.1365509033203125
1695713679354972400,3.240972412109375,-2.277345657348633,-24.381223678588867,-1.5601539611816406
1695713679364524300,3.250524169921875,6.672428131103516,-26.963712692260742,-0.32311058044433594
1695713679374076400,3.260076416015625,3.2652435302734375,-21.049800872802734,1.1028881072998047
1695713679383628300,3.269628173828125,-6.954813003540039,-9.307022094726562,-2.5124168395996094
1695713679393180400,3.279180419921875,0.19374656677246094,-0.46924400329589844,-4.211217880249023
1695713679402701800,3.288701904296875,8.326311111450195,3.629678726196289,-2.591472625732422
1695713679412254000,3.29825390625,7.618402481079102,3.5089988708496094,0.13625144958496094
1695713679421805800,3.307805908203125,3.658426284790039,0.64202880859375,1.691314697265625
1695713679431358000,3.31735791015625,-1.6601715087890625,-5.167673110961914,-0.0790557861328125
1695713679440879400,3.32687939453125,-2.8564891815185547,-11.034271240234375,-2.4453392028808594
1695713679450431500,3.336431396484375,-1.6793365478515625,-15.140380859375,-4.531932830810547
1695713679459983400,3.3459833984375,-0.2994537353515625,-17.462644577026367,-5.077238082885742
1695713679469535500,3.355535400390625,0.4485816955566406,-18.173248291015625,-4.534328460693359
1695713679479087400,3.36508740234375,1.6377124786376953,-16.576261520385742,-3.175107955932617
1695713679488608800,3.37460888671875,1.089712142944336,-12.787572860717773,-0.8711109161376953
1695713679498191400,3.38419140625,-0.4473838806152344,-9.634025573730469,0.9043502807617188
1695713679507743500,3.393743408203125,-1.5361976623535156,-7.778909683227539,1.7272491455078125
1695713679517295400,3.40329541015625,-1.7841453552246094,-6.752981185913086,1.3924598693847656
1695713679526847500,3.412847412109375,-1.2645931243896484,-6.328655242919922,0.4425926208496094
1695713679536369000,3.422368896484375,-0.24944496154785156,-6.579896926879883,-0.5839347839355469
1695713679545920800,3.431920654296875,0.9277076721191406,-7.338113784790039,-1.4379768371582031
1695713679555473000,3.441472900390625,1.8640995025634766,-8.420938491821289,-1.8449344635009766
1695713679565024800,3.451024658203125,1.956930160522461,-9.122259140014648,-1.794626235961914
1695713679574577000,3.460576904296875,1.2229690551757812,-8.892578125,-1.5817146301269531
1695713679584098300,3.470098388671875,0.3081378936767578,-8.198144912719727,-1.3208904266357422
1695713679593650400,3.479650390625,0.16499900817871094,-7.487541198730469,-1.1031875610351562
1695713679603202300,3.489202392578125,0.4797248840332031,-7.380636215209961,-0.9714279174804688
1695713679612754400,3.49875439453125,0.6797599792480469,-7.738483428955078,-1.0169448852539062
1695713679622275800,3.50827587890625,0.8726081848144531,-8.304750442504883,-1.2633953094482422
1695713679631828000,3.517827880859375,0.8917732238769531,-8.899465560913086,-1.5433845520019531
1695713679641379800,3.5273798828125,0.6965293884277344,-8.937496185302734,-1.6772403717041016
1695713679650932000,3.536931884765625,0.2913684844970703,-8.54191780090332,-1.7203617095947266
1695713679660483800,3.54648388671875,-0.10420989990234375,-8.06069564819336,-1.7778568267822266
1695713679670005200,3.556005126953125,-0.39258384704589844,-7.840297698974609,-1.856912612915039
1695713679679557400,3.565557373046875,-0.4186363220214844,-7.847484588623047,-2.0578460693359375
1695713679689109200,3.575109130859375,-0.4258232116699219,-8.195749282836914,-2.297109603881836
1695713679698661400,3.584661376953125,-0.5450057983398438,-8.724285125732422,-2.373769760131836
1695713679708213200,3.594213134765625,-0.8094234466552734,-9.330678939819336,-2.330648422241211
1695713679717735000,3.60373486328125,-1.0097579956054688,-9.840349197387695,-2.0961761474609375
1695713679727286800,3.613286865234375,-1.0669536590576172,-9.9658203125,-1.6727485656738281
1695713679736839000,3.6228388671875,-0.8309841156005859,-9.89694595336914,-1.2562084197998047
1695713679746390800,3.632390869140625,-0.7689971923828125,-9.979894638061523,-1.1247482299804688
1695713679755943000,3.64194287109375,-0.6926364898681641,-10.112552642822266,-1.3807811737060547
1695713679765464300,3.65146435546875,-0.5806407928466797,-10.392242431640625,-1.689218521118164
1695713679775016400,3.661016357421875,-0.04940986633300781,-10.740507125854492,-1.7443180084228516
1695713679784598800,3.670598876953125,0.6701774597167969,-10.882747650146484,-1.847330093383789
1695713679794151000,3.68015087890625,1.0157470703125,-10.823455810546875,-2.2563838958740234
1695713679803672300,3.68967236328125,0.9157295227050781,-10.814172744750977,-2.8259449005126953
1695713679813224400,3.699224365234375,0.550994873046875,-11.041458129882812,-3.1918773651123047
1695713679822776300,3.7087763671875,-0.08504486083984375,-11.465484619140625,-3.2062511444091797
1695713679832328400,3.718328369140625,-1.1645755767822266,-11.657434463500977,-2.9861526489257812
1695713679841880300,3.72788037109375,-2.212963104248047,-11.915863037109375,-2.543560028076172
1695713679851401700,3.737401611328125,-2.4061107635498047,-12.176387786865234,-2.1273193359375
1695713679860953900,3.746953857421875,-1.63861083984375,-12.522256851196289,-2.349813461303711
1695713679870505700,3.756505615234375,-0.4234275817871094,-13.105293273925781,-3.0963516235351562
1695713679880057900,3.766057861328125,0.7941513061523438,-13.399057388305664,-3.86175537109375
1695713679889609700,3.775609619140625,1.8401432037353516,-13.233160018920898,-4.948173522949219
1695713679899131400,3.78513134765625,2.6956825256347656,-13.197525024414062,-5.486591339111328
1695713679908683300,3.794683349609375,3.2269134521484375,-13.259212493896484,-4.909843444824219
1695713679918235400,3.8042353515625,3.0388565063476562,-12.565078735351562,-3.3999977111816406
1695713679927787300,3.813787353515625,2.2165565490722656,-11.707143783569336,-1.3568248748779297
1695713679937309000,3.823308837890625,1.4637298583984375,-11.70025634765625,1.0286235809326172
1695713679946860800,3.83286083984375,1.2589035034179688,-11.719121932983398,3.1268959045410156
1695713679956413000,3.842412841796875,0.9705295562744141,-12.100625991821289,4.423830032348633
1695713679965964800,3.85196484375,0.48900794982910156,-12.548309326171875,4.730171203613281
1695713679975517000,3.861516845703125,0.20332908630371094,-12.835186004638672,4.266017913818359
1695713679985038300,3.871038330078125,-0.36623191833496094,-13.377796173095703,3.7970733642578125
1695713679994590200,3.880590087890625,-1.0121536254882812,-13.939271926879883,3.031370162963867
1695713680004142300,3.890142333984375,-1.4718151092529297,-14.256692886352539,1.83984375
1695713680013694200,3.899694091796875,-2.4869632720947266,-14.32766342163086,0.5285358428955078
1695713680023246300,3.909246337890625,-3.3425025939941406,-13.825479507446289,-0.46205711364746094
1695713680032767700,3.918767822265625,-1.4649276733398438,-12.889686584472656,-0.9214191436767578
1695713680042320000,3.92831982421875,2.1857128143310547,-12.451286315917969,-0.9977798461914062
1695713680051871700,3.937871826171875,4.158514022827148,-12.745050430297852,-1.0265274047851562
1695713680061423900,3.947423828125,5.195222854614258,-12.287784576416016,-0.9022541046142578
1695713680070975700,3.956975830078125,3.500913619995117,-10.671932220458984,-0.9238147735595703
1695713680080528000,3.96652783203125,1.1585865020751953,-8.781181335449219,-0.9953842163085938
1695713680090079700,3.976079833984375,-0.20662307739257812,-7.402196884155273,-1.5002632141113281
1695713680099631900,3.9856318359375,-1.3313713073730469,-6.629606246948242,-1.5338020324707031
1695713680109183700,3.995183837890625,-2.1249237060546875,-6.371477127075195,-1.0840225219726562
1695713680118705400,4.004705322265625,-2.2345237731933594,-6.380760192871094,-0.5575828552246094
1695713680128257300,4.01425732421875,-2.077310562133789,-6.245706558227539,-0.06707763671875
1695713680137809400,4.023809326171875,-1.9961585998535156,-6.139101028442383,0.5309314727783203
1695713680147361300,4.033361328125,-1.9365673065185547,-6.0681304931640625,1.0765361785888672
1695713680156913400,4.042913330078125,-1.6745452880859375,-5.971107482910156,1.5143375396728516
1695713680166434800,4.052434814453125,-1.1789493560791016,-5.890554428100586,1.7368316650390625
1695713680175986700,4.061986572265625,-0.8166103363037109,-5.712678909301758,1.7823486328125
1695713680185538800,4.071538818359375,-0.4662494659423828,-5.480602264404297,1.7224578857421875
1695713680195090700,4.081090576171875,-0.5069751739501953,-5.08262825012207,1.598184585571289
1695713680204642800,4.090642822265625,-0.7381534576416016,-4.575353622436523,1.473611831665039
1695713680214164200,4.100164306640625,-1.0501842498779297,-4.054304122924805,1.3493385314941406
1695713680223716400,4.10971630859375,-1.3529319763183594,-3.6820831298828125,1.2127876281738281
1695713680233268200,4.119268310546875,-1.7482109069824219,-3.452402114868164,1.1220531463623047
1695713680242820400,4.1288203125,-2.1797237396240234,-3.3338184356689453,1.0382061004638672
1695713680252341800,4.138341796875,-2.8040847778320312,-3.179899215698242,1.0046672821044922
1695713680261894000,4.147893798828125,-3.359272003173828,-3.2721309661865234,1.0957012176513672
1695713680271445800,4.15744580078125,-3.921346664428711,-3.4356327056884766,1.1364269256591797
1695713680280998000,4.166997802734375,-4.448085784912109,-3.601530075073242,1.0717449188232422
1695713680290549800,4.1765498046875,-5.034116744995117,-4.084848403930664,0.9759197235107422
1695713680300071200,4.1860712890625,-5.687225341796875,-4.949670791625977,0.8372726440429688
1695713680309623300,4.195623291015625,-6.201686859130859,-6.300207138061523,0.7845687866210938
1695713680319175200,4.205175048828125,-6.456821441650391,-8.247854232788086,0.7414474487304688
1695713680328727300,4.214727294921875,-7.166826248168945,-10.977375030517578,0.2533378601074219
1695713680338279200,4.224279052734375,-8.117591857910156,-14.680719375610352,-1.0672531127929688
1695713680347800800,4.23380078125,-8.108009338378906,-18.654170989990234,-2.481273651123047
1695713680357383200,4.243383056640625,-8.079561233520508,-22.300918579101562,-2.5028343200683594
1695713680366935300,4.252935302734375,-11.074697494506836,-23.459505081176758,-1.5529670715332031
1695713680376487200,4.262487060546875,-13.08582878112793,-20.530847549438477,0.04042625427246094
1695713680386039300,4.272039306640625,-9.454353332519531,-14.299514770507812,1.7440185546875
1695713680395560700,4.281560791015625,-4.719690322875977,-6.707763671875,2.4857654571533203
1695713680405112800,4.29111279296875,-3.6569290161132812,-0.4527740478515625,3.143665313720703
1695713680414664700,4.300664794921875,-3.9333248138427734,2.4570178985595703,4.249248504638672
1695713680424216800,4.310216796875,-3.638063430786133,3.2152347564697266,4.615180969238281
1695713680433738200,4.31973828125,-3.5973377227783203,1.6868228912353516,4.141445159912109
1695713680443290400,4.329290283203125,-5.043699264526367,-2.2249412536621094,2.5432605743408203
1695713680452842200,4.33884228515625,-8.139152526855469,-8.705419540405273,0.6962299346923828
1695713680462394400,4.348394287109375,-9.356731414794922,-16.81552505493164,-1.780252456665039
1695713680471946200,4.3579462890625,-3.811746597290039,-24.06350326538086,-3.7422733306884766
1695713680481467600,4.367467529296875,9.999059677124023,-29.19584083557129,-2.7828235626220703
1695713680491019800,4.377019775390625,11.35708236694336,-30.193321228027344,1.5670413970947266
1695713680500571600,4.386571533203125,-7.557613372802734,-20.019081115722656,0.5045795440673828
1695713680510123800,4.396123779296875,-2.963693618774414,-5.461736679077148,-3.3760414123535156
1695713680519675600,4.405675537109375,6.765558242797852,2.314777374267578,-2.0770111083984375
1695713680529197300,4.415197265625,7.2611541748046875,4.518157958984375,0.8061294555664062
1695713680538749200,4.424749267578125,3.798870086669922,3.5443344116210938,3.854269027709961
1695713680548301300,4.43430126953125,-2.6348934173583984,-1.2250652313232422,3.0529308319091797
1695713680557853200,4.443853271484375,-3.609315872192383,-7.885515213012695,0.17218589782714844
1695713680567374800,4.453374755859375,-1.6793365478515625,-12.830394744873047,-3.1155166625976562
1695713680576926700,4.4629267578125,-0.349761962890625,-16.507686614990234,-5.15150260925293
1695713680586478800,4.472478759765625,0.007785797119140625,-18.787128448486328,-5.297336578369141
1695713680596030700,4.48203076171875,1.3349647521972656,-18.23733139038086,-4.0174713134765625
1695713680605582800,4.491582763671875,2.3001041412353516,-14.827751159667969,-1.5841102600097656
1695713680615104300,4.501104248046875,1.2373428344726562,-11.382535934448242,0.5381183624267578
1695713680624656100,4.51065625,-0.3329925537109375,-8.667388916015625,1.478403091430664
1695713680634238700,4.52023876953125,-0.8357753753662109,-6.781429290771484,1.2175788879394531
1695713680643790800,4.529790771484375,-0.5354232788085938,-5.781553268432617,0.21051597595214844
1695713680653342700,4.5393427734375,0.06019020080566406,-5.570438385009766,-0.8447589874267578
1695713680662864100,4.548864013671875,0.5773468017578125,-6.132213592529297,-1.3616161346435547
1695713680672416300,4.558416259765625,0.9941864013671875,-7.281217575073242,-1.2130870819091797
1695713680681968000,4.567968017578125,1.1061820983886719,-8.437408447265625,-0.6869468688964844
1695713680691520300,4.577520263671875,0.8773994445800781,-8.901861190795898,-0.32071495056152344
1695713680701072100,4.587072021484375,0.4177379608154297,-8.428125381469727,-0.37581443786621094
1695713680710593800,4.59659375,0.4057598114013672,-7.629482269287109,-0.7204856872558594
1695713680720145700,4.606145751953125,0.8537425994873047,-7.330926895141602,-0.9977798461914062
1695713680729697800,4.61569775390625,1.0681514739990234,-7.764535903930664,-1.0816268920898438
1695713680739249700,4.625249755859375,1.1037864685058594,-8.368833541870117,-1.1870346069335938
1695713680748771300,4.634771240234375,0.9753208160400391,-8.842569351196289,-1.3664073944091797
1695713680758323200,4.6443232421875,0.8393688201904297,-8.95396614074707,-1.4475593566894531
1695713680767875300,4.653875244140625,0.6605949401855469,-8.74315071105957,-1.4262981414794922
1695713680777427200,4.66342724609375,0.4033641815185547,-8.411355972290039,-1.4143199920654297
1695713680786979300,4.672979248046875,0.129364013671875,-8.238571166992188,-1.5242195129394531
1695713680796500700,4.682500732421875,-0.27100563049316406,-8.335594177246094,-1.7347354888916016
1695713680806052600,4.692052490234375,-0.7977447509765625,-8.617679595947266,-1.96441650390625
1695713680815604700,4.701604736328125,-1.2337493896484375,-9.00367546081543,-2.07940673828125
1695713680825156600,4.711156494140625,-1.3957538604736328,-9.558263778686523,-1.890451431274414
1695713680834708700,4.720708740234375,-1.2933406829833984,-10.074821472167969,-1.5433845520019531
1695713680844230100,4.730230224609375,-1.0597667694091797,-10.32606315612793,-1.0936050415039062
1695713680853782300,4.7397822265625,-0.8501491546630859,-10.342533111572266,-0.6653861999511719
1695713680863334100,4.749334228515625,-0.7309665679931641,-10.366189956665039,-0.5360221862792969
1695713680872886300,4.75888623046875,-0.77618408203125,-10.501243591308594,-0.8088245391845703
1695713680882438100,4.768438232421875,-0.9738235473632812,-10.731224060058594,-1.3688030242919922
1695713680891959800,4.777959716796875,-0.7857666015625,-11.112428665161133,-1.7874393463134766
1695713680901511700,4.78751171875,-0.22578811645507812,-11.487045288085938,-1.871286392211914
1695713680911063800,4.797063720703125,0.06019020080566406,-11.51998519897461,-1.895242691040039
1695713680920615700,4.80661572265625,0.034137725830078125,-11.39930534362793,-2.0003509521484375
1695713680930167800,4.816167724609375,-0.1733837127685547,-11.380439758300781,-2.09857177734375
1695713680939719700,4.8257197265625,-0.5045795440673828,-11.404096603393555,-2.0434722900390625
1695713680949271800,4.835271728515625,-0.7165927886962891,-11.25946044921875,-1.837747573852539
1695713680958823700,4.84482373046875,-0.9977798461914062,-11.273534774780273,-1.4523506164550781
1695713680968375800,4.854375732421875,-1.1906280517578125,-11.30916976928711,-1.2250652313232422
1695713680977897200,4.863897216796875,-1.1145668029785156,-11.437036514282227,-1.5936927795410156
1695713680987449000,4.873448974609375,-0.7929534912109375,-12.100625991821289,-2.433361053466797
1695713680997001200,4.883001220703125,-0.1685924530029297,-13.233160018920898,-3.4095802307128906
1695713681006553000,4.892552978515625,0.8893775939941406,-13.851531982421875,-4.237569808959961
1695713681016105200,4.902105224609375,2.1809215545654297,-13.628738403320312,-4.740053176879883
1695713681025626600,4.911626708984375,3.2817134857177734,-13.095710754394531,-4.531932830810547
1695713681035178800,4.9211787109375,3.8560657501220703,-12.70252799987793,-3.483844757080078
1695713681044730600,4.930730712890625,3.5820655822753906,-11.977251052856445,-2.0865936279296875
1695713681054282800,4.94028271484375,2.7648563385009766,-11.247482299804688,-0.7513294219970703
1695713681063804200,4.94980419921875,1.961721420288086,-10.986957550048828,0.9926891326904297
1695713681073356300,4.959356201171875,1.6973037719726562,-11.11961555480957,2.8687667846679688
1695713681082908200,4.968908203125,1.3137035369873047,-11.392118453979492,3.859060287475586
1695713681092460300,4.978460205078125,0.98699951171875,-11.797279357910156,4.136653900146484
1695713681102012200,4.98801220703125,0.6677818298339844,-12.183574676513672,3.964468002319336
1695713681111533600,4.997533447265625,0.22219467163085938,-12.797155380249023,3.6796875
1695713681121085700,5.007085693359375,-0.4521751403808594,-13.249629974365234,3.124500274658203
1695713681130637600,5.016637451171875,-1.698202133178711,-13.522132873535156,2.0743160247802734
1695713681140189700,5.026189697265625,-3.6165027618408203,-13.382287979125977,0.3587455749511719
1695713681149741600,5.035741455078125,-4.369329452514648,-12.816020965576172,-0.40695762634277344
1695713681159263200,5.04526318359375,-2.973276138305664,-12.204835891723633,-0.2036285400390625
1695713681168815000,5.054815185546875,0.2650165557861328,-11.903884887695312,-0.1461334228515625
1695713681178367200,5.0643671875,3.224517822265625,-12.384807586669922,0.17218589782714844
1695713681187919000,5.073919189453125,5.528814315795898,-12.377920150756836,0.6075916290283203
1695713681197440800,5.083440673828125,5.536001205444336,-11.418170928955078,0.7249774932861328
1695713681207023000,5.093023193359375,3.279317855834961,-9.669660568237305,0.4641532897949219
1695713681216575200,5.1025751953125,0.8917732238769531,-8.226593017578125,-0.27040672302246094
1695713681226127000,5.112127197265625,-1.0097579956054688,-7.338113784790039,-0.7441425323486328
1695713681235679200,5.12167919921875,-2.594167709350586,-6.987453460693359,-0.8136157989501953
1695713681245200600,5.13120068359375,-2.994537353515625,-6.670032501220703,-0.6462211608886719
1695713681254752800,5.140752685546875,-2.703767776489258,-6.549053192138672,-0.14373779296875
1695713681264304600,5.1503046875,-2.227336883544922,-6.359498977661133,0.4973926544189453
1695713681273856800,5.159856689453125,-1.7697715759277344,-6.245706558227539,1.2127876281738281
1695713681283378200,5.169378173828125,-1.3765888214111328,-6.174736022949219,1.6724491119384766
1695713681292930000,5.178929931640625,-1.193023681640625,-6.151079177856445,1.8997344970703125
1695713681302482200,5.188482177734375,-1.1549930572509766,-5.911815643310547,1.985677719116211
1695713681312034000,5.198033935546875,-0.9953842163085938,-5.558759689331055,1.9305782318115234
1695713681321586200,5.207586181640625,-0.6306495666503906,-5.089515686035156,1.8087005615234375
1695713681331138000,5.217137939453125,-0.37102317810058594,-4.530435562133789,1.6484928131103516
1695713681340659700,5.22665966796875,-0.5189533233642578,-4.009086608886719,1.5766239166259766
1695713681350211600,5.236211669921875,-1.0334148406982422,-3.6704044342041016,1.598184585571289
1695713681359763700,5.245763671875,-1.7817497253417969,-3.431140899658203,1.602975845336914
1695713681369315600,5.255315673828125,-2.489358901977539,-3.3598709106445312,1.540689468383789
1695713681378837200,5.264837158203125,-3.154146194458008,-3.3979015350341797,1.521524429321289
1695713681388389000,5.27438916015625,-3.6617202758789062,-3.5377464294433594,1.4712162017822266
1695713681397941200,5.283941162109375,-4.104911804199219,-3.7012481689453125,1.2654914855957031
1695713681407493000,5.2934931640625,-4.467250823974609,-4.080356597900391,0.9450759887695312
1695713681417045200,5.303045166015625,-4.881694793701172,-4.907148361206055,0.6722736358642578
1695713681426566700,5.312566650390625,-5.258108139038086,-6.122631072998047,0.4306144714355469
1695713681436118500,5.322118408203125,-5.696807861328125,-7.79058837890625,0.19374656677246094
1695713681445670700,5.331670654296875,-6.504434585571289,-9.942163467407227,-0.167694091796875
1695713681455222500,5.341222412109375,-7.498022079467773,-12.709415435791016,-0.8735065460205078
1695713681464774700,5.350774658203125,-7.43603515625,-15.578781127929688,-1.4978675842285156
1695713681474296000,5.360296142578125,-6.768852233886719,-17.84624481201172,-1.2777690887451172
1695713681483848200,5.36984814453125,-8.353561401367188,-19.016809463500977,-0.4785270690917969
1695713681493430500,5.379430419921875,-11.932632446289062,-18.440959930419922,0.6507129669189453
1695713681502982700,5.388982666015625,-12.05870246887207,-15.747074127197266,1.83984375
1695713681512534500,5.398534423828125,-8.203535079956055,-10.821060180664062,2.8352279663085938
1695713681522056200,5.40805615234375,-4.662494659423828,-5.006567001342773,3.1700172424316406
1695713681531608000,5.417608154296875,-3.0825767517089844,-1.2487220764160156,3.916555404663086
1695713681541160200,5.42716015625,-2.7705459594726562,0.047313690185546875,4.486116409301758
1695713681550712000,5.436712158203125,-3.0756893157958984,-1.3981494903564453,4.33519172668457
1695713681560233700,5.446233642578125,-5.07484245300293,-5.712678909301758,2.9762706756591797
1695713681569785600,5.45578564453125,-9.559162139892578,-12.726184844970703,1.646097183227539
1695713681579337700,5.465337646484375,-11.687080383300781,-20.054716110229492,0.14343833923339844
1695713681588889600,5.4748896484375,-4.736459732055664,-25.37630844116211,-0.6605949401855469
1695713681598441700,5.484441650390625,8.662298202514648,-26.257600784301758,0.5692615509033203
1695713681607963100,5.493963134765625,10.10386848449707,-20.843477249145508,2.997831344604492
1695713681617515000,5.503514892578125,-3.9189510345458984,-10.951322555541992,0.9187240600585938
1695713681627067100,5.513067138671875,-5.105686187744141,-1.938364028930664,-2.6178245544433594
1695713681636619000,5.522618896484375,2.3261566162109375,3.8476810455322266,-3.1107254028320312
1695713681646171100,5.532171142578125,6.257984161376953,5.319196701049805,-1.3783855438232422
1695713681655692500,5.541692626953125,5.052083969116211,3.492229461669922,0.8300857543945312
1695713681665244700,5.55124462890625,0.100616455078125,-2.1351051330566406,0.4689445495605469
1695713681674796500,5.560796630859375,-1.731740951538086,-9.418418884277344,-1.4191112518310547
1695713681684348700,5.5703486328125,-2.389341354370117,-15.168828964233398,-3.7853946685791016
1695713681693870000,5.5798701171875,-1.3670063018798828,-19.2608642578125,-4.799644470214844
1695713681703422200,5.589422119140625,0.2698078155517578,-20.320032119750977,-4.0605926513671875
1695713681712974000,5.59897412109375,2.040477752685547,-19.486053466796875,-2.466899871826172
1695713681722526200,5.608526123046875,3.0816783905029297,-15.555124282836914,0.009283065795898438
1695713681732078000,5.618078125,1.6233386993408203,-11.143272399902344,2.0264034271240234
1695713681741599500,5.627599609375,0.2722034454345703,-7.975351333618164,2.8900279998779297
1695713681751151600,5.637151611328125,-0.3258056640625,-6.037286758422852,3.177204132080078
1695713681760703500,5.646703369140625,-0.9381885528564453,-5.456945419311523,2.631898880004883
1695713681770255600,5.656255615234375,-1.3361625671386719,-6.051660537719727,1.583810806274414
1695713681779807500,5.665807373046875,-1.0693492889404297,-7.307270050048828,0.6650867462158203
1695713681789359600,5.675359619140625,-0.09223175048828125,-8.809629440307617,0.2533378601074219
1695713681798911500,5.684911376953125,0.9941864013671875,-9.946954727172852,0.14583396911621094
1695713681808463600,5.694463623046875,1.5993824005126953,-10.152978897094727,0.018865585327148438
1695713681818015500,5.704015380859375,1.5329036712646484,-9.406740188598633,-0.44049644470214844
1695713681827567600,5.713567626953125,0.9893951416015625,-8.283489227294922,-0.8567371368408203
1695713681837089000,5.723089111328125,0.7845687866210938,-7.527667999267578,-1.0864181518554688
1695713681846641200,5.73264111328125,1.0181427001953125,-7.352487564086914,-1.1939220428466797
1695713681856193000,5.742193115234375,1.406534194946289,-7.657930374145508,-1.1918258666992188
1695713681865745200,5.7517451171875,1.4137210845947266,-8.259832382202148,-0.9786148071289062
1695713681875266600,5.7612666015625,1.080129623413086,-8.709911346435547,-0.9214191436767578
1695713681884818700,5.770818603515625,0.7561206817626953,-8.769203186035156,-1.0217361450195312
1695713681894370600,5.78037060546875,0.48900794982910156,-8.577253341674805,-1.0361099243164062
1695713681903922700,5.789922607421875,0.2865772247314453,-8.283489227294922,-1.0337142944335938
1695713681913474600,5.799474609375,0.15781211853027344,-8.096330642700195,-1.0936050415039062
1695713681922996000,5.808995849609375,0.026950836181640625,-8.072673797607422,-1.1343307495117188
1695713681932548000,5.818548095703125,-0.24944496154785156,-8.202936172485352,-1.1463088989257812
1695713681942100000,5.828099853515625,-0.6785621643066406,-8.513469696044922,-1.1007919311523438
1695713681951652000,5.837652099609375,-1.0262279510498047,-8.861734390258789,-1.0193405151367188
1695713681961204000,5.847203857421875,-1.2193756103515625,-9.23365592956543,-0.9262104034423828
1695713681970725600,5.8567255859375,-1.3861713409423828,-9.643608093261719,-0.7848682403564453
1695713681980277500,5.866277587890625,-1.3241844177246094,-9.949050903320312,-0.6677818298339844
1695713681989829600,5.87582958984375,-1.0025711059570312,-10.114948272705078,-0.6294517517089844
1695713681999381500,5.885381591796875,-0.4282188415527344,-10.311689376831055,-0.7273731231689453
1695713682008933600,5.89493359375,0.36533355712890625,-10.539274215698242,-0.8663196563720703
1695713682018455000,5.904455078125,0.8225994110107422,-10.766559600830078,-1.0313186645507812
1695713682028007200,5.914007080078125,0.7417469024658203,-10.847112655639648,-1.1487045288085938
1695713682037559000,5.92355908203125,0.33898162841796875,-10.816268920898438,-1.4283943176269531
1695713682047111200,5.933111083984375,-0.05180549621582031,-10.833038330078125,-1.8880558013916016
1695713682056632600,5.942632568359375,-0.25663185119628906,-11.060323715209961,-2.263570785522461
1695713682066215200,5.952215087890625,-0.39018821716308594,-11.553224563598633,-2.321065902709961
1695713682075767000,5.96176708984375,-0.7498321533203125,-12.027259826660156,-1.9620208740234375
1695713682085319200,5.971319091796875,-1.2741756439208984,-12.183574676513672,-1.4619331359863281
1695713682094871000,5.98087109375,-1.712575912475586,-12.335098266601562,-1.0217361450195312
1695713682104392400,5.990392333984375,-1.6101627349853516,-12.35186767578125,-0.8806934356689453
1695713682113944600,5.999944580078125,-1.0262279510498047,-12.666893005371094,-1.1175613403320312
1695713682123496400,6.009496337890625,-0.21860122680664062,-13.007970809936523,-1.5936927795410156
1695713682133048600,6.019048583984375,0.8178081512451172,-13.228368759155273,-2.263570785522461
1695713682142600400,6.028600341796875,1.942556381225586,-13.202316284179688,-3.0292739868164062
1695713682152122000,6.0381220703125,2.8957176208496094,-12.94418716430664,-3.131986618041992
1695713682161674000,6.047674072265625,3.5437355041503906,-12.557891845703125,-2.5651206970214844
1695713682171226000,6.05722607421875,3.4533004760742188,-11.83051872253418,-1.5960884094238281
1695713682180778000,6.066778076171875,2.748086929321289,-11.252273559570312,-0.2084197998046875
1695713682190299600,6.076299560546875,2.002147674560547,-11.041458129882812,1.631723403930664
1695713682199851500,6.0858515625,1.6017780303955078,-10.806985855102539,3.6725006103515625
1695713682209403600,6.095403564453125,1.1729602813720703,-10.901613235473633,5.045795440673828
1695713682218955500,6.10495556640625,0.6010036468505859,-11.652643203735352,5.435983657836914
1695713682228507600,6.114507568359375,0.031742095947265625,-12.309045791625977,5.146411895751953
1695713682238029000,6.124029052734375,-0.7498321533203125,-12.998687744140625,4.739753723144531
1695713682247581000,6.133580810546875,-1.4194107055664062,-13.571842193603516,4.105510711669922
1695713682257133000,6.143133056640625,-2.3965282440185547,-14.259088516235352,3.0337657928466797
1695713682266685000,6.152684814453125,-3.921346664428711,-14.086004257202148,1.1627788543701172
1695713682276237000,6.162237060546875,-3.9881248474121094,-13.19512939453125,-0.1365509033203125
1695713682285758500,6.171758544921875,-1.5125408172607422,-12.394390106201172,-0.43330955505371094
1695713682295310600,6.181310546875,1.90692138671875,-12.441703796386719,-0.5695610046386719
1695713682304862500,6.190862548828125,4.299257278442383,-12.835186004638672,-0.41654014587402344
1695713682314414600,6.20041455078125,6.007640838623047,-12.375524520874023,-0.1605072021484375
1695713682323936000,6.20993603515625,4.351661682128906,-10.804590225219727,-0.052703857421875
1695713682333488000,6.219488037109375,2.1548690795898438,-9.236051559448242,-0.119781494140625
1695713682343040000,6.2290400390625,0.2745990753173828,-7.918754577636719,-0.6749687194824219
1695713682352592100,6.238592041015625,-1.583810806274414,-7.006319046020508,-0.7252769470214844
1695713682362174500,6.248174560546875,-2.6157283782958984,-6.670032501220703,-0.5072746276855469
1695713682371696000,6.257696044921875,-2.8181591033935547,-6.584688186645508,-0.10540771484375
1695713682381248000,6.267248046875,-2.644176483154297,-6.399925231933594,0.4306144714355469
1695713682390800100,6.276800048828125,-2.4061107635498047,-6.29571533203125,1.1579875946044922
1695713682400352000,6.28635205078125,-2.077310562133789,-6.371477127075195,1.882965087890625
1695713682409904000,6.295904052734375,-1.7985191345214844,-6.207975387573242,2.5097217559814453
1695713682419425500,6.305425537109375,-1.5053539276123047,-5.961524963378906,2.8208541870117188
1695713682428977400,6.314977294921875,-1.157388687133789,-5.693813323974609,2.7441940307617188
1695713682438529500,6.324529541015625,-0.5545883178710938,-5.338361740112305,2.356700897216797
1695713682448081400,6.334081298828125,-0.1661968231201172,-4.847856521606445,1.863800048828125
1695713682457633500,6.343633544921875,-0.23537063598632812,-4.359746932983398,1.531106948852539
1695713682467155000,6.353155029296875,-0.5974102020263672,-3.8291149139404297,1.3804817199707031
1695713682476707000,6.36270703125,-1.0810279846191406,-3.3386096954345703,1.2607002258300781
1695713682486259000,6.372259033203125,-1.643402099609375,-3.0304718017578125,1.2247657775878906
1695713682495811000,6.38181103515625,-2.1605587005615234,-2.949918746948242,1.2654914855957031
1695713682505332500,6.39133251953125,-2.6369895935058594,-3.111024856567383,1.4116249084472656
1695713682514884600,6.400884521484375,-3.1017417907714844,-3.395505905151367,1.5957889556884766
1695713682524436500,6.4104365234375,-3.7641334533691406,-3.703643798828125,1.574228286743164
1695713682533988600,6.419988525390625,-4.469646453857422,-4.189357757568359,1.454446792602539
1695713682543540500,6.42954052734375,-5.301229476928711,-5.075441360473633,1.3157997131347656
1695713682553062000,6.439061767578125,-6.089990615844727,-6.378664016723633,1.2247657775878906
1695713682562614000,6.448614013671875,-6.540069580078125,-8.179279327392578,1.1555919647216797
1695713682572166000,6.458165771484375,-6.809577941894531,-10.624319076538086,0.8372726440429688
1695713682581718000,6.467718017578125,-7.479156494140625,-14.251901626586914,-0.0934295654296875
1695713682591270000,6.477269775390625,-7.772022247314453,-18.42928123474121,-1.1582870483398438
1695713682600791600,6.48679150390625,-7.30756950378418,-21.75591278076172,-0.7321643829345703
1695713682610343400,6.496343505859375,-8.782379150390625,-22.997447967529297,0.3180198669433594
1695713682619895600,6.5058955078125,-12.05870246887207,-20.869529724121094,1.511941909790039
1695713682629447400,6.515447509765625,-11.112728118896484,-16.057607650756836,3.040952682495117
1695713682638999600,6.52499951171875,-6.506830215454102,-9.437284469604492,4.153423309326172
1695713682648551400,6.534551513671875,-3.3829288482666016,-2.5663185119628906,4.124675750732422
1695713682658103600,6.544103515625,-3.0256805419921875,1.909616470336914,4.000402450561523
1695713682667655400,6.553655517578125,-3.154146194458008,3.2577571868896484,4.024358749389648
1695713682677207600,6.56320751953125,-2.4657020568847656,2.2459030151367188,3.72760009765625
1695713682686729000,6.57272900390625,-3.311359405517578,-1.30322265625,2.5049304962158203
1695713682696281000,6.582281005859375,-6.349617004394531,-7.122507095336914,1.1124706268310547
1695713682705833000,6.5918330078125,-10.459918975830078,-15.176015853881836,-0.42851829528808594
1695713682715385000,6.601385009765625,-9.671157836914062,-23.13968849182129,-2.345022201538086
1695713682724937000,6.61093701171875,1.2373428344726562,-26.928077697753906,-2.153371810913086
1695713682734458400,6.620458251953125,11.154651641845703,-25.674863815307617,2.076711654663086
1695713682744010500,6.630010498046875,-0.6213665008544922,-19.393522262573242,2.921171188354492
1695713682753562400,6.639562255859375,-3.475759506225586,-7.124902725219727,-2.1893062591552734
1695713682763114500,6.649114501953125,4.847257614135742,0.8600311279296875,-2.553142547607422
1695713682772666400,6.658666259765625,8.593124389648438,3.840494155883789,-0.5527915954589844
1695713682782196700,6.66819677734375,5.962423324584961,2.8169612884521484,2.2584800720214844
1695713682791748600,6.67774853515625,-0.1326580047607422,-1.8081016540527344,2.6771163940429688
1695713682801300700,6.68730078125,-3.3685550689697266,-8.295467376708984,0.9474716186523438
1695713682810852600,6.6968525390625,-3.359272003173828,-12.979522705078125,-1.8066043853759766
1695713682820374300,6.706374267578125,-2.658550262451172,-16.31334114074707,-3.4335365295410156
1695713682829926100,6.715926025390625,-1.0717449188232422,-17.384187698364258,-3.2829113006591797
1695713682839478300,6.725478271484375,1.6425037384033203,-16.879608154296875,-2.13690185546875
1695713682849030100,6.735030029296875,3.105335235595703,-14.432172775268555,-0.0550994873046875
1695713682858582300,6.744582275390625,2.36688232421875,-11.536754608154297,1.9497432708740234
1695713682868103700,6.754103759765625,0.8750038146972656,-9.487293243408203,2.9810619354248047
1695713682877655800,6.76365576171875,0.08893775939941406,-8.373624801635742,2.7010726928710938
1695713682887207700,6.773207763671875,-0.4306144714355469,-7.617803573608398,1.3685035705566406
1695713682896759800,6.782759765625,-0.6189708709716797,-7.23869514465332,-0.27998924255371094
1695713682906311700,6.792311767578125,-0.4473838806152344,-7.444719314575195,-1.3304729461669922
1695713682915833000,6.8018330078125,0.1413421630859375,-8.155622482299805,-1.3280773162841797
1695713682925415700,6.811415771484375,1.0085601806640625,-8.868621826171875,-0.6054954528808594
1695713682934967800,6.8209677734375,0.8869819641113281,-9.04410171508789,0.3228111267089844
1695713682944519700,6.830519775390625,0.8633251190185547,-8.506282806396484,0.6914386749267578
1695713682954041000,6.840041015625,0.8297863006591797,-7.688774108886719,0.5740528106689453
1695713682963593200,6.84959326171875,1.1085777282714844,-7.274030685424805,0.3228111267089844
1695713682973145000,6.85914501953125,1.2681865692138672,-7.50880241394043,0.11229515075683594
1695713682982697200,6.868697265625,0.8893775939941406,-8.146039962768555,-0.1317596435546875
1695713682992249000,6.8782490234375,0.7085075378417969,-8.73356819152832,-0.36144065856933594
1695713683001770800,6.887770751953125,0.5725555419921875,-9.157894134521484,-0.5264396667480469
1695713683011322600,6.897322509765625,0.4009685516357422,-9.23365592956543,-0.5767478942871094
1695713683020874800,6.906874755859375,0.22698593139648438,-8.921026229858398,-0.5983085632324219
1695713683030426600,6.916426513671875,-0.03982734680175781,-8.376020431518555,-0.5599784851074219
1695713683039978800,6.925978759765625,-0.29256629943847656,-8.029851913452148,-0.5647697448730469
1695713683049500200,6.935500244140625,-0.5593795776367188,-8.075069427490234,-0.7225818634033203
1695713683059052300,6.94505224609375,-0.8022365570068359,-8.435012817382812,-0.8591327667236328
1695713683068604200,6.954604248046875,-1.0525798797607422,-8.911443710327148,-0.9333972930908203
1695713683078156300,6.96415625,-1.1885318756103516,-9.392366409301758,-0.9190235137939453
1695713683087708200,6.973708251953125,-1.2097930908203125,-9.693317413330078,-0.8303852081298828
1695713683097229600,6.9832294921875,-1.0717449188232422,-9.733444213867188,-0.7013206481933594
1695713683106781700,6.99278173828125,-0.5689620971679688,-9.847236633300781,-0.5815391540527344
1695713683116333600,7.00233349609375,-0.12577056884765625,-10.12692642211914,-0.5192527770996094
1695713683125885700,7.0118857421875,0.019763946533203125,-10.506034851074219,-0.5551872253417969
1695713683135407000,7.021406982421875,0.17937278747558594,-10.97977066040039,-0.42612266540527344
1695713683144959200,7.030959228515625,0.3746166229248047,-11.295095443725586,-0.29196739196777344
1695713683154511000,7.040510986328125,0.5273380279541016,-11.375648498535156,-0.5288352966308594
1695713683164063200,7.050063232421875,0.3770122528076172,-11.301982879638672,-1.1079788208007812
1695713683173615000,7.059614990234375,0.022159576416015625,-11.366065979003906,-1.5290107727050781
1695713683183136800,7.06913671875,-0.39737510681152344,-11.678995132446289,-1.5338020324707031
1695713683192688600,7.078688720703125,-0.9786148071289062,-12.015281677246094,-1.2394390106201172
1695713683202240800,7.08824072265625,-1.648193359375,-12.207231521606445,-0.7776813507080078
1695713683211792600,7.097792724609375,-2.082101821899414,-12.25214958190918,-0.42851829528808594
1695713683221375200,7.107375244140625,-1.9057235717773438,-12.278202056884766,-0.44768333435058594
1695713683230896600,7.116896728515625,-1.2433319091796875,-12.46296501159668,-0.8782978057861328
1695713683240448800,7.12644873046875,-0.4949970245361328,-12.785476684570312,-1.5841102600097656
1695713683250000600,7.136000732421875,0.4677467346191406,-13.249629974365234,-2.359395980834961
1695713683259552800,7.145552734375,1.5733299255371094,-13.26400375366211,-3.0891647338867188
1695713683269104600,7.155104736328125,2.6908912658691406,-13.306526184082031,-3.368854522705078
1695713683278626000,7.1646259765625,3.388917922973633,-13.015157699584961,-2.8903274536132812
1695713683288178200,7.17417822265625,3.3508872985839844,-12.304254531860352,-1.8401432037353516
1695713683297730000,7.18372998046875,2.7600650787353516,-11.425357818603516,-0.45247459411621094
1695713683307282200,7.1932822265625,2.1309127807617188,-10.953718185424805,1.1627788543701172
1695713683316803600,7.202803466796875,1.892547607421875,-10.674327850341797,3.1939735412597656
1695713683326355700,7.212355712890625,1.8401432037353516,-10.441951751708984,4.813718795776367
1695713683335907600,7.221907470703125,1.382577896118164,-10.835433959960938,5.639312744140625
1695713683345459700,7.231459716796875,0.7153949737548828,-11.555620193481445,5.7327423095703125
1695713683355011600,7.241011474609375,-0.08744049072265625,-12.048521041870117,5.352136611938477
1695713683364533200,7.250533203125,-0.75701904296875,-12.600414276123047,4.612785339355469
1695713683374085000,7.260085205078125,-1.67694091796875,-13.022344589233398,3.5985355377197266
1695713683383637200,7.26963720703125,-3.163728713989258,-13.49608039855957,2.3543052673339844
1695713683393189000,7.279189208984375,-4.538520812988281,-13.26400375366211,1.1052837371826172
1695713683402741200,7.2887412109375,-4.214511871337891,-12.617183685302734,0.5405139923095703
1695713683412262700,7.2982626953125,-1.5529670715332031,-12.020072937011719,0.3683280944824219
1695713683421814500,7.307814453125,2.1428909301757812,-12.219209671020508,0.4282188415527344
1695713683431366700,7.31736669921875,4.1204833984375,-12.801946640014648,0.6028003692626953
1695713683440918500,7.32691845703125,5.74561882019043,-12.451286315917969,0.9855022430419922
1695713683450440200,7.336440185546875,4.511270523071289,-11.242990493774414,0.9163284301757812
1695713683459992000,7.345991943359375,2.006938934326172,-9.463336944580078,0.18655967712402344
1695713683469544200,7.355544189453125,0.2937641143798828,-8.049016952514648,-0.7752857208251953
1695713683479096000,7.365095947265625,-1.1145668029785156,-7.191082000732422,-0.8902759552001953
1695713683488648200,7.374648193359375,-2.0961761474609375,-6.688898086547852,-0.6054954528808594
1695713683498200000,7.384199951171875,-2.534576416015625,-6.4945526123046875,0.011678695678710938
1695713683507752200,7.393752197265625,-2.3489151000976562,-6.449634552001953,0.7246780395507812
1695713683517304000,7.403303955078125,-2.053354263305664,-6.444843292236328,1.5622501373291016
1695713683526856200,7.412856201171875,-1.9722023010253906,-6.461612701416016,2.356700897216797
1695713683536408000,7.422407958984375,-1.5673408508300781,-6.359498977661133,2.8400192260742188
1695713683545929700,7.4319296875,-0.9097404479980469,-6.013629913330078,2.8328323364257812
1695713683555481600,7.441481689453125,-0.349761962890625,-5.546781539916992,2.574403762817383
1695713683565033700,7.45103369140625,0.0982208251953125,-5.065858840942383,2.198589324951172
1695713683574585600,7.460585693359375,0.2509422302246094,-4.468748092651367,1.8949432373046875
1695713683584137700,7.4701376953125,-0.10420989990234375,-3.9497947692871094,1.6937103271484375
1695713683593659100,7.4796591796875,-0.7118015289306641,-3.4335365295410156,1.612558364868164
1695713683603211000,7.4892109375,-1.4101276397705078,-3.052032470703125,1.555063247680664
1695713683612763100,7.49876318359375,-1.8865585327148438,-2.9454269409179688,1.4523506164550781
1695713683622315000,7.50831494140625,-2.2989063262939453,-3.0235843658447266,1.4020423889160156
1695713683631836700,7.517836669921875,-2.677715301513672,-3.3434009552001953,1.454446792602539
1695713683641388500,7.527388427734375,-3.058919906616211,-3.762636184692383,1.6245365142822266
1695713683650940700,7.536940673828125,-3.4781551361083984,-4.170192718505859,1.617349624633789
1695713683660492500,7.546492431640625,-3.9977073669433594,-4.7720947265625,1.5574588775634766
1695713683670044700,7.556044677734375,-4.691242218017578,-5.779157638549805,1.507150650024414
1695713683679566000,7.565566162109375,-5.448860168457031,-7.23869514465332,1.5526676177978516
1695713683689118200,7.5751181640625,-6.163656234741211,-9.119863510131836,1.492776870727539
1695713683698670000,7.584670166015625,-7.46478271484375,-11.731100082397461,0.8324813842773438
1695713683708222200,7.59422216796875,-9.013557434082031,-15.02928352355957,-0.5384178161621094
1695713683717774000,7.603774169921875,-9.08033561706543,-18.234935760498047,-1.0361099243164062
1695713683727295500,7.61329541015625,-8.829992294311523,-20.369741439819336,0.09552574157714844
1695713683736847600,7.62284765625,-10.66714096069336,-21.000091552734375,2.0120296478271484
1695713683746399500,7.6323994140625,-12.637845993041992,-18.846120834350586,4.062688827514648
1695713683755951600,7.64195166015625,-9.661575317382812,-13.887166976928711,5.6536865234375
1695713683765473000,7.65147314453125,-5.6608734130859375,-7.504011154174805,5.952840805053711
1695713683775025200,7.661025146484375,-3.380533218383789,-1.9880733489990234,5.397653579711914
1695713683784607500,7.670607421875,-2.4657020568847656,0.5755500793457031,5.373697280883789
1695713683794159600,7.68015966796875,-1.4218063354492188,0.2817859649658203,5.6225433349609375
1695713683803711500,7.68971142578125,-0.9645404815673828,-2.7558727264404297,5.081729888916016
1695713683813233200,7.699233154296875,-3.464080810546875,-7.968463897705078,4.131862640380859
1695713683822785000,7.708784912109375,-6.578399658203125,-14.190513610839844,3.586557388305664
1695713683832337200,7.718337158203125,-7.271635055541992,-20.407772064208984,2.5576343536376953
1695713683841889000,7.727888916015625,-3.90008544921875,-23.454713821411133,0.5237445831298828
1695713683851441200,7.737441162109375,2.1357040405273438,-20.308053970336914,0.4354057312011719
1695713683860962600,7.746962646484375,-2.6253108978271484,-14.586091995239258,0.4138450622558594
1695713683870514700,7.7565146484375,-6.792808532714844,-7.627086639404297,-2.641481399536133
1695713683880066600,7.766066650390625,2.333343505859375,-1.2463264465332031,-3.546131134033203
1695713683889618700,7.77561865234375,8.237972259521484,2.3336429595947266,-2.084197998046875
1695713683899170600,7.785170654296875,7.282415390014648,2.3219642639160156,-0.033538818359375
1695713683908692000,7.79469189453125,2.6169261932373047,-2.032991409301758,0.3994712829589844
1695713683918244000,7.804244140625,-0.6045970916748047,-8.489812850952148,-0.6653861999511719
1695713683927796000,7.8137958984375,-1.4742107391357422,-13.306526184082031,-2.1249237060546875
1695713683937348000,7.82334814453125,-0.1709880828857422,-15.737491607666016,-2.9094924926757812
1695713683946869500,7.832869384765625,1.1421165466308594,-16.405872344970703,-2.5794944763183594
1695713683956421600,7.842421630859375,2.1617565155029297,-16.628366470336914,-1.3544292449951172
1695713683965973500,7.851973388671875,2.0737171173095703,-15.031379699707031,0.3491630554199219
1695713683975525600,7.861525634765625,0.18895530700683594,-12.083856582641602,2.2297325134277344
1695713683985077500,7.871077392578125,-1.1906280517578125,-9.563055038452148,3.3616676330566406
1695713683994599200,7.88059912109375,-2.1201324462890625,-8.200540542602539,3.7012481689453125
1695713684004151000,7.890151123046875,-2.672924041748047,-7.683982849121094,3.031370162963867
1695713684013703200,7.899703125,-2.2509937286376953,-7.5773773193359375,1.7080841064453125
1695713684023255000,7.909255126953125,-1.147806167602539,-7.828619003295898,0.4761314392089844
1695713684032807200,7.91880712890625,0.4318122863769531,-8.356855392456055,-0.4785270690917969
1695713684042328600,7.92832861328125,2.0189170837402344,-8.894674301147461,-0.9594497680664062
1695713684051880400,7.93788037109375,2.7456912994384766,-9.214790344238281,-0.9190235137939453
1695713684061432600,7.9474326171875,2.2596778869628906,-8.913839340209961,-0.7321643829345703
1695713684070984400,7.956984375,1.3637123107910156,-8.224197387695312,-0.6318473815917969
1695713684080536600,7.96653662109375,0.6941337585449219,-7.662721633911133,-0.38539695739746094
1695713684090088400,7.97608837890625,0.3794078826904297,-7.387823104858398,-0.1892547607421875
1695713684099640600,7.985640625,0.4270210266113281,-7.399801254272461,-0.07666015625
1695713684109192400,7.9951923828125,0.8321819305419922,-8.006195068359375,0.08833885192871094
1695713684118744600,8.00474462890625,1.089712142944336,-8.563179016113281,0.17218589782714844
1695713684128266000,8.014265869140624,0.9301033020019531,-8.800046920776367,0.15541648864746094
1695713684137818000,8.023818115234375,0.5321292877197266,-8.842569351196289,0.11469078063964844
1695713684147370000,8.033369873046874,0.1078033447265625,-8.745546340942383,0.13625144958496094
1695713684156922000,8.042922119140625,-0.19704055786132812,-8.584440231323242,0.20812034606933594
1695713684166474000,8.052473876953124,-0.3425750732421875,-8.428125381469727,0.2796897888183594
1695713684175995600,8.06199560546875,-0.5330276489257812,-8.39249038696289,0.22249412536621094
1695713684185547500,8.071547607421875,-0.79534912109375,-8.643732070922852,0.09313011169433594
1695713684195099600,8.081099609375,-1.1549930572509766,-9.072549819946289,-0.1173858642578125
1695713684204651500,8.090651611328125,-1.583810806274414,-9.487293243408203,-0.37581443786621094
1695713684214173000,8.1001728515625,-1.9629192352294922,-9.781057357788086,-0.5503959655761719
1695713684223725000,8.10972509765625,-1.8557147979736328,-10.02511215209961,-0.4761314392089844
1695713684233277000,8.11927685546875,-1.247823715209961,-10.261980056762695,-0.2084197998046875
1695713684242829000,8.1288291015625,-0.6069927215576172,-10.541669845581055,0.03323936462402344
1695713684252381000,8.138380859375,-0.04461860656738281,-10.894725799560547,0.18895530700683594
1695713684261902600,8.147902587890625,0.5677642822265625,-11.25946044921875,0.19374656677246094
1695713684271454500,8.157454345703124,1.0989952087402344,-11.475067138671875,-0.26801109313964844
1695713684281006600,8.167006591796875,1.1421165466308594,-11.602933883666992,-1.1367263793945312
1695713684290558500,8.176558349609374,0.3865947723388672,-11.607725143432617,-1.8880558013916016
1695713684300110600,8.186110595703125,-0.8453578948974609,-11.823331832885742,-1.9332733154296875
1695713684309632000,8.195632080078125,-1.7673759460449219,-12.147939682006836,-1.4763069152832031
1695713684319184100,8.20518408203125,-1.9769935607910156,-12.565078735351562,-0.8998584747314453
1695713684328736000,8.214736083984375,-1.4933757781982422,-12.880104064941406,-0.6174736022949219
1695713684338288000,8.2242880859375,-0.7689971923828125,-13.046001434326172,-0.7944507598876953
1695713684347840000,8.233840087890625,-0.23297500610351562,-13.382287979125977,-1.3113079071044922
1695713684357392100,8.24339208984375,-0.04222297668457031,-13.588611602783203,-1.8593082427978516
1695713684366944000,8.252944091796875,0.5725555419921875,-13.581424713134766,-2.486064910888672
1695713684376496000,8.26249609375,1.7449169158935547,-13.813800811767578,-2.9238662719726562
1695713684386048000,8.272048095703125,3.0768871307373047,-13.737739562988281,-2.8879318237304688
1695713684395569400,8.2815693359375,3.863252639770508,-13.050792694091797,-2.2515926361083984
1695713684405121500,8.29112158203125,3.7225093841552734,-11.98204231262207,-1.0720443725585938
1695713684414673400,8.30067333984375,2.981660842895508,-11.2498779296875,1.0453929901123047
1695713684424225500,8.3102255859375,2.3453216552734375,-10.880352020263672,3.4787540435791016
1695713684433777400,8.31977734375,2.1237258911132812,-10.330554962158203,5.435983657836914
1695713684443299000,8.329299072265625,1.9045257568359375,-10.18621826171875,6.29960823059082
1695713684452851000,8.338850830078124,1.3469429016113281,-10.984561920166016,6.364290237426758
1695713684462403000,8.348403076171875,0.6225643157958984,-11.643360137939453,5.842641830444336
1695713684471955000,8.357954833984374,-0.1398448944091797,-12.105417251586914,4.92152214050293
1695713684481507000,8.367507080078125,-0.9429798126220703,-12.638444900512695,3.969259262084961
1695713684491028500,8.377028564453125,-1.9245891571044922,-13.28526496887207,3.0864696502685547
1695713684500580600,8.38658056640625,-3.464080810546875,-13.560163497924805,2.115041732788086
1695713684510132500,8.396132568359375,-4.3432769775390625,-13.003179550170898,1.4307899475097656
1695713684519684600,8.4056845703125,-3.0373592376708984,-12.098230361938477,1.0190410614013672
1695713684529236500,8.415236572265625,0.560577392578125,-11.581672668457031,0.8756027221679688
1695713684538758000,8.4247578125,3.4413223266601562,-12.259336471557617,0.9307022094726562
1695713684548310000,8.43431005859375,5.495275497436523,-12.460868835449219,1.2702827453613281
1695713684557862000,8.44386181640625,5.864801406860352,-11.870645523071289,1.5095462799072266
1695713684567414000,8.4534140625,3.114917755126953,-10.205083847045898,1.0789318084716797
1695713684576935400,8.462935302734374,0.9321994781494141,-8.39249038696289,-0.27519798278808594
1695713684586487600,8.472487548828125,-0.6902408599853516,-7.300083160400391,-0.8351764678955078
1695713684596039400,8.482039306640624,-1.8413410186767578,-6.686502456665039,-0.7273731231689453
1695713684605591600,8.491591552734375,-2.1366024017333984,-6.321767807006836,-0.35185813903808594
1695713684615143400,8.501143310546874,-1.9889717102050781,-6.229236602783203,0.2964591979980469
1695713684624665000,8.5106650390625,-1.9674110412597656,-6.141496658325195,1.1579875946044922
1695713684634217000,8.520217041015625,-1.8341541290283203,-6.06573486328125,1.937765121459961
1695713684643799600,8.529799560546875,-1.3789844512939453,-5.911815643310547,2.5288867950439453
1695713684653351400,8.539351318359374,-0.8881797790527344,-5.610864639282227,2.7633590698242188
1695713684662903600,8.548903564453125,-0.38300132751464844,-5.305122375488281,2.7465896606445312
1695713684672425000,8.558425048828125,-0.05659675598144531,-4.899961471557617,2.521699905395508
1695713684681977000,8.56797705078125,-0.13056182861328125,-4.466352462768555,2.270458221435547
1695713684691529000,8.577529052734375,-0.40216636657714844,-3.966564178466797,2.0311946868896484
1695713684701081000,8.5870810546875,-0.6546058654785156,-3.5329551696777344,1.76318359375
1695713684710602500,8.5966025390625,-1.1741580963134766,-3.201160430908203,1.559854507446289
1695713684720154400,8.606154296875,-1.7913322448730469,-3.0565242767333984,1.3924598693847656
1695713684729706500,8.61570654296875,-2.365385055541992,-3.032867431640625,1.2535133361816406
1695713684739258400,8.62525830078125,-2.908893585205078,-3.26763916015625,1.3110084533691406
1695713684748810500,8.634810546875,-3.390115737915039,-3.677591323852539,1.5478763580322266
1695713684758332000,8.644331787109374,-3.871337890625,-3.983034133911133,1.5862064361572266
1695713684767884000,8.653884033203125,-4.393285751342773,-4.378911972045898,1.5622501373291016
1695713684777436000,8.663435791015624,-4.979316711425781,-5.234151840209961,1.691314697265625
1695713684786988000,8.672988037109375,-5.6920166015625,-6.525396347045898,2.052755355834961
1695713684796540000,8.682539794921874,-6.1447906494140625,-8.273906707763672,2.4666004180908203
1695713684806061600,8.6920615234375,-6.471195220947266,-10.626714706420898,2.5384693145751953
1695713684815613400,8.701613525390625,-7.231208801269531,-14.083908081054688,1.660470962524414
1695713684825165600,8.71116552734375,-7.9151611328125,-18.253801345825195,0.6531085968017578
1695713684834717400,8.720717529296875,-8.024761199951172,-22.172752380371094,1.0741405487060547
1695713684844238800,8.73023876953125,-9.978696823120117,-24.087459564208984,2.2345237731933594
1695713684853791000,8.739791015625,-13.593402862548828,-22.16796112060547,3.5985355377197266
1695713684863342800,8.7493427734375,-11.751462936401367,-15.896202087402344,4.715797424316406
1695713684872895000,8.75889501953125,-6.468799591064453,-7.520481109619141,4.553194046020508
1695713684882446800,8.76844677734375,-3.940511703491211,-0.46205711364746094,4.309139251708984
1695713684891968500,8.777968505859375,-3.3041725158691406,3.013702392578125,4.696632385253906
1695713684901520400,8.787520263671874,-2.3489151000976562,3.686574935913086,4.619972229003906
1695713684911072500,8.797072509765625,-1.583810806274414,1.5376949310302734,3.7755126953125
1695713684920624400,8.806624267578124,-3.6117115020751953,-3.5730819702148438,3.0481395721435547
1695713684930176500,8.816176513671875,-6.861982345581055,-11.041458129882812,3.0433483123779297
1695713684939728400,8.825728271484374,-8.358352661132812,-19.268051147460938,2.6723251342773438
1695713684949280500,8.835280517578125,-3.9072723388671875,-25.760208129882812,1.7847442626953125
1695713684958832400,8.844832275390624,7.818737030029297,-26.153390884399414,2.7154464721679688
1695713684968384500,8.854384521484375,5.085622787475586,-21.80801773071289,4.445390701293945
1695713684977936400,8.863936279296874,-7.607622146606445,-12.20244026184082,-0.2036285400390625
1695713684987458000,8.8734580078125,-3.6808853149414062,-3.099346160888672,-3.165525436401367
1695713684997010000,8.883010009765625,5.533605575561523,2.755573272705078,-2.4261741638183594
1695713685006562000,8.89256201171875,6.670032501220703,4.037235260009766,-0.5959129333496094
1695713685016114000,8.902114013671875,2.4501304626464844,1.2151832580566406,0.4949970245361328
1695713685025666000,8.911666015625,-0.6165752410888672,-5.001775741577148,-0.22039794921875
1695713685035187500,8.9211875,-0.10900115966796875,-11.38972282409668,-1.1007919311523438
1695713685044739300,8.9307392578125,0.5581817626953125,-15.656938552856445,-2.1153411865234375
1695713685054291500,8.94029150390625,1.2589035034179688,-17.261112213134766,-2.258779525756836
1695713685063843300,8.94984326171875,1.852121353149414,-17.332082748413086,-1.765878677368164
1695713685073365000,8.959364990234375,2.6121349334716797,-16.149839401245117,-0.5216484069824219
1695713685082916900,8.968916748046874,1.6065692901611328,-13.017553329467773,1.3637123107910156
1695713685092469000,8.978468994140625,0.7773818969726562,-10.034395217895508,2.9858531951904297
1695713685102020900,8.988020751953124,-0.3234100341796875,-8.19125747680664,3.641357421875
1695713685111573000,8.997572998046875,-1.5433845520019531,-7.402196884155273,2.935544967651367
1695713685121094400,9.007094482421875,-1.9389629364013672,-7.174612045288086,1.4020423889160156
1695713685130646500,9.016646484375,-1.5221233367919922,-7.468376159667969,0.23686790466308594
1695713685140198400,9.026198486328125,-0.5665664672851562,-8.086748123168945,-0.24645042419433594
1695713685149750500,9.03575048828125,0.7773818969726562,-8.764411926269531,-0.1940460205078125
1695713685159302400,9.045302490234375,1.7661781311035156,-9.290552139282227,0.13625144958496094
1695713685168823800,9.05482373046875,1.892547607421875,-9.198020935058594,0.23686790466308594
1695713685178376000,9.0643759765625,1.401742935180664,-8.548805236816406,0.2581291198730469
1695713685187927800,9.073927734375,1.2157821655273438,-7.823827743530273,0.03563499450683594
1695713685197480000,9.08347998046875,1.034912109375,-7.345300674438477,-0.1269683837890625
1695713685207001300,9.09300146484375,0.8321819305419922,-7.428249359130859,-0.0263519287109375
1695713685216584000,9.102583984375,0.9705295562744141,-7.992120742797852,0.14343833923339844
1695713685226135800,9.1121357421875,1.0373077392578125,-8.473043441772461,0.08833885192871094
1695713685235688000,9.12168798828125,0.9037513732910156,-8.82370376586914,0.0020961761474609375
1695713685245239800,9.13123974609375,0.4677467346191406,-8.859338760375977,-0.0119781494140625
1695713685254761500,9.140761474609375,-0.018566131591796875,-8.650918960571289,-0.038330078125
1695713685264313300,9.150313232421874,-0.4973926544189453,-8.437408447265625,-0.1317596435546875
1695713685273865500,9.159865478515625,-0.8666191101074219,-8.378416061401367,-0.36862754821777344
1695713685283417300,9.169417236328124,-1.0693492889404297,-8.563179016113281,-0.7061119079589844
1695713685292969500,9.178969482421875,-1.193023681640625,-8.939891815185547,-0.9786148071289062
1695713685302491000,9.188490966796875,-1.3050193786621094,-9.418418884277344,-1.1199569702148438
1695713685312043000,9.19804296875,-1.3813800811767578,-9.69571304321289,-1.2490215301513672
1695713685321595000,9.207594970703125,-1.2885494232177734,-9.69571304321289,-1.3184947967529297
1695713685331147000,9.21714697265625,-1.0214366912841797,-9.565450668334961,-1.1247482299804688
1695713685340668400,9.22666845703125,-0.6069927215576172,-9.792736053466797,-0.7180900573730469
1695713685350220300,9.23622021484375,-0.4210319519042969,-10.252397537231445,-0.44768333435058594
1695713685359772400,9.2457724609375,-0.29735755920410156,-10.86837387084961,-0.12457275390625
1695713685369324300,9.25532421875,0.024555206298828125,-11.384931564331055,0.12427330017089844
1695713685378876400,9.26487646484375,0.6581993103027344,-11.41098403930664,-0.2132110595703125
1695713685388397800,9.274397705078124,1.1085777282714844,-11.271438598632812,-0.9310016632080078
1695713685397950000,9.283949951171875,0.6749687194824219,-11.30916976928711,-1.4954719543457031
1695713685407501800,9.293501708984374,-0.35904502868652344,-11.48944091796875,-1.6392097473144531
1695713685417054000,9.303053955078125,-1.3553276062011719,-11.811653137207031,-1.3807811737060547
1695713685426605800,9.312605712890624,-2.103363037109375,-12.008094787597656,-0.8327808380126953
1695713685436127500,9.32212744140625,-2.672924041748047,-12.038938522338867,-0.1988372802734375
1695713685445679400,9.331679443359375,-2.3129806518554688,-11.745174407958984,0.14822959899902344
1695713685455231500,9.3412314453125,-1.157388687133789,-11.61012077331543,0.10989952087402344
1695713685464783400,9.350783447265625,-0.1614055633544922,-12.04133415222168,-0.25363731384277344
1695713685474304800,9.3603046875,0.49859046936035156,-12.77349853515625,-0.8591327667236328
1695713685483857000,9.36985693359375,1.010955810546875,-13.192733764648438,-1.4451637268066406
1695713685493408800,9.37940869140625,1.7353343963623047,-13.11457633972168,-1.856912612915039
1695713685502961000,9.3889609375,2.693286895751953,-12.659706115722656,-1.9072208404541016
1695713685512543500,9.39854345703125,3.4152698516845703,-12.249753952026367,-1.737131118774414
1695713685522065000,9.40806494140625,3.7464656829833984,-11.522380828857422,-1.1630783081054688
1695713685531616800,9.41761669921875,3.7320919036865234,-10.913591384887695,0.4210319519042969
1695713685541169000,9.4271689453125,2.9457263946533203,-10.863882064819336,3.1268959045410156
1695713685550720800,9.436720703125,2.085695266723633,-11.029779434204102,5.167972564697266
1695713685560273000,9.44627294921875,1.46612548828125,-11.513097763061523,6.172939300537109
1695713685569794300,9.455794189453124,0.08414649963378906,-12.498600006103516,6.450532913208008
1695713685579346400,9.465346435546875,-1.171762466430664,-13.25442123413086,6.208873748779297
1695713685588898300,9.474898193359374,-2.3584976196289062,-13.562559127807617,5.455148696899414
1695713685598450400,9.484450439453125,-3.771320343017578,-13.768583297729492,4.244457244873047
1695713685608002300,9.494002197265624,-4.858037948608398,-13.763792037963867,2.6675338745117188
1695713685617524000,9.50352392578125,-5.358425140380859,-13.178659439086914,1.1196575164794922
1695713685627075800,9.513075927734375,-4.410055160522461,-12.49380874633789,0.5093708038330078
1695713685636628000,9.5226279296875,-1.276571273803711,-12.027259826660156,0.5477008819580078
1695713685646179800,9.532179931640625,3.0316696166992188,-12.223701477050781,0.8803939819335938
1695713685655701200,9.541701171875,6.479579925537109,-12.680967330932617,1.3637123107910156
1695713685665253400,9.55125341796875,8.709911346435547,-12.297367095947266,1.8230743408203125
1695713685674805200,9.56080517578125,6.779632568359375,-10.946830749511719,2.0168209075927734
1695713685684357400,9.570357421875,3.138874053955078,-9.22407341003418,1.636514663696289
1695713685693909200,9.5799091796875,-0.4710407257080078,-7.79058837890625,0.8732070922851562
1695713685703431000,9.589430908203125,-2.384550094604492,-6.880847930908203,0.4902057647705078
1695713685712982800,9.598982666015624,-3.1709156036376953,-6.456821441650391,0.2916679382324219
1695713685722535000,9.608534912109375,-2.884937286376953,-6.269662857055664,0.4713401794433594
1695713685732086800,9.618086669921874,-2.162954330444336,-6.108556747436523,0.8540420532226562
1695713685741639000,9.627638916015625,-1.648193359375,-5.919002532958984,1.2870521545410156
1695713685751160300,9.637160400390625,-1.3457450866699219,-5.561155319213867,1.7272491455078125
1695713685760712400,9.64671240234375,-1.0169448852539062,-5.065858840942383,2.0120296478271484
1695713685770264300,9.656264404296875,-1.0906105041503906,-4.878700256347656,2.2393150329589844
1695713685779816400,9.66581640625,-1.1217536926269531,-4.909543991088867,2.3016014099121094
1695713685789398800,9.675398681640624,-0.7857666015625,-4.76251220703125,2.1770286560058594
1695713685798920400,9.68492041015625,-0.39018821716308594,-4.501987457275391,1.976095199584961
1695713685808472300,9.694472412109375,-0.22099685668945312,-4.148931503295898,1.8182830810546875
1695713685818024400,9.7040244140625,-0.4686450958251953,-3.8054580688476562,1.7368316650390625
1695713685827576300,9.713576416015625,-1.138223648071289,-3.525768280029297,1.75360107421875
1695713685837097700,9.72309765625,-1.9605236053466797,-3.288900375366211,1.815887451171875
1695713685846649900,9.73264990234375,-2.632497787475586,-3.3598709106445312,1.928182601928711
1695713685856201700,9.74220166015625,-3.158937454223633,-3.5874557495117188,2.1174373626708984
1695713685865753900,9.75175390625,-3.6212940216064453,-3.8551673889160156,2.1030635833740234
1695713685875305700,9.7613056640625,-4.124076843261719,-4.241462707519531,1.9045257568359375
1695713685884827400,9.770827392578125,-4.731668472290039,-4.907148361206055,1.6628665924072266
1695713685894379300,9.780379150390624,-5.282064437866211,-5.940263748168945,1.483194351196289
1695713685903931400,9.789931396484375,-5.796825408935547,-7.350091934204102,1.4188117980957031
1695713685913483300,9.799483154296874,-6.733217239379883,-9.219282150268555,1.2059001922607422
1695713685923035400,9.809035400390625,-8.286783218383789,-12.034147262573242,0.6099872589111328
1695713685932556800,9.818556884765625,-8.851552963256836,-15.346704483032227,0.09552574157714844
1695713685942109000,9.82810888671875,-8.212818145751953,-18.405624389648438,0.6411304473876953
1695713685951660800,9.837660888671875,-8.708414077758789,-20.388607025146484,2.100667953491211
1695713685961213000,9.847212890625,-11.920654296875,-20.327219009399414,4.136653900146484
1695713685970734300,9.856734375,-12.621076583862305,-17.34406089782715,6.278047561645508
1695713685980286200,9.8662861328125,-8.811126708984375,-12.022468566894531,7.103641510009766
1695713685989838300,9.87583837890625,-4.846059799194336,-6.044473648071289,6.416994094848633
1695713685999390200,9.88539013671875,-2.9469242095947266,-2.1940975189208984,6.27086067199707
1695713686008942300,9.8949423828125,-1.4837932586669922,-1.3008270263671875,6.275651931762695
1695713686018463700,9.904463623046874,-0.8881797790527344,-2.9927406311035156,5.306619644165039
1695713686028015900,9.914015869140625,-3.1256980895996094,-7.262351989746094,4.576850891113281
1695713686037567700,9.923567626953124,-5.85881233215332,-12.868425369262695,4.672676086425781
1695713686047120000,9.933119873046875,-5.772869110107422,-18.16636085510254,3.485940933227539
1695713686056671700,9.942671630859374,-3.549724578857422,-21.061479568481445,0.8684158325195312
1695713686066193400,9.952193359375,0.6581993103027344,-18.61883544921875,-0.8471546173095703
1695713686075775700,9.961775634765624,0.4318122863769531,-13.34455680847168,0.3779106140136719
1695713686085328000,9.971327880859375,-5.308416366577148,-8.217309951782227,-0.7369556427001953
1695713686094879700,9.980879638671874,-4.7601165771484375,-3.3670578002929688,-3.223020553588867
1695713686104401400,9.9904013671875,2.9100914001464844,0.9286060333251953,-3.644052505493164
1695713686113953300,9.999953369140625,6.400823593139648,2.0803050994873047,-2.1940975189208984
1695713686123505400,10.00950537109375,5.576427459716797,-1.2607002258300781,-0.8878803253173828
1695713686133057300,10.019057373046875,2.952913284301758,-7.87114143371582,-0.5024833679199219
1695713686142609400,10.028609375,1.0373077392578125,-13.569746017456055,-0.8735065460205078
1695713686152130800,10.038130859375,0.5986080169677734,-16.246862411499023,-1.3304729461669922
1695713686161682700,10.0476826171875,1.6185474395751953,-16.86313819885254,-1.1223526000976562
1695713686171234800,10.05723486328125,1.7949256896972656,-16.70442771911621,-0.40216636657714844
1695713686180786700,10.06678662109375,1.1969165802001953,-14.441455841064453,0.3491630554199219
1695713686190338800,10.0763388671875,-0.4617576599121094,-10.752485275268555,1.5862064361572266
1695713686199860200,10.085860107421874,-1.21697998046875,-8.046621322631836,3.0098094940185547
1695713686209412400,10.095412353515625,-0.6213665008544922,-6.828742980957031,4.007589340209961
1695713686218964200,10.104964111328124,-1.3361625671386719,-6.684106826782227,4.055501937866211
1695713686228516400,10.114516357421875,-1.7673759460449219,-7.039558410644531,2.8424148559570312
1695713686238068200,10.124068115234374,-1.4337844848632812,-7.771722793579102,1.4068336486816406
1695713686247590000,10.13358984375,-0.38539695739746094,-8.735963821411133,0.2581291198730469
1695713686257141800,10.143141845703125,1.0229339599609375,-9.610368728637695,-0.5312309265136719
1695713686266694000,10.15269384765625,2.0332908630371094,-10.008342742919922,-0.9905929565429688
1695713686276245800,10.162245849609375,2.173734664916992,-9.776266098022461,-1.1963176727294922
1695713686285767200,10.17176708984375,1.416116714477539,-8.951570510864258,-1.3879680633544922
1695713686295319300,10.1813193359375,0.5581817626953125,-8.103517532348633,-1.2993297576904297
1695713686304871200,10.19087109375,0.54620361328125,-7.65074348449707,-1.0073623657226562
1695713686314423300,10.20042333984375,0.7106037139892578,-7.752857208251953,-0.5288352966308594
1695713686323975200,10.20997509765625,1.0277252197265625,-8.067882537841797,-0.1748809814453125
1695713686333496800,10.219496826171875,1.1753559112548828,-8.747941970825195,0.15302085876464844
1695713686343048700,10.229048583984374,0.8681163787841797,-9.22407341003418,0.3036460876464844
1695713686352600800,10.238600830078125,0.3129291534423828,-9.330678939819336,0.4617576599121094
1695713686362183200,10.24818310546875,-0.27340126037597656,-9.039310455322266,0.4258232116699219
1695713686371735300,10.2577353515625,-0.6426277160644531,-8.61288833618164,0.3299980163574219
1695713686381256700,10.267256591796874,-0.6022014617919922,-8.335594177246094,0.23447227478027344
1695713686390808800,10.276808837890625,-0.35904502868652344,-8.330802917480469,0.17458152770996094
1695713686400360700,10.286360595703124,-0.1638011932373047,-8.44219970703125,0.07156944274902344
1695713686409912800,10.295912841796875,-0.33538818359375,-8.586835861206055,-0.1652984619140625
1695713686419464700,10.305464599609374,-0.8594322204589844,-8.918630599975586,-0.39977073669433594
1695713686428986400,10.314986328125,-1.6889190673828125,-9.423210144042969,-0.6054954528808594
1695713686438538200,10.324538330078125,-2.3225631713867188,-10.091291427612305,-0.7037162780761719
1695713686448090400,10.33409033203125,-2.3965282440185547,-10.479982376098633,-0.7297687530517578
1695713686457642200,10.343642333984375,-1.8293628692626953,-10.596170425415039,-0.5192527770996094
1695713686467163600,10.35316357421875,-0.9333972930908203,-10.716850280761719,-0.186859130859375
1695713686476715800,10.3627158203125,-0.023057937622070312,-10.930061340332031,0.19374656677246094
1695713686486267600,10.372267578125,0.4413948059082031,-11.105541229248047,0.3874931335449219
1695713686495819800,10.38181982421875,0.3746166229248047,-11.197772979736328,0.24884605407714844
1695713686505371600,10.39137158203125,0.1078033447265625,-11.12919807434082,-0.26321983337402344
1695713686514893300,10.400893310546875,-0.4686450958251953,-11.150459289550781,-0.8112201690673828
1695713686524445200,10.410445068359374,-1.1289405822753906,-11.401700973510742,-1.1031875610351562
1695713686533997300,10.419997314453125,-1.5005626678466797,-11.84010124206543,-0.9834060668945312
1695713686543549200,10.429549072265624,-1.6745452880859375,-12.034147262573242,-0.6294517517089844
1695713686553101300,10.439101318359375,-1.6457977294921875,-12.178783416748047,-0.39497947692871094
1695713686562622700,10.448622802734375,-1.1217536926269531,-12.408763885498047,-0.6701774597167969
1695713686572174800,10.4581748046875,-0.5189533233642578,-13.211898803710938,-1.4355812072753906
1695713686581726700,10.467726806640625,-0.11379241943359375,-14.275558471679688,-2.2563838958740234
1695713686591278800,10.47727880859375,0.5321292877197266,-14.583696365356445,-2.780427932739258
1695713686600800300,10.48680029296875,1.411325454711914,-14.320775985717773,-2.9310531616210938
1695713686610352000,10.49635205078125,2.5597305297851562,-13.661977767944336,-2.770845413208008
1695713686619904300,10.505904296875,3.5676918029785156,-12.716602325439453,-2.390239715576172
1695713686629456100,10.5154560546875,3.7656307220458984,-11.41098403930664,-1.4283943176269531
1695713686639008300,10.52500830078125,3.4008960723876953,-10.494056701660156,0.5884265899658203
1695713686648560000,10.53456005859375,2.9340476989746094,-10.484773635864258,3.0529308319091797
1695713686658112300,10.5441123046875,2.3309478759765625,-10.814172744750977,4.880796432495117
1695713686667664100,10.5536640625,1.4233036041259766,-11.778413772583008,5.6896209716796875
1695713686677216300,10.56321630859375,0.9061470031738281,-12.598318099975586,5.924093246459961
1695713686686768000,10.57276806640625,0.4437904357910156,-12.960657119750977,5.789937973022461
1695713686696289800,10.582289794921875,-0.07546234130859375,-13.228368759155273,5.247028350830078
1695713686705841700,10.591841552734374,-1.3933582305908203,-13.429901123046875,4.196544647216797
1695713686715393800,10.601393798828125,-3.44970703125,-13.25442123413086,2.4809741973876953
1695713686724945700,10.610945556640624,-4.936494827270508,-12.586339950561523,0.9498672485351562
1695713686734467300,10.62046728515625,-4.3193206787109375,-11.925146102905273,0.4042625427246094
1695713686744019200,10.630019287109375,-1.2598018646240234,-11.889810562133789,0.20812034606933594
1695713686753571300,10.6395712890625,1.6949081420898438,-12.155126571655273,0.5093708038330078
1695713686763123200,10.649123291015625,3.8321094512939453,-12.498600006103516,1.3110084533691406
1695713686772675300,10.65867529296875,5.357227325439453,-12.29257583618164,2.3926353454589844
1695713686782196700,10.66819677734375,4.163305282592773,-10.963300704956055,1.9141082763671875
1695713686791748600,10.67774853515625,2.669330596923828,-9.020444869995117,0.4090538024902344
1695713686801300700,10.68730078125,0.9061470031738281,-7.5917510986328125,-0.32550621032714844
1695713686810852600,10.6968525390625,-0.5474014282226562,-6.670032501220703,-0.5072746276855469
1695713686820404700,10.70640478515625,-1.4766063690185547,-6.198392868041992,-0.28717613220214844
1695713686829926100,10.715926025390624,-1.2241668701171875,-5.868993759155273,0.20572471618652344
1695713686839478300,10.725478271484375,-0.6974277496337891,-5.639312744140625,0.8588333129882812
1695713686849030100,10.735030029296874,-0.5189533233642578,-5.144016265869141,1.5143375396728516
1695713686858582300,10.744582275390625,-0.5854320526123047,-4.696332931518555,2.1030635833740234
1695713686868134100,10.754134033203124,-0.7453403472900391,-4.5445098876953125,2.5624256134033203
1695713686877655800,10.76365576171875,-0.7405490875244141,-4.649019241333008,2.8855361938476562
1695713686887207700,10.773207763671875,-0.40456199645996094,-4.693937301635742,2.8256454467773438
1695713686896759800,10.782759765625,-0.19704055786132812,-4.530435562133789,2.555238723754883
1695713686906311700,10.792311767578125,-0.29017066955566406,-4.272006988525391,2.1722373962402344
1695713686915833000,10.8018330078125,-0.6713752746582031,-4.006690979003906,1.825469970703125
1695713686925385200,10.81138525390625,-1.1954193115234375,-3.947399139404297,1.569437026977539
1695713686934967800,10.8209677734375,-1.8889541625976562,-3.7841968536376953,1.2678871154785156
1695713686944519700,10.830519775390625,-2.3369369506835938,-3.7934799194335938,1.1699657440185547
1695713686954071800,10.84007177734375,-2.742097854614258,-3.9285335540771484,1.1460094451904297
1695713686963593200,10.84959326171875,-3.354480743408203,-4.082752227783203,1.0980968475341797
1695713686973145000,10.85914501953125,-4.178876876831055,-4.274402618408203,1.0957012176513672
1695713686982697200,10.868697265625,-5.115268707275391,-4.68195915222168,1.0525798797607422
1695713686992249000,10.8782490234375,-6.020816802978516,-5.442571640014648,0.9926891326904297
1695713687001801200,10.88780126953125,-6.704769134521484,-6.814369201660156,1.0453929901123047
1695713687011322600,10.897322509765624,-7.178804397583008,-8.81202507019043,1.2127876281738281
1695713687020874800,10.906874755859375,-7.836404800415039,-11.602933883666992,1.0933055877685547
1695713687030426600,10.916426513671874,-8.260730743408203,-15.351495742797852,0.6219654083251953
1695713687039978800,10.925978759765625,-7.676795959472656,-19.59026336669922,0.6219654083251953
1695713687049530600,10.935530517578124,-6.718843460083008,-23.047157287597656,1.6937103271484375
1695713687059052300,10.94505224609375,-8.889583587646484,-23.93324089050293,3.301776885986328
1695713687068604200,10.954604248046875,-11.896697998046875,-21.172876358032227,5.412027359008789
1695713687078156300,10.96415625,-10.367088317871094,-15.005327224731445,6.716148376464844
1695713687087708200,10.973708251953125,-7.078786849975586,-7.66990852355957,6.213665008544922
1695713687097229600,10.9832294921875,-5.08442497253418,-1.6374130249023438,5.5650482177734375
1695713687106781700,10.99278173828125,-3.2589550018310547,1.0708465576171875,5.395257949829102
1695713687116333600,11.00233349609375,-1.4813976287841797,1.3481407165527344,4.423830032348633
1695713687125885700,11.0118857421875,-1.266988754272461,-1.2463264465332031,3.153247833251953
1695713687135437600,11.0214375,-2.7205371856689453,-6.5041351318359375,3.0289745330810547
1695713687144959200,11.030959228515625,-4.753229141235352,-12.448890686035156,2.5720081329345703
1695713687154511000,11.040510986328124,-4.698129653930664,-17.412635803222656,0.6794605255126953
1695713687164063200,11.050063232421875,0.9681339263916016,-19.639972686767578,-0.7441425323486328
1695713687173615000,11.059614990234374,7.041954040527344,-18.343936920166016,0.3659324645996094
1695713687183167200,11.069167236328125,-0.20422744750976562,-14.87985610961914,0.4833183288574219
1695713687192688600,11.078688720703125,-4.664890289306641,-8.844964981079102,-2.3761653900146484
1695713687202240800,11.08824072265625,-0.12337493896484375,-3.5425376892089844,-3.2637462615966797
1695713687211792600,11.097792724609375,4.387296676635742,-0.7228813171386719,-2.0003509521484375
1695713687221375200,11.107375244140625,3.9276351928710938,-1.3056182861328125,-0.0790557861328125
1695713687230896600,11.116896728515625,0.8465557098388672,-5.269786834716797,1.0597667694091797
1695713687240448800,11.12644873046875,-0.8142147064208984,-10.626714706420898,0.9618453979492188
1695713687250000600,11.136000732421875,-1.3741931915283203,-14.301610946655273,0.21530723571777344
1695713687259552800,11.145552734375,-0.9977798461914062,-14.986461639404297,-0.47643089294433594
1695713687269104600,11.155104736328125,-0.3377838134765625,-14.275558471679688,-0.7393512725830078
1695713687278626000,11.1646259765625,0.19853782653808594,-12.539026260375977,-0.0311431884765625
1695713687288178200,11.17417822265625,0.09372901916503906,-10.342533111572266,1.3565254211425781
1695713687297730000,11.18372998046875,-0.19943618774414062,-8.809629440307617,2.7873153686523438
1695713687307282200,11.1932822265625,-0.4949970245361328,-8.034643173217773,3.244281768798828
1695713687316834000,11.202833984375,-0.6593971252441406,-8.058300018310547,2.256084442138672
1695713687326355700,11.212355712890625,-1.295736312866211,-8.686254501342773,0.8492507934570312
1695713687335907600,11.221907470703124,-1.65777587890625,-9.53460693359375,-0.26082420349121094
1695713687345459700,11.231459716796875,-1.4625320434570312,-10.110456466674805,-0.9834060668945312
1695713687355011600,11.241011474609374,-0.5569839477539062,-10.32815933227539,-1.3831768035888672
1695713687364533200,11.250533203125,0.22698593139648438,-10.10566520690918,-1.3376598358154297
1695713687374085000,11.260085205078125,0.6010036468505859,-9.472919464111328,-1.1726608276367188
1695713687383637200,11.26963720703125,0.8585338592529297,-8.650918960571289,-1.0600662231445312
1695713687393189000,11.279189208984375,0.8345775604248047,-7.913963317871094,-0.9786148071289062
1695713687402741200,11.2887412109375,0.8037338256835938,-7.48963737487793,-0.8663196563720703
1695713687412262700,11.2982626953125,0.7989425659179688,-7.271934509277344,-0.8112201690673828
1695713687421814500,11.307814453125,1.1705646514892578,-7.184194564819336,-0.9310016632080078
1695713687431366700,11.31736669921875,1.3253822326660156,-7.487541198730469,-0.9070453643798828
1695713687440918500,11.32691845703125,0.8773994445800781,-7.970859527587891,-0.7013206481933594
1695713687450470700,11.336470703125,0.5273380279541016,-8.164905548095703,-0.47643089294433594
1695713687459992000,11.345991943359374,0.4177379608154297,-8.032247543334961,-0.191650390625
1695713687469544200,11.355544189453125,0.3865947723388672,-7.72920036315918,0.04761314392089844
1695713687479096000,11.365095947265624,0.5177555084228516,-7.631877899169922,0.3276023864746094
1695713687488648200,11.374648193359375,0.8061294555664062,-7.757648468017578,0.5285358428955078
1695713687498169600,11.384169677734375,0.4653511047363281,-8.297863006591797,0.6483173370361328
1695713687507752200,11.393752197265625,-0.39258384704589844,-9.079736709594727,0.5836353302001953
1695713687517304000,11.403303955078124,-1.0786323547363281,-9.662473678588867,0.4258232116699219
1695713687526856200,11.412856201171875,-1.5221233367919922,-10.302106857299805,0.3299980163574219
1695713687536408000,11.422407958984374,-2.2393150329589844,-10.885143280029297,0.17458152770996094
1695713687545929700,11.4319296875,-2.7968978881835938,-11.422962188720703,-0.0191650390625
1695713687555481600,11.441481689453125,-2.384550094604492,-11.979646682739258,0.016469955444335938
1695713687565033700,11.45103369140625,-1.1549930572509766,-12.339889526367188,0.16499900817871094
1695713687574585600,11.460585693359375,0.16499900817871094,-12.347076416015625,0.07636070251464844
1695713687584137700,11.4701376953125,0.8965644836425781,-12.048521041870117,-0.41654014587402344
1695713687593659100,11.4796591796875,0.8345775604248047,-11.690673828125,-0.9594497680664062
1695713687603211000,11.4892109375,0.2626209259033203,-11.513097763061523,-1.3759899139404297
1695713687612763100,11.49876318359375,-0.37581443786621094,-11.53915023803711,-1.5050544738769531
1695713687622315000,11.50831494140625,-0.8070278167724609,-11.669412612915039,-1.2825603485107422
1695713687631836700,11.517836669921875,-0.9310016632080078,-11.685882568359375,-0.8303852081298828
1695713687641388500,11.527388427734374,-0.8261928558349609,-11.493932723999023,-0.46205711364746094
1695713687650940700,11.536940673828125,-0.4617576599121094,-11.247482299804688,-0.4976921081542969
1695713687660492500,11.546492431640624,-0.03982734680175781,-11.662225723266602,-0.9357929229736328
1695713687670044700,11.556044677734375,0.2865772247314453,-13.001083374023438,-1.8784732818603516
1695713687679566000,11.565566162109375,0.6725730895996094,-14.54806137084961,-2.8831405639648438
1695713687689118200,11.5751181640625,1.3373603820800781,-15.235307693481445,-3.450305938720703
1695713687698670000,11.584670166015625,2.207273483276367,-15.022096633911133,-3.3808326721191406
1695713687708222200,11.59422216796875,3.088865280151367,-14.081512451171875,-2.665437698364258
1695713687717774000,11.603774169921875,3.6081180572509766,-12.676475524902344,-1.1846389770507812
1695713687727295500,11.61329541015625,3.3460960388183594,-11.676599502563477,1.2439308166503906
1695713687736847600,11.62284765625,2.9100914001464844,-10.690797805786133,3.533853530883789
1695713687746399500,11.6323994140625,2.6025524139404297,-9.866401672363281,5.431192398071289
1695713687755951600,11.64195166015625,2.168943405151367,-9.446866989135742,6.500541687011719
1695713687765503500,11.65150341796875,1.425699234008789,-9.840049743652344,6.704170227050781
1695713687775025200,11.661025146484375,0.7297687530517578,-10.700380325317383,6.137004852294922
1695713687784577000,11.670576904296874,0.4509773254394531,-11.645755767822266,4.89277458190918
1695713687794159600,11.68015966796875,-0.04940986633300781,-12.491413116455078,3.74676513671875
1695713687803711500,11.68971142578125,-1.4029407501220703,-13.192733764648438,2.8280410766601562
1695713687813263600,11.699263671875,-3.0517330169677734,-13.16458511352539,1.815887451171875
1695713687822785000,11.708784912109374,-3.6665115356445312,-12.242866516113281,1.1292400360107422
1695713687832337200,11.718337158203125,-2.203380584716797,-11.427753448486328,1.0501842498779297
1695713687841889000,11.727888916015624,1.0181427001953125,-11.17890739440918,1.0286235809326172
1695713687851441200,11.737441162109375,3.8560657501220703,-11.82093620300293,1.2011089324951172
1695713687860962600,11.746962646484375,5.943258285522461,-11.937124252319336,1.6389102935791016
1695713687870514700,11.7565146484375,6.16724967956543,-11.491537094116211,2.052755355834961
1695713687880066600,11.766066650390625,4.056100845336914,-10.171844482421875,1.7032928466796875
1695713687889618700,11.77561865234375,1.2636947631835938,-8.513469696044922,0.6650867462158203
1695713687899170600,11.785170654296875,-0.5806407928466797,-7.456697463989258,0.0068874359130859375
1695713687908692000,11.79469189453125,-1.8009147644042969,-7.072797775268555,-0.1317596435546875
1695713687918244000,11.804244140625,-2.1201324462890625,-7.129693984985352,0.16020774841308594
1695713687927796000,11.8137958984375,-1.9197978973388672,-7.167425155639648,0.6507129669189453
1695713687937348000,11.82334814453125,-1.6362152099609375,-7.053932189941406,1.1891307830810547
1695713687946900000,11.83289990234375,-1.607767105102539,-6.871265411376953,1.81109619140625
1695713687956421600,11.842421630859375,-1.6673583984375,-6.776638031005859,2.430665969848633
1695713687965973500,11.851973388671874,-1.652984619140625,-6.473291397094727,2.8759536743164062
1695713687975525600,11.861525634765625,-1.1241493225097656,-5.883367538452148,2.8852367401123047
1695713687985077500,11.871077392578124,-0.4258232116699219,-5.324287414550781,2.6962814331054688
1695713687994599200,11.88059912109375,-0.18266677856445312,-4.7601165771484375,2.5240955352783203
1695713688004151000,11.890151123046875,-0.1542186737060547,-4.035139083862305,2.1914024353027344
1695713688013703200,11.899703125,-0.4114494323730469,-3.4688720703125,1.9545345306396484
1695713688023255000,11.909255126953125,-0.8690147399902344,-3.0400543212890625,1.835052490234375
1695713688032807200,11.91880712890625,-1.4909801483154297,-2.734312057495117,1.7512054443359375
1695713688042328600,11.92832861328125,-2.1893062591552734,-2.6253108978271484,1.5766239166259766
1695713688051880400,11.93788037109375,-2.8016891479492188,-2.905000686645508,1.3924598693847656
1695713688061432600,11.9474326171875,-3.3925113677978516,-3.525768280029297,1.2247657775878906
1695713688070984400,11.956984375,-4.035737991333008,-4.291172027587891,0.9878978729248047
1695713688080567000,11.966567138671875,-4.696033477783203,-5.324287414550781,0.9283065795898438
1695713688090088400,11.97608837890625,-4.922121047973633,-6.814369201660156,1.1508007049560547
1695713688099640600,11.985640625,-5.029624938964844,-9.006071090698242,1.3948554992675781
1695713688109192400,11.9951923828125,-5.916007995605469,-11.939519882202148,1.3301734924316406
1695713688118744600,12.00474462890625,-7.583965301513672,-15.370361328125,0.5477008819580078
1695713688128266000,12.014265869140624,-8.45357894897461,-19.144676208496094,0.07396507263183594
1695713688137818000,12.023818115234375,-7.0335693359375,-22.350627899169922,1.2391395568847656
1695713688147370000,12.033369873046874,-8.729974746704102,-23.037574768066406,2.959501266479492
1695713688156922000,12.042922119140625,-12.306650161743164,-19.82234001159668,4.107906341552734
1695713688166474000,12.052473876953124,-11.367862701416016,-13.877584457397461,4.428621292114258
1695713688175995600,12.06199560546875,-6.597265243530273,-6.961400985717773,4.51725959777832
1695713688185547500,12.071547607421875,-2.658550262451172,-1.4242019653320312,4.84486198425293
1695713688195099600,12.081099609375,-1.133432388305664,0.8741054534912109,4.775688171386719
1695713688204651500,12.090651611328125,-0.6737709045410156,-0.47643089294433594,3.3685550689697266
1695713688214203600,12.10020361328125,-1.8125934600830078,-5.260204315185547,1.976095199584961
1695713688223725000,12.10972509765625,-4.831686019897461,-11.238199234008789,1.8039093017578125
1695713688233277000,12.11927685546875,-7.140773773193359,-16.69244956970215,1.1747570037841797
1695713688242829000,12.1288291015625,-3.149354934692383,-18.11874771118164,0.19374656677246094
1695713688252381000,12.138380859375,4.716396331787109,-15.936628341674805,1.0909099578857422
1695713688261933000,12.14793310546875,2.2665653228759766,-13.173868179321289,1.3229866027832031
