time,seconds_elapsed,z,y,x
1696492779646291500,0.05929150390625,0.2361135482788086,0.27110815048217773,0.47099587321281433
1696492779656290600,0.06929052734375,0.1363544464111328,0.24109208583831787,0.5012282133102417
1696492779666290400,0.07929052734375,-0.027982711791992188,0.17502009868621826,0.4901878237724304
1696492779676290600,0.08929052734375,-0.2951946258544922,0.13272297382354736,0.5238991975784302
1696492779686290400,0.09929052734375,-0.3102760314941406,0.12188959121704102,0.538189172744751
1696492779696290600,0.10929052734375,-0.3611183166503906,0.10292458534240723,0.5255677700042725
1696492779706290400,0.11929052734375,-0.259002685546875,0.07573091983795166,0.5276806354522705
1696492779716290600,0.12929052734375,-0.1191864013671875,0.07795226573944092,0.5630043148994446
1696492779726290400,0.13929052734375,-0.044625282287597656,0.02813887596130371,0.5361847281455994
1696492779736290600,0.14929052734375,-0.008715629577636719,-0.003173351287841797,0.47081267833709717
1696492779746290400,0.15929052734375,-0.03275871276855469,0.009136676788330078,0.46729618310928345
1696492779756290600,0.16929052734375,0.0150604248046875,0.018917202949523926,0.4060097932815552
1696492779766290400,0.17929052734375,0.11774539947509766,-0.008643269538879395,0.4382905960083008
1696492779776290600,0.18929052734375,0.20817279815673828,0.04907059669494629,0.49648362398147583
1696492779786290400,0.19929052734375,0.20996952056884766,0.0687488317489624,0.5232705473899841
1696492779796290600,0.20929052734375,0.0707540512084961,0.1111745834350586,0.4947420358657837
1696492779806290400,0.21929052734375,0.05407238006591797,0.08688390254974365,0.5350863933563232
1696492779816290600,0.22929052734375,0.02330303192138672,0.08281183242797852,0.33090314269065857
1696492779826290400,0.23929052734375,-0.02871990203857422,0.12057995796203613,0.2925986647605896
1696492779836290600,0.24929052734375,-0.13049983978271484,0.10369348526000977,0.3957012891769409
1696492779846290700,0.259290771484375,-0.15508270263671875,0.09882736206054688,0.4376060664653778
1696492779856290600,0.26929052734375,-0.2077808380126953,0.060143351554870605,0.4371376037597656
1696492779866290700,0.279290771484375,-0.2886381149291992,0.06929290294647217,0.32261109352111816
1696492779876290600,0.28929052734375,-0.4120512008666992,0.0667271614074707,0.29957377910614014
1696492779886290700,0.299290771484375,-0.4178190231323242,0.05838584899902344,0.29109129309654236
1696492779896290600,0.30929052734375,-0.33725452423095703,0.045163631439208984,0.2760204076766968
1696492779906290700,0.319290771484375,-0.20143508911132812,-0.0066454410552978516,0.19471508264541626
1696492779916290600,0.32929052734375,-0.04355621337890625,-0.07914876937866211,0.2280932366847992
1696492779926290700,0.339290771484375,-0.09769821166992188,0.024425029754638672,0.20137932896614075
1696492779936290600,0.34929052734375,-0.16454410552978516,-0.016108036041259766,0.2887248694896698
1696492779946290700,0.359290771484375,-0.3230266571044922,-0.0003230571746826172,0.3075774908065796
1696492779956290600,0.36929052734375,-0.5276470184326172,-0.04282641410827637,0.18195611238479614
1696492779966290700,0.379290771484375,-0.7186002731323242,-0.13529229164123535,0.056258440017700195
1696492779976290600,0.38929052734375,-0.8287944793701172,-0.15186023712158203,-0.0801236629486084
1696492779986290700,0.399290771484375,-0.822117805480957,-0.1199331283569336,-0.13571101427078247
1696492779996290600,0.40929052734375,-0.552006721496582,-0.1822822093963623,-0.23282134532928467
1696492780006290700,0.419290771484375,-0.36676025390625,-0.30591464042663574,-0.4998517334461212
1696492780016290800,0.429290771484375,-0.46301746368408203,-0.3282201290130615,-0.7410830855369568
1696492780026290700,0.439290771484375,-0.5032501220703125,-0.31875061988830566,-1.2104682922363281
1696492780036290800,0.449290771484375,-0.8821344375610352,-0.2987210750579834,-1.2475018501281738
1696492780046290700,0.459290771484375,-0.5956697463989258,-0.3034975528717041,-1.26100492477417
1696492780056290800,0.469290771484375,-0.7103672027587891,-0.23608016967773438,-0.8847987651824951
1696492780066290700,0.479290771484375,-1.307891845703125,-0.0908060073852539,-0.775470495223999
1696492780076290800,0.489290771484375,-1.2944626808166504,-0.05837416648864746,-0.8858842849731445
1696492780086290700,0.499290771484375,-0.8174209594726562,-0.16498064994812012,-1.2848341464996338
1696492780096290800,0.509290771484375,-0.32147789001464844,-0.2940220832824707,-1.321669340133667
1696492780106290700,0.519290771484375,0.09990787506103516,-0.34063076972961426,-0.7574620246887207
1696492780116290800,0.529290771484375,0.3985280990600586,-0.34880876541137695,-0.10357141494750977
1696492780126290700,0.539290771484375,0.6421060562133789,-0.39498114585876465,0.4036417007446289
1696492780136290800,0.549290771484375,0.8527712821960449,-0.5027551651000977,0.4332904815673828
1696492780146290700,0.559290771484375,0.8483777046203613,-0.6418533325195312,0.02683544158935547
1696492780156290800,0.569290771484375,0.4472360610961914,-0.8174853324890137,-0.3348727226257324
1696492780166290700,0.579290771484375,-0.6329846382141113,-0.9705578088760376,-0.8254275321960449
1696492780176290600,0.58929052734375,-1.9344182014465332,-1.029982566833496,-1.407945156097412
1696492780186290700,0.599290771484375,-3.8028059005737305,-1.4671738147735596,-1.7281789779663086
1696492780196290600,0.60929052734375,-10.138111114501953,-1.3120973110198975,-2.3516669273376465
1696492780206290700,0.619290771484375,-9.4802827835083,-1.2776246070861816,-2.6805691719055176
1696492780216290600,0.62929052734375,-3.751523971557617,-0.21882426738739014,-4.15834379196167
1696492780226290700,0.639290771484375,-5.323383331298828,-0.40906035900115967,-5.003279685974121
1696492780236290600,0.64929052734375,-5.5278167724609375,-2.557425022125244,-3.775010108947754
1696492780246290700,0.659290771484375,-4.796802997589111,-4.312737941741943,-2.519944667816162
1696492780256290600,0.66929052734375,-3.40293288230896,-4.6292805671691895,-2.270118236541748
1696492780266290700,0.679290771484375,-1.6934173107147217,-4.398649215698242,-2.4770631790161133
1696492780276290600,0.68929052734375,-0.2722644805908203,-4.3928046226501465,-2.7891030311584473
1696492780286290700,0.699290771484375,0.6531887054443359,-4.591646671295166,-3.056985855102539
1696492780296290600,0.70929052734375,1.0634915828704834,-4.673712253570557,-3.2784037590026855
1696492780306290700,0.719290771484375,0.9652116298675537,-4.404712677001953,-3.5611047744750977
1696492780316290600,0.72929052734375,0.5197381973266602,-3.767829179763794,-3.920158863067627
1696492780326290700,0.739290771484375,0.016095876693725586,-3.1195526123046875,-4.105684757232666
1696492780336290600,0.74929052734375,-0.3900411128997803,-2.568509101867676,-4.466683864593506
1696492780346290700,0.759290771484375,-0.7234656810760498,-2.170217514038086,-4.329636573791504
1696492780356290600,0.76929052734375,-0.7954897880554199,-2.089693546295166,-3.2561192512512207
1696492780366290700,0.779290771484375,-0.7241384983062744,-2.285879135131836,-1.1429624557495117
1696492780376290600,0.78929052734375,-0.8443078994750977,-2.4965639114379883,1.2756872177124023
1696492780386290700,0.799290771484375,-0.9655499458312988,-2.4805126190185547,3.191162109375
1696492780396290600,0.80929052734375,-0.8911924362182617,-2.3131024837493896,4.308010101318359
1696492780406290700,0.819290771484375,-0.8153536319732666,-1.9025664329528809,4.733294486999512
1696492780416290600,0.82929052734375,-0.556971549987793,-1.4948424100875854,4.374423980712891
1696492780426290700,0.839290771484375,-0.17168450355529785,-1.0061231851577759,4.023892402648926
1696492780436290600,0.84929052734375,-0.009274721145629883,-0.6505390405654907,4.132656097412109
1696492780446290700,0.859290771484375,-0.33091187477111816,-0.2944674491882324,4.836983680725098
1696492780456290600,0.86929052734375,-0.7114217281341553,-0.03689014911651611,5.398956298828125
1696492780466290700,0.879290771484375,-1.1551250219345093,0.20420968532562256,5.8342695236206055
1696492780476290600,0.88929052734375,-1.134516716003418,0.5002946853637695,6.330735206604004
1696492780486290700,0.899290771484375,-0.8230366706848145,0.594157338142395,6.663747787475586
1696492780496290800,0.909290771484375,-0.08927035331726074,1.302502989768982,6.816039085388184
1696492780506290700,0.919290771484375,0.09764742851257324,0.9084955453872681,6.445372581481934
1696492780516290800,0.929290771484375,0.08831191062927246,0.9506847858428955,6.754234313964844
1696492780526290700,0.939290771484375,0.4470071792602539,0.8761510848999023,6.250518798828125
1696492780536290800,0.949290771484375,0.6844674348831177,1.42800772190094,6.267547607421875
1696492780546290700,0.959290771484375,0.9244465827941895,2.0632920265197754,6.278813362121582
1696492780556290800,0.969290771484375,0.9630992412567139,2.153371810913086,5.994350433349609
1696492780566290700,0.979290771484375,0.8481682538986206,2.303297758102417,5.791886329650879
1696492780576290800,0.989290771484375,0.6349607706069946,2.488399028778076,5.431997299194336
1696492780586290700,0.999290771484375,0.2976776957511902,2.6736392974853516,4.881854057312012
1696492780596290600,1.00929052734375,-0.04103046655654907,2.6366310119628906,4.0496320724487305
1696492780606290700,1.019290771484375,-0.32652854919433594,2.565849781036377,2.9965591430664062
1696492780616290600,1.02929052734375,-0.3565291166305542,2.6393661499023438,2.291701316833496
1696492780626290700,1.039290771484375,0.1420312374830246,2.8158762454986572,2.233902931213379
1696492780636290800,1.049290771484375,0.9397037029266357,2.8185718059539795,2.384469985961914
1696492780646290700,1.059290771484375,1.8338713645935059,2.631437301635742,2.3389387130737305
1696492780656290800,1.069290771484375,2.446915626525879,2.397498607635498,1.733494758605957
1696492780666290400,1.07929052734375,2.6014633178710938,2.337765693664551,0.8069324493408203
1696492780676290300,1.089290283203125,2.090379476547241,2.5625295639038086,0.507075309753418
1696492780686290400,1.09929052734375,1.1538047790527344,2.7487449645996094,0.5131816864013672
1696492780696290300,1.109290283203125,0.3013145923614502,2.6781005859375,0.6886157989501953
1696492780706290400,1.11929052734375,-0.2674158811569214,2.523061990737915,1.2998876571655273
1696492780716290300,1.129290283203125,-0.550126314163208,2.35518741607666,1.8072195053100586
1696492780726290400,1.13929052734375,-0.7296674251556396,2.217552423477173,2.0556640625
1696492780736290300,1.149290283203125,-1.0910457372665405,2.1681182384490967,1.7024002075195312
1696492780746290400,1.15929052734375,-1.6926707029342651,2.494044303894043,1.306741714477539
1696492780756290300,1.169290283203125,-2.521242141723633,2.676028251647949,1.5362234115600586
1696492780766290400,1.17929052734375,-3.0484230518341064,2.608971118927002,1.4934625625610352
1696492780776290300,1.189290283203125,-3.4976043701171875,2.6409475803375244,1.332071304321289
1696492780786290400,1.19929052734375,-3.673638343811035,2.600921392440796,0.6393308639526367
1696492780796290300,1.209290283203125,-3.4088425636291504,2.758188009262085,0.23500537872314453
1696492780806290400,1.21929052734375,-2.768444538116455,2.8158926963806152,0.09728240966796875
1696492780816290300,1.229290283203125,-1.6657202243804932,2.5546209812164307,-0.6179132461547852
1696492780826290400,1.23929052734375,-0.7258288860321045,2.561356782913208,-1.4382338523864746
1696492780836290300,1.249290283203125,-0.32739949226379395,2.609218120574951,-2.1251134872436523
1696492780846290400,1.25929052734375,-0.22754669189453125,2.5407485961914062,-2.8820929527282715
1696492780856290300,1.269290283203125,-0.3491051197052002,2.344130754470825,-3.0547313690185547
1696492780866290400,1.27929052734375,-0.6070616245269775,1.7928121089935303,-2.8999109268188477
1696492780876290300,1.289290283203125,-0.724005937576294,1.1483979225158691,-2.988527774810791
1696492780886290400,1.29929052734375,3.1899232864379883,-1.0402945280075073,2.261932373046875
1696492780896290300,1.309290283203125,4.657109260559082,-1.802071452140808,5.159267425537109
1696492780906290400,1.31929052734375,5.342299461364746,-2.2970614433288574,4.568465232849121
1696492780916290300,1.329290283203125,3.8282315731048584,-2.6741981506347656,2.523831367492676
1696492780926290400,1.33929052734375,4.255297660827637,-3.556124210357666,0.9430723190307617
1696492780936290300,1.349290283203125,3.5580501556396484,-3.2282838821411133,-1.0665245056152344
1696492780946290400,1.35929052734375,3.8386809825897217,-3.1729187965393066,-2.833479404449463
1696492780956290300,1.369290283203125,2.9417994022369385,-3.49722957611084,-3.2481002807617188
1696492780966290700,1.379290771484375,3.6867902278900146,-3.3773610591888428,-3.9938583374023438
1696492780976290600,1.38929052734375,2.8543765544891357,-2.647200345993042,-5.294594764709473
1696492780986290700,1.399290771484375,1.701830267906189,-2.14578914642334,-5.813475608825684
1696492780996290600,1.40929052734375,0.6118049621582031,-1.989258885383606,-6.158806800842285
1696492781006290700,1.419290771484375,1.8370027542114258,-0.694894552230835,-12.234569549560547
1696492781016290600,1.42929052734375,3.410863161087036,1.9286863803863525,-23.29086685180664
1696492781026290700,1.439290771484375,-0.7562158107757568,2.531127452850342,-27.481266021728516
1696492781036290600,1.44929052734375,2.69061279296875,-3.3291282653808594,-7.780787467956543
1696492781046290700,1.459290771484375,0.7818710803985596,-5.6689910888671875,20.01714324951172
1696492781056290600,1.46929052734375,-2.8838372230529785,-5.7609663009643555,34.40177917480469
1696492781066290700,1.479290771484375,-9.95737075805664,-1.5997596979141235,21.918935775756836
1696492781076290600,1.48929052734375,-10.793037414550781,1.924973487854004,7.718812942504883
1696492781086290000,1.4992900390625,-5.202701568603516,5.059334754943848,2.1227731704711914
1696492781096289800,1.509289794921875,-1.0716372728347778,6.041170597076416,3.676534652709961
1696492781106290000,1.5192900390625,0.4839484691619873,6.205567836761475,5.048039436340332
1696492781120115200,1.533115234375,0.8795627951622009,6.366938591003418,4.286301612854004
1696492781130115300,1.543115234375,0.8360517024993896,6.244782447814941,2.721247673034668
1696492781140115500,1.553115478515625,1.3145214319229126,6.299715995788574,1.057112693786621
1696492781150115300,1.563115234375,1.7409441471099854,7.124423980712891,0.4956016540527344
1696492781160115200,1.573115234375,3.037778377532959,6.50697660446167,-0.7130222320556641
1696492781170115000,1.583114990234375,4.6470947265625,5.117079734802246,-2.061433792114258
1696492781180115000,1.593114990234375,4.683034420013428,4.0406999588012695,-3.071956157684326
1696492781190115000,1.603114990234375,3.80798077583313,2.675802707672119,-4.059534549713135
1696492781200115000,1.613114990234375,2.2756640911102295,1.2213280200958252,-5.089876174926758
1696492781210115000,1.623114990234375,1.610594630241394,-0.8091583251953125,-4.85097074508667
1696492781220115000,1.633114990234375,0.20167404413223267,1.144047498703003,-6.949316501617432
1696492781230115000,1.643114990234375,-3.367555618286133,-0.7459158897399902,-8.143847465515137
1696492781240115000,1.653114990234375,-4.973605632781982,-2.581855058670044,-9.887748718261719
1696492781250115000,1.663114990234375,-6.767189025878906,-4.898310661315918,-9.297298431396484
1696492781260115000,1.673114990234375,-6.68483829498291,-5.365588665008545,-7.104934215545654
1696492781270115000,1.683114990234375,-5.484494686126709,-5.109267234802246,-6.147176742553711
1696492781280115000,1.693114990234375,-4.545094966888428,-4.3337836265563965,-7.312047958374023
1696492781290115000,1.703114990234375,-3.9367802143096924,-3.403212070465088,-8.055898666381836
1696492781300115000,1.713114990234375,-3.035080909729004,-2.574495792388916,-8.593337059020996
1696492781310115000,1.723114990234375,-3.4669032096862793,-1.7945642471313477,-8.707528114318848
1696492781320115000,1.733114990234375,-2.917734384536743,-2.7840280532836914,-6.249711990356445
1696492781330115000,1.743114990234375,-2.4346179962158203,-3.203214645385742,-3.373300552368164
1696492781340115000,1.753114990234375,-2.361208438873291,-4.354226589202881,-1.5446949005126953
1696492781350115000,1.763114990234375,-1.6833657026290894,-5.347545146942139,1.3843913078308105
1696492781360115000,1.773114990234375,-1.5489819049835205,-6.785085201263428,3.8228859901428223
1696492781370115000,1.783114990234375,0.20672035217285156,-6.232680797576904,2.1393980979919434
1696492781380115000,1.793114990234375,1.6861443519592285,-6.278067588806152,-1.076242446899414
1696492781390115800,1.80311572265625,2.230578899383545,-7.364876747131348,2.082854747772217
1696492781400116000,1.813115966796875,2.750715494155884,-6.546791076660156,1.886190414428711
1696492781410115800,1.82311572265625,6.96488094329834,-4.547913551330566,-1.5093169212341309
1696492781420116000,1.833115966796875,2.2329447269439697,-2.0102949142456055,-0.995415449142456
1696492781430115800,1.84311572265625,-0.8746426105499268,2.4694032669067383,-2.898144245147705
1696492781440116000,1.853115966796875,0.3559619188308716,2.7005109786987305,-3.33524751663208
1696492781450115800,1.86311572265625,0.22766602039337158,1.3083953857421875,-2.076751947402954
1696492781460116000,1.873115966796875,1.0565185546875,0.9050874710083008,-1.235107421875
1696492781470116000,1.8831162109375,33.72882080078125,-2.917666435241699,6.1577911376953125
1696492781480116200,1.8931162109375,20.06308364868164,-0.39374256134033203,4.712487697601318
1696492781490116000,1.9031162109375,10.334183692932129,0.6340703964233398,2.7143101692199707
1696492781500116200,1.9131162109375,3.9571268558502197,0.7875156402587891,-0.3402005434036255
1696492781510116000,1.9231162109375,1.0836187601089478,-0.2542266845703125,-2.4298036098480225
1696492781520116200,1.9331162109375,1.540899634361267,-1.0108156204223633,-4.510128974914551
1696492781530116000,1.9431162109375,0.9144370555877686,-3.3527183532714844,-3.2886059284210205
1696492781540116200,1.9531162109375,0.2916276454925537,-3.980184555053711,-2.136592388153076
1696492781550116000,1.9631162109375,-1.0732375383377075,-3.4909439086914062,-1.5226447582244873
1696492781560116200,1.9731162109375,-3.302926778793335,-4.802543640136719,2.132087230682373
1696492781570116000,1.9831162109375,-4.667625904083252,-5.403445243835449,4.034332275390625
1696492781580116200,1.9931162109375,-6.64577579498291,-5.617066383361816,5.524030685424805
1696492781590116000,2.0031162109375,-7.656058311462402,-5.687674522399902,6.376980781555176
1696492781600116200,2.0131162109375,-6.729754447937012,-4.333963394165039,5.648963928222656
1696492781610116000,2.0231162109375,-5.2537841796875,-2.3456172943115234,4.252614498138428
1696492781620116200,2.0331162109375,-3.5607259273529053,-0.6666297912597656,3.1395034790039062
1696492781630116000,2.0431162109375,-2.319607973098755,1.054971694946289,2.270984649658203
1696492781640116200,2.0531162109375,-1.3762799501419067,2.0384721755981445,1.6286261081695557
1696492781650116400,2.063116455078125,-0.605634331703186,2.5207338333129883,1.122449278831482
1696492781660116200,2.0731162109375,0.032253384590148926,2.874457359313965,0.44090330600738525
1696492781670116400,2.083116455078125,0.15337902307510376,2.7811923027038574,0.11289334297180176
1696492781680116200,2.0931162109375,0.15101701021194458,2.668442726135254,0.5116703510284424
1696492781690116000,2.1031162109375,0.020507097244262695,1.8142123222351074,0.6466498374938965
1696492781700116200,2.1131162109375,-0.4772756099700928,0.8772029876708984,0.9768667221069336
1696492781710116000,2.1231162109375,-0.43949270248413086,0.3025341033935547,1.2539293766021729
1696492781720116200,2.1331162109375,-0.11309731006622314,-0.005705833435058594,1.1956160068511963
1696492781730116000,2.1431162109375,0.1857696771621704,-0.49352169036865234,1.3329694271087646
1696492781740116200,2.1531162109375,0.39833498001098633,-0.8586797714233398,1.5090389251708984
1696492781750116000,2.1631162109375,0.9195681214332581,-0.5617074966430664,1.8174138069152832
1696492781760116200,2.1731162109375,1.5466251373291016,-1.030125617980957,1.7511112689971924
1696492781770116000,2.1831162109375,8.19723892211914,-1.885634422302246,-0.5346927642822266
1696492781780116200,2.1931162109375,7.841792106628418,-1.8942365646362305,-0.969292163848877
1696492781790116000,2.2031162109375,5.047883033752441,-1.2387514114379883,0.517754077911377
1696492781800116200,2.2131162109375,2.582157850265503,-1.119725227355957,1.241316795349121
1696492781810116000,2.2231162109375,1.3530588150024414,-0.9881715774536133,1.1627569198608398
1696492781820116200,2.2331162109375,0.921676754951477,-0.8974733352661133,0.5957412719726562
1696492781830116000,2.2431162109375,0.9549497365951538,-0.6238918304443359,-0.352461576461792
1696492781840116200,2.2531162109375,0.940490186214447,-0.42385196685791016,-1.4464868307113647
1696492781850116000,2.2631162109375,0.9821184277534485,-0.4097766876220703,-2.307767868041992
1696492781860116200,2.2731162109375,1.0247018337249756,-0.5306453704833984,-2.6555349826812744
1696492781870116000,2.2831162109375,0.7319021224975586,-0.6419544219970703,-2.5609982013702393
1696492781880116200,2.2931162109375,0.12215220928192139,-0.6636734008789062,-2.0317535400390625
1696492781890116400,2.303116455078125,-0.43150758743286133,-0.4603080749511719,-1.4037225246429443
1696492781900116200,2.3131162109375,-0.689420759677887,-0.16133499145507812,-0.7939591407775879
1696492781910116400,2.323116455078125,-0.5556983947753906,0.0768890380859375,-0.44103217124938965
1696492781920116200,2.3331162109375,-0.16199445724487305,0.21762371063232422,-0.19008469581604004
1696492781930116000,2.3431162109375,0.22292833030223846,0.30060386657714844,-0.08324337005615234
1696492781940116200,2.3531162109375,0.5063294768333435,0.3635282516479492,0.04370307922363281
1696492781950116000,2.3631162109375,0.6846293210983276,0.47399330139160156,0.17063379287719727
1696492781960116200,2.3731162109375,0.7550291419029236,0.6637392044067383,0.2507147789001465
1696492781970116000,2.3831162109375,0.7316157817840576,0.8564882278442383,0.37967729568481445
1696492781980116200,2.3931162109375,0.7361223101615906,0.9590644836425781,0.4854426383972168
1696492781990116000,2.4031162109375,0.6921459436416626,0.9285974502563477,0.6412818431854248
1696492782000116200,2.4131162109375,0.6043661832809448,0.7486047744750977,0.7735450267791748
1696492782010116000,2.4231162109375,0.37533038854599,0.4624176025390625,0.9118311405181885
1696492782020116200,2.4331162109375,0.09916526079177856,0.2307109832763672,1.0894734859466553
1696492782030116000,2.4431162109375,-0.33555442094802856,0.031836509704589844,1.2942860126495361
1696492782040116200,2.4531162109375,-0.7853716611862183,-0.18306827545166016,1.520331621170044
1696492782050116000,2.4631162109375,-1.1610112190246582,-0.3965797424316406,1.779792070388794
1696492782060116200,2.4731162109375,-1.4532949924468994,-0.5208330154418945,2.0272092819213867
1696492782070116000,2.4831162109375,-1.6357755661010742,-0.47303295135498047,1.9337644577026367
1696492782080116200,2.4931162109375,-1.6326271295547485,-0.277679443359375,1.6664080619812012
1696492782090116400,2.503116455078125,-1.480910062789917,0.05606842041015625,1.4119009971618652
1696492782100116200,2.5131162109375,-1.2705464363098145,0.4522743225097656,1.1649374961853027
1696492782110116400,2.523116455078125,-1.0398344993591309,0.839756965637207,1.0372138023376465
1696492782120116200,2.5331162109375,-0.8570008873939514,1.1468582153320312,0.8586492538452148
1696492782130116400,2.543116455078125,-0.7522603869438171,1.2655086517333984,0.603722095489502
1696492782140116200,2.5531162109375,-0.6375980973243713,1.2940831184387207,0.37568092346191406
1696492782150116400,2.563116455078125,-0.5709993243217468,1.250657081604004,0.24933385848999023
1696492782160116200,2.5731162109375,-0.4382666349411011,1.155573844909668,0.23431730270385742
1696492782170116400,2.583116455078125,-0.3974968194961548,1.0500078201293945,0.29990696907043457
1696492782180116200,2.5931162109375,-0.31564033031463623,0.8738994598388672,0.46654558181762695
1696492782190116000,2.6031162109375,0.03781628608703613,0.7940969467163086,0.6651852130889893
1696492782200116200,2.6131162109375,1.14165461063385,0.7070026397705078,0.9536216259002686
1696492782210116000,2.6231162109375,1.6766469478607178,0.6414794921875,1.2448053359985352
1696492782220116200,2.6331162109375,1.6765985488891602,0.5711259841918945,1.4542417526245117
1696492782230116000,2.6431162109375,1.6331915855407715,0.4775838851928711,1.7317793369293213
1696492782240116200,2.6531162109375,1.7860525846481323,0.4251213073730469,2.029878616333008
1696492782250116000,2.6631162109375,2.192343235015869,0.48594093322753906,2.0295419692993164
1696492782260116200,2.6731162109375,2.7348756790161133,0.5778570175170898,1.8165092468261719
1696492782270116000,2.6831162109375,3.1641287803649902,0.6152029037475586,1.3102214336395264
1696492782280116200,2.6931162109375,3.3372373580932617,0.6137561798095703,0.70517897605896
1696492782290116000,2.7031162109375,3.2101454734802246,0.5439634323120117,0.2315220832824707
1696492782300116200,2.7131162109375,2.9367990493774414,0.4809722900390625,-0.08997607231140137
1696492782310116000,2.7231162109375,2.3977174758911133,0.4986286163330078,-0.3607954978942871
1696492782320116200,2.7331162109375,1.9274687767028809,0.47893428802490234,-0.883629560470581
1696492782330116000,2.7431162109375,1.6829290390014648,0.36183643341064453,-0.99932861328125
1696492782340116200,2.7531162109375,1.494352102279663,0.22259521484375,-0.7456481456756592
1696492782350116000,2.7631162109375,1.2623631954193115,0.19260692596435547,-0.40837669372558594
1696492782360116200,2.7731162109375,1.2250585556030273,0.26096630096435547,-0.16831660270690918
1696492782370116000,2.7831162109375,1.2828125953674316,0.4125032424926758,-0.04214906692504883
1696492782380116200,2.7931162109375,1.3867669105529785,0.5566673278808594,0.125593900680542
1696492782390116000,2.8031162109375,1.5111311674118042,0.5765399932861328,0.27167177200317383
1696492782400116200,2.8131162109375,1.695418119430542,0.4053049087524414,0.39482879638671875
1696492782410116000,2.8231162109375,1.9316935539245605,0.1773700714111328,0.5563540458679199
1696492782420116200,2.8331162109375,2.2066800594329834,0.04363822937011719,0.645270824432373
1696492782430116000,2.8431162109375,2.2218992710113525,0.042107582092285156,0.6489038467407227
1696492782440116000,2.853115966796875,2.9326906204223633,0.12703800201416016,0.5700881481170654
1696492782450116000,2.8631162109375,3.2186031341552734,0.20505523681640625,0.5441269874572754
1696492782460116000,2.873115966796875,3.3347015380859375,0.21407699584960938,0.5875554084777832
1696492782470116000,2.8831162109375,3.303210496902466,0.14206314086914062,0.7233786582946777
1696492782480116000,2.893115966796875,3.144270420074463,-0.048671722412109375,0.9895343780517578
1696492782490116000,2.9031162109375,2.8793182373046875,-0.19259929656982422,1.2935750484466553
1696492782500116200,2.9131162109375,2.537259578704834,-0.2852907180786133,1.5000667572021484
1696492782510116000,2.9231162109375,2.1840453147888184,-0.3392982482910156,1.4919567108154297
1696492782520116200,2.9331162109375,1.713958740234375,-0.4461536407470703,1.4020607471466064
1696492782530116000,2.9431162109375,1.1683323383331299,-0.5555849075317383,1.3463175296783447
1696492782540116200,2.9531162109375,0.6317762136459351,-0.5909891128540039,1.0555689334869385
1696492782550116000,2.9631162109375,0.3325691223144531,-0.6629142761230469,0.9993846416473389
1696492782560116200,2.9731162109375,0.3997640609741211,-0.7371044158935547,1.0197257995605469
1696492782570116000,2.9831162109375,0.8378454446792603,-1.0551881790161133,1.2342610359191895
1696492782580116200,2.9931162109375,1.5952322483062744,-1.7036056518554688,1.8254544734954834
1696492782590116000,3.0031162109375,2.4219303131103516,-2.3368797302246094,3.0250918865203857
1696492782600116000,3.013115966796875,3.2838993072509766,-2.5543041229248047,4.281209945678711
1696492782610116000,3.0231162109375,4.273348808288574,-2.3183555603027344,5.073127746582031
1696492782620116000,3.033115966796875,5.073464393615723,-1.6399822235107422,5.241974830627441
1696492782630116000,3.0431162109375,5.456450939178467,-1.0938940048217773,5.229876518249512
1696492782640116200,3.0531162109375,5.438716888427734,-0.46350574493408203,4.78490686416626
1696492782650116000,3.0631162109375,5.368657112121582,-0.45621776580810547,4.759646892547607
1696492782660116200,3.0731162109375,4.443787097930908,0.27649879455566406,2.354062080383301
1696492782670116000,3.0831162109375,4.116026878356934,0.2716255187988281,0.41571664810180664
1696492782680116200,3.0931162109375,4.0103020668029785,0.11157798767089844,-0.9845855236053467
1696492782690116000,3.1031162109375,3.8317344188690186,-0.22188949584960938,-1.5403310060501099
1696492782700116200,3.1131162109375,3.40104079246521,-0.6620988845825195,-1.5130285024642944
1696492782710116000,3.1231162109375,2.8497228622436523,-1.0771484375,-1.1252946853637695
1696492782720116200,3.1331162109375,2.354499340057373,-1.4037675857543945,-0.767646312713623
1696492782730116000,3.1431162109375,1.8658151626586914,-1.6435909271240234,-0.42427611351013184
1696492782740116200,3.1531162109375,1.5591545104980469,-1.8864574432373047,0.06065011024475098
1696492782750116000,3.1631162109375,1.2217941284179688,-2.2191343307495117,0.625892162322998
1696492782760116200,3.1731162109375,0.6120456457138062,-2.5011491775512695,0.8286089897155762
1696492782770116000,3.1831162109375,-0.14396178722381592,-2.8584861755371094,0.8090596199035645
1696492782780116200,3.1931162109375,-0.7881633639335632,-3.1683101654052734,0.9624507427215576
1696492782790116000,3.2031162109375,-1.4045923948287964,-3.288339614868164,1.2341041564941406
1696492782800116200,3.2131162109375,-2.101463794708252,-3.2732410430908203,1.1293256282806396
1696492782810116000,3.2231162109375,-2.904468536376953,-3.062941551208496,0.7618825435638428
1696492782820116200,3.2331162109375,-3.482795000076294,-2.796751022338867,0.2504286766052246
1696492782830116000,3.2431162109375,-3.3105878829956055,-2.5088415145874023,-0.2774980068206787
1696492782840116200,3.2531162109375,-3.0787203311920166,-2.3110389709472656,-0.36778950691223145
1696492782850116000,3.2631162109375,-3.6288044452667236,-2.0470399856567383,-0.42710018157958984
1696492782860116200,3.2731162109375,-4.0562214851379395,-1.5814685821533203,-0.5198521614074707
1696492782870116000,3.2831162109375,-4.028116703033447,-0.8763818740844727,-0.5950148105621338
1696492782880116200,3.2931162109375,-3.916726589202881,0.04709625244140625,-0.8777384757995605
1696492782890116400,3.303116455078125,-3.88491153717041,0.8052511215209961,-1.4210195541381836
1696492782900116200,3.3131162109375,-3.7963638305664062,1.3370251655578613,-1.4902210235595703
1696492782910116400,3.323116455078125,-3.3294520378112793,1.7685790061950684,-1.8288995027542114
1696492782920116200,3.3331162109375,-3.2588753700256348,1.9804253578186035,-1.7677912712097168
1696492782930216400,3.343216552734375,-3.1307454109191895,1.974902629852295,-1.4564783573150635
1696492782940216600,3.353216552734375,-2.499356508255005,1.8911261558532715,-1.464742660522461
1696492782950216400,3.363216552734375,-2.2175023555755615,1.7337021827697754,-1.5346707105636597
1696492782960216600,3.373216552734375,-1.996262550354004,1.5354013442993164,-1.63883376121521
1696492782970216400,3.383216552734375,-1.6918871402740479,1.328207015991211,-1.8318469524383545
1696492782980216600,3.393216552734375,-1.6869603395462036,1.1632633209228516,-1.7975783348083496
1696492782990216400,3.403216552734375,-2.064990997314453,1.10343599319458,-1.5320247411727905
1696492783000216600,3.413216552734375,-2.734888792037964,1.0997328758239746,-1.1552109718322754
1696492783010216400,3.423216552734375,-3.2016799449920654,1.0921998023986816,-0.5220115184783936
1696492783020216600,3.433216552734375,-3.3281197547912598,1.0986719131469727,-0.016289830207824707
1696492783030216400,3.443216552734375,-3.471673011779785,1.1796574592590332,0.40751874446868896
1696492783040216600,3.453216552734375,-3.472395420074463,1.390453815460205,0.5545647144317627
1696492783050216400,3.463216552734375,-3.6035213470458984,1.659787654876709,0.5230549573898315
1696492783060216600,3.473216552734375,-3.891094446182251,1.8619060516357422,0.4696638584136963
1696492783070216400,3.483216552734375,-4.16668701171875,2.1514883041381836,0.4796963930130005
1696492783080216600,3.493216552734375,-4.343843460083008,2.4396557807922363,0.5724018812179565
1696492783090216700,3.503216796875,-4.357306957244873,2.7237706184387207,0.794741153717041
1696492783100216600,3.513216552734375,-4.234062194824219,2.9379076957702637,1.1613826751708984
1696492783110216700,3.523216796875,-3.9466140270233154,3.0440406799316406,1.5989347696304321
1696492783120216600,3.533216552734375,-3.489281415939331,2.9580488204956055,1.9774318933486938
1696492783130216700,3.543216796875,-2.82623553276062,2.6739110946655273,2.2048778533935547
1696492783140216600,3.553216552734375,-1.8724720478057861,2.2304372787475586,2.396106719970703
1696492783150216400,3.563216552734375,-0.6041414737701416,1.7429194450378418,2.6266396045684814
1696492783160216600,3.573216552734375,0.7481400966644287,1.2423462867736816,2.7283363342285156
1696492783170216400,3.583216552734375,1.9186782836914062,0.632512092590332,2.888476848602295
1696492783180216600,3.593216552734375,3.484879970550537,0.03470420837402344,2.598715305328369
1696492783190216400,3.603216552734375,5.421289920806885,-0.4449939727783203,1.9454524517059326
1696492783200216600,3.613216552734375,7.813879013061523,-1.1127700805664062,1.1752054691314697
1696492783210216400,3.623216552734375,9.712258338928223,-1.7010040283203125,0.6908786296844482
1696492783220216600,3.633216552734375,10.043153762817383,-2.1160717010498047,-0.08330988883972168
1696492783230216400,3.643216552734375,9.062655448913574,-2.4892520904541016,-1.3542180061340332
1696492783240216600,3.653216552734375,7.521149635314941,-2.8358535766601562,-2.681445360183716
1696492783250216400,3.663216552734375,5.753043174743652,-2.99942684173584,-4.083247184753418
1696492783260216600,3.673216552734375,4.442537784576416,-2.6182641983032227,-4.3839921951293945
1696492783270216400,3.683216552734375,3.5384578704833984,-1.6688899993896484,-3.9261667728424072
1696492783280216600,3.693216552734375,2.362718343734741,-1.2174358367919922,-3.372182607650757
1696492783290216400,3.703216552734375,1.5526819229125977,-1.2568740844726562,-2.9747567176818848
1696492783300216600,3.713216552734375,0.9154970645904541,-1.9411792755126953,-2.9505858421325684
1696492783310216400,3.723216552734375,-0.33071470260620117,-3.048220634460449,-2.8803486824035645
1696492783320216600,3.733216552734375,-1.6172115802764893,-4.437403678894043,-2.7526345252990723
1696492783330216400,3.743216552734375,-2.7020533084869385,-5.362750053405762,-2.176278591156006
1696492783340216600,3.753216552734375,-3.516752243041992,-5.137393951416016,-0.45283782482147217
1696492783350216400,3.763216552734375,-3.597604990005493,-3.648326873779297,1.6320397853851318
1696492783360216600,3.773216552734375,-3.5221188068389893,-2.213406562805176,2.09529709815979
1696492783370216400,3.783216552734375,-3.475546360015869,-0.9512014389038086,1.8484668731689453
1696492783380216600,3.793216552734375,-3.5571892261505127,0.30985355377197266,1.2374341487884521
1696492783390216400,3.803216552734375,-3.4939489364624023,1.542367935180664,0.5602362155914307
1696492783400216600,3.813216552734375,-3.465859889984131,2.641310214996338,-0.23994708061218262
1696492783410216400,3.823216552734375,-3.715147018432617,3.4723353385925293,-0.6180946826934814
1696492783420216600,3.833216552734375,-4.002740859985352,3.898271083831787,-0.551598072052002
1696492783430216400,3.843216552734375,-4.191575050354004,3.970428466796875,-0.18393969535827637
1696492783440216300,3.85321630859375,-4.193382263183594,3.4489898681640625,0.4995403289794922
1696492783450216400,3.863216552734375,-3.997548818588257,2.605762004852295,1.157639503479004
1696492783460216600,3.873216552734375,-3.8623716831207275,1.5606379508972168,1.780198335647583
1696492783470216400,3.883216552734375,-3.8842597007751465,0.7117586135864258,2.0486395359039307
1696492783480216600,3.893216552734375,-4.173486232757568,0.010637283325195312,2.2227871417999268
1696492783490216400,3.903216552734375,-4.7956624031066895,-0.627985954284668,2.7670414447784424
1696492783500216600,3.913216552734375,-4.935497283935547,-1.0185985565185547,3.5438449382781982
1696492783510216400,3.923216552734375,-4.32102108001709,-1.2091999053955078,3.7669239044189453
1696492783520216600,3.933216552734375,-3.481090545654297,-0.8618803024291992,3.50618839263916
1696492783530216400,3.943216552734375,-2.8834800720214844,-0.31878185272216797,2.6868152618408203
1696492783540216600,3.953216552734375,-2.7212750911712646,0.25400638580322266,1.8133821487426758
1696492783550216400,3.963216552734375,-2.5065183639526367,0.7042531967163086,1.4594204425811768
1696492783560216600,3.973216552734375,-2.2484517097473145,1.0190906524658203,1.5283634662628174
1696492783570216400,3.983216552734375,-1.828643798828125,1.336777687072754,1.5716838836669922
1696492783580216600,3.993216552734375,-1.3321409225463867,1.5904617309570312,1.2736072540283203
1696492783590216400,4.003216552734375,-0.9858384728431702,1.707503318786621,0.953754186630249
1696492783600216600,4.013216552734375,-0.8458796739578247,1.6747031211853027,0.8070769309997559
1696492783610216400,4.023216552734375,-0.9678067564964294,1.4240832328796387,0.6927251815795898
1696492783620216600,4.033216552734375,-1.0083668231964111,1.0766735076904297,0.5872440338134766
1696492783630216400,4.043216552734375,3.0611982345581055,0.1403369903564453,-0.6142430305480957
1696492783640216600,4.053216552734375,3.788193464279175,-0.5645694732666016,-2.211622714996338
1696492783650216400,4.063216552734375,2.0557827949523926,-0.727996826171875,-2.458158493041992
1696492783660216600,4.073216552734375,0.6719171404838562,-0.6074914932250977,-2.4386372566223145
1696492783670216400,4.083216552734375,0.16927653551101685,-0.22466182708740234,-1.9091368913650513
1696492783680216600,4.093216552734375,0.9692279100418091,0.4167051315307617,-0.321821928024292
1696492783690216400,4.103216552734375,2.2607502937316895,0.9348859786987305,0.7395429611206055
1696492783700216600,4.113216552734375,2.893489360809326,1.1376543045043945,1.1291370391845703
1696492783710216400,4.123216552734375,3.002401351928711,1.0929641723632812,1.5656702518463135
1696492783720216600,4.133216552734375,2.466242551803589,0.898890495300293,1.7409634590148926
1696492783730216400,4.143216552734375,1.3695762157440186,0.7369852066040039,1.6665315628051758
1696492783740216600,4.153216552734375,0.16225479543209076,0.6640510559082031,1.3489525318145752
1696492783750216400,4.163216552734375,-0.6840060949325562,0.6681814193725586,0.7316596508026123
1696492783760216600,4.173216552734375,-1.3050967454910278,0.7061014175415039,0.11481189727783203
1696492783770216400,4.183216552734375,-1.7247371673583984,0.6394672393798828,-0.3899075984954834
1696492783780216600,4.193216552734375,-1.832610845565796,0.4162588119506836,-0.6726338863372803
1696492783790216400,4.203216552734375,-1.6728401184082031,0.11802196502685547,-0.6629042625427246
1696492783800216300,4.21321630859375,-1.1994812488555908,-0.11721324920654297,-0.3411080837249756
1696492783810216400,4.223216552734375,-0.393144428730011,-0.22056102752685547,-0.04076838493347168
1696492783820216300,4.23321630859375,0.6691237092018127,-0.1269683837890625,0.10354113578796387
1696492783830216400,4.243216552734375,1.911818504333496,0.08148384094238281,0.18303942680358887
1696492783840216300,4.25321630859375,3.142678737640381,0.3480825424194336,0.297443151473999
1696492783850216000,4.2632158203125,4.087735176086426,0.5448389053344727,0.528313159942627
1696492783860216000,4.273216064453125,4.6542181968688965,0.6153564453125,0.7462735176086426
1696492783870216000,4.2832158203125,4.807674884796143,0.593989372253418,0.9968633651733398
1696492783880216000,4.293216064453125,4.500186443328857,0.364410400390625,1.338655710220337
1696492783890216400,4.303216552734375,3.724491596221924,-0.10078811645507812,1.6547813415527344
1696492783900216600,4.313216552734375,2.6492090225219727,-0.6393709182739258,1.975503921508789
1696492783910216400,4.323216552734375,1.637323021888733,-1.039351463317871,2.1426634788513184
1696492783920216600,4.333216552734375,0.8293910026550293,-1.2896394729614258,2.2352049350738525
1696492783930216400,4.343216552734375,0.35480332374572754,-1.3286304473876953,2.2033112049102783
1696492783940216600,4.353216552734375,0.13902652263641357,-1.3101749420166016,1.8709592819213867
1696492783950216400,4.363216552734375,0.28588366508483887,-1.2114534378051758,1.326723337173462
1696492783960216600,4.373216552734375,0.7732573747634888,-0.9472112655639648,0.6480982303619385
1696492783970216400,4.383216552734375,1.6224088668823242,-0.7045059204101562,-0.00008749961853027344
1696492783980216600,4.393216552734375,3.164193868637085,-0.7445287704467773,0.022046327590942383
1696492783990216400,4.403216552734375,5.002566337585449,-1.282155990600586,0.6388888359069824
1696492784000216600,4.413216552734375,6.2506184577941895,-1.9807367324829102,1.501358985900879
1696492784010216400,4.423216552734375,6.7483320236206055,-2.329629898071289,2.4025962352752686
1696492784020216600,4.433216552734375,6.304720878601074,-2.211446762084961,3.169006109237671
1696492784030216400,4.443216552734375,5.066878795623779,-1.7816886901855469,3.428398370742798
1696492784040216600,4.453216552734375,3.516321897506714,-1.171457290649414,3.3403420448303223
1696492784050216400,4.463216552734375,1.9943418502807617,-0.5815553665161133,2.9409518241882324
1696492784060216600,4.473216552734375,0.6334545612335205,-0.2434530258178711,2.4430463314056396
1696492784070216400,4.483216552734375,-0.5954100489616394,-0.3210325241088867,1.3961100578308105
1696492784080216600,4.493216552734375,-1.246516466140747,-0.5947113037109375,0.6809780597686768
1696492784090216400,4.503216552734375,-1.2809497117996216,-0.6786966323852539,-0.22610926628112793
1696492784100216600,4.513216552734375,-0.9155403971672058,-0.4295063018798828,-1.3920649290084839
1696492784110216400,4.523216552734375,-0.5925955772399902,-0.2705049514770508,-2.1456570625305176
1696492784120216600,4.533216552734375,-0.568892240524292,-0.23407363891601562,-2.3389320373535156
1696492784130216400,4.543216552734375,-0.41982918977737427,-0.4971923828125,-2.4084508419036865
1696492784140216600,4.553216552734375,-0.3534618318080902,-1.1762523651123047,-1.6620301008224487
1696492784150217000,4.563217041015625,-1.0536606311798096,-1.8528852462768555,-0.7685713768005371
1696492784160216800,4.573216796875,-1.7462348937988281,-2.239171028137207,-0.07906723022460938
1696492784170217000,4.583217041015625,-2.152578592300415,-2.387998580932617,0.2834293842315674
1696492784180216800,4.593216796875,-2.359098434448242,-2.3198766708374023,1.0446064472198486
1696492784190216400,4.603216552734375,-2.699674129486084,-2.112759590148926,1.5067932605743408
1696492784200216600,4.613216552734375,-3.1100497245788574,-1.7234468460083008,1.814030408859253
1696492784210216000,4.6232158203125,-3.267249584197998,-1.1724882125854492,1.8156356811523438
1696492784220216000,4.633216064453125,-3.319239854812622,-0.7770719528198242,1.6965272426605225
1696492784230216000,4.6432158203125,-3.3184797763824463,-0.48070716857910156,1.632725477218628
1696492784240216000,4.653216064453125,-3.3579282760620117,-0.23919677734375,1.6574976444244385
1696492784250216000,4.6632158203125,-3.331655502319336,0.03925514221191406,1.5564451217651367
1696492784260216000,4.673216064453125,-3.277909755706787,0.28104209899902344,1.2991981506347656
1696492784270216000,4.6832158203125,-3.150019645690918,0.42272472381591797,0.8752892017364502
1696492784280216000,4.693216064453125,-3.2502291202545166,0.4322843551635742,0.33387041091918945
1696492784290216200,4.70321630859375,-3.483752489089966,0.4837656021118164,-0.18394994735717773
1696492784300216000,4.713216064453125,-3.801689624786377,0.4572582244873047,-0.5431926250457764
1696492784310216000,4.7232158203125,-3.908447027206421,0.3673439025878906,-0.8077930212020874
1696492784320216000,4.733216064453125,-3.9893994331359863,0.25214481353759766,-1.0615344047546387
1696492784330216000,4.7432158203125,-3.909529447555542,0.12247371673583984,-1.177189826965332
1696492784340216000,4.753216064453125,-3.8882882595062256,0.018842697143554688,-1.1825839281082153
1696492784350216000,4.7632158203125,-3.84358286857605,0.035599708557128906,-1.2447996139526367
1696492784360216000,4.773216064453125,-3.950369119644165,0.22429466247558594,-1.5423611402511597
1696492784370216000,4.7832158203125,-3.8265581130981445,0.3490419387817383,-1.055297613143921
1696492784380216000,4.793216064453125,-3.727517604827881,0.5050191879272461,-0.8612481355667114
1696492784390216000,4.8032158203125,-3.7938790321350098,0.7359108924865723,-0.7474710941314697
1696492784400216000,4.813216064453125,-3.9021096229553223,1.1006412506103516,-0.8083062171936035
1696492784410216000,4.8232158203125,-4.08696174621582,1.448678970336914,-0.9554972648620605
1696492784420216000,4.833216064453125,-4.2820587158203125,1.7185964584350586,-1.1114559173583984
1696492784430216000,4.8432158203125,-4.460687637329102,1.900073528289795,-1.139445185661316
1696492784440216000,4.853216064453125,-4.539069175720215,2.0303640365600586,-1.2304625511169434
1696492784450216000,4.8632158203125,-4.449731349945068,1.993278980255127,-1.126615047454834
1696492784460215800,4.8732158203125,-4.216300010681152,1.8685965538024902,-1.0828489065170288
1696492784470216000,4.8832158203125,-3.827716112136841,1.574887752532959,-0.9728259444236755
1696492784480215800,4.8932158203125,-3.287113904953003,1.1760401725769043,-0.8110975027084351
1696492784490216000,4.9032158203125,-2.5594658851623535,0.6180200576782227,-0.4775806665420532
1696492784500215800,4.9132158203125,-1.8166086673736572,0.061324119567871094,0.005239963531494141
1696492784510216400,4.923216552734375,-0.9945297241210938,-0.4988527297973633,0.5592484474182129
1696492784520216300,4.93321630859375,0.23880982398986816,-0.8969306945800781,0.9546205997467041
1696492784530216400,4.943216552734375,2.5058786869049072,-0.9046783447265625,1.2472882270812988
1696492784540216300,4.95321630859375,5.529587745666504,-0.7988176345825195,1.6814587116241455
1696492784550216400,4.963216552734375,7.635026454925537,-0.24885845184326172,1.959428071975708
1696492784560216300,4.97321630859375,8.287171363830566,0.3989067077636719,2.0035336017608643
1696492784570216400,4.983216552734375,7.684321403503418,1.0443029403686523,1.7494728565216064
1696492784580216300,4.99321630859375,6.677412986755371,1.5542082786560059,1.21319580078125
1696492784590216200,5.00321630859375,5.924396514892578,1.7288298606872559,0.5868363380432129
1696492784600216300,5.01321630859375,5.2818498611450195,1.4861254692077637,-0.022181272506713867
1696492784610216200,5.02321630859375,4.607770919799805,0.9528088569641113,-0.5558366775512695
1696492784620216300,5.03321630859375,3.7523672580718994,0.25801658630371094,-1.0132607221603394
1696492784630216200,5.04321630859375,2.744266986846924,-0.2717561721801758,-1.1279287338256836
1696492784640216300,5.05321630859375,1.6046862602233887,-0.5453519821166992,-0.9072924852371216
1696492784650216400,5.063216552734375,0.3994789123535156,-0.587092399597168,-0.8726117610931396
1696492784660216300,5.07321630859375,-0.5067691802978516,-0.4813671112060547,-1.178317904472351
1696492784670216400,5.083216552734375,-1.270559549331665,-0.3927764892578125,-1.6455554962158203
1696492784680216300,5.09321630859375,-2.360258102416992,-0.6377010345458984,-2.127239227294922
1696492784690216200,5.10321630859375,-3.3028759956359863,-1.2885866165161133,-2.21879243850708
1696492784700216300,5.11321630859375,-3.448652505874634,-2.1431798934936523,-1.9236327409744263
1696492784710216200,5.12321630859375,-2.842116355895996,-2.918996810913086,-1.3442089557647705
1696492784720216300,5.13321630859375,-2.121997356414795,-3.5200233459472656,-0.5144162178039551
1696492784730216200,5.14321630859375,-1.3688446283340454,-3.889948844909668,0.5329608917236328
1696492784740216300,5.15321630859375,-0.7187719345092773,-3.813906669616699,1.480938196182251
1696492784750216400,5.163216552734375,-0.2631537914276123,-3.370255470275879,1.995889663696289
1696492784760216600,5.173216552734375,-0.23571538925170898,-2.6529626846313477,2.2340598106384277
1696492784770216400,5.183216552734375,0.13652396202087402,-1.729543685913086,2.4367318153381348
1696492784780216600,5.193216552734375,1.3178131580352783,-0.6052942276000977,2.360259771347046
1696492784790216400,5.203216552734375,2.758265733718872,0.5687007904052734,1.850813388824463
1696492784800216300,5.21321630859375,2.897571325302124,1.641777515411377,0.8693158626556396
1696492784810216400,5.223216552734375,1.9558794498443604,2.3974685668945312,-0.26599955558776855
1696492784820216300,5.23321630859375,0.704216480255127,2.651838779449463,-0.9654363393783569
1696492784830216400,5.243216552734375,-0.15479302406311035,2.24808406829834,-1.0494524240493774
1696492784840216300,5.25321630859375,-0.9063053131103516,1.6319360733032227,-1.3573696613311768
1696492784850216400,5.263216552734375,-1.7405847311019897,1.0742359161376953,-1.7609177827835083
1696492784860216600,5.273216552734375,-2.381171226501465,0.8142156600952148,-1.9272589683532715
1696492784870216400,5.283216552734375,-2.4962196350097656,0.7571144104003906,-2.106217384338379
1696492784880216600,5.293216552734375,-2.513685464859009,0.5773649215698242,-2.2240614891052246
1696492784890216400,5.303216552734375,-2.6755950450897217,0.21753978729248047,-2.1612095832824707
1696492784900216600,5.313216552734375,-3.053842782974243,-0.3701896667480469,-2.0924882888793945
1696492784910216400,5.323216552734375,-3.58703351020813,-1.017801284790039,-1.891756296157837
1696492784920216600,5.333216552734375,-4.1629204750061035,-1.6083641052246094,-1.437675952911377
1696492784930216400,5.343216552734375,-4.5914225578308105,-2.179715156555176,-0.832878589630127
1696492784940216600,5.353216552734375,-4.613218307495117,-2.476748466491699,-0.15024900436401367
1696492784950216400,5.363216552734375,-4.006142616271973,-2.5737695693969727,0.4618253707885742
1696492784960216600,5.373216552734375,-3.4742789268493652,-2.3459043502807617,0.7218358516693115
1696492784970216400,5.383216552734375,-3.023737668991089,-1.9013080596923828,0.839972972869873
1696492784980216600,5.393216552734375,-2.694674015045166,-1.360595703125,0.8554093837738037
1696492784990216400,5.403216552734375,-2.6696689128875732,-0.8038520812988281,0.7477924823760986
1696492785000216600,5.413216552734375,-2.7026848793029785,-0.25188350677490234,0.7524778842926025
1696492785010216400,5.423216552734375,-2.756247043609619,0.27700328826904297,0.7126209735870361
1696492785020216600,5.433216552734375,-2.8137691020965576,0.7739057540893555,0.6192469596862793
1696492785030216400,5.443216552734375,-2.894700050354004,1.2154273986816406,0.5515437126159668
1696492785040216600,5.453216552734375,-2.7982664108276367,1.5832648277282715,0.4676392078399658
1696492785050216400,5.463216552734375,-2.520580291748047,1.8580546379089355,0.38800048828125
1696492785060216600,5.473216552734375,-2.3227734565734863,1.9015278816223145,0.3898916244506836
1696492785070216400,5.483216552734375,-2.227025270462036,1.7739157676696777,0.560736894607544
1696492785080216600,5.493216552734375,-2.107736587524414,1.5088768005371094,0.6969680786132812
1696492785090216400,5.503216552734375,-2.021273612976074,1.1136407852172852,1.0423753261566162
1696492785100216600,5.513216552734375,-1.9904241561889648,0.6690740585327148,1.3705480098724365
1696492785110216400,5.523216552734375,-1.9442486763000488,0.24799156188964844,1.5908558368682861
1696492785120216600,5.533216552734375,-1.960137128829956,-0.08607673645019531,1.5807368755340576
1696492785130216400,5.543216552734375,-1.9223699569702148,-0.29767608642578125,1.3609914779663086
1696492785140216600,5.553216552734375,-0.8522174954414368,-0.44376373291015625,0.923790454864502
1696492785150216400,5.563216552734375,1.4148579835891724,-0.7652654647827148,0.20633792877197266
1696492785160216600,5.573216552734375,2.0834107398986816,-0.6033191680908203,-0.25327014923095703
1696492785170216400,5.583216552734375,2.0988497734069824,-0.2928619384765625,-0.14663076400756836
1696492785180216600,5.593216552734375,1.991466999053955,-0.07716941833496094,0.03593158721923828
1696492785190216400,5.603216552734375,1.8882124423980713,0.05700492858886719,0.3436899185180664
1696492785200216300,5.61321630859375,1.8183778524398804,0.07059764862060547,0.6171691417694092
1696492785210216400,5.623216552734375,1.7283815145492554,0.027805328369140625,0.7730543613433838
1696492785220216300,5.63321630859375,1.6254117488861084,0.029870033264160156,0.5891427993774414
1696492785230216400,5.643216552734375,1.3593850135803223,0.02278900146484375,0.18444514274597168
1696492785240216300,5.65321630859375,0.9601449966430664,-0.0931854248046875,-0.11534404754638672
1696492785250216400,5.663216552734375,0.36072683334350586,-0.19684314727783203,-0.24965333938598633
1696492785260216300,5.67321630859375,-0.23201864957809448,-0.2249898910522461,-0.3643155097961426
1696492785270216400,5.683216552734375,-0.7268602848052979,-0.16267967224121094,-0.580686092376709
1696492785280216300,5.69321630859375,-0.9804455041885376,-0.09503173828125,-0.7571885585784912
1696492785290216400,5.703216552734375,-1.0363482236862183,-0.1029205322265625,-0.772697925567627
1696492785300216600,5.713216552734375,-0.9448457360267639,-0.27077388763427734,-0.5086860656738281
1696492785310216400,5.723216552734375,-0.7419558763504028,-0.3446025848388672,-0.2070767879486084
1696492785320216300,5.73321630859375,-0.5299175977706909,-0.24627113342285156,0.027474403381347656
1696492785330216400,5.743216552734375,-0.38526952266693115,-0.1445770263671875,0.307574987411499
1696492785340216300,5.75321630859375,-0.42103898525238037,-0.05742835998535156,0.6138114929199219
1696492785350216400,5.763216552734375,-0.560736894607544,-0.050627708435058594,0.8045942783355713
1696492785360216300,5.77321630859375,-0.8056625723838806,-0.024443626403808594,0.8367893695831299
1696492785370216400,5.783216552734375,-1.0634554624557495,0.0641622543334961,0.6429193019866943
1696492785380216600,5.793216552734375,-1.2888973951339722,0.20123004913330078,0.2832028865814209
1696492785390216400,5.803216552734375,-1.4089322090148926,0.4019889831542969,-0.16141057014465332
1696492785400216300,5.81321630859375,-1.478463888168335,0.4905567169189453,-0.5801432132720947
1696492785410216400,5.823216552734375,-1.4620988368988037,0.41785621643066406,-0.9117727279663086
1696492785420216300,5.83321630859375,-1.3361475467681885,0.2616300582885742,-1.1099684238433838
1696492785430216400,5.843216552734375,-1.1314798593521118,0.09219551086425781,-1.138505458831787
1696492785440216300,5.85321630859375,-0.8786591291427612,-0.02309417724609375,-1.0032987594604492
1696492785450216400,5.863216552734375,-0.5783531069755554,-0.0006465911865234375,-0.7643792629241943
1696492785460216300,5.87321630859375,-0.29965078830718994,0.057880401611328125,-0.5201601982116699
1696492785470216400,5.883216552734375,-0.10328590869903564,0.12262725830078125,-0.2543365955352783
1696492785480216300,5.89321630859375,0.038166046142578125,0.1351032257080078,0.061434268951416016
1696492785490216400,5.903216552734375,0.07591778039932251,0.15671348571777344,0.38167810440063477
1696492785500216600,5.913216552734375,0.02775275707244873,0.22294139862060547,0.7216579914093018
1696492785510216400,5.923216552734375,-0.07934242486953735,0.3071107864379883,1.0156059265136719
1696492785520216600,5.933216552734375,-0.2547084093093872,0.3587970733642578,1.298924207687378
1696492785530216400,5.943216552734375,-0.44299978017807007,0.32038116455078125,1.5424692630767822
1696492785540216600,5.953216552734375,-0.6469008922576904,0.15814495086669922,1.8241147994995117
1696492785550216400,5.963216552734375,-0.8602795004844666,-0.13533687591552734,2.0599443912506104
1696492785560216600,5.973216552734375,-1.1277490854263306,-0.46408653259277344,2.2532453536987305
1696492785570216400,5.983216552734375,-1.417356252670288,-0.7272005081176758,2.419724941253662
1696492785580216600,5.993216552734375,-1.73911452293396,-0.8985137939453125,2.504132032394409
1696492785590216400,6.003216552734375,-2.0237977504730225,-0.932917594909668,2.455124855041504
1696492785600216300,6.01321630859375,-2.227850914001465,-0.7131052017211914,2.140939235687256
1696492785610216400,6.023216552734375,-2.3306450843811035,-0.3011293411254883,1.5879731178283691
1696492785620216300,6.03321630859375,-2.3597183227539062,0.06212425231933594,1.0136373043060303
1696492785630216400,6.043216552734375,-2.3578100204467773,0.3484201431274414,0.4189484119415283
1696492785640216600,6.053216552734375,-2.3411030769348145,0.5701723098754883,-0.27689337730407715
1696492785650216400,6.063216552734375,-2.366401195526123,0.6654052734375,-0.9186022281646729
1696492785660216600,6.073216552734375,-2.3668460845947266,0.6662158966064453,-1.4134809970855713
1696492785670216400,6.083216552734375,-2.353102684020996,0.5975742340087891,-1.8406745195388794
1696492785680216600,6.093216552734375,-2.3189773559570312,0.4359445571899414,-2.167557716369629
1696492785690216400,6.103216552734375,-2.2376832962036133,0.2522449493408203,-2.2890372276306152
1696492785700216600,6.113216552734375,-2.115086555480957,0.0071048736572265625,-2.231757164001465
1696492785710216400,6.123216552734375,-1.9030694961547852,-0.25987911224365234,-2.243802547454834
1696492785720216600,6.133216552734375,-1.683147668838501,-0.4780921936035156,-2.278054714202881
1696492785730216400,6.143216552734375,-1.5067863464355469,-0.4998435974121094,-2.2531282901763916
1696492785740216600,6.153216552734375,-1.342963695526123,-0.5309648513793945,-1.9961230754852295
1696492785750216400,6.163216552734375,-1.1795774698257446,-0.5427923202514648,-1.7358286380767822
1696492785760216300,6.17321630859375,-0.9751327037811279,-0.45674800872802734,-1.4630441665649414
1696492785770216400,6.183216552734375,-0.6323639154434204,-0.32108306884765625,-1.158484935760498
1696492785780216300,6.19321630859375,-0.31287825107574463,-0.20571613311767578,-1.005882740020752
1696492785790216400,6.203216552734375,-0.009569168090820312,-0.13477134704589844,-0.9435956478118896
1696492785800216300,6.21321630859375,0.1865636110305786,-0.11747264862060547,-0.8866345882415771
1696492785810216400,6.223216552734375,0.2938765287399292,-0.055069923400878906,-0.7548720836639404
1696492785820216300,6.23321630859375,0.3490501642227173,-0.05738353729248047,-0.5202720165252686
1696492785830216400,6.243216552734375,0.3285176753997803,-0.10787487030029297,-0.28570127487182617
1696492785840216300,6.25321630859375,0.3025543689727783,-0.15482234954833984,-0.13905835151672363
1696492785850216200,6.26321630859375,0.15571486949920654,-0.13671875,-0.11658525466918945
1696492785860216000,6.273216064453125,-0.11203765869140625,-0.08278465270996094,-0.16391658782958984
1696492785870216200,6.28321630859375,-0.378667950630188,0.09342288970947266,-0.21197867393493652
1696492785880216000,6.293216064453125,-0.5958685874938965,0.3182210922241211,-0.152512788772583
1696492785890216200,6.30321630859375,-0.8080173134803772,0.5490036010742188,-0.03563880920410156
1696492785900216000,6.313216064453125,-0.9433581233024597,0.7386093139648438,0.10525774955749512
1696492785910216200,6.32321630859375,-0.950498104095459,0.8183126449584961,0.2862706184387207
1696492785920216000,6.333216064453125,-0.8706956505775452,0.8653678894042969,0.5300204753875732
1696492785930216200,6.34321630859375,-0.7688368558883667,0.8392066955566406,0.773292064666748
1696492785940216000,6.353216064453125,-0.6359206438064575,0.8089380264282227,0.9584662914276123
1696492785950216200,6.36321630859375,-0.5187515020370483,0.7357997894287109,0.9992940425872803
1696492785960216000,6.373216064453125,-0.3720996379852295,0.6266365051269531,0.9496934413909912
1696492785970216200,6.38321630859375,-0.23068618774414062,0.5147485733032227,0.8073348999023438
1696492785980216000,6.393216064453125,-0.13214468955993652,0.33322715759277344,0.7486002445220947
1696492785990216200,6.40321630859375,-0.0015500783920288086,0.07275867462158203,0.7444965839385986
1696492786000216000,6.413216064453125,0.17139220237731934,-0.12018585205078125,0.7521851062774658
1696492786010216200,6.42321630859375,0.164739727973938,-0.12094497680664062,0.7543210983276367
1696492786020216000,6.433216064453125,0.7608803510665894,-0.2572641372680664,0.579857349395752
1696492786030216200,6.44321630859375,1.0621176958084106,-0.22483539581298828,0.49049806594848633
1696492786040216000,6.453216064453125,1.3213000297546387,-0.17164897918701172,0.3600630760192871
1696492786050216200,6.46321630859375,1.456664800643921,-0.0932159423828125,0.22678589820861816
1696492786060216000,6.473216064453125,1.5906654596328735,0.03643035888671875,0.03954005241394043
1696492786070216200,6.48321630859375,1.5766278505325317,0.1495532989501953,-0.14821815490722656
1696492786080216000,6.493216064453125,1.3444724082946777,0.23537921905517578,-0.38109445571899414
1696492786090216200,6.50321630859375,0.9716343879699707,0.3213520050048828,-0.6149439811706543
1696492786100216000,6.513216064453125,0.36847686767578125,0.2918109893798828,-0.9402118921279907
1696492786110216200,6.52321630859375,-0.39287638664245605,0.2380056381225586,-1.1549843549728394
1696492786120216000,6.533216064453125,-0.977592945098877,0.12635135650634766,-1.4394744634628296
1696492786130216200,6.54321630859375,-1.4278385639190674,0.01694011688232422,-1.6465275287628174
1696492786140216000,6.553216064453125,-1.7310996055603027,-0.09346961975097656,-1.7204318046569824
1696492786150216400,6.563216552734375,-1.9465876817703247,-0.14869403839111328,-1.8325294256210327
1696492786160216300,6.57321630859375,-2.0315117835998535,-0.1699209213256836,-1.7829241752624512
1696492786170216400,6.583216552734375,-2.0108015537261963,-0.1323394775390625,-1.6503729820251465
1696492786180216300,6.59321630859375,-1.764237403869629,-0.05264091491699219,-1.5187078714370728
1696492786190216400,6.603216552734375,-1.352807641029358,0.0008153915405273438,-1.4373779296875
1696492786200216300,6.61321630859375,-0.9069816470146179,0.07495307922363281,-1.2517025470733643
1696492786210216400,6.623216552734375,-0.4949609041213989,0.08039474487304688,-1.0268725156784058
1696492786220216300,6.63321630859375,-0.1661982536315918,0.05973243713378906,-0.6656620502471924
1696492786230216400,6.643216552734375,-0.02629530429840088,0.08428096771240234,-0.2608208656311035
1696492786240216300,6.65321630859375,0.11171901226043701,0.11467266082763672,0.08278083801269531
1696492786250216400,6.663216552734375,0.05403780937194824,0.1430654525756836,0.33730387687683105
1696492786260216300,6.67321630859375,0.06405365467071533,0.31491851806640625,0.24050402641296387
1696492786270216400,6.683216552734375,0.09373509883880615,0.4579029083251953,0.07140994071960449
1696492786280216300,6.69321630859375,0.1811619997024536,0.5297374725341797,-0.008664369583129883
1696492786290216400,6.703216552734375,0.29449212551116943,0.4429302215576172,-0.08857893943786621
1696492786300216600,6.713216552734375,0.42928922176361084,0.3201637268066406,0.000030994415283203125
1696492786310216400,6.723216552734375,0.4839712381362915,0.18070220947265625,0.14545631408691406
1696492786320216300,6.73321630859375,0.47433775663375854,0.07164382934570312,0.15353894233703613
1696492786330216400,6.743216552734375,0.3904576897621155,-0.026877403259277344,-0.07881498336791992
1696492786340216300,6.75321630859375,0.2893611788749695,-0.016791343688964844,-0.09705543518066406
1696492786350216400,6.763216552734375,0.19688278436660767,0.05433177947998047,-0.34126877784729004
1696492786360216300,6.77321630859375,0.2272312045097351,0.1530447006225586,-0.49567675590515137
1696492786370216400,6.783216552734375,0.3228414058685303,0.3418254852294922,-0.5064992904663086
1696492786380216600,6.793216552734375,0.4043266177177429,0.5752229690551758,-0.5716638565063477
1696492786390216400,6.803216552734375,0.4752134084701538,0.8529138565063477,-0.6122801303863525
1696492786400216300,6.81321630859375,0.471143901348114,1.066720962524414,-0.6127958297729492
1696492786410216400,6.823216552734375,0.4665185809135437,1.1974782943725586,-0.4057650566101074
1696492786420216300,6.83321630859375,0.2783861756324768,1.2452154159545898,-0.08966994285583496
1696492786430216400,6.843216552734375,0.0068915486335754395,1.1980342864990234,0.20371580123901367
1696492786440216300,6.85321630859375,-0.3042506277561188,0.9865608215332031,0.2872889041900635
1696492786450216400,6.863216552734375,-0.515571117401123,0.6376447677612305,0.4830136299133301
1696492786460216300,6.87321630859375,-0.6944563984870911,0.22869873046875,0.6978907585144043
1696492786470216400,6.883216552734375,-0.7250994443893433,-0.3571805953979492,0.8405778408050537
1696492786480216300,6.89321630859375,-0.6201111078262329,-0.9765119552612305,1.0260119438171387
1696492786490216400,6.903216552734375,-0.5378040075302124,-1.5481157302856445,1.28743314743042
1696492786500216600,6.913216552734375,-0.11736911535263062,-1.8776092529296875,1.416581630706787
1696492786510216400,6.923216552734375,0.6385983824729919,-1.5363588333129883,1.052783489227295
1696492786520216600,6.933216552734375,1.3309082984924316,-0.4619617462158203,0.19418048858642578
1696492786530216400,6.943216552734375,1.5451364517211914,1.136484146118164,-0.8384194374084473
1696492786540216600,6.953216552734375,1.4943530559539795,2.8894100189208984,-1.9364838600158691
1696492786550216400,6.963216552734375,0.9341870546340942,4.412622451782227,-3.3476715087890625
1696492786560216600,6.973216552734375,-0.08730244636535645,5.35046911239624,-4.981039047241211
1696492786570216400,6.983216552734375,-0.6428179740905762,5.723980903625488,-6.536429405212402
1696492786580216600,6.993216552734375,-1.2750508785247803,5.482684135437012,-8.00689697265625
1696492786590216700,7.003216796875,-2.8354437351226807,5.1909871101379395,-9.19326400756836
1696492786600216600,7.013216552734375,-4.178965091705322,4.590208530426025,-9.620253562927246
1696492786610216700,7.023216796875,-6.313940048217773,3.833892822265625,-8.101683616638184
1696492786620216600,7.033216552734375,-8.63198471069336,2.930908203125,-3.371175765991211
1696492786630216700,7.043216796875,-11.78919506072998,1.3932313919067383,1.6406359672546387
1696492786640216600,7.053216552734375,-12.20357894897461,-0.3382110595703125,4.644230842590332
1696492786650216700,7.063216796875,2.3341383934020996,-3.51290225982666,8.191667556762695
1696492786660216600,7.073216552734375,-2.8421478271484375,-4.365109443664551,0.2400721311569214
1696492786670216700,7.083216796875,-9.971126556396484,-3.510385513305664,-3.676982879638672
1696492786680216600,7.093216552734375,-7.575176239013672,-2.0567169189453125,-0.5842100381851196
1696492786690216700,7.103216796875,-1.4294946193695068,-0.8358879089355469,0.7283385396003723
1696492786700216600,7.113216552734375,-1.6382040977478027,0.20566082000732422,-0.747925877571106
1696492786710216700,7.123216796875,-7.243227958679199,1.3561348915100098,-0.6175661087036133
1696492786720216600,7.133216552734375,-7.069838047027588,2.136415958404541,1.7795379161834717
1696492786730216700,7.143216796875,-1.2914366722106934,2.401085376739502,3.6766467094421387
1696492786740216600,7.153216552734375,-3.4533517360687256,2.651412010192871,1.787567377090454
1696492786750216400,7.163216552734375,-3.1628870964050293,3.04695463180542,2.3934497833251953
1696492786760216600,7.173216552734375,2.9509429931640625,3.2728841304779053,3.4489471912384033
1696492786770216400,7.183216552734375,11.101371765136719,2.441615104675293,0.06064268946647644
1696492786780216600,7.193216552734375,13.512194633483887,2.3253164291381836,-4.9006876945495605
1696492786790216400,7.203216552734375,-6.112463474273682,7.611564636230469,-4.865031719207764
1696492786800216600,7.213216552734375,-12.541289329528809,7.7968549728393555,0.20970439910888672
1696492786810216400,7.223216552734375,-9.305978775024414,6.148531913757324,-2.8036861419677734
1696492786820216600,7.233216552734375,-2.8897228240966797,6.15736198425293,-5.705626487731934
1696492786830216400,7.243216552734375,-5.29353141784668,4.758452415466309,-4.310775279998779
1696492786840216600,7.253216552734375,-2.4794530868530273,4.386188507080078,-1.0004234313964844
1696492786850216400,7.263216552734375,4.4691877365112305,3.0644094944000244,1.6974622011184692
1696492786860216600,7.273216552734375,5.091560363769531,0.9529469013214111,1.243053674697876
1696492786870216400,7.283216552734375,2.1263322830200195,-1.1953388452529907,-1.5259361267089844
1696492786880216600,7.293216552734375,-1.1789178848266602,-3.1274943351745605,-3.116408586502075
1696492786890216400,7.303216552734375,-0.23682785034179688,-4.339192867279053,-3.527029514312744
1696492786900216300,7.31321630859375,-1.596001148223877,-4.265360355377197,-1.0431177616119385
1696492786910216400,7.323216552734375,-0.8112325668334961,-1.6727559566497803,1.4992796182632446
1696492786920216300,7.33321630859375,-0.6311550140380859,1.9430649280548096,2.1491477489471436
1696492786930216400,7.343216552734375,-1.8703365325927734,4.824210166931152,3.4986915588378906
1696492786940216000,7.353216064453125,1.519322395324707,5.329011917114258,3.774688243865967
1696492786950216200,7.36321630859375,5.5329437255859375,2.525020122528076,0.14554119110107422
1696492786960216000,7.373216064453125,6.8807573318481445,-1.4253979921340942,-4.598453521728516
1696492786970216200,7.38321630859375,7.457464218139648,-4.51328182220459,-7.661672592163086
1696492786980216000,7.393216064453125,6.65328311920166,-5.176364898681641,-8.466354370117188
1696492786990216200,7.40321630859375,4.870019912719727,-3.204347610473633,-5.815729141235352
1696492787000216000,7.413216064453125,3.253462791442871,-0.9458664655685425,-4.607155799865723
1696492787010216200,7.42321630859375,-1.2616682052612305,0.47286534309387207,-2.7886366844177246
1696492787020216600,7.433216552734375,-5.87904691696167,1.0479354858398438,0.22011053562164307
1696492787030216400,7.443216552734375,-5.940238952636719,0.38766980171203613,-0.029870271682739258
1696492787040216600,7.453216552734375,-0.7158355712890625,-0.22737574577331543,-2.2098217010498047
1696492787050216400,7.463216552734375,0.4129486083984375,0.3999898433685303,-6.755261421203613
1696492787060216600,7.473216552734375,2.32059383392334,1.3653700351715088,-8.88117504119873
1696492787070216400,7.483216552734375,2.1918888092041016,1.5451271533966064,-9.542255401611328
1696492787080216600,7.493216552734375,-0.9500598907470703,1.3931608200073242,-9.26151180267334
1696492787090216400,7.503216552734375,-0.2916402816772461,0.6604704856872559,-7.556114196777344
1696492787100216800,7.513216796875,-0.6447229385375977,-0.07261514663696289,-6.768716812133789
1696492787110217000,7.523217041015625,-0.7235994338989258,-1.1372196674346924,-4.016481399536133
1696492787120216800,7.533216796875,0.6679601669311523,-4.070900917053223,-0.6417468786239624
1696492787130217000,7.543217041015625,-1.4409046173095703,-3.6605026721954346,-0.49438905715942383
1696492787140216800,7.553216796875,-4.746619701385498,-0.6780154705047607,0.9241106510162354
1696492787150217000,7.563217041015625,-6.5876874923706055,2.838189125061035,3.0916240215301514
1696492787160217000,7.573217041015625,-7.484250068664551,2.74904727935791,7.698202133178711
1696492787170217000,7.583217041015625,-8.225868225097656,0.9556803703308105,8.219758033752441
1696492787180216800,7.593216796875,-8.557297706604004,1.1234455108642578,5.248426914215088
1696492787190217000,7.603217041015625,-8.768423080444336,2.375502586364746,3.578819513320923
1696492787200216800,7.613216796875,-4.002190113067627,2.810162305831909,2.5670201778411865
1696492787210217000,7.623217041015625,0.8638830184936523,1.8525865077972412,2.5798025131225586
1696492787220217300,7.63321728515625,6.257119178771973,-2.5024168491363525,2.0823473930358887
1696492787230217200,7.64321728515625,7.20306396484375,-4.472566604614258,4.224349021911621
1696492787240217600,7.653217529296875,6.441224098205566,-1.8874809741973877,4.972015857696533
1696492787250217500,7.663217529296875,6.237759590148926,-0.14646482467651367,5.164114952087402
1696492787260217600,7.673217529296875,5.857602119445801,-1.0924447774887085,6.300710678100586
1696492787270217500,7.683217529296875,8.0819091796875,-1.128193736076355,4.2753448486328125
1696492787280217600,7.693217529296875,5.015337944030762,-1.5398883819580078,4.6269121170043945
1696492787290217500,7.703217529296875,2.816267967224121,-1.2789558172225952,5.354985237121582
1696492787300217600,7.713217529296875,4.131147384643555,0.07358646392822266,4.313066482543945
1696492787310217500,7.723217529296875,3.8804283142089844,-0.08226883411407471,4.068294525146484
1696492787320217300,7.73321728515625,2.7444372177124023,-1.498697280883789,4.3773345947265625
1696492787330217200,7.74321728515625,2.636868476867676,-2.2559919357299805,2.7066831588745117
1696492787340217300,7.75321728515625,3.5354576110839844,-2.233710289001465,0.547187089920044
1696492787350217200,7.76321728515625,3.2396535873413086,-2.2997918128967285,-0.5645360946655273
1696492787360217300,7.77321728515625,1.7192859649658203,-2.6867098808288574,0.5395581722259521
1696492787370217200,7.78321728515625,0.8051900863647461,-2.2971177101135254,1.7519407272338867
1696492787380217300,7.79321728515625,0.8497657775878906,-2.2954859733581543,1.6467704772949219
1696492787390217200,7.80321728515625,0.43431663513183594,-0.5682979822158813,2.894322395324707
1696492787400216800,7.813216796875,-0.7594990730285645,-0.4045366048812866,2.8599352836608887
1696492787410216700,7.823216796875,-1.2444276809692383,-0.7315149307250977,2.381394386291504
1696492787420216800,7.833216796875,-0.40015411376953125,-1.0876450538635254,1.460660457611084
1696492787430216700,7.843216796875,-0.8761000633239746,-1.679360032081604,0.9774665832519531
1696492787440216800,7.853216796875,-2.8420028686523438,-2.9417009353637695,-0.412416934967041
1696492787450216700,7.863216796875,-2.9842915534973145,-4.531067371368408,-3.588726043701172
1696492787460216800,7.873216796875,-0.19253253936767578,-5.458227634429932,-8.716806411743164
1696492787470216700,7.883216796875,7.503396034240723,-5.018943786621094,-12.478371620178223
1696492787480216800,7.893216796875,20.75320053100586,-4.36738920211792,-2.3456130027770996
1696492787490216700,7.903216796875,21.459529876708984,-5.412275314331055,24.89720916748047
1696492787500216800,7.913216796875,12.992422103881836,2.286660671234131,20.940019607543945
1696492787510216700,7.923216796875,-1.8229641914367676,9.21728229522705,5.553445339202881
1696492787520216300,7.93321630859375,-17.756126403808594,8.426523208618164,-7.112481117248535
1696492787530216400,7.943216552734375,-18.643646240234375,3.8340110778808594,-7.380753517150879
1696492787540216300,7.95321630859375,-12.076586723327637,2.178358554840088,-5.467413902282715
1696492787550216400,7.963216552734375,-1.1987957954406738,-0.6242503523826599,3.559818744659424
1696492787560216300,7.97321630859375,8.981420516967773,-2.272738218307495,4.969889163970947
1696492787570216400,7.983216552734375,10.125795364379883,-1.7849328517913818,1.9581189155578613
1696492787580216300,7.99321630859375,1.1625967025756836,-0.6145356893539429,-0.463836669921875
1696492787590216400,8.003216552734376,-4.763609886169434,1.2897783517837524,0.9441981315612793
1696492787600216300,8.01321630859375,-2.44400691986084,2.025813579559326,3.8574275970458984
1696492787610216400,8.023216552734375,2.98468017578125,-0.07975834608078003,4.5750322341918945
1696492787620216300,8.03321630859375,4.0273213386535645,-3.379981756210327,2.2724828720092773
1696492787630216400,8.043216552734375,1.8343043327331543,-4.944681167602539,-1.666152000427246
1696492787640216300,8.05321630859375,-0.47166967391967773,-4.480988502502441,-4.087829113006592
1696492787650216400,8.063216552734374,-1.1071228981018066,-2.754918336868286,-3.8652384281158447
1696492787660216300,8.07321630859375,0.17821741104125977,-0.9189077019691467,-2.737619638442993
1696492787670216400,8.083216552734376,1.644266128540039,0.31218844652175903,-2.306962251663208
1696492787680216300,8.09321630859375,1.8103299140930176,0.9220807552337646,-2.0874762535095215
1696492787690216400,8.103216552734375,0.9172048568725586,1.142622470855713,-1.2496328353881836
1696492787700216300,8.11321630859375,0.19411849975585938,1.1270949840545654,-0.20709562301635742
1696492787710216400,8.123216552734375,0.21958398818969727,1.1191693544387817,-0.23720121383666992
1696492787720216300,8.13321630859375,0.6873378753662109,0.36992621421813965,1.1112756729125977
1696492787730216400,8.143216552734375,0.8400826454162598,0.07330888509750366,0.28504467010498047
1696492787740216300,8.15321630859375,0.41057825088500977,-0.09846621751785278,-0.48379945755004883
1696492787750216400,8.163216552734376,-0.19865894317626953,-0.057148098945617676,-0.5910196304321289
1696492787760216300,8.17321630859375,-0.7388777732849121,0.002520740032196045,0.028526782989501953
1696492787770216400,8.183216552734375,-0.8310775756835938,-0.22549939155578613,0.715184211730957
1696492787780216300,8.19321630859375,-0.37816476821899414,-0.3870044946670532,1.0599722862243652
1696492787790216400,8.203216552734375,0.3179178237915039,-0.2283732295036316,1.137350082397461
1696492787800216300,8.21321630859375,0.7103052139282227,0.08926773071289062,1.1879215240478516
1696492787810216400,8.223216552734375,0.36821460723876953,0.27153390645980835,1.252519130706787
1696492787820216300,8.23321630859375,-0.26465940475463867,0.3296746611595154,1.1299176216125488
1696492787830216400,8.243216552734374,-0.8207602500915527,0.4093776345252991,0.8145918846130371
1696492787840216300,8.25321630859375,-0.9018173217773438,0.4341215491294861,0.7316989898681641
1696492787850216400,8.263216552734375,-0.6128110885620117,0.39286214113235474,0.47330331802368164
1696492787860216300,8.27321630859375,-0.2832307815551758,0.22101682424545288,0.2220749855041504
1696492787870216400,8.283216552734375,0.007662773132324219,-0.07405322790145874,0.1455245018005371
1696492787880216300,8.29321630859375,0.22941827774047852,-0.2671804428100586,0.14538860321044922
1696492787890216400,8.303216552734375,0.3329048156738281,-0.39401036500930786,0.09412288665771484
1696492787900216300,8.31321630859375,0.4714231491088867,-0.4729464650154114,0.1523280143737793
1696492787910216400,8.323216552734374,0.6590495109558105,-0.632728099822998,-0.05831623077392578
1696492787920216300,8.33321630859375,0.636622428894043,-0.8085833787918091,-0.28168535232543945
1696492787930216400,8.343216552734376,0.3982052803039551,-0.7874242067337036,-0.34168386459350586
1696492787940216300,8.35321630859375,0.18276453018188477,-0.613031804561615,-0.39051198959350586
1696492787950216400,8.363216552734375,0.1837291717529297,-0.4758605360984802,-0.5306310653686523
1696492787960216300,8.37321630859375,0.24251079559326172,-0.5679975152015686,-0.8194746971130371
1696492787970216400,8.383216552734375,0.27196359634399414,-0.7570110559463501,-0.9404058456420898
1696492787980216300,8.39321630859375,0.22953176498413086,-0.8149507641792297,-0.8693304061889648
1696492787990216400,8.403216552734374,0.25899362564086914,-0.521047830581665,-0.7443785667419434
1696492788000216300,8.41321630859375,0.4597158432006836,-0.1792176365852356,-0.5166025161743164
1696492788010216400,8.423216552734376,0.40694236755371094,-0.004537045955657959,-0.19580984115600586
1696492788020216300,8.43321630859375,0.08758306503295898,0.02249133586883545,0.15688180923461914
1696492788030216400,8.443216552734375,-0.15993165969848633,0.02625858783721924,0.41623878479003906
1696492788040216300,8.45321630859375,-0.19503545761108398,0.03461003303527832,0.5137815475463867
1696492788050216400,8.463216552734375,-0.07150888442993164,-0.05547422170639038,0.36231565475463867
1696492788060216300,8.47321630859375,0.1042332649230957,-0.29948800802230835,0.16202402114868164
1696492788070216400,8.483216552734374,0.29748106002807617,-0.3574119806289673,0.007867813110351562
1696492788080216300,8.49321630859375,0.4282536506652832,-0.18127703666687012,0.006573677062988281
1696492788090216400,8.503216552734376,0.4405093193054199,0.02130115032196045,-0.008923530578613281
1696492788100216300,8.51321630859375,0.42437124252319336,0.12070298194885254,-0.1463475227355957
1696492788110216400,8.523216552734375,0.6122055053710938,0.2999584674835205,-0.41564512252807617
1696492788120216300,8.53321630859375,0.6515994071960449,0.12128722667694092,-0.6208758354187012
1696492788130216400,8.543216552734375,0.456601619720459,-0.05727744102478027,-0.7568469047546387
1696492788140216300,8.55321630859375,0.35767698287963867,-0.06496131420135498,-0.8075771331787109
1696492788150216400,8.563216552734374,0.2996654510498047,-0.04886305332183838,-0.831946849822998
1696492788160216300,8.57321630859375,0.27965259552001953,-0.01603102684020996,-0.8029022216796875
1696492788170216400,8.583216552734376,0.2576627731323242,-0.03391730785369873,-0.8674373626708984
1696492788180216300,8.59321630859375,0.22023677825927734,-0.11479067802429199,-0.9909229278564453
1696492788190216400,8.603216552734375,0.2946662902832031,-0.22168868780136108,-1.0473213195800781
1696492788200216300,8.61321630859375,0.5400075912475586,-0.03484785556793213,-0.9663352966308594
1696492788210216400,8.623216552734375,0.7750492095947266,-0.003017425537109375,-0.7853226661682129
1696492788220216300,8.63321630859375,0.7518510818481445,-0.16956424713134766,-0.6859731674194336
1696492788230216400,8.643216552734375,0.6069755554199219,-0.23532068729400635,-0.6140422821044922
1696492788240216300,8.65321630859375,0.49707698822021484,-0.2060721516609192,-0.7654705047607422
1696492788250216400,8.663216552734376,0.44185733795166016,-0.18817013502120972,-0.9397473335266113
1696492788260216300,8.67321630859375,0.22992610931396484,-0.1738489270210266,-0.6655583381652832
1696492788270216400,8.683216552734375,0.21879959106445312,-0.17494124174118042,-0.6480627059936523
1696492788280216300,8.69321630859375,0.17974281311035156,-0.08083617687225342,-0.464017391204834
1696492788290216400,8.703216552734375,0.2391977310180664,-0.017591476440429688,-0.31612062454223633
1696492788300216300,8.71321630859375,0.2521486282348633,-0.10516035556793213,-0.40368127822875977
1696492788310216400,8.723216552734375,0.3063821792602539,-0.07104527950286865,-0.43477725982666016
1696492788320216300,8.73321630859375,0.3364248275756836,0.07329213619232178,-0.37208080291748047
1696492788330216400,8.743216552734374,0.3329477310180664,0.20731377601623535,-0.3259444236755371
1696492788340216300,8.75321630859375,0.25878238677978516,0.24675416946411133,-0.3315925598144531
1696492788350216400,8.763216552734375,0.17685985565185547,0.251592755317688,-0.27285242080688477
1696492788360216300,8.77321630859375,0.18182373046875,0.2174595594406128,-0.20757722854614258
1696492788370216400,8.783216552734375,0.14545059204101562,0.037804245948791504,-0.2760491371154785
1696492788380216300,8.79321630859375,0.17351627349853516,-0.099967360496521,-0.4279289245605469
1696492788390216400,8.803216552734375,0.28466224670410156,-0.14572298526763916,-0.5214009284973145
1696492788400216300,8.81321630859375,0.25133705139160156,-0.1579737663269043,-0.4890146255493164
1696492788410216400,8.823216552734374,0.21041393280029297,0.007954716682434082,-0.4197111129760742
1696492788420216300,8.83321630859375,0.13076114654541016,-0.05894923210144043,-0.2992696762084961
1696492788430216400,8.843216552734376,0.16614532470703125,-0.2939404845237732,-0.3182544708251953
1696492788440216300,8.85321630859375,0.24406147003173828,-0.46189677715301514,-0.26397037506103516
1696492788450216400,8.863216552734375,0.3468780517578125,-0.33630287647247314,-0.3993229866027832
1696492788460216300,8.87321630859375,0.3764181137084961,-0.11751002073287964,-0.4079580307006836
1696492788470216400,8.883216552734375,0.20061492919921875,-0.09798938035964966,-0.4348115921020508
1696492788480216300,8.89321630859375,-0.05237007141113281,-0.11950403451919556,-0.35243797302246094
1696492788490216400,8.903216552734374,-0.05954551696777344,-0.11444729566574097,-0.19838619232177734
1696492788500216300,8.91321630859375,0.05692481994628906,-0.21674036979675293,-0.048084259033203125
1696492788510216400,8.923216552734376,0.1409587860107422,-0.22089093923568726,0.06193685531616211
1696492788520216300,8.93321630859375,0.13934040069580078,-0.17669439315795898,0.1784954071044922
1696492788530216400,8.943216552734375,0.052611351013183594,-0.12808889150619507,0.18865442276000977
1696492788540216300,8.95321630859375,-0.02095794677734375,-0.07401084899902344,0.09140253067016602
1696492788550216400,8.963216552734375,0.03301811218261719,0.04376786947250366,0.04339933395385742
1696492788560216300,8.97321630859375,0.041373252868652344,0.1656915545463562,0.13702821731567383
1696492788570216400,8.983216552734374,-0.09858036041259766,0.2291877269744873,0.32427072525024414
1696492788580216300,8.99321630859375,-0.15668773651123047,0.24411749839782715,0.34293079376220703
1696492788590216400,9.003216552734376,-0.032321929931640625,0.2511191964149475,0.2503547668457031
1696492788600216300,9.01321630859375,0.07843875885009766,0.17112594842910767,0.10895252227783203
1696492788610216400,9.023216552734375,0.08026790618896484,0.0046617984771728516,0.030040740966796875
1696492788620216300,9.03321630859375,0.08283424377441406,-0.11823827028274536,-0.026360511779785156
1696492788630216400,9.043216552734375,0.10924720764160156,-0.2050034999847412,-0.061061859130859375
1696492788640216300,9.05321630859375,0.08515548706054688,-0.2685285806655884,-0.030542850494384766
1696492788650216400,9.063216552734374,-0.046463966369628906,-0.2274000644683838,0.04044628143310547
1696492788660216300,9.07321630859375,-0.16827869415283203,-0.1915382742881775,0.11353158950805664
1696492788670216400,9.083216552734376,-0.20602130889892578,-0.17684447765350342,0.10466337203979492
1696492788680216300,9.09321630859375,-0.14070415496826172,-0.1684246063232422,0.08347415924072266
1696492788690216400,9.103216552734375,-0.0011854171752929688,-0.14221155643463135,0.05974388122558594
1696492788700216300,9.11321630859375,0.15257644653320312,-0.0821194052696228,0.08646965026855469
1696492788710216400,9.123216552734375,0.18666458129882812,0.015966355800628662,0.20449209213256836
1696492788720216300,9.13321630859375,0.13967609405517578,0.10290306806564331,0.2333831787109375
1696492788730216400,9.143216552734375,0.056949615478515625,0.040177345275878906,0.17604541778564453
1696492788740216300,9.15321630859375,-0.011555671691894531,-0.02039283514022827,0.15016555786132812
1696492788750216400,9.163216552734376,-0.018632888793945312,0.0677754282951355,0.1831836700439453
1696492788760216300,9.17321630859375,-0.05779743194580078,0.19881534576416016,0.18924999237060547
1696492788770216400,9.183216552734375,-0.12611675262451172,0.28649044036865234,0.21050214767456055
1696492788780216300,9.19321630859375,-0.1535940170288086,0.296975314617157,0.24361705780029297
1696492788790216400,9.203216552734375,-0.16428852081298828,0.34986793994903564,0.24572086334228516
1696492788800216300,9.21321630859375,-0.08860301971435547,0.43756091594696045,0.2381582260131836
1696492788810216400,9.223216552734375,-0.019989013671875,0.49246644973754883,0.18768024444580078
1696492788820216300,9.23321630859375,0.0155181884765625,0.4856334924697876,0.09380006790161133
1696492788830216400,9.243216552734374,-0.001495361328125,0.4960852861404419,0.16528892517089844
1696492788840216300,9.25321630859375,-0.1018209457397461,0.5504002571105957,0.19323205947875977
1696492788850216400,9.263216552734375,-0.2327127456665039,0.6314064264297485,0.1967620849609375
1696492788860216300,9.27321630859375,-0.33396148681640625,0.5648931264877319,0.2517662048339844
1696492788870216400,9.283216552734375,-0.23099803924560547,0.46304523944854736,0.32705211639404297
1696492788880216300,9.29321630859375,-0.09928417205810547,0.3888125419616699,0.3925209045410156
1696492788890216400,9.303216552734375,-0.051421165466308594,0.36347270011901855,0.4196286201477051
1696492788900216300,9.31321630859375,-0.025246620178222656,0.3764277696609497,0.4757862091064453
1696492788910216400,9.323216552734374,-0.11437225341796875,0.39845001697540283,0.45379209518432617
1696492788920216300,9.33321630859375,-0.21552371978759766,0.3026472330093384,0.4703974723815918
1696492788930216400,9.343216552734376,-0.2089834213256836,0.2861281633377075,0.46315431594848633
1696492788940216300,9.35321630859375,-0.1909637451171875,-0.042221665382385254,0.38933420181274414
1696492788950216400,9.363216552734375,-0.09462833404541016,-0.20280933380126953,0.30176401138305664
1696492788960216300,9.37321630859375,-0.066375732421875,-0.29794102907180786,0.16015338897705078
1696492788970216400,9.383216552734375,-0.030701637268066406,-0.3803137540817261,-0.002494335174560547
1696492788980216300,9.39321630859375,-0.023718833923339844,-0.4407053589820862,-0.10227203369140625
1696492788990216400,9.403216552734374,-0.009083747863769531,-0.45047396421432495,-0.12013673782348633
1696492789000216300,9.41321630859375,0.049373626708984375,-0.4313341975212097,-0.12382316589355469
1696492789010216400,9.423216552734376,0.10147476196289062,-0.4649081826210022,-0.05836200714111328
1696492789020216300,9.43321630859375,0.15500926971435547,-0.46420252323150635,-0.14284658432006836
1696492789030216400,9.443216552734375,0.18601036071777344,-0.4758791923522949,-0.2524232864379883
1696492789040216300,9.45321630859375,0.21123027801513672,-0.47394752502441406,-0.3965482711791992
1696492789050216400,9.463216552734375,0.2447643280029297,-0.45372843742370605,-0.4597744941711426
1696492789060216300,9.47321630859375,0.30815792083740234,-0.37183672189712524,-0.4828338623046875
1696492789070216400,9.483216552734374,0.40131282806396484,-0.23632901906967163,-0.5059995651245117
1696492789080216300,9.49321630859375,0.4171562194824219,-0.152016282081604,-0.4533529281616211
1696492789090216400,9.503216552734376,0.3809051513671875,-0.14603447914123535,-0.4011707305908203
1696492789100216300,9.51321630859375,0.3460350036621094,-0.17795723676681519,-0.38436031341552734
1696492789110216400,9.523216552734375,0.30043792724609375,-0.13968753814697266,-0.4004073143005371
1696492789120216300,9.53321630859375,0.21294307708740234,-0.1060183048248291,-0.3749117851257324
1696492789130216400,9.543216552734375,0.10020828247070312,-0.049913644790649414,-0.3031001091003418
1696492789140216300,9.55321630859375,0.038834571838378906,-0.030387163162231445,-0.19474315643310547
1696492789150216400,9.563216552734374,0.05817127227783203,0.02227950096130371,-0.09652042388916016
1696492789160216300,9.57321630859375,0.11045074462890625,0.055106163024902344,0.012935161590576172
1696492789170216400,9.583216552734376,0.12622451782226562,0.04374337196350098,0.1098031997680664
1696492789180216300,9.59321630859375,0.047995567321777344,-0.028807997703552246,0.14152240753173828
1696492789190216400,9.603216552734375,-0.03833961486816406,-0.09517836570739746,0.1684103012084961
1696492789200216300,9.61321630859375,-0.06882190704345703,-0.15969973802566528,0.2661294937133789
1696492789210216400,9.623216552734375,-0.08955001831054688,-0.12889277935028076,0.3250265121459961
1696492789220216300,9.63321630859375,-0.08182239532470703,-0.05972158908843994,0.3125934600830078
1696492789230216400,9.643216552734375,-0.11271190643310547,-0.009747624397277832,0.2289128303527832
1696492789240216300,9.65321630859375,-0.10559272766113281,0.00959920883178711,0.1983332633972168
1696492789250216400,9.663216552734376,-0.07457351684570312,0.026755332946777344,0.17975854873657227
1696492789260216300,9.67321630859375,-0.022376060485839844,0.04654383659362793,0.2288341522216797
1696492789270216400,9.683216552734375,0.036446571350097656,0.09025728702545166,0.2932853698730469
1696492789280216300,9.69321630859375,0.00399017333984375,0.04730081558227539,0.32965087890625
1696492789290216400,9.703216552734375,-0.04271221160888672,0.0279616117477417,0.3491196632385254
1696492789300216300,9.71321630859375,-0.055545806884765625,0.03229331970214844,0.32493019104003906
1696492789310216400,9.723216552734375,-0.013203620910644531,0.03434574604034424,0.2765774726867676
1696492789320216300,9.73321630859375,-0.021523475646972656,0.04122114181518555,0.20735931396484375
1696492789330216400,9.743216552734374,0.0032711029052734375,0.03336381912231445,0.16289091110229492
1696492789340216300,9.75321630859375,0.020219802856445312,0.06366610527038574,0.1483750343322754
1696492789350216400,9.763216552734375,0.015291213989257812,0.0625683069229126,0.15366363525390625
1696492789360216300,9.77321630859375,0.019555091857910156,0.04683518409729004,0.09236574172973633
1696492789370216400,9.783216552734375,0.04957389831542969,0.035805344581604004,0.04200172424316406
1696492789380216300,9.79321630859375,0.07442092895507812,0.036728858947753906,0.004305362701416016
1696492789390216400,9.803216552734375,0.08721351623535156,-0.0028151273727416992,-0.028500080108642578
1696492789400216300,9.81321630859375,0.049640655517578125,-0.013418793678283691,-0.04922914505004883
1696492789410216400,9.823216552734374,0.05732440948486328,-0.0026341676712036133,-0.007250308990478516
1696492789420216300,9.83321630859375,0.045676231384277344,0.053366899490356445,-0.010368824005126953
1696492789430216400,9.843216552734376,-0.011546134948730469,0.08271968364715576,-0.02044534683227539
1696492789440216300,9.85321630859375,-0.006374359130859375,0.069038987159729,-0.03318452835083008
1696492789450216400,9.863216552734375,0.05633354187011719,0.05347168445587158,-0.06293010711669922
1696492789460216300,9.87321630859375,0.13123321533203125,-0.000055789947509765625,-0.009356975555419922
1696492789470216400,9.883216552734375,0.16089725494384766,-0.027297258377075195,0.09165096282958984
1696492789480216300,9.89321630859375,0.09970855712890625,-0.03344011306762695,0.13269281387329102
1696492789490216400,9.903216552734374,0.04111003875732422,-0.013710975646972656,0.13996458053588867
1696492789500216300,9.91321630859375,-0.015137672424316406,-0.0037419795989990234,0.0515899658203125
1696492789510216400,9.923216552734376,-0.06171226501464844,-0.031834959983825684,0.013266563415527344
1696492789520216300,9.93321630859375,-0.029216766357421875,-0.028257131576538086,0.0010404586791992188
1696492789530216400,9.943216552734375,0.029318809509277344,-0.06738150119781494,-0.0035505294799804688
1696492789540216300,9.95321630859375,0.09453487396240234,-0.10159409046173096,0.011888980865478516
1696492789550216400,9.963216552734375,0.0875701904296875,-0.07377004623413086,0.020847320556640625
1696492789560216300,9.97321630859375,0.06622028350830078,-0.07954049110412598,0.013111114501953125
1696492789570216400,9.983216552734374,0.04963874816894531,-0.07997095584869385,-0.011481285095214844
1696492789580216300,9.99321630859375,0.06898784637451172,-0.020223617553710938,-0.009838581085205078
1696492789590216400,10.003216552734376,0.057206153869628906,0.044438719749450684,-0.0034170150756835938
1696492789600216300,10.01321630859375,0.04067420959472656,0.07018029689788818,0.015048027038574219
1696492789610216400,10.023216552734375,0.021699905395507812,0.08580851554870605,-0.02851104736328125
1696492789620216300,10.03321630859375,0.048061370849609375,0.09631431102752686,-0.02621316909790039
1696492789630216400,10.043216552734375,0.0839385986328125,0.10232579708099365,-0.07175445556640625
1696492789640216300,10.05321630859375,0.09832572937011719,0.12552142143249512,-0.09115743637084961
1696492789650216400,10.063216552734374,0.0984811782836914,0.151170015335083,-0.048564910888671875
1696492789660216300,10.07321630859375,0.0603790283203125,0.1669844388961792,-0.0012068748474121094
1696492789670216400,10.083216552734376,0.027113914489746094,0.12032437324523926,0.014992713928222656
1696492789680216300,10.09321630859375,0.02280139923095703,0.06882846355438232,0.06910419464111328
1696492789690216400,10.103216552734375,0.021208763122558594,0.06797921657562256,0.11295747756958008
1696492789700216300,10.11321630859375,0.022480010986328125,0.07684040069580078,0.15111780166625977
1696492789710216400,10.123216552734375,0.03820610046386719,0.0831758975982666,0.1101384162902832
1696492789720216300,10.13321630859375,-0.013334274291992188,0.08216822147369385,0.031321048736572266
1696492789730216400,10.143216552734375,-0.02679729461669922,0.030690312385559082,0.07028675079345703
1696492789740216300,10.15321630859375,0.03346061706542969,0.0017334222793579102,0.0812230110168457
1696492789750216400,10.163216552734376,0.09807682037353516,-0.035808563232421875,0.1190500259399414
1696492789760216300,10.17321630859375,0.15047168731689453,-0.07520937919616699,0.13806581497192383
1696492789770216400,10.183216552734375,0.1382131576538086,-0.05746352672576904,0.15478754043579102
1696492789780216300,10.19321630859375,0.006424903869628906,-0.028334498405456543,0.14020299911499023
1696492789790216400,10.203216552734375,-0.036643028259277344,0.01474452018737793,0.13744449615478516
1696492789800216300,10.21321630859375,-0.04173755645751953,0.003458261489868164,0.07528448104858398
1696492789810216400,10.223216552734375,-0.02814483642578125,-0.007176995277404785,0.07849264144897461
1696492789820216300,10.23321630859375,0.022520065307617188,0.030543088912963867,0.07912397384643555
1696492789830216400,10.243216552734374,0.11350631713867188,0.046823859214782715,0.06370306015014648
1696492789840216300,10.25321630859375,0.11821842193603516,0.02922368049621582,0.0748896598815918
1696492789850216400,10.263216552734375,0.0991678237915039,0.013593435287475586,0.09064435958862305
1696492789860216300,10.27321630859375,0.12325000762939453,0.008072376251220703,0.12777185440063477
1696492789870216400,10.283216552734375,0.11631965637207031,-0.07551455497741699,0.1453232765197754
1696492789880216300,10.29321630859375,0.0925149917602539,-0.11986899375915527,0.11500310897827148
1696492789890216400,10.303216552734375,0.029998779296875,-0.12109005451202393,0.0064601898193359375
1696492789900216300,10.31321630859375,-0.04472637176513672,-0.09179723262786865,-0.07033014297485352
1696492789910216400,10.323216552734374,-0.05971336364746094,-0.07939708232879639,-0.12050056457519531
1696492789920216300,10.33321630859375,-0.026937484741210938,-0.08677864074707031,-0.10800600051879883
1696492789930216400,10.343216552734376,0.06301403045654297,-0.09661078453063965,-0.05421304702758789
1696492789940216300,10.35321630859375,0.0974740982055664,-0.08494079113006592,-0.009126663208007812
1696492789950216400,10.363216552734375,0.17234134674072266,0.06028592586517334,0.029512405395507812
1696492789960216300,10.37321630859375,0.15361595153808594,0.11123192310333252,0.05687236785888672
1696492789970216400,10.383216552734375,0.0924234390258789,0.0776524543762207,0.009008407592773438
1696492789980216300,10.39321630859375,0.057750701904296875,0.015036582946777344,-0.06543111801147461
1696492789990216400,10.403216552734374,0.05171775817871094,0.06463503837585449,-0.08212137222290039
1696492790000216300,10.41321630859375,0.04321765899658203,0.07305443286895752,-0.06977605819702148
1696492790010216400,10.423216552734376,0.034827232360839844,0.09789490699768066,-0.00963735580444336
1696492790020216300,10.43321630859375,0.06468677520751953,0.06775116920471191,0.0386662483215332
1696492790030216400,10.443216552734375,0.09217166900634766,0.04234170913696289,0.08220052719116211
1696492790040216300,10.45321630859375,0.13639545440673828,0.05499863624572754,0.11630964279174805
1696492790050216400,10.463216552734375,0.12069511413574219,0.07678258419036865,0.12437963485717773
1696492790060216300,10.47321630859375,0.09076309204101562,0.13848626613616943,0.0031375885009765625
1696492790070216400,10.483216552734374,0.03717803955078125,0.14421916007995605,0.04438972473144531
1696492790080216300,10.49321630859375,0.022185325622558594,0.11166059970855713,0.07793140411376953
1696492790090216400,10.503216552734376,0.02389812469482422,0.2110590934753418,0.04450845718383789
1696492790100216300,10.51321630859375,0.06712627410888672,0.23986220359802246,0.10553979873657227
1696492790110216400,10.523216552734375,0.13688087463378906,0.13264453411102295,0.21398067474365234
1696492790120216300,10.53321630859375,0.1736583709716797,0.11945831775665283,0.3283514976501465
1696492790130216400,10.543216552734375,0.11804866790771484,0.18731248378753662,0.38334226608276367
1696492790140216300,10.55321630859375,0.11680316925048828,0.18180811405181885,0.3873777389526367
1696492790150216400,10.563216552734374,0.0763845443725586,0.1983778476715088,0.18047571182250977
1696492790160216300,10.57321630859375,0.09105396270751953,0.2304598093032837,-0.03809309005737305
1696492790170216400,10.583216552734376,0.07843589782714844,0.13755202293395996,-0.039064884185791016
1696492790180216300,10.59321630859375,0.0774526596069336,0.043753623962402344,-0.006210803985595703
1696492790190216400,10.603216552734375,0.04405975341796875,-0.0823373794555664,0.08099555969238281
1696492790200216300,10.61321630859375,0.08693313598632812,-0.027849197387695312,0.10640907287597656
1696492790210216400,10.623216552734375,0.1814413070678711,-0.1765305995941162,0.04771232604980469
1696492790220216300,10.63321630859375,0.1266622543334961,-0.4274942874908447,-0.1362743377685547
1696492790230216400,10.643216552734375,-0.011570930480957031,-0.4514995813369751,-0.32560110092163086
1696492790240216300,10.65321630859375,-0.13492870330810547,-0.32757508754730225,-0.4679443836212158
1696492790250216400,10.663216552734376,-0.14870643615722656,-0.3043208122253418,-0.5611851215362549
1696492790260216300,10.67321630859375,-0.0755167007446289,-0.3417088985443115,-0.5987594127655029
1696492790270216400,10.683216552734375,0.010101318359375,-0.3666312098503113,-0.5779311656951904
1696492790280216300,10.69321630859375,0.1468191146850586,-0.30428993701934814,-0.45650219917297363
1696492790290216400,10.703216552734375,0.30168628692626953,-0.22253715991973877,-0.27609872817993164
1696492790300216300,10.71321630859375,0.4035224914550781,-0.18975234031677246,-0.16459131240844727
1696492790310216400,10.723216552734375,0.4045696258544922,-0.21404486894607544,-0.16027021408081055
1696492790320216300,10.73321630859375,0.3507251739501953,-0.21172767877578735,-0.3334228992462158
1696492790330216400,10.743216552734374,0.26817989349365234,-0.20759719610214233,-0.5063166618347168
1696492790340216300,10.75321630859375,0.22106361389160156,-0.08348572254180908,-0.5631346702575684
1696492790350216400,10.763216552734375,0.14011764526367188,-0.08676373958587646,-0.4824686050415039
1696492790360216300,10.77321630859375,0.11478233337402344,-0.08091104030609131,-0.24948501586914062
1696492790370216400,10.783216552734375,0.10560035705566406,0.050971388816833496,-0.03929591178894043
1696492790380216300,10.79321630859375,0.0027065277099609375,0.11622393131256104,0.04479575157165527
1696492790390216400,10.803216552734375,0.009336471557617188,0.11461281776428223,0.060866594314575195
1696492790400216300,10.81321630859375,0.07903480529785156,0.1434401273727417,0.17584705352783203
1696492790410216400,10.823216552734374,0.10138988494873047,0.21540987491607666,0.2776334285736084
1696492790420216300,10.83321630859375,0.035399436950683594,0.2656329870223999,0.4220435619354248
1696492790430216400,10.843216552734376,0.029341697692871094,0.2957155704498291,0.4732027053833008
1696492790440216300,10.85321630859375,0.04493904113769531,0.3632098436355591,0.5411388874053955
1696492790450216400,10.863216552734375,0.06380271911621094,0.47475266456604004,0.52608323097229
1696492790460216300,10.87321630859375,0.2224884033203125,0.5918813943862915,0.5475738048553467
1696492790470216400,10.883216552734375,0.6061248779296875,0.4649922847747803,0.6937546730041504
1696492790480216300,10.89321630859375,0.8879613876342773,0.37046706676483154,0.9256048202514648
1696492790490216400,10.903216552734374,0.7637004852294922,0.5992381572723389,1.1605184078216553
1696492790500216300,10.91321630859375,0.39356136322021484,0.7381832599639893,1.2557792663574219
1696492790510216400,10.923216552734376,0.1993417739868164,0.6366182565689087,1.189159631729126
1696492790520216300,10.93321630859375,0.16514873504638672,0.5771232843399048,0.6990816593170166
1696492790530216400,10.943216552734375,0.09983634948730469,0.5163322687149048,0.2856943607330322
1696492790540216300,10.95321630859375,-0.04422760009765625,0.5802621841430664,0.16142559051513672
1696492790550216400,10.963216552734375,0.18102073669433594,0.5796394348144531,0.29913926124572754
1696492790560216300,10.97321630859375,0.46897411346435547,0.5820286273956299,0.4828529357910156
1696492790570216400,10.983216552734374,0.3535757064819336,0.6356905698776245,0.6444807052612305
1696492790580216300,10.99321630859375,0.1601581573486328,0.5851781368255615,0.6651427745819092
1696492790590216400,11.003216552734376,0.27661609649658203,0.4680216312408447,0.5027294158935547
1696492790600216300,11.01321630859375,0.5403280258178711,0.24601131677627563,0.1736443042755127
1696492790610216400,11.023216552734375,0.47747230529785156,0.13939648866653442,-0.14541053771972656
1696492790620216300,11.03321630859375,0.1590557098388672,0.02938789129257202,-0.34065937995910645
1696492790630216400,11.043216552734375,-0.1842355728149414,-0.025173187255859375,-0.5918765068054199
1696492790640216300,11.05321630859375,-0.35129356384277344,-0.0707024335861206,-0.8301026821136475
1696492790650216400,11.063216552734374,-0.12397575378417969,-0.18765532970428467,-0.7441694736480713
1696492790660216300,11.07321630859375,-0.14063549041748047,-0.15082556009292603,-0.7087972164154053
1696492790670216400,11.083216552734376,0.8063926696777344,-0.30254268646240234,-0.644848108291626
1696492790680216300,11.09321630859375,1.098933219909668,-0.2828353941440582,-0.539341926574707
1696492790690216400,11.103216552734375,1.0810108184814453,-0.24320900440216064,0.214310884475708
1696492790700216300,11.11321630859375,0.8506565093994141,-0.05944341421127319,0.7256960868835449
1696492790710216400,11.123216552734375,0.686859130859375,-0.12044492363929749,0.914250373840332
1696492790720216300,11.13321630859375,0.6793670654296875,-0.07030472159385681,0.9267578125
1696492790730216400,11.143216552734375,0.6644353866577148,-0.30375438928604126,0.6362094879150391
1696492790740216300,11.15321630859375,0.6855573654174805,-0.46385064721107483,0.48218488693237305
1696492790750216400,11.163216552734376,0.679112434387207,-0.40180787444114685,0.4930388927459717
1696492790760216300,11.17321630859375,0.7331018447875977,-0.32765477895736694,0.16783380508422852
1696492790770216400,11.183216552734375,0.9068136215209961,-0.13157346844673157,-0.12996315956115723
1696492790780216300,11.19321630859375,1.4582605361938477,-0.24538922309875488,-0.008209943771362305
1696492790790216400,11.203216552734375,1.6153526306152344,-0.3600359857082367,0.1993272304534912
1696492790800216300,11.21321630859375,1.560821533203125,-0.23752157390117645,0.3571484088897705
1696492790810216400,11.223216552734375,1.573319435119629,-0.2517118752002716,0.12809538841247559
1696492790820216300,11.23321630859375,1.6507654190063477,-0.7096834182739258,1.068368673324585
1696492790830216400,11.243216552734374,1.5336990356445312,-0.3966232240200043,0.746652364730835
1696492790840216300,11.25321630859375,1.3988456726074219,-0.010416984558105469,0.3236870765686035
1696492790850216400,11.263216552734375,1.1238393783569336,0.030869126319885254,0.3281996250152588
1696492790860216300,11.27321630859375,0.8775043487548828,-0.11731630563735962,0.20484614372253418
1696492790870216400,11.283216552734375,0.6540660858154297,0.17038166522979736,-0.4205632209777832
1696492790880216300,11.29321630859375,0.6556787490844727,0.3277297019958496,-0.37169742584228516
1696492790890216400,11.303216552734375,0.18202686309814453,-0.0720449686050415,-0.3851144313812256
1696492790900216300,11.31321630859375,0.3977985382080078,0.11105895042419434,-0.4647815227508545
1696492790910216400,11.323216552734374,0.6781806945800781,-0.3697127103805542,-1.0631989240646362
1696492790920216300,11.33321630859375,0.8602809906005859,-1.7346642017364502,0.15942597389221191
1696492790930216400,11.343216552734376,1.1068487167358398,-2.8653368949890137,-0.0540921688079834
1696492790940216300,11.35321630859375,1.3735771179199219,-3.38454270362854,-0.6176732778549194
1696492790950216400,11.363216552734375,1.6024551391601562,-3.0696234703063965,-0.5829652547836304
1696492790960216300,11.37321630859375,1.963517189025879,-2.382723569869995,-0.6995080709457397
1696492790970216400,11.383216552734375,1.8088502883911133,-2.1681149005889893,-0.6087790727615356
1696492790980216300,11.39321630859375,1.538482666015625,-2.221062421798706,-0.9868416786193848
1696492790990216400,11.403216552734374,1.3060283660888672,-2.3169243335723877,-1.2845991849899292
1696492791000216300,11.41321630859375,1.3869400024414062,-2.278367280960083,-1.5036274194717407
1696492791010216400,11.423216552734376,2.265348434448242,-2.0746922492980957,-1.637613296508789
1696492791020216300,11.43321630859375,2.8247547149658203,-2.1059138774871826,-1.2147258520126343
1696492791030216400,11.443216552734375,2.5429325103759766,-1.8631389141082764,-0.9658001661300659
1696492793848838100,14.261838134765625,-6.502542018890381,0.27899742126464844,8.034161567687988
1696492793858837200,14.271837158203125,-0.7399933338165283,6.407143592834473,-0.8542256355285645
1696492793868837000,14.281837158203125,-6.541627883911133,-0.014997482299804688,8.778485298156738
1696492793878837200,14.291837158203125,-6.029216766357422,-0.024443626403808594,8.892951011657715
1696492793888837000,14.301837158203124,1.5114564895629883,-1.0137767791748047,-1.6024954319000244
1696492793898837200,14.311837158203126,-1.6034393310546875,0.6291708946228027,-2.337692975997925
1696492793908837000,14.321837158203126,-4.584258556365967,0.35652780532836914,7.1074628829956055
1696492793918837200,14.331837158203125,-4.759012222290039,-0.14564132690429688,5.565524101257324
1696492793928837000,14.341837158203125,-4.999967575073242,-0.7328586578369141,3.867588758468628
1696492793938837200,14.351837158203125,-5.303599834442139,-1.1384944915771484,2.3392956256866455
1696492793948837000,14.361837158203125,-5.311898231506348,-1.5731172561645508,1.0251660346984863
1696492793958837200,14.371837158203125,-5.113996982574463,-2.0193495750427246,-0.1120147705078125
1696492793968837000,14.381837158203124,-4.753982067108154,-2.1804075241088867,-1.3084933757781982
1696492793978837200,14.391837158203124,-4.449116230010986,-2.2170000076293945,-2.2524304389953613
1696492793988837000,14.401837158203126,-4.304990768432617,-2.2302680015563965,-2.923839569091797
1696492793998837200,14.411837158203125,-4.288663387298584,-2.1719441413879395,-3.3891663551330566
1696492794008837400,14.42183740234375,-4.433182239532471,-2.077235698699951,-3.718801975250244
1696492794018837200,14.431837158203125,-4.4794697761535645,-1.92775297164917,-3.8897829055786133
1696492794028837400,14.44183740234375,-4.253834247589111,-1.9425439834594727,-3.9871575832366943
1696492794038837200,14.451837158203125,-4.136122703552246,-1.9050865173339844,-4.108151912689209
1696492794048837400,14.46183740234375,-4.198922157287598,-1.5865492820739746,-4.215904235839844
1696492794058837200,14.471837158203124,-4.307355880737305,-1.1668915748596191,-4.3642754554748535
1696492794068837400,14.48183740234375,3.357273578643799,-0.2180347442626953,-4.5746378898620605
1696492794078837200,14.491837158203126,-0.7027072906494141,0.3246035575866699,-5.416632652282715
1696492794088837400,14.50183740234375,4.7074408531188965,1.0709781646728516,-5.382118225097656
1696492794098837200,14.511837158203125,13.173009872436523,1.7513158321380615,-7.217568397521973
1696492794108837400,14.52183740234375,18.12995147705078,0.8942723274230957,-7.460642337799072
1696492794118837200,14.531837158203125,4.140607833862305,-1.068748950958252,-2.250561237335205
1696492794128837400,14.54183740234375,-3.426220417022705,-2.365751266479492,-1.3271476030349731
1696492794138837200,14.551837158203124,-3.9880242347717285,-2.752885341644287,0.47091078758239746
1696492794148837400,14.56183740234375,-4.117935657501221,-3.2402257919311523,0.3851025104522705
1696492794158837200,14.571837158203126,-5.803254127502441,-3.007571220397949,-2.3713607788085938
1696492794168837400,14.58183740234375,-4.784389019012451,-3.1033108234405518,-2.062718391418457
1696492794178837200,14.591837158203125,-3.2227258682250977,-1.7224316596984863,-2.607576370239258
1696492794188837400,14.60183740234375,-1.4084515571594238,-0.46138250827789307,-2.598069667816162
1696492794198837200,14.611837158203125,-0.8078813552856445,-0.2788398265838623,-2.352210760116577
1696492794208837400,14.62183740234375,-0.5436878204345703,-0.08980977535247803,-1.9367239475250244
1696492794218837200,14.631837158203124,0.8174495697021484,-0.2590804100036621,-1.1169407367706299
1696492794228837400,14.64183740234375,2.164419174194336,-0.11130106449127197,0.11611366271972656
1696492794238837200,14.651837158203126,3.1427040100097656,-0.35545819997787476,0.425020694732666
1696492794248837400,14.66183740234375,4.131526947021484,-1.238196611404419,-1.3875203132629395
1696492794258837200,14.671837158203125,5.238260269165039,-2.1180014610290527,-1.8789305686950684
1696492794268837400,14.68183740234375,4.628728866577148,-2.226874828338623,-2.161029815673828
1696492794278837200,14.691837158203125,3.6230287551879883,-2.514897346496582,-2.2987914085388184
1696492794288837400,14.70183740234375,2.8041114807128906,-2.549332618713379,-2.078315258026123
1696492794298837200,14.711837158203124,2.595648765563965,-2.30894136428833,-1.4852228164672852
1696492794308837400,14.72183740234375,2.8976101875305176,-1.8602287769317627,-1.0029349327087402
1696492794318837200,14.731837158203126,3.2883448600769043,-1.2867308855056763,-0.8749074935913086
1696492794328837400,14.74183740234375,3.7112035751342773,-0.7534382343292236,0.6137576103210449
1696492794338837200,14.751837158203125,4.156521797180176,-0.5609006881713867,1.412714958190918
1696492794348837400,14.76183740234375,3.6498594284057617,0.26977109909057617,-0.3208351135253906
1696492794358837200,14.771837158203125,2.168957233428955,-0.5213503837585449,-1.271139144897461
1696492794368837400,14.78183740234375,1.4291706085205078,-1.4533915519714355,-1.114987850189209
1696492794378837200,14.791837158203125,1.0471906661987305,-2.221099853515625,-1.7717766761779785
1696492794388837400,14.80183740234375,0.1833639144897461,-2.095114231109619,-1.5542831420898438
1696492794398837200,14.811837158203126,-0.5656177997589111,-1.5617384910583496,-1.521256923675537
1696492794408837400,14.82183740234375,-1.309312105178833,-0.9053664207458496,-1.2280173301696777
1696492794418837200,14.831837158203125,-2.2542665004730225,-0.4081592559814453,-1.4323725700378418
1696492794428837400,14.84183740234375,-3.665104389190674,-0.6602606773376465,-0.9001665115356445
1696492794438837200,14.851837158203125,-6.275973796844482,-0.8156704902648926,-2.974726676940918
1696492794448837400,14.86183740234375,-6.381128787994385,-1.1245074272155762,-1.3458223342895508
1696492794458837200,14.871837158203125,-5.258055210113525,-0.8456182479858398,-0.16185379028320312
1696492794468837400,14.88183740234375,-4.176263332366943,-0.6301536560058594,-0.4715123176574707
1696492794769144600,15.18214453125,-0.43253493309020996,-0.36307334899902344,0.42998838424682617
1696492794779144700,15.192144775390625,1.320887565612793,-0.28778696060180664,0.09045934677124023
1696492794789144600,15.20214453125,2.1231207847595215,-0.1877150535583496,-0.38553714752197266
1696492794799144700,15.212144775390625,0.6278464794158936,-0.6955680847167969,-0.5939021110534668
1696492794809144600,15.22214453125,0.20027875900268555,-0.8328924179077148,-0.7976531982421875
1696492794819144700,15.232144775390625,0.37467122077941895,-0.4927668571472168,-0.6865229606628418
1696492794829144600,15.24214453125,0.3006734848022461,-0.27788686752319336,-0.2969841957092285
1696492794839144700,15.252144775390626,0.04652142524719238,-0.37829113006591797,0.13303422927856445
1696492794849144600,15.26214453125,-0.045461416244506836,-0.19702577590942383,0.4984002113342285
1696492794859144700,15.272144775390625,-0.27653932571411133,0.05335092544555664,0.6948847770690918
1696492794869144600,15.28214453125,-0.6467888355255127,0.21247529983520508,1.0487732887268066
1696492794879144700,15.292144775390625,-0.3774101734161377,0.28847455978393555,1.0931334495544434
1696492794889144600,15.30214453125,-0.1944739818572998,0.22116804122924805,1.5267157554626465
1696492794899144700,15.312144775390625,-0.9031884670257568,0.5676121711730957,1.503502368927002
1696492794909144600,15.32214453125,-0.5658242702484131,0.2518906593322754,2.652900218963623
1696492794919144700,15.332144775390624,-0.21502995491027832,0.10661554336547852,2.470818042755127
1696492794929144600,15.34214453125,-0.12813401222229004,0.09869718551635742,2.767408847808838
1696492794939144700,15.352144775390625,1.693347454071045,-1.3002872467041016,0.40842247009277344
1696492794949144600,15.36214453125,1.3701705932617188,-1.1899657249450684,0.5232501029968262
1696492794959144700,15.372144775390625,1.0261130332946777,-1.0788464546203613,0.6706347465515137
1696492794969144800,15.382144775390625,0.668179988861084,-0.9618358612060547,0.8468694686889648
1696492794979144700,15.392144775390625,1.8003807067871094,-1.696399450302124,-1.649010181427002
1696492794989144800,15.402144775390624,1.4637537002563477,-1.5756471157073975,-1.4407024383544922
1696492794999144700,15.412144775390624,1.5662403106689453,0.3974466323852539,-5.859260082244873
1696492795009144800,15.422144775390626,1.2530336380004883,0.5369381904602051,-5.632719993591309
1696492795019145000,15.43214501953125,0.9484691619873047,0.6837019920349121,-5.392209529876709
1696492795029144800,15.442144775390625,0.6404848098754883,0.8365793228149414,-5.119959831237793
1696492795039145000,15.45214501953125,0.32685279846191406,0.9952828884124756,-4.806210517883301
1696492795049144800,15.462144775390625,0.009561538696289062,1.1560420989990234,-4.441216945648193
1696492795059144700,15.472144775390625,0.8275384902954102,0.9239482879638672,-5.000871658325195
1696492795069144600,15.48214453125,0.5242204666137695,1.093958854675293,-4.534419059753418
1696492795079144700,15.492144775390624,2.3183650970458984,0.05828213691711426,-4.628390789031982
1696492795089144600,15.50214453125,1.996809959411621,0.009162664413452148,-2.374704360961914
1696492795099146000,15.51214599609375,1.8429985046386719,0.11408400535583496,-1.9841480255126953
1696492795109146000,15.52214599609375,1.7857294082641602,0.1426401138305664,-1.8046784400939941
1696492795119145700,15.532145751953125,-0.40450572967529297,0.6201846599578857,-0.20167303085327148
1696492795129145600,15.5421455078125,-1.4411873817443848,0.28447890281677246,0.5937643051147461
1696492795139145700,15.552145751953125,-1.8644757270812988,-0.07492876052856445,0.13165569305419922
1696492795149145300,15.562145263671875,-2.0357465744018555,-0.6430263519287109,-0.3271723985671997
1696492795159144400,15.57214453125,-1.216423511505127,-2.007437229156494,0.7600088119506836
1696492795169144600,15.58214453125,-1.2222847938537598,-2.0637083053588867,0.8823122978210449
1696492795179144400,15.59214453125,-1.2240862846374512,-2.1014304161071777,0.9594854116439819
1696492795189144600,15.60214453125,-1.059657096862793,-2.092264175415039,1.6856920719146729
1696492795199144400,15.61214453125,-0.674830436706543,-2.346691131591797,1.9976413249969482
1696492795209144600,15.62214453125,0.08217906951904297,-2.5470197200775146,2.097372531890869
