time,seconds_elapsed,z,y,x
1695712346315368400,0.228368408203125,2.3830947875976562,1.3255505561828613,2.4271700382232666
1695712346334472400,0.247472412109375,2.243194580078125,2.287080764770508,-0.64774489402771
1695712346353546000,0.2665458984375,0.7539043426513672,0.7792301177978516,0.4510619640350342
1695712346372680400,0.285680419921875,-0.09111785888671875,-1.7914535999298096,2.2879464626312256
1695712346391723300,0.30472314453125,2.1421871185302734,-1.4565584659576416,2.0626089572906494
1695712346410858000,0.32385791015625,1.9406156539916992,1.1402957439422607,0.2438802719116211
1695712346429931300,0.34293115234375,1.9622020721435547,1.1823832988739014,-0.35224616527557373
1695712346449035300,0.36203515625,1.1335229873657227,1.292982816696167,0.034610629081726074
1695712346468108800,0.38110888671875,1.4445724487304688,1.1891133785247803,0.09988623857498169
1695712346487212800,0.400212890625,0.19010257720947266,1.0291099548339844,-0.429355263710022
1695712346506286300,0.419286376953125,-1.6703643798828125,0.8765928745269775,-0.6595231294631958
1695712346525390300,0.438390380859375,-1.8572053909301758,0.53891921043396,-0.5901816487312317
1695712346544464000,0.4574638671875,-0.8697586059570312,0.3479013442993164,0.05282998085021973
1695712346563567900,0.47656787109375,-1.5120344161987305,0.34425830841064453,0.3662942051887512
1695712346582641400,0.495641357421875,-2.7633790969848633,0.3713388442993164,-0.3396371006965637
1695712346601745400,0.514745361328125,-3.7470483779907227,0.4042339324951172,-1.1357539892196655
1695712346620819000,0.53381884765625,-2.9733152389526367,0.783174991607666,-0.7007907032966614
1695712346639923000,0.5529228515625,-0.8018693923950195,1.5174956321716309,0.3736543655395508
1695712346658996200,0.571996337890625,-0.19794654846191406,1.7177634239196777,0.9325965642929077
1695712346678100200,0.591100341796875,-2.037785530090332,0.8848257064819336,0.640090823173523
1695712346697204200,0.610204345703125,-4.386266708374023,-0.03203392028808594,-0.05463540554046631
1695712346716308200,0.62930810546875,-3.868438720703125,0.7853050231933594,-0.7624263763427734
1695712346735381800,0.6483818359375,-1.6859350204467773,1.896481990814209,-0.6712391376495361
1695712346754485800,0.66748583984375,-0.3044567108154297,1.5201163291931152,0.06150388717651367
1695712346773559300,0.686559326171875,-0.29635047912597656,1.600731372833252,0.09739542007446289
1695712346792663300,0.705663330078125,-0.10345268249511719,1.0105667114257812,-0.04308974742889404
1695712346811736800,0.72473681640625,-0.45920753479003906,1.0672621726989746,0.11058330535888672
1695712346830840800,0.7438408203125,-0.8720684051513672,1.0285096168518066,0.07812237739562988
1695712346849914400,0.762914306640625,-1.5432777404785156,1.3516230583190918,-0.3476196527481079
1695712346869018400,0.782018310546875,-2.1696643829345703,2.0986757278442383,-0.9525705575942993
1695712346888092000,0.801091796875,-1.7921743392944336,2.6718950271606445,-1.2308679819107056
1695712346907196000,0.82019580078125,-0.3509969711303711,1.9276771545410156,-0.4057391881942749
1695712346926269200,0.839269287109375,-0.12299442291259766,1.4796314239501953,0.26486527919769287
1695712346945373200,0.858373291015625,-0.3295145034790039,1.667954444885254,0.48586273193359375
1695712346964477200,0.877477294921875,0.2701101303100586,1.8371686935424805,1.004920244216919
1695712346983581200,0.896581298828125,1.3290214538574219,1.483290195465088,1.4540727138519287
1695712347002685200,0.915685302734375,1.866201400756836,1.3285245895385742,1.2539695501327515
1695712347021758700,0.9347587890625,1.1659088134765625,0.5713214874267578,1.4126349687576294
1695712347040832300,0.953832275390625,0.012837409973144531,0.3169980049133301,1.4976842403411865
1695712347059936300,0.972936279296875,0.16605854034423828,1.20750093460083,1.0203332901000977
1695712347079009800,0.992009765625,0.34331226348876953,0.8833713531494141,1.2047240734100342
1695712347098113800,1.01111376953125,0.7761955261230469,0.259246826171875,0.841783881187439
1695712347117187300,1.030187255859375,-0.4482307434082031,0.3759465217590332,0.6000922918319702
1695712347136291300,1.049291259765625,-2.0560855865478516,0.6494026184082031,0.3694925308227539
1695712347155395300,1.068395263671875,-1.4584121704101562,0.6539521217346191,0.3663754463195801
1695712347174468600,1.087468505859375,-0.15149402618408203,0.47225332260131836,0.6706581115722656
1695712347193572900,1.10657275390625,-0.5499439239501953,-0.09042119979858398,1.1962087154388428
1695712347212646100,1.125646240234375,-1.6138200759887695,0.4207725524902344,0.9448134899139404
1695712347231750100,1.144750244140625,-1.699026107788086,1.3578605651855469,0.6487588882446289
1695712347250823700,1.16382373046875,-0.4365711212158203,0.7116608619689941,0.6539523601531982
1695712347269958100,1.182958251953125,-0.3983478546142578,-0.23040437698364258,0.6778383255004883
1695712347289031700,1.20203173828125,-2.3274593353271484,0.35749149322509766,-0.26102685928344727
1695712347308135700,1.2211357421875,-3.4734487533569336,1.007211685180664,-0.8082573413848877
1695712347327209200,1.240209228515625,-2.5695343017578125,1.3157107830047607,-1.0974512100219727
1695712347346313200,1.259313232421875,-1.841888427734375,1.4086649417877197,-0.9501545429229736
1695712347365386800,1.27838671875,-1.1396942138671875,1.0759968757629395,-0.7139122486114502
1695712347384490800,1.29749072265625,-0.6199531555175781,1.0661721229553223,-0.4041447639465332
1695712347403564300,1.316564208984375,0.2395486831665039,1.887937068939209,-0.11243700981140137
1695712347422668300,1.335668212890625,-0.1757030487060547,2.3752617835998535,-0.19065642356872559
1695712347441741600,1.354741455078125,-1.8953313827514648,2.285451650619507,-0.7676975727081299
1695712347460845600,1.373845458984375,-1.8609991073608398,3.069020986557007,-0.9593527317047119
1695712347479919000,1.392919189453125,-0.45798492431640625,2.974040985107422,-0.4518568515777588
1695712347499023000,1.412023193359375,0.8324756622314453,1.737936019897461,0.0020537376403808594
1695712347518096600,1.4310966796875,-0.25973033905029297,1.4658524990081787,-0.031235337257385254
1695712347537200600,1.45020068359375,-0.9844856262207031,1.4226529598236084,0.003742218017578125
1695712347556304600,1.4693046875,-0.11031341552734375,1.3116967678070068,0.21548175811767578
1695712347575408600,1.48840869140625,0.7561988830566406,1.1607158184051514,0.4785478115081787
1695712347594482200,1.507482177734375,1.1902275085449219,0.8278272151947021,0.6201562881469727
1695712347613586200,1.526586181640625,1.4277877807617188,0.21340322494506836,0.5359762907028198
1695712347632659700,1.54565966796875,1.5484580993652344,0.5604443550109863,0.47218239307403564
1695712347651763700,1.564763671875,1.8635053634643555,1.2191011905670166,0.6684508323669434
1695712347670837200,1.583837158203125,2.000136375427246,1.86488938331604,1.049809217453003
1695712347689941200,1.602941162109375,2.318446159362793,2.394977331161499,1.2056081295013428
1695712347709014500,1.6220146484375,3.488290786743164,2.1384260654449463,1.1304165124893188
1695712347728149200,1.641149169921875,4.169361114501953,2.276923179626465,1.808308720588684
1695712347747192000,1.660192138671875,3.519312858581543,3.976332426071167,2.2386043071746826
1695712347766296000,1.679296142578125,3.3093948364257812,5.952566146850586,2.639693021774292
1695712347785369600,1.69836962890625,3.337991714477539,8.241270065307617,1.5098896026611328
1695712347804473600,1.7174736328125,-2.21728515625,5.180890083312988,-1.5795199871063232
1695712347823577600,1.73657763671875,-9.505158424377441,2.075392246246338,-1.8531293869018555
1695712347842681600,1.755681640625,-9.465653419494629,4.61245584487915,-2.209618091583252
1695712347861755100,1.774755126953125,-4.87484073638916,6.404046058654785,-1.4022746086120605
1695712347880859100,1.793859130859375,-0.11713457107543945,5.896785259246826,-1.659538745880127
1695712347899932700,1.8129326171875,0.3435378074645996,3.054793119430542,-3.4982190132141113
1695712347919036700,1.83203662109375,-0.9669761657714844,-1.3743109703063965,-4.523545742034912
1695712347938110200,1.851110107421875,-2.6536202430725098,-2.8807315826416016,-4.115550994873047
1695712347957214200,1.870214111328125,-3.640739917755127,-0.7845127582550049,-3.365489959716797
1695712347976287500,1.88928759765625,-1.8477568626403809,-0.2924938201904297,-2.7642974853515625
1695712347995391500,1.9083916015625,1.9685845375061035,-0.6588629484176636,-3.098691940307617
1695712348014465000,1.927465087890625,5.201837539672852,-1.630095362663269,-4.785072326660156
1695712348033569000,1.946569091796875,7.745021343231201,-5.486521244049072,-7.123638153076172
1695712348052642600,1.965642578125,1.7128286361694336,-2.5481786727905273,-7.776028633117676
1695712348071746600,1.98474658203125,-1.9877737760543823,0.19539880752563477,-5.315888404846191
1695712348090881000,2.003881103515625,0.1926482915878296,0.9974956512451172,-1.3342533111572266
1695712348110107100,2.023107177734375,0.8783199787139893,-1.5546464920043945,1.545588493347168
1695712348129333200,2.042333251953125,-0.9780493974685669,-0.34053826332092285,2.196221351623535
1695712348148559400,2.061559326171875,0.2456352710723877,-2.3660662174224854,2.8952856063842773
1695712348167327700,2.08032763671875,0.9931111335754395,-4.525008201599121,1.9716567993164062
1695712348186218000,2.099218017578125,0.11141514778137207,-3.1618332862854004,2.6674489974975586
1695712348205413600,2.11841357421875,1.7778053283691406,-1.9292511940002441,4.288549900054932
1695712348224487200,2.137487060546875,2.8513972759246826,-1.900564193725586,4.033335208892822
1695712348243560400,2.156560546875,-2.0152971744537354,-3.7832517623901367,2.981990337371826
1695712348262664400,2.17566455078125,-5.390085220336914,-2.75364351272583,0.2914543151855469
1695712348281738000,2.194738037109375,-4.475167274475098,-4.40045166015625,-2.6165013313293457
1695712348300842000,2.213842041015625,-0.07984805107116699,-3.651061534881592,-4.567276477813721
1695712348319946000,2.232946044921875,-0.9910367727279663,3.4010891914367676,-6.686836242675781
1695712348339019500,2.25201953125,3.9206981658935547,1.5561408996582031,-4.841006278991699
1695712348358093000,2.271093017578125,2.461015462875366,2.44034481048584,-5.420086860656738
1695712348377197000,2.290197021484375,-1.6262198686599731,2.3454999923706055,-5.402618885040283
1695712348396301000,2.309301025390625,-6.156519412994385,3.9520492553710938,-3.6810173988342285
1695712348415405000,2.328405029296875,-7.132765769958496,0.9394292831420898,-3.086118221282959
1695712348434478600,2.347478515625,-5.467951774597168,-3.1453657150268555,-4.483280658721924
1695712348453582600,2.36658251953125,7.628427028656006,1.4299497604370117,-2.1495280265808105
1695712348472656000,2.38565576171875,0.5563420057296753,1.5855979919433594,1.2348437309265137
1695712348491759900,2.404759765625,-3.0587873458862305,-3.0247344970703125,-0.6402087211608887
1695712348510833400,2.42383349609375,-6.459486484527588,-2.9081220626831055,-3.2083544731140137
1695712348529937400,2.4429375,-4.792791366577148,-1.849421501159668,-3.3036985397338867
1695712348549011000,2.462010986328125,-2.8706436157226562,-1.2101497650146484,-1.979224681854248
1695712348568115000,2.481114990234375,-1.1047630310058594,-0.7319374084472656,-0.33389925956726074
1695712348587188500,2.5001884765625,-1.5588339567184448,-0.8938980102539062,0.8964219093322754
1695712348606292500,2.51929248046875,-2.054079532623291,-1.0515871047973633,1.8399262428283691
1695712348625366000,2.538365966796875,-0.8016749620437622,-1.799509048461914,0.8432912826538086
1695712348644470000,2.557469970703125,-1.5630031824111938,-2.3923072814941406,0.9999759197235107
1695712348663543600,2.57654345703125,-2.025073289871216,-3.651230812072754,2.749613046646118
1695712348682678000,2.595677978515625,-1.6613929271697998,-5.851340293884277,0.1352837085723877
1695712348701751600,2.61475146484375,0.9253537654876709,-4.511934280395508,-0.06747078895568848
1695712348720855600,2.63385546875,0.8836040496826172,-4.617186546325684,-0.7770309448242188
1695712348739959600,2.65295947265625,-1.1349337100982666,-10.515585899353027,0.29280805587768555
1695712348759032800,2.67203271484375,-0.45132872462272644,-10.48035717010498,0.7523937225341797
1695712348778136800,2.69113671875,-2.8769826889038086,-7.305307388305664,0.9942346811294556
1695712348797210400,2.71021044921875,2.502678871154785,-7.067682266235352,1.9970431327819824
1695712348816314400,2.729314453125,-2.3562302589416504,-2.883803367614746,0.9070854187011719
1695712348835388000,2.748387939453125,-1.4754399061203003,3.213883399963379,2.4600186347961426
1695712348854492000,2.767491943359375,-6.206050395965576,-1.6245203018188477,1.2158374786376953
1695712348873565400,2.7865654296875,3.723654270172119,4.580585479736328,-1.2352443933486938
1695712348892639000,2.805638916015625,1.477506399154663,10.525547981262207,2.3247289657592773
1695712348911743000,2.824742919921875,-5.493044376373291,20.50754165649414,8.512176513671875
1695712348930847000,2.843846923828125,-3.516253709793091,15.281980514526367,-0.1093672513961792
1695712348949920500,2.86292041015625,2.9873266220092773,2.320587158203125,-4.621719837188721
1695712348969024500,2.8820244140625,1.4287939071655273,3.895395278930664,0.7242661714553833
1695712348988128500,2.90112841796875,-2.8961148262023926,5.052656173706055,2.5079221725463867
1695712349007232500,2.920232421875,-2.6385974884033203,3.1649065017700195,1.184780240058899
1695712349026305800,2.939305908203125,-0.7106422185897827,-0.17146015167236328,-1.151972770690918
1695712349045409800,2.958409912109375,-0.4053589999675751,-0.41527652740478516,-2.8302276134490967
1695712349064483300,2.9774833984375,-1.0126157999038696,0.6029443740844727,-3.3283143043518066
1695712349083617800,2.99661767578125,0.5672358274459839,2.873048782348633,-3.17051100730896
1695712349102660900,3.015660888671875,2.8625571727752686,5.448367118835449,-2.35673451423645
1695712349121764900,3.034764892578125,1.7493999004364014,5.103213310241699,-2.3786697387695312
1695712349140838400,3.05383837890625,-4.869882583618164,4.227922439575195,-1.6543406248092651
1695712349159942400,3.0729423828125,-7.612397193908691,2.104297637939453,-0.9224708080291748
1695712349179016000,3.092015869140625,-4.133852958679199,-1.6774682998657227,-0.6737349033355713
1695712349198120000,3.111119873046875,-1.9201350212097168,-3.0904064178466797,-1.5070472955703735
1695712349217193500,3.130193359375,-1.5219945907592773,-3.3340187072753906,-2.24436092376709
1695712349236297500,3.14929736328125,-1.8372840881347656,-3.193330764770508,-2.656414031982422
1695712349255401500,3.1684013671875,-2.699720859527588,-2.666293144226074,-2.6689398288726807
1695712349274505500,3.18750537109375,-3.5996952056884766,-2.8647546768188477,-1.9768569469451904
1695712349293578800,3.206578857421875,-4.084553241729736,-3.6062746047973633,-1.3851478099822998
1695712349312682800,3.225682861328125,-3.1210451126098633,-4.404675483703613,-1.1370282173156738
1695712349331756300,3.24475634765625,-2.1710381507873535,-4.703404426574707,-1.5080852508544922
1695712349350860300,3.2638603515625,-1.6342406272888184,-4.121432304382324,-2.2152459621429443
1695712349369933800,3.282933837890625,-0.7792220115661621,-3.3509044647216797,-2.2440571784973145
1695712349389037800,3.302037841796875,0.6001429557800293,-2.018777847290039,-1.9344028234481812
1695712349408111400,3.321111328125,2.132972478866577,0.6950492858886719,-1.3034616708755493
1695712349427215400,3.34021533203125,3.1554970741271973,5.543057441711426,-0.04440009593963623
1695712349446289000,3.359288818359375,3.2849206924438477,10.353172302246094,0.3339097499847412
1695712349465393000,3.378392822265625,4.699233055114746,8.606559753417969,-1.4793660640716553
1695712349484466200,3.397466064453125,2.2468295097351074,-0.6649942398071289,-3.7862839698791504
1695712349503570200,3.416570068359375,1.6494836807250977,-8.354635238647461,-4.935845375061035
1695712349522643700,3.435643798828125,0.8701295852661133,-4.690243721008301,-4.919106960296631
1695712349541747700,3.454747802734375,1.6741681098937988,8.643138885498047,-3.0109522342681885
1695712349560851700,3.473851806640625,-7.950774669647217,15.132099151611328,-1.5192691087722778
1695712349579955700,3.492955810546875,-4.065709590911865,0.6100425720214844,0.451327919960022
1695712349599029200,3.512029296875,-6.953571319580078,-9.59233570098877,0.7207478284835815
1695712349618133200,3.53113330078125,-6.149326324462891,-7.739466667175293,-3.63419508934021
1695712349637206800,3.550206787109375,-1.8036727905273438,3.3048648834228516,-1.9704867601394653
1695712349656310800,3.569310791015625,-4.269547939300537,8.607653617858887,0.39611852169036865
1695712349675414800,3.588414794921875,-4.184715747833252,5.226208686828613,0.7113293409347534
1695712349694488300,3.60748828125,-1.0014913082122803,-0.48964691162109375,-1.7262412309646606
1695712349713561900,3.626561767578125,0.07975482940673828,-2.564462661743164,-3.3507561683654785
1695712349732665900,3.645665771484375,-2.382798194885254,-1.4876298904418945,-2.364274740219116
1695712349751739100,3.6647392578125,-4.624382019042969,0.32428550720214844,-1.0347462892532349
1695712349770843100,3.683843017578125,-3.1401214599609375,0.0979757308959961,-0.08294069766998291
1695712349789916700,3.702916748046875,-0.31519758701324463,-1.2526493072509766,0.20190393924713135
1695712349809020700,3.722020751953125,-0.3558340072631836,-1.2982025146484375,-0.2614319324493408
1695712349828124700,3.741124755859375,-1.462141990661621,-1.2015810012817383,-0.6137192249298096
1695712349847228700,3.760228759765625,-1.7251884937286377,-1.2800512313842773,-0.6238934993743896
1695712349866302200,3.77930224609375,-0.7660913467407227,-1.7103395462036133,-0.33158671855926514
1695712349885406200,3.79840625,-0.09077990055084229,-1.6367301940917969,-0.2687448263168335
1695712349904479700,3.817479736328125,-0.20703572034835815,-1.3918485641479492,-0.7490275502204895
1695712349923583700,3.836583740234375,0.5867233872413635,-0.951446533203125,-1.1983543634414673
1695712349942657300,3.8556572265625,1.7780888080596924,-0.10488224029541016,-1.5085859298706055
1695712349961761300,3.87476123046875,2.061919689178467,-0.13544273376464844,-1.2370655536651611
1695712349980834800,3.893834716796875,1.2418670654296875,0.16422557830810547,0.06888189911842346
1695712349999938800,3.912938720703125,0.6477887034416199,0.8297977447509766,1.9501537084579468
1695712350019012000,3.93201220703125,-0.4908563494682312,1.1409587860107422,4.0173773765563965
1695712350038116000,3.9511162109375,0.520818293094635,1.8668642044067383,3.511425733566284
1695712350057189600,3.970189697265625,3.0801405906677246,3.1173553466796875,2.1274654865264893
1695712350076293600,3.989293701171875,1.1824058294296265,5.144096374511719,2.102473497390747
1695712350095367200,4.0083671875,-1.238919734954834,6.014739990234375,1.885601282119751
1695712350114501600,4.027501708984375,-1.1213388442993164,4.15480899810791,-0.49778977036476135
1695712350133575200,4.0465751953125,-0.46682921051979065,0.9014720916748047,-2.8454458713531494
1695712350152679200,4.06567919921875,-1.1229140758514404,0.770564079284668,-4.451101303100586
1695712350171752700,4.084752685546875,-2.2092111110687256,1.940190315246582,-3.8833179473876953
1695712350190856700,4.103856689453125,-1.9323463439941406,3.588362693786621,-3.1920888423919678
1695712350209930200,4.12293017578125,0.285003662109375,4.242544174194336,-2.2161874771118164
1695712350229034200,4.1420341796875,0.6985282897949219,3.4304027557373047,-2.0399467945098877
1695712350248107800,4.161107666015625,-2.340254783630371,2.869330406188965,-2.637693405151367
1695712350267211800,4.180211669921875,-6.094322204589844,2.87784481048584,-2.664475202560425
1695712350286315800,4.199315673828125,-5.51953125,-0.0146026611328125,-1.2560791969299316
1695712350305389000,4.21838916015625,-3.324021339416504,-1.6800861358642578,-0.8390597701072693
1695712350324493000,4.2374931640625,-3.043206214904785,-2.3186769485473633,-1.2363020181655884
1695712350343566600,4.256566650390625,-3.6441307067871094,-2.588754653930664,-1.8695476055145264
1695712350362670600,4.275670654296875,-3.763923168182373,-2.563971519470215,-2.3584325313568115
1695712350381744000,4.294744140625,-3.864058494567871,-3.165752410888672,-2.2935476303100586
1695712350400848100,4.31384814453125,-3.8373537063598633,-4.234033584594727,-2.0086231231689453
1695712350419952000,4.3329521484375,-3.296417713165283,-5.143912315368652,-1.5875332355499268
1695712350439086600,4.352086669921875,-2.591672897338867,-5.595242500305176,-1.2716131210327148
1695712350458129700,4.371129638671875,-2.037100315093994,-5.3154706954956055,-1.5168708562850952
1695712350477233700,4.390233642578125,-1.297741413116455,-4.800056457519531,-1.5278639793395996
1695712350496307200,4.40930712890625,-0.13570308685302734,-3.4647483825683594,-1.1523462533950806
1695712350515411200,4.4284111328125,1.4796924591064453,-0.3655986785888672,-0.8324374556541443
1695712350534484500,4.447484375,3.132646083831787,5.291840553283691,-0.09749886393547058
1695712350553588700,4.466588623046875,4.66746711730957,13.165392875671387,-0.1622413992881775
1695712350572662000,4.485662109375,7.617922306060791,12.970171928405762,-3.004697799682617
1695712350591766000,4.50476611328125,0.782966136932373,-1.045527458190918,-4.940065383911133
1695712350610839600,4.523839599609375,-0.07718610763549805,-11.71957778930664,-4.750036716461182
1695712350629943600,4.542943603515625,1.074866771697998,-6.862767219543457,-4.011093616485596
1695712350649017000,4.56201708984375,0.9368329048156738,9.047816276550293,-2.4084525108337402
1695712350668121000,4.58112109375,-9.330385208129883,15.302007675170898,-1.6743098497390747
1695712350687225000,4.60022509765625,-1.876373291015625,2.320291519165039,3.508678436279297
1695712350706329000,4.6193291015625,-10.894598960876465,-8.18294620513916,0.40556836128234863
1695712350725402600,4.638402587890625,-3.7452127933502197,-5.8255615234375,-3.1387619972229004
1695712350744506600,4.657506591796875,-2.854033946990967,3.919431686401367,-2.5685224533081055
1695712350763580200,4.676580078125,-3.50158429145813,6.531457901000977,-0.2503478527069092
1695712350782684200,4.69568408203125,-2.37152099609375,2.7489938735961914,-0.24537575244903564
1695712350801757400,4.71475732421875,-0.9144330024719238,-0.8250350952148438,-3.0770301818847656
1695712350820861400,4.733861328125,-1.7082154750823975,-1.9513874053955078,-2.9337635040283203
1695712350839935000,4.75293505859375,-5.029778003692627,-1.2423381805419922,-0.683925986289978
1695712350859039000,4.7720390625,-5.135012626647949,-0.011923789978027344,-0.012349128723144531
1695712350878112500,4.791112548828125,-1.8856258392333984,-0.8103971481323242,-0.5840969085693359
1695712350897216500,4.810216552734375,-0.1421058177947998,-2.206088066101074,-0.9274712800979614
1695712350916290000,4.8292900390625,-1.058051347732544,-1.7970857620239258,-1.3178253173828125
1695712350935394000,4.84839404296875,-1.5025297403335571,-1.139556884765625,-1.228492259979248
1695712350954467600,4.867467529296875,-0.5847833156585693,-1.3548898696899414,-0.20531624555587769
1695712350973571600,4.886571533203125,0.5580610632896423,-1.4269847869873047,0.5298488140106201
1695712350992675600,4.905675537109375,0.18626388907432556,-1.1994609832763672,0.2895125150680542
1695712351011779600,4.924779541015625,0.19779619574546814,-0.5880908966064453,-0.23398864269256592
1695712351030883600,4.943883544921875,1.3780157566070557,-0.29906558990478516,-0.5342147350311279
1695712351049957000,4.96295703125,2.298159599304199,-0.39863014221191406,-0.3830496072769165
1695712351069030400,4.982030517578125,1.6539371013641357,0.4663867950439453,0.06896783411502838
1695712351088134400,5.001134521484375,0.581731379032135,1.444737434387207,0.35895225405693054
1695712351107208000,5.0202080078125,0.9543206691741943,1.4537677764892578,1.2331531047821045
1695712351126312000,5.03931201171875,1.2433867454528809,1.3942365646362305,1.1641833782196045
1695712351145385500,5.058385498046875,2.7791647911071777,1.6921100616455078,0.6092100143432617
1695712351164489500,5.077489501953125,2.7019217014312744,2.8449649810791016,1.4316188097000122
1695712351183563000,5.09656298828125,-0.16479873657226562,5.0946455001831055,2.063436508178711
1695712351202667000,5.1156669921875,-2.606860876083374,4.525796890258789,2.5719876289367676
1695712351221740500,5.134740478515625,-2.2611024379730225,2.4907445907592773,0.3788427710533142
1695712351240844500,5.153844482421875,-0.7615459561347961,0.5388374328613281,-2.9442787170410156
1695712351259948500,5.172948486328125,-0.5729622840881348,1.2943382263183594,-4.875007152557373
1695712351279052500,5.192052490234375,-0.7918299436569214,3.335495948791504,-4.803499698638916
1695712351298126000,5.2111259765625,-0.03159916400909424,5.323714256286621,-4.340908527374268
1695712351317230000,5.23022998046875,1.4335927963256836,4.349457740783691,-2.6723203659057617
1695712351336303400,5.249303466796875,-1.6733579635620117,2.701803207397461,-1.9014607667922974
1695712351355407400,5.268407470703125,-6.820931434631348,2.991018295288086,-2.24975323677063
1695712351374481000,5.28748095703125,-7.995832443237305,1.5804862976074219,-1.8353183269500732
1695712351393585000,5.3065849609375,0.25905871391296387,-2.385838508605957,-0.5429363250732422
1695712351412658400,5.325658447265625,-7.383500576019287,-2.1816978454589844,-0.7699373960494995
1695712351431762400,5.344762451171875,-3.7071189880371094,-1.446629524230957,-0.9598587155342102
1695712351450836000,5.3638359375,-1.340989589691162,-2.1042919158935547,-1.4305362701416016
1695712351469940000,5.38293994140625,-2.679187774658203,-3.052748680114746,-2.1039655208587646
1695712351489013500,5.402013427734375,-4.552087306976318,-4.228898048400879,-1.9663491249084473
1695712351508117500,5.421117431640625,-4.407410621643066,-5.092455863952637,-1.4406296014785767
1695712351527190800,5.440190673828125,-3.080775260925293,-5.455972671508789,-1.053049921989441
1695712351546325500,5.459325439453125,-2.2958621978759766,-5.220211029052734,-1.235074520111084
1695712351565398800,5.478398681640625,-2.051664352416992,-4.685866355895996,-1.6451358795166016
1695712351584503000,5.4975029296875,-1.1535768508911133,-4.098604202270508,-1.6933315992355347
1695712351603576300,5.516576416015625,0.33502817153930664,-2.508000373840332,-1.4609861373901367
1695712351622680300,5.535680419921875,2.2651286125183105,0.7930269241333008,-1.1100419759750366
1695712351641753900,5.55475390625,4.18478536605835,6.584482192993164,-0.07821986079216003
1695712351660857900,5.57385791015625,5.320094108581543,11.886876106262207,-0.5782924890518188
1695712351679931400,5.592931396484375,6.755521774291992,9.204681396484375,-3.102055072784424
1695712351699035400,5.612035400390625,0.7672619819641113,-1.8737154006958008,-3.936103343963623
1695712351718139400,5.631139404296875,-0.8853087425231934,-9.686491012573242,-4.11236572265625
1695712351737213000,5.650212890625,0.2224116325378418,-5.365374565124512,-4.957223415374756
1695712351756317000,5.66931689453125,1.93666410446167,6.6176347732543945,-3.907433271408081
1695712351775390500,5.688390380859375,-5.707764625549316,14.185248374938965,-2.622344970703125
1695712351794494500,5.707494384765625,-3.582796573638916,3.866546630859375,2.296145439147949
1695712351813567700,5.726567626953125,-9.437911987304688,-8.029709815979004,3.498734474182129
1695712351832671700,5.745671630859375,-6.4618988037109375,-8.037662506103516,-1.7055383920669556
1695712351851775700,5.764775634765625,-1.736081600189209,2.4076194763183594,-1.9446419477462769
1695712351870879700,5.783879638671875,-2.1794753074645996,7.535513877868652,-0.28491365909576416
1695712351889953300,5.802953369140625,-2.7373576164245605,4.146251678466797,0.08357962965965271
1695712351909057300,5.822057373046875,-0.9646730422973633,-0.8060493469238281,-2.63735032081604
1695712351928130800,5.841130859375,-1.1023948192596436,-2.4084978103637695,-3.015488386154175
1695712351947234800,5.86023486328125,-3.7850775718688965,-1.989095687866211,-0.6190261840820312
1695712351966308400,5.879308349609375,-4.338879585266113,-0.3274078369140625,0.6598742008209229
1695712351985412400,5.898412353515625,-1.893606185913086,-0.20324039459228516,0.5134133100509644
1695712352004486000,5.91748583984375,-0.18611228466033936,-1.4401636123657227,0.024647846817970276
1695712352023590000,5.93658984375,-0.9754040241241455,-1.976435661315918,-0.5203988552093506
1695712352042663400,5.955663330078125,-1.6253900527954102,-1.388833999633789,-0.9054698348045349
1695712352061767400,5.974767333984375,-0.8265247344970703,-1.261077880859375,-0.7367425560951233
1695712352080840700,5.9938408203125,0.3101606070995331,-1.738398551940918,0.08463272452354431
1695712352099944700,6.01294482421875,0.18050554394721985,-1.5864925384521484,0.27219831943511963
1695712352119048700,6.032048583984375,0.12020494043827057,-0.7104349136352539,-0.019489780068397522
1695712352138152700,6.051152587890625,1.3583457469940186,0.22295665740966797,-0.13324496150016785
1695712352157226200,6.070226318359375,2.517879009246826,0.5584049224853516,0.25191739201545715
1695712352176330200,6.089330322265625,1.5814523696899414,0.8467903137207031,0.4386259913444519
1695712352195403800,6.10840380859375,0.3787496089935303,1.2654657363891602,0.5349255800247192
1695712352214507800,6.1275078125,0.359624445438385,1.0073833465576172,1.7021934986114502
1695712352233581300,6.146581298828125,1.4029158353805542,1.499288558959961,1.723555088043213
1695712352252685300,6.165685302734375,3.692124128341675,2.826700210571289,0.5726407170295715
1695712352271758800,6.1847587890625,3.0687811374664307,3.1791019439697266,1.1316274404525757
1695712352290862800,6.20386279296875,-0.5948004722595215,4.223686218261719,1.9485713243484497
1695712352309936400,6.222936279296875,-2.425780773162842,4.282288551330566,2.393831968307495
1695712352329040400,6.242040283203125,-2.070385694503784,2.6244277954101562,0.6558784246444702
1695712352348113700,6.26111376953125,-0.935534656047821,0.7308101654052734,-2.8199706077575684
1695712352367217700,6.2802177734375,-0.785507082939148,0.8563289642333984,-5.702239513397217
1695712352386291200,6.299291259765625,-1.412459135055542,2.4032554626464844,-6.04248571395874
1695712352405395200,6.318395263671875,-0.6277526617050171,4.211627960205078,-5.391304969787598
1695712352424499200,6.337499267578125,2.047961711883545,3.8226442337036133,-2.5422422885894775
1695712352443603200,6.356603271484375,0.0016090869903564453,2.5473833084106445,-1.4916765689849854
1695712352462676700,6.3756767578125,-5.5459723472595215,1.9397087097167969,-1.9471138715744019
1695712352481780700,6.39478076171875,-8.1892728805542,1.8282556533813477,-1.3476078510284424
1695712352500854300,6.413854248046875,-6.859636306762695,-1.1772794723510742,-0.22129762172698975
1695712352519958300,6.432958251953125,-2.356414794921875,-2.236886978149414,-0.31911206245422363
1695712352539031800,6.45203173828125,-1.5992908477783203,-2.512600898742676,-0.7145372033119202
1695712352558135800,6.4711357421875,-2.8015356063842773,-2.5299158096313477,-1.5597095489501953
1695712352577209000,6.490208984375,-3.9683337211608887,-2.4311141967773438,-2.2614145278930664
1695712352596313300,6.509313232421875,-4.129931926727295,-3.2415237426757812,-2.212763547897339
1695712352615386600,6.52838671875,-3.8374929428100586,-4.289528846740723,-1.6287517547607422
1695712352634490600,6.54749072265625,-2.8540749549865723,-5.183460235595703,-1.1301167011260986
1695712352653564200,6.566564208984375,-1.9743695259094238,-5.5996599197387695,-0.8361790180206299
1695712352672668200,6.585668212890625,-1.4983100891113281,-5.0469255447387695,-1.089921236038208
1695712352691772200,6.604772216796875,-0.9836034774780273,-4.014161109924316,-1.1178343296051025
1695712352710876200,6.623876220703125,0.3935880661010742,-1.5933504104614258,-1.141608715057373
1695712352729949700,6.64294970703125,3.281400203704834,2.8028602600097656,-1.0481958389282227
1695712352749053700,6.6620537109375,5.51741361618042,8.725879669189453,-0.3927074670791626
1695712352768127200,6.681127197265625,6.034675598144531,10.737668991088867,-1.1964449882507324
1695712352787231200,6.700231201171875,5.20717191696167,4.066349983215332,-2.7572250366210938
1695712352806304800,6.7193046875,-0.9939136505126953,-5.88604736328125,-3.3265230655670166
1695712352825408800,6.73840869140625,-0.8127107620239258,-8.14008617401123,-4.431184768676758
1695712352844482000,6.75748193359375,1.2670540809631348,0.4824972152709961,-3.930748462677002
1695712352863586000,6.7765859375,1.192582130432129,10.871072769165039,-3.8889970779418945
1695712352882659600,6.79565966796875,-9.571626663208008,8.054376602172852,-3.51103138923645
1695712352901763600,6.814763671875,-2.3576440811157227,-3.4451961517333984,2.763690948486328
1695712352920837000,6.833837158203125,-8.198429107666016,-8.361811637878418,0.620427131652832
1695712352939941000,6.852941162109375,-2.1261537075042725,-2.366847038269043,-0.9343645572662354
1695712352959021800,6.872021728515625,-3.8161537647247314,6.621546745300293,0.27865952253341675
1695712352978156300,6.89115625,-4.129077911376953,7.056338310241699,1.5206202268600464
1695712352997229800,6.910229736328125,-2.46785044670105,1.1717519760131836,-0.34774500131607056
1695712353016333800,6.929333740234375,-0.49457883834838867,-2.659848213195801,-2.769977569580078
1695712353035407400,6.948407470703125,-0.7960836887359619,-2.8929548263549805,-2.412160873413086
1695712353054511400,6.967511474609375,-3.233846664428711,-1.112762451171875,-0.8864493370056152
1695712353073584600,6.986584716796875,-4.433969497680664,0.37159156799316406,-0.36232954263687134
1695712353092688600,7.005688720703125,-2.2465548515319824,-0.28912925720214844,-0.4900422990322113
1695712353111762200,7.02476220703125,-0.3847770094871521,-1.8022594451904297,-0.4663829207420349
1695712353130866200,7.0438662109375,-0.5517593622207642,-1.8817949295043945,-0.7052158713340759
1695712353149970200,7.06297021484375,-1.2501096725463867,-1.4340019226074219,-0.8434877991676331
1695712353169043700,7.082043701171875,-0.8420945405960083,-1.3673391342163086,-0.41525840759277344
1695712353188147700,7.101147705078125,0.22526337206363678,-1.2681922912597656,0.3930249810218811
1695712353207221200,7.12022119140625,0.17449748516082764,-0.9754467010498047,0.4194864332675934
1695712353226325200,7.1393251953125,0.2772288918495178,-0.5948352813720703,-0.07638511061668396
1695712353245398800,7.158398681640625,1.6065011024475098,-0.09025955200195312,-0.19573289155960083
1695712353264502800,7.177502685546875,2.6080000400543213,0.3377103805541992,-0.06456303596496582
1695712353283606800,7.196606689453125,1.4598724842071533,0.6356830596923828,0.28431206941604614
1695712353302710800,7.215710693359375,0.11410284042358398,1.2504158020019531,0.16576260328292847
1695712353321784300,7.234784423828125,1.0802192687988281,1.256911277770996,0.7310152053833008
1695712353340888300,7.253888427734375,1.7422711849212646,1.5910968780517578,0.8725087642669678
1695712353359961600,7.272961669921875,3.2733895778656006,2.4110307693481445,0.14337491989135742
1695712353379065600,7.292065673828125,3.9139089584350586,2.1863584518432617,0.6006150245666504
1695712353398139100,7.31113916015625,0.680509090423584,3.241239547729492,1.4958930015563965
1695712353417243100,7.3302431640625,-2.113600730895996,4.544318199157715,2.4165306091308594
1695712353436316700,7.349316650390625,-1.8089261054992676,3.598848342895508,1.9206149578094482
1695712353455420700,7.368420654296875,-0.9411060214042664,1.2363615036010742,-0.5232555866241455
1695712353474494200,7.387494140625,-0.7109459638595581,0.35007667541503906,-3.9319686889648438
1695712353493598200,7.40659814453125,-1.6115217208862305,1.2701234817504883,-5.182382583618164
1695712353512671700,7.425671630859375,-1.959661602973938,3.1203298568725586,-5.2423787117004395
1695712353531775700,7.444775634765625,1.742116928100586,4.430268287658691,-3.2586519718170166
1695712353550879700,7.463879638671875,1.759535312652588,3.44962215423584,-1.417222023010254
1695712353569983700,7.482983642578125,-2.816176414489746,2.6435422897338867,-1.7233115434646606
1695712353589057000,7.50205712890625,-7.722845077514648,3.352433204650879,-2.590402126312256
1695712353608161300,7.521161376953125,-6.45489501953125,-0.7222023010253906,-1.611607313156128
1695712353627234600,7.540234619140625,-4.600337028503418,-1.953171730041504,0.14170461893081665
1695712353646338600,7.559338623046875,-2.5945043563842773,-1.3738842010498047,-0.4863353967666626
1695712353665412000,7.578412109375,-2.9015355110168457,-2.1919965744018555,-1.3982880115509033
1695712353684516000,7.59751611328125,-3.2065539360046387,-3.3069067001342773,-1.9981602430343628
1695712353703589600,7.616589599609375,-4.129302024841309,-4.708295822143555,-1.4631049633026123
1695712353722693600,7.635693603515625,-3.987781047821045,-5.773378372192383,-0.5570870637893677
1695712353741767200,7.65476708984375,-2.810760021209717,-6.343042373657227,-0.07720768451690674
1695712353760871200,7.67387109375,-2.0679941177368164,-6.201951026916504,-0.2773749828338623
1695712353779944700,7.69294482421875,-1.7693066596984863,-5.492942810058594,-0.8140069246292114
1695712353799048700,7.712048583984375,-1.1163668632507324,-4.300654411315918,-0.6861968040466309
1695712353818122000,7.7311220703125,0.7128710746765137,-1.4154424667358398,-0.6512608528137207
1695712353837256700,7.750256591796875,4.309154033660889,4.54166316986084,-0.30211329460144043
1695712353856330000,7.769330078125,6.818508148193359,12.074921607971191,-0.07481896877288818
1695712353875434000,7.78843408203125,8.056230545043945,11.838160514831543,-3.520505905151367
1695712353894507500,7.807507568359375,3.4023451805114746,0.9943151473999023,-5.231705665588379
1695712353913611500,7.826611572265625,-3.2140321731567383,-8.674084663391113,-3.913188934326172
1695712353932685000,7.84568505859375,-2.246382713317871,-7.777690887451172,-3.759920120239258
1695712353951789000,7.8647890625,0.761786937713623,1.0295295715332031,-3.085996389389038
1695712353970862600,7.883862548828125,0.7555718421936035,10.842388153076172,-2.9394595623016357
1695712353989966600,7.902966552734375,-3.4646167755126953,8.214454650878906,-1.0013587474822998
1695712354009040100,7.9220400390625,-3.6225051879882812,-3.5824384689331055,3.798593044281006
1695712354028144000,7.94114404296875,-11.668139457702637,-8.941703796386719,0.010164380073547363
1695712354047217700,7.9602177734375,-3.54024600982666,-1.6104507446289062,-1.3912725448608398
1695712354066321700,7.97932177734375,-1.4672586917877197,6.74606990814209,0.5174309015274048
1695712354085395000,7.99839501953125,-2.9680914878845215,6.932547569274902,1.8563014268875122
1695712354104499000,8.0174990234375,-2.5291154384613037,1.8959026336669922,-0.5755318403244019
1695712354123603000,8.03660302734375,0.07889986038208008,-1.7356510162353516,-2.7173025608062744
1695712354142707000,8.05570703125,-0.36102747917175293,-2.994945526123047,-1.519701600074768
1695712354161780500,8.074780517578125,-3.474001407623291,-1.89532470703125,0.09501004219055176
1695712354180884500,8.093884521484375,-5.495707988739014,-0.17644023895263672,0.6440221667289734
1695712354199958000,8.1129580078125,-3.297086715698242,-0.1561279296875,0.15142595767974854
1695712354219062000,8.13206201171875,-0.3003186583518982,-1.3191919326782227,-0.3235856890678406
1695712354238135600,8.151135498046875,0.12565076351165771,-1.873286247253418,-0.4683327078819275
1695712354257239600,8.170239501953125,-0.5672898888587952,-1.2781028747558594,-0.6722070574760437
1695712354276313000,8.18931298828125,-0.7400263547897339,-1.3968009948730469,-0.2969226837158203
1695712354295417000,8.2084169921875,-0.1571441888809204,-1.7469358444213867,0.008779048919677734
1695712354314490600,8.22749072265625,0.43540850281715393,-1.4927587509155273,0.09558141231536865
1695712354333625000,8.246625,0.24644774198532104,-0.7841453552246094,-0.23110949993133545
1695712354352668000,8.26566796875,1.4040035009384155,-0.09506034851074219,-0.14190340042114258
1695712354371772000,8.28477197265625,2.1874403953552246,0.24596214294433594,0.48254168033599854
1695712354390845400,8.303845458984375,1.4773465394973755,0.9858770370483398,0.7103617191314697
1695712354409980000,8.32297998046875,0.7839988470077515,1.4750680923461914,0.4986584186553955
1695712354429053400,8.342053466796875,1.5239531993865967,1.401519775390625,0.9058029651641846
1695712354448157400,8.361157470703125,2.1493215560913086,1.7901630401611328,1.124626874923706
1695712354467231000,8.38023095703125,2.80063796043396,2.9868974685668945,0.5950664281845093
1695712354486335000,8.3993349609375,3.0697455406188965,3.154513359069824,1.3410389423370361
1695712354505408500,8.418408447265625,0.9706172943115234,4.168520927429199,2.5866942405700684
1695712354524512500,8.437512451171875,-1.2386889457702637,4.740574836730957,3.2371296882629395
1695712354543586000,8.4565859375,-2.0937187671661377,3.5004348754882812,2.066743850708008
1695712354562690000,8.47568994140625,-1.1346125602722168,1.1573457717895508,-1.0096663236618042
1695712354581763300,8.494763427734375,-0.8169465065002441,0.550745964050293,-4.329775810241699
1695712354600867300,8.513867431640625,-1.1619943380355835,1.875762939453125,-5.056385040283203
1695712354619971600,8.5329716796875,-1.1850488185882568,3.5766067504882812,-3.941570997238159
1695712354639044900,8.552044921875,1.55074143409729,4.233909606933594,-1.6850777864456177
1695712354658148900,8.57114892578125,1.5346617698669434,3.220187187194824,-0.5585280656814575
1695712354677222400,8.590222412109375,-3.226310968399048,2.4207763671875,-1.3497469425201416
1695712354696356900,8.60935693359375,-8.036903381347656,3.186335563659668,-1.8921650648117065
1695712354715430400,8.628430419921875,-5.528365135192871,-0.7799005508422852,0.21345245838165283
1695712354734534400,8.647534423828125,-5.931982040405273,-2.3580284118652344,0.34297335147857666
1695712354753608000,8.66660791015625,-3.7904515266418457,-1.9113788604736328,-0.1734457015991211
1695712354772712000,8.6857119140625,-2.309627056121826,-2.063443183898926,-0.6846795082092285
1695712354791785500,8.704785400390625,-3.283921718597412,-2.767803192138672,-1.3544032573699951
1695712354810889500,8.723889404296875,-4.193540096282959,-4.016958236694336,-1.1460434198379517
1695712354829963000,8.742962890625,-4.225869655609131,-4.994602203369141,-0.6908705234527588
1695712354849067000,8.76206689453125,-3.3342556953430176,-5.383044242858887,-0.5410792827606201
1695712354868140300,8.781140380859375,-2.3359341621398926,-5.444677352905273,-0.49204862117767334
1695712354887244300,8.800244384765625,-1.8263664245605469,-5.092595100402832,-0.5272756814956665
1695712354906317800,8.81931787109375,-1.1874537467956543,-4.364347457885742,-0.3663822412490845
1695712354925421800,8.838421875,-0.00856781005859375,-2.526172637939453,-0.22855591773986816
1695712354944495400,8.857495361328125,2.445824384689331,1.1834783554077148,-0.6073429584503174
1695712354963599400,8.876599365234375,4.775676250457764,6.752171516418457,-1.1023039817810059
1695712354982703400,8.895703369140625,4.540889739990234,10.490445137023926,-2.4199647903442383
1695712355001807400,8.914807373046875,7.938477993011475,7.181125640869141,-4.125145435333252
1695712355020881000,8.933880859375,2.2709240913391113,-2.835023880004883,-3.5195560455322266
1695712355039985000,8.95298486328125,-1.989607810974121,-9.619422912597656,-2.485218048095703
1695712355059058400,8.972058349609375,-1.6196370124816895,-6.976865768432617,-1.7735124826431274
1695712355078162400,8.991162353515625,3.638772487640381,4.377895355224609,-0.9953958988189697
1695712355097236000,9.010236083984376,-1.5208122730255127,15.509437561035156,-2.1717560291290283
1695712355116340000,9.029340087890626,-9.711959838867188,10.952535629272461,-2.726994276046753
1695712355135413200,9.048413330078125,-5.995800018310547,-7.686741828918457,2.650996208190918
1695712355154517200,9.067517333984375,-6.4474334716796875,-12.826516151428223,-1.5379774570465088
1695712355173590800,9.0865908203125,0.35079169273376465,-3.214686393737793,-1.3925894498825073
1695712355192694800,9.10569482421875,-2.261044502258301,7.342199325561523,0.9675983190536499
1695712355211768300,9.124768310546875,-4.652644157409668,7.924124717712402,1.318396806716919
1695712355230872300,9.143872314453125,-4.442551612854004,1.9742183685302734,-2.2224271297454834
1695712355249945900,9.16294580078125,-0.6086456775665283,-2.1779699325561523,-2.175151824951172
1695712355269080300,9.182080322265625,-0.372395396232605,-3.167996406555176,0.13177919387817383
1695712355288153900,9.20115380859375,-3.155153274536133,-1.6155071258544922,0.5082985162734985
1695712355307257900,9.2202578125,-3.0240843296051025,-0.39284229278564453,-0.07970541715621948
1695712355326331400,9.239331298828125,-0.9037922620773315,-1.2592601776123047,0.1415104866027832
1695712355345435400,9.258435302734375,-0.954973578453064,-1.9449539184570312,0.4417645335197449
1695712355364509000,9.277509033203126,-1.4415340423583984,-1.3255481719970703,0.1948142647743225
1695712355383613000,9.296613037109376,-0.6837925314903259,-1.168501853942871,0.09858083724975586
1695712355402686200,9.315686279296875,0.4355393052101135,-1.5517654418945312,0.6545864343643188
1695712355421790200,9.334790283203125,0.7678883075714111,-1.2650022506713867,0.844986081123352
1695712355440863700,9.35386376953125,0.5059239268302917,-0.670374870300293,0.22761857509613037
1695712355459967700,9.3729677734375,0.8124893307685852,-0.1091604232788086,-0.09042274951934814
1695712355479041300,9.392041259765625,2.055861234664917,0.25971412658691406,0.3072620630264282
1695712355498145300,9.411145263671875,2.056539535522461,0.6249732971191406,0.7146965265274048
1695712355517218800,9.43021875,0.959632158279419,1.218862533569336,0.7457804679870605
1695712355536322800,9.44932275390625,0.705898642539978,1.2983312606811523,1.2721216678619385
1695712355555426800,9.4684267578125,1.542624592781067,1.9910306930541992,0.8228933811187744
1695712355574530800,9.48753076171875,4.038593769073486,2.943065643310547,-0.008168458938598633
1695712355593604400,9.506604248046875,4.006144046783447,2.5034255981445312,1.0553240776062012
1695712355612708400,9.525708251953125,0.42021965980529785,3.654017448425293,2.3007781505584717
1695712355631782000,9.544781982421876,-1.9926021099090576,5.227952003479004,2.894120931625366
1695712355650886000,9.563885986328126,-1.9090309143066406,4.342463493347168,2.2814459800720215
1695712355669959200,9.582959228515625,-1.128861665725708,2.324395179748535,-0.6033527851104736
1695712355689094000,9.602093994140626,-1.11613929271698,0.7094001770019531,-4.262656211853027
1695712355708136700,9.62113671875,-1.9389145374298096,0.9498844146728516,-5.516692638397217
1695712355727240700,9.64024072265625,-2.1486949920654297,2.276677131652832,-4.261331081390381
1695712355746314200,9.659314208984375,1.8052699565887451,3.5961294174194336,-0.7884632349014282
1695712355765418200,9.678418212890625,3.100639581680298,3.3858909606933594,0.48872530460357666
1695712355784491800,9.69749169921875,-2.301375150680542,2.8252010345458984,-1.1022357940673828
1695712355803595800,9.716595703125,-8.983012199401855,3.0188560485839844,-1.9036246538162231
1695712355822669300,9.73566943359375,-8.174368858337402,-0.17867565155029297,-0.16148769855499268
1695712355841803800,9.7548037109375,-3.704238176345825,-1.826284408569336,0.43062543869018555
1695712355860877300,9.773877197265625,-2.372567653656006,-2.121583938598633,-0.21901369094848633
1695712355879981300,9.792981201171875,-2.7482476234436035,-2.3722543716430664,-0.843887209892273
1695712355899054600,9.8120546875,-3.7260189056396484,-2.7817134857177734,-1.1195261478424072
1695712355918158600,9.83115869140625,-4.102861404418945,-3.4991025924682617,-0.8272299766540527
1695712355937232100,9.850232177734375,-3.835059642791748,-4.278901100158691,-0.49700474739074707
1695712355956336000,9.869336181640625,-3.284722328186035,-5.073164939880371,-0.24015069007873535
1695712355975409700,9.88840966796875,-2.476839542388916,-5.594791412353516,-0.308574914932251
1695712355994513700,9.907513671875,-1.4986629486083984,-5.50216007232666,-0.4918590784072876
1695712356013587200,9.926587158203125,-0.44269418716430664,-4.896213531494141,-0.4115183353424072
1695712356032691200,9.945691162109375,0.49862098693847656,-3.2270383834838867,-0.2574881315231323
1695712356051764700,9.9647646484375,2.150454044342041,0.3804330825805664,-0.48000288009643555
1695712356070868700,9.98386865234375,3.2157187461853027,6.002740859985352,-0.6380903720855713
1695712356089972700,10.00297265625,3.724686861038208,10.868054389953613,-1.7259490489959717
1695712356109046300,10.02204638671875,7.7777509689331055,8.059335708618164,-3.571807384490967
1695712356128180700,10.0411806640625,2.8802809715270996,-1.333357810974121,-3.3936357498168945
1695712356147254300,10.060254150390625,-0.9788260459899902,-8.938728332519531,-1.6947826147079468
1695712356166358300,10.079358154296875,-0.7633247375488281,-5.808571815490723,-0.6079298257827759
1695712356185431600,10.098431640625,6.116641044616699,7.659024238586426,-0.6284917593002319
1695712356204535600,10.11753564453125,-3.4862165451049805,16.756973266601562,-1.4889118671417236
1695712356223609000,10.136609130859375,-11.433501243591309,2.774794578552246,-1.2357244491577148
1695712356242713000,10.155713134765625,-8.509289741516113,-11.508865356445312,0.28780484199523926
1695712356261786600,10.17478662109375,-2.598290205001831,-10.896196365356445,-3.017503023147583
1695712356280890600,10.193890625,3.782463788986206,2.734783172607422,-0.6730682849884033
1695712356299964200,10.212964111328125,-4.356151580810547,9.936168670654297,2.026538610458374
1695712356319068200,10.232068115234375,-6.851489067077637,5.681671142578125,1.9468015432357788
1695712356338141700,10.2511416015625,-3.268645763397217,-0.6947555541992188,-1.905615210533142
1695712356357245700,10.27024560546875,0.3170206546783447,-2.6175270080566406,-2.6204092502593994
1695712356376319200,10.2893193359375,-0.08781695365905762,-2.0784406661987305,-0.9403677582740784
1695712356395423200,10.30842333984375,-2.0609991550445557,-1.2675809860229492,0.2786707282066345
1695712356414527200,10.32752734375,-2.986760139465332,-0.752349853515625,0.6766442656517029
1695712356433631200,10.34663134765625,-1.949928879737854,-0.6171693801879883,0.2637310028076172
1695712356452704500,10.36570458984375,-1.0273246765136719,-1.0032148361206055,-0.5170926451683044
1695712356471808500,10.38480859375,0.4160168468952179,-1.5269746780395508,-0.6483372449874878
1695712356490882000,10.403882080078125,1.0201787948608398,-2.2169628143310547,0.057080984115600586
1695712356509986000,10.422986083984375,0.022289637476205826,-2.089207649230957,0.6986358165740967
1695712356529059600,10.4420595703125,-0.8447415828704834,-1.3052692413330078,1.0922285318374634
1695712356548163600,10.46116357421875,-0.44592344760894775,-0.6298856735229492,0.9917045831680298
1695712356567237000,10.480237060546875,0.9597663283348083,-0.23941707611083984,0.4871535301208496
1695712356586341000,10.499341064453125,2.303924083709717,0.13738059997558594,-0.005818605422973633
1695712356605414700,10.51841455078125,2.8112175464630127,0.378814697265625,0.09939789772033691
1695712356624518700,10.5375185546875,1.8492079973220825,0.8253517150878906,0.46980130672454834
1695712356643592000,10.556592041015625,0.9936375617980957,1.4772520065307617,1.182860255241394
1695712356662696200,10.5756962890625,1.8111175298690796,2.1184492111206055,1.7310279607772827
1695712356681769500,10.59476953125,3.0021190643310547,2.7795047760009766,1.1413030624389648
1695712356700904200,10.613904296875,3.3161449432373047,2.5240869522094727,1.2192680835723877
1695712356719977500,10.6329775390625,1.1328215599060059,3.522587776184082,2.373408794403076
1695712356739081500,10.65208154296875,-1.5256614685058594,4.859823226928711,2.9560859203338623
1695712356758155000,10.671155029296875,-1.9731740951538086,4.1349945068359375,1.9686414003372192
1695712356777259000,10.690259033203125,-1.0567271709442139,2.3499679565429688,-0.8578739166259766
1695712356796332500,10.70933251953125,-0.980946958065033,1.562150001525879,-4.421204566955566
1695712356815436500,10.7284365234375,-1.8747459650039673,2.097317695617676,-5.7136735916137695
1695712356834510000,10.747510009765625,-2.534573554992676,3.334336280822754,-4.6960577964782715
1695712356853614000,10.766614013671875,1.2502219676971436,3.593904495239258,-1.9450305700302124
1695712356872687600,10.7856875,1.5906858444213867,2.97292423248291,-1.330473780632019
1695712356891791600,10.80479150390625,-3.0879123210906982,2.849590301513672,-2.6638803482055664
1695712356910865000,10.823864990234375,-7.953039169311523,2.5833120346069336,-2.0314481258392334
1695712356929969000,10.842968994140625,-6.158424377441406,-0.2159290313720703,0.9277340173721313
1695712356949042400,10.86204248046875,-2.9669361114501953,-2.073979377746582,1.2817662954330444
1695712356968146400,10.881146484375,-3.987990379333496,-3.7697181701660156,0.4290330410003662
1695712356987250400,10.90025048828125,-5.1436967849731445,-2.661746025085449,-0.5050951242446899
1695712357006354400,10.9193544921875,-3.586702346801758,-3.1591644287109375,-0.8709949254989624
1695712357025428000,10.938427978515625,-3.6402697563171387,-4.247764587402344,-0.9028290510177612
1695712357044562400,10.9575625,-3.6010231971740723,-5.291936874389648,-0.6773672103881836
1695712357063605500,10.97660546875,-3.1870293617248535,-6.018486022949219,-0.06719493865966797
1695712357082709500,10.99570947265625,-1.9285826683044434,-6.152009010314941,0.135451078414917
1695712357101783000,11.014782958984375,-1.3124361038208008,-5.413498878479004,-0.23802518844604492
1695712357120887000,11.033886962890625,-0.652961254119873,-4.052976608276367,-0.384235143661499
1695712357139960600,11.052960693359376,1.2636322975158691,-1.361166000366211,-0.4788494110107422
1695712357159064600,11.072064697265626,4.9077558517456055,3.884322166442871,-0.30960679054260254
1695712357178137900,11.091137939453125,6.527103424072266,10.337456703186035,-0.31897270679473877
1695712357197241900,11.110241943359375,6.614105224609375,10.828893661499023,-3.0662012100219727
1695712357216315400,11.1293154296875,6.549368858337402,2.5650157928466797,-4.471277713775635
1695712357235419400,11.14841943359375,-1.3800992965698242,-6.2978515625,-3.961862087249756
1695712357254493000,11.167492919921875,-2.9516005516052246,-5.274587631225586,-4.93731689453125
1695712357273627400,11.18662744140625,1.073561191558838,4.285789489746094,-4.354079246520996
1695712357292701000,11.205700927734375,-0.5547099113464355,9.388884544372559,-1.1380956172943115
1695712357311805000,11.224804931640625,-5.0529937744140625,0.9155969619750977,1.5791845321655273
1695712357330878500,11.24387841796875,-4.575046062469482,-5.070779800415039,4.106053352355957
1695712357349982500,11.262982421875,-6.435545921325684,-5.5068464279174805,1.7464678287506104
1695712357369056000,11.282055908203125,-3.801403760910034,3.4755678176879883,0.5709949731826782
1695712357388160000,11.301159912109375,-4.70158576965332,7.310635566711426,1.0705689191818237
1695712357407233500,11.320233642578126,-3.278683662414551,4.053312301635742,0.9818240404129028
1695712357426337500,11.339337646484376,-0.18949031829833984,-1.2368907928466797,-1.5112615823745728
1695712357445410800,11.358410888671875,0.754533052444458,-3.4361772537231445,-2.715625286102295
1695712357464514800,11.377514892578125,-0.07443201541900635,-2.3086366653442383,-1.3625894784927368
1695712357483618800,11.396618896484375,-3.0917859077453613,-0.54205322265625,0.5911664962768555
1695712357502692400,11.4156923828125,-4.414903163909912,0.16232681274414062,1.6047067642211914
1695712357521796400,11.43479638671875,-2.024900436401367,-0.9692401885986328,1.5081669092178345
1695712357540870000,11.453869873046875,-0.30047452449798584,-2.0890932083129883,0.9764552116394043
1695712357560004400,11.47300439453125,-0.6246448755264282,-1.8454618453979492,0.3491976261138916
1695712357579078000,11.492077880859375,-0.9741855263710022,-1.355794906616211,-0.07383620738983154
1695712357598182000,11.511181884765625,-0.49547332525253296,-1.550649642944336,0.16002881526947021
1695712357617255400,11.53025537109375,0.18278899788856506,-1.662611961364746,0.4850778579711914
1695712357636359400,11.549359375,0.07807374000549316,-1.4839792251586914,0.3282787799835205
1695712357655433000,11.568432861328125,0.5362537503242493,-0.7224311828613281,-0.15710091590881348
1695712357674537000,11.587536865234375,2.222996711730957,0.2370615005493164,-0.09583604335784912
1695712357693610500,11.606610595703126,3.40221905708313,0.6681785583496094,0.59498131275177
1695712357712714500,11.625714599609376,1.8841464519500732,0.9493627548217773,1.5786716938018799
1695712357731787800,11.644787841796875,0.07834196090698242,1.4341278076171875,2.70796537399292
1695712357750891800,11.663891845703125,0.5132262706756592,2.136869430541992,3.122987747192383
1695712357769965300,11.68296533203125,2.6459031105041504,3.512568473815918,1.282991647720337
1695712357789069300,11.7020693359375,4.549697399139404,3.7164134979248047,0.602168083190918
1695712357808142800,11.721142822265625,1.9500535726547241,4.697659492492676,2.3341002464294434
1695712357827246800,11.740246826171875,-1.060269832611084,6.061373710632324,3.7558164596557617
1695712357846350800,11.759350830078125,-2.053515911102295,5.410994529724121,2.720409870147705
1695712357865454800,11.778454833984375,-1.091517686843872,2.0502548217773438,-0.8280903100967407
1695712357884528400,11.7975283203125,-1.0036695003509521,0.22186279296875,-4.962515830993652
1695712357903632400,11.81663232421875,-1.3102540969848633,1.4994621276855469,-5.971673011779785
1695712357922706000,11.835705810546875,-2.2554526329040527,2.7262821197509766,-4.782016754150391
1695712357941810000,11.854809814453125,-0.9338027238845825,3.4731550216674805,-2.7034497261047363
1695712357960883200,11.87388330078125,1.5723381042480469,2.9845523834228516,-1.6073789596557617
1695712357979987200,11.8929873046875,-0.9753017425537109,2.4205970764160156,-1.3633617162704468
1695712357999060700,11.912060791015625,-5.331069469451904,2.5251121520996094,-0.6144055128097534
1695712358018164700,11.931164794921875,-7.613498687744141,0.5862331390380859,1.3979566097259521
1695712358037238300,11.95023828125,-4.220693588256836,-1.459284782409668,1.5099737644195557
1695712358056342300,11.96934228515625,-3.585639476776123,-2.462371826171875,0.3886442184448242
1695712358075415800,11.988415771484375,-3.7011375427246094,-3.1911611557006836,-0.3476165533065796
1695712358094519800,12.007519775390625,-4.280432224273682,-3.1806163787841797,-1.0210901498794556
1695712358113593300,12.02659326171875,-4.531601428985596,-3.78218936920166,-0.9827160835266113
1695712358132727800,12.045727783203125,-3.716932773590088,-4.76792049407959,-0.4925370216369629
1695712358151801300,12.06480126953125,-2.9289379119873047,-5.47601318359375,0.054198265075683594
1695712358170905300,12.0839052734375,-2.2428879737854004,-5.654877662658691,0.22866153717041016
1695712358189979000,12.102978759765625,-1.797924518585205,-5.318195343017578,0.025003433227539062
1695712358209083000,12.122082763671875,-1.1280736923217773,-4.772313117980957,-0.12529253959655762
1695712358228156200,12.14115625,0.06390047073364258,-3.369866371154785,-0.0848855972290039
1695712358247260200,12.16026025390625,2.4661002159118652,-0.4377756118774414,-0.21574652194976807
1695712358266333700,12.179333740234375,5.778675556182861,5.593560218811035,0.4196300506591797
1695712358285437700,12.198437744140625,6.765890121459961,12.075214385986328,-0.876595139503479
1695712358304511200,12.21751123046875,9.374584197998047,10.498007774353027,-4.590205192565918
1695712358323615200,12.236615234375,0.9259834289550781,-1.9897851943969727,-4.497917175292969
1695712358342688800,12.255688720703125,-3.0467448234558105,-10.50580883026123,-4.070006370544434
1695712358361792800,12.274792724609375,-1.686652660369873,-6.227630615234375,-3.1605985164642334
1695712358380866300,12.2938662109375,2.2868735790252686,6.0854692459106445,-2.5978989601135254
1695712358399970300,12.31297021484375,-5.0119757652282715,13.99319839477539,-2.2333364486694336
1695712358419074300,12.33207421875,-1.7843856811523438,6.637624740600586,2.6395349502563477
1695712358438178300,12.35117822265625,-7.364851951599121,-6.816534996032715,4.598616600036621
1695712358457251800,12.370251953125,-6.845283508300781,-8.891730308532715,0.5666288137435913
1695712358476355800,12.38935595703125,-2.5398318767547607,0.7456083297729492,-0.4595695734024048
1695712358495429000,12.40842919921875,-1.849560260772705,6.648667335510254,0.8372311592102051
1695712358514533000,12.427533203125,-2.0161468982696533,4.039301872253418,0.6594291925430298
1695712358533606700,12.446606689453125,-2.388340473175049,-0.8261451721191406,-2.043731689453125
1695712358552710700,12.465710693359375,-0.7540477514266968,-2.8497962951660156,-2.0118982791900635
1695712358571784200,12.4847841796875,-0.9634579420089722,-2.277838706970215,0.2641037702560425
1695712358590888200,12.50388818359375,-2.8183417320251465,-0.36879730224609375,1.3569200038909912
1695712358609961700,12.522961669921875,-2.0483133792877197,-0.6172084808349609,1.1521161794662476
1695712358629065700,12.542065673828125,-0.2973079979419708,-2.1084728240966797,0.9366756677627563
1695712358648139300,12.56113916015625,-0.40531447529792786,-2.553455352783203,0.7750720977783203
1695712358667243300,12.5802431640625,-0.9613149166107178,-1.3901901245117188,0.41114962100982666
1695712358686316500,12.599316650390625,-0.2270471751689911,-0.7044963836669922,0.5957785844802856
1695712358705451300,12.618451171875,0.7043208479881287,-0.9035215377807617,0.9408544301986694
1695712358724524800,12.63752490234375,1.1800322532653809,-0.8920269012451172,0.9485769271850586
1695712358743628800,12.65662890625,1.7263343334197998,-0.36484241485595703,0.7449564933776855
1695712358762702000,12.6757021484375,1.9882900714874268,0.34961700439453125,0.5572327375411987
1695712358781806000,12.69480615234375,2.397834300994873,0.5609149932861328,0.5949313640594482
1695712358800879600,12.713879638671875,2.2664761543273926,0.8675127029418945,0.8877731561660767
1695712358819983600,12.732983642578125,1.1932008266448975,1.4631061553955078,1.247485876083374
1695712358839057200,12.75205712890625,0.6689724922180176,1.6870813369750977,2.0768003463745117
1695712358858161200,12.7711611328125,1.5438108444213867,2.6158266067504883,1.687537431716919
1695712358877234700,12.790234619140625,3.3576557636260986,3.4161272048950195,1.247159481048584
1695712358896338700,12.809338623046875,2.0184197425842285,4.722415924072266,1.6532282829284668
1695712358915442700,12.828442626953125,-0.46272289752960205,4.530054092407227,2.0913848876953125
1695712358934516200,12.84751611328125,-1.8865230083465576,3.212078094482422,1.7829582691192627
1695712358953620200,12.8666201171875,-1.274989128112793,1.0949640274047852,0.03556060791015625
1695712358972693500,12.885693603515625,-0.8018429279327393,0.9921989440917969,-3.021829843521118
1695712358991828200,12.904828125,-1.4475162029266357,2.627277374267578,-4.88500452041626
1695712359010901800,12.92390185546875,-2.220386505126953,4.017742156982422,-4.645412445068359
1695712359030005800,12.943005859375,1.169779658317566,4.043122291564941,-2.04362154006958
1695712359049079000,12.9620791015625,2.2598319053649902,3.009243965148926,-0.6395071744918823
1695712359068183000,12.98118310546875,-2.555448293685913,2.928110122680664,-1.0448557138442993
1695712359087256600,13.000256591796875,-7.184456825256348,2.9370718002319336,-0.5387961864471436
1695712359106360600,13.019360595703125,-7.284170150756836,-0.03507709503173828,1.2665451765060425
1695712359125434000,13.03843408203125,-3.495561122894287,-1.6124382019042969,1.3523215055465698
1695712359144538000,13.0575380859375,-2.922118663787842,-2.2437076568603516,0.1726527214050293
1695712359163611600,13.076611572265625,-3.6268563270568848,-2.706737518310547,-0.9558874368667603
1695712359182715600,13.095715576171875,-4.543728828430176,-3.198380470275879,-1.264181137084961
1695712359201789200,13.1147890625,-4.714264392852783,-4.578993797302246,-0.6055848598480225
1695712359220893200,13.13389306640625,-3.6733174324035645,-5.656970024108887,0.09220552444458008
1695712359239966500,13.152966552734375,-2.5172224044799805,-6.104957580566406,0.6537735462188721
1695712359259040000,13.1720400390625,-1.4880180358886719,-5.9331512451171875,0.602414608001709
1695712359278174500,13.191174560546875,-0.7314128875732422,-5.470913887023926,-0.01766824722290039
1695712359297278500,13.210278564453125,0.014701366424560547,-4.462619781494141,-0.2453458309173584
1695712359316352000,13.22935205078125,1.2132656574249268,-2.277256965637207,-0.4059194326400757
1695712359335456000,13.2484560546875,3.487252950668335,2.655890464782715,-0.8674149513244629
1695712359354529500,13.267529541015625,4.723254203796387,10.292574882507324,-1.3087130784988403
1695712359373633500,13.286633544921875,7.826796054840088,13.555215835571289,-3.6230335235595703
1695712359392707000,13.30570703125,7.97392463684082,3.353358268737793,-3.926941394805908
1695712359411811000,13.32481103515625,-1.7345361709594727,-10.094078063964844,-2.397562265396118
1695712359430884600,13.343884521484375,-3.6167731285095215,-10.915645599365234,-2.4466347694396973
1695712359449988600,13.362988525390625,1.044227123260498,1.3140449523925781,-2.138637065887451
1695712359469062100,13.382062255859376,-1.170931100845337,15.305906295776367,-2.3614144325256348
1695712359488166100,13.401166259765626,-7.092910289764404,12.758758544921875,0.939267635345459
1695712359507239400,13.420239501953125,-6.068788528442383,-4.507707595825195,5.03654146194458
1695712359526343400,13.439343505859375,-4.90241813659668,-10.259302139282227,0.7185471057891846
1695712359545417000,13.4584169921875,-0.8696470260620117,-1.6948490142822266,-1.4405328035354614
1695712359564551400,13.477551513671875,-2.6204304695129395,5.787118911743164,-0.25446295738220215
1695712359583625000,13.496625,-3.037614107131958,4.75455379486084,1.4648046493530273
1695712359602729000,13.51572900390625,-2.9603822231292725,0.5598640441894531,-1.0939483642578125
1695712359621802500,13.534802490234375,-1.1016229391098022,-1.9235572814941406,-1.9617849588394165
1695712359640906500,13.553906494140625,-1.2423391342163086,-2.617123603820801,0.28880786895751953
1695712359659980000,13.57297998046875,-2.7486448287963867,-1.3895139694213867,1.3725665807724
1695712359679084000,13.592083984375,-2.796513080596924,-0.45032501220703125,1.2020469903945923
1695712359698157600,13.611157470703125,-0.537369430065155,-1.5403099060058594,0.9110599756240845
1695712359717261600,13.630261474609375,0.03459092974662781,-2.0635242462158203,0.4724142551422119
1695712359736335000,13.649335205078126,-0.6291946172714233,-1.5136384963989258,0.3432788848876953
1695712359755439000,13.668439208984376,-0.26356035470962524,-1.0106534957885742,0.6403188705444336
1695712359774512400,13.687512451171875,0.49180811643600464,-1.0566606521606445,1.217294454574585
1695712359793616400,13.706616455078125,0.22580578923225403,-1.1100654602050781,1.3158884048461914
1695712359812690000,13.72568994140625,0.02212226390838623,-0.5228471755981445,0.7445247173309326
1695712359831794000,13.7447939453125,0.9447022080421448,0.1181192398071289,0.36823225021362305
1695712359850898000,13.76389794921875,2.6881251335144043,0.6012954711914062,0.5306495428085327
1695712359870002000,13.783001953125,2.9779534339904785,1.2619905471801758,0.8745591640472412
1695712359889075500,13.802075439453125,1.4041790962219238,1.71368408203125,0.9880419969558716
1695712359908179500,13.821179443359375,0.9118396043777466,1.5669183731079102,1.371219515800476
1695712359927253000,13.8402529296875,2.1513242721557617,1.5849990844726562,1.5109474658966064
1695712359946357000,13.85935693359375,3.03499174118042,2.298320770263672,1.133364200592041
1695712359965430500,13.878430419921875,3.0545945167541504,3.025710105895996,1.871227741241455
1695712359984534500,13.897534423828125,1.0157554149627686,4.725028038024902,2.874626398086548
1695712360003607800,13.91660791015625,-1.1381433010101318,4.6842498779296875,3.254333734512329
1695712360022711800,13.9357119140625,-2.146329402923584,3.355083465576172,2.5320751667022705
1695712360041785300,13.954785400390625,-1.4564592838287354,1.3610267639160156,0.2403407096862793
1695712360060889300,13.973889404296875,-0.9986069202423096,0.7356767654418945,-2.759617805480957
1695712360079963000,13.992962890625,-1.1068429946899414,2.320328712463379,-4.078678607940674
1695712360099067000,14.01206689453125,-1.5908527374267578,3.6410179138183594,-3.800276279449463
1695712360118140400,14.031140380859375,0.6944236755371094,4.009995460510254,-2.105759620666504
1695712360137275000,14.05027490234375,1.3570642471313477,3.0358457565307617,-0.9341210126876831
1695712360156348400,14.069348388671875,-3.523289442062378,3.0146799087524414,-1.0644776821136475
1695712360175452400,14.088452392578125,-4.828159332275391,3.175241470336914,0.9640231132507324
1695712360194526000,14.10752587890625,-5.989644527435303,-1.2855234146118164,0.7001385688781738
1695712360213630000,14.1266298828125,-7.010510444641113,-2.6612415313720703,0.44133758544921875
1695712360232703500,14.145703369140625,-3.4064502716064453,-2.1111812591552734,0.043570756912231445
1695712360251807500,14.164807373046875,-1.596811294555664,-2.2010021209716797,-0.22359299659729004
1695712360270880800,14.183880859375,-3.374791145324707,-3.1150426864624023,-0.935335636138916
1695712360289984800,14.20298486328125,-4.726905822753906,-4.529750823974609,-0.8327188491821289
1695712360309058300,14.222058349609375,-4.3742828369140625,-5.400078773498535,-0.24283051490783691
1695712360328162300,14.241162353515625,-2.4742417335510254,-5.558660507202148,0.3409109115600586
1695712360347235800,14.26023583984375,-1.1345405578613281,-5.363962173461914,0.3382303714752197
1695712360366339800,14.27933984375,-0.7635278701782227,-5.118496894836426,0.04835653305053711
1695712360385443800,14.29844384765625,-0.38384532928466797,-4.40921688079834,0.008199214935302734
1695712360404517400,14.317517333984375,0.798213005065918,-2.4886016845703125,0.24460244178771973
1695712360423651800,14.33665185546875,3.39963960647583,1.3893470764160156,0.16119801998138428
1695712360442725400,14.355725341796875,4.7282257080078125,7.513063430786133,-0.6034129858016968
1695712360461829400,14.374829345703125,4.969996452331543,11.385098457336426,-2.0842552185058594
1695712360480903000,14.39390283203125,9.70018482208252,6.078039169311523,-2.538247585296631
1695712360500007000,14.4130068359375,0.8602166175842285,-5.234450340270996,-2.112318277359009
1695712360519080400,14.43208056640625,-2.6973471641540527,-11.036600112915039,-2.317471981048584
1695712360538184400,14.451184326171875,-1.838944435119629,-5.944716453552246,-2.424853563308716
1695712360557257700,14.4702578125,4.458196640014648,8.513248443603516,-1.9922230243682861
1695712360576361700,14.48936181640625,-4.464153289794922,19.07598876953125,-2.844508409500122
1695712360595435300,14.508435302734375,-6.416078567504883,7.177946090698242,3.6387219429016113
1695712360614539300,14.527539306640625,-10.468685150146484,-10.964815139770508,3.014039993286133
1695712360633612800,14.54661279296875,-2.601048469543457,-12.268606185913086,-1.2978997230529785
1695712360652716800,14.565716796875,0.9898197650909424,0.8494958877563477,-2.063845634460449
1695712360671790300,14.584790283203125,-1.5153000354766846,8.253646850585938,0.5423135757446289
1695712360690894300,14.603894287109375,-3.1090731620788574,5.598625183105469,1.390511393547058
1695712360709998300,14.622998291015625,-3.1582555770874023,0.6912679672241211,-1.4656307697296143
1695712360729071900,14.64207177734375,-1.5756160020828247,-2.549618721008301,-0.13964903354644775
1695712360748176000,14.66117578125,-1.6964898109436035,-3.338716506958008,1.6441339254379272
1695712360767279900,14.68027978515625,-2.411571979522705,-1.953049659729004,1.2111213207244873
1695712360786353400,14.699353515625,-1.5475611686706543,-1.1907463073730469,0.39815664291381836
1695712360805457400,14.71845751953125,-0.8941847681999207,-1.9712419509887695,0.2612321376800537
1695712360824530700,14.73753076171875,-0.5590125322341919,-1.499547004699707,-0.10391128063201904
1695712360843634700,14.756634765625,0.13087715208530426,-0.6073141098022461,-0.07941174507141113
1695712360862708200,14.775708251953125,0.6660202741622925,-0.824864387512207,0.4643213748931885
1695712360881812200,14.794812255859375,0.47687822580337524,-1.314204216003418,0.6214563846588135
1695712360900885800,14.8138857421875,0.6128183603286743,-1.210158348083496,0.43661558628082275
1695712360919989800,14.83298974609375,1.1171653270721436,-0.509465217590332,0.2881016731262207
1695712360939093800,14.85209375,2.4350128173828125,0.5392246246337891,0.8194637298583984
1695712360958167300,14.871167236328125,2.6018929481506348,1.1838626861572266,1.8043407201766968
1695712360977240800,14.89024072265625,0.9340271949768066,1.605743408203125,2.3912291526794434
1695712360996375300,14.909375244140625,0.5013900995254517,1.6871976852416992,2.452772617340088
1695712361015448800,14.92844873046875,1.9959311485290527,2.076937675476074,2.4544434547424316
1695712361034552800,14.947552734375,3.7488150596618652,3.0968542098999023,1.3097741603851318
1695712361053626400,14.96662646484375,4.322047233581543,2.988306999206543,0.9168298244476318
1695712361072730400,14.98573046875,1.2153923511505127,3.562912940979004,1.7309627532958984
1695712361091803600,15.0048037109375,-1.4895542860031128,4.27070426940918,2.6430933475494385
1695712361110907600,15.02390771484375,-1.8760571479797363,4.367149353027344,3.0080387592315674
1695712361129981200,15.042981201171875,-0.9138447046279907,2.484879493713379,0.3899409770965576
1695712361149085200,15.062085205078125,-0.3742930591106415,0.7467212677001953,-3.5286269187927246
1695712361168158700,15.08115869140625,-1.3495310544967651,1.4416093826293945,-5.981160640716553
1695712361187262700,15.1002626953125,-2.275383949279785,2.516498565673828,-5.710206508636475
1695712361206336300,15.119336181640625,0.021017789840698242,3.6800832748413086,-3.1100621223449707
1695712361225440300,15.138440185546875,3.458627223968506,3.0188026428222656,-0.8866094350814819
1695712361244513800,15.157513671875,-0.2913975715637207,2.3154077529907227,-1.3697516918182373
1695712361263617800,15.17661767578125,-7.126230716705322,3.082058906555176,-1.554104208946228
1695712361282721800,15.1957216796875,-8.294655799865723,0.7479476928710938,0.8066754341125488
1695712361301825800,15.21482568359375,-4.0877556800842285,-1.3327674865722656,1.6218030452728271
1695712361320899000,15.233899169921875,-2.076216220855713,-2.021211624145508,0.8323473930358887
1695712361340003000,15.253003173828125,-2.754833221435547,-2.8776111602783203,-0.13180649280548096
1695712361359076600,15.27207666015625,-3.95662784576416,-3.1364641189575195,-0.8315597772598267
1695712361378180600,15.2911806640625,-4.108185768127441,-3.5767107009887695,-1.0250738859176636
1695712361397254100,15.310254150390625,-3.9237260818481445,-4.712928771972656,-0.6361796855926514
1695712361416358100,15.329358154296875,-3.22330379486084,-5.5992326736450195,-0.11748218536376953
1695712361435431700,15.348431640625,-2.1648473739624023,-6.065853118896484,0.33219730854034424
1695712361454535700,15.36753564453125,-1.432304859161377,-5.976662635803223,0.4253826141357422
1695712361473609200,15.386609130859375,-0.8635139465332031,-5.1663713455200195,0.25891780853271484
1695712361492713200,15.405713134765625,0.32879066467285156,-3.371548652648926,0.320163369178772
1695712361511786800,15.424786865234376,2.79392147064209,0.14613628387451172,-0.06839430332183838
1695712361530890800,15.443890869140626,6.366085052490234,6.6226654052734375,0.2556520700454712
1695712361549964000,15.462964111328125,6.993934631347656,12.630146026611328,-1.3174159526824951
1695712361569098800,15.4820986328125,8.985634803771973,9.723647117614746,-4.150510311126709
1695712361588172000,15.501172119140625,1.0729742050170898,-2.7087345123291016,-3.6524131298065186
1695712361607276000,15.520276123046875,-2.347297191619873,-11.073173522949219,-3.0875298976898193
1695712361626349600,15.539349609375,-1.7393031120300293,-6.133131980895996,-3.2971348762512207
1695712361645453600,15.55845361328125,2.593705177307129,6.199908256530762,-2.845569133758545
1695712361664527000,15.577527099609375,-3.036076307296753,13.92062759399414,-1.872873067855835
1695712361683631000,15.596631103515625,-2.1885194778442383,5.8165388107299805,3.092348098754883
1695712361702704600,15.61570458984375,-8.026105880737305,-6.9363508224487305,4.604181289672852
1695712361721808600,15.63480859375,-6.43829345703125,-8.066459655761719,0.5574219226837158
1695712361740882200,15.653882080078125,-2.2851738929748535,1.2140369415283203,-0.8540902137756348
1695712361759986200,15.672986083984375,-1.923887014389038,5.917257308959961,0.7576768398284912
1695712361779059700,15.692059814453126,-1.8395369052886963,3.2682313919067383,1.0156725645065308
1695712361798163700,15.711163818359376,-1.5871608257293701,-0.6890649795532227,-2.201596736907959
1695712361817267700,15.730267822265626,-0.5212171077728271,-1.9636707305908203,-2.3063559532165527
1695712361836341000,15.749341064453125,-0.9738267660140991,-1.8566875457763672,0.4651747941970825
1695712361855475700,15.768475830078126,-2.8380584716796875,-0.8220434188842773,1.8057646751403809
1695712361874549000,15.787549072265625,-2.992316246032715,-0.5762491226196289,1.337587594985962
1695712361893653000,15.806653076171875,-1.1369576454162598,-1.6593217849731445,0.7849947214126587
1695712361912726500,15.8257265625,0.011392578482627869,-2.1208114624023438,0.3933448791503906
1695712361931830500,15.84483056640625,-0.22958873212337494,-1.5724706649780273,0.3627508878707886
1695712361950904000,15.863904052734375,-0.17553624510765076,-1.0435714721679688,0.6395792961120605
1695712361970008000,15.883008056640625,0.41724899411201477,-1.043869972229004,1.1997735500335693
1695712361989081600,15.90208154296875,0.608916699886322,-1.0348005294799805,1.185649037361145
1695712362008185600,15.921185546875,0.2392488718032837,-0.8124418258666992,0.7279635667800903
1695712362027259100,15.940259033203125,1.024582862854004,-0.031212806701660156,0.11281061172485352
1695712362046363100,15.959363037109375,2.648501396179199,0.5586690902709961,-0.3471595048904419
1695712362065436700,15.978436767578126,2.672780990600586,0.6283941268920898,0.32645225524902344
1695712362084540700,15.997540771484376,0.8770757913589478,1.5028438568115234,1.4528011083602905
1695712362103614000,16.016614013671877,0.7964351177215576,2.2240114212036133,1.6573237180709839
1695712362122718000,16.035718017578127,1.887197494506836,2.157756805419922,1.3109521865844727
1695712362141822000,16.054822021484377,3.175252676010132,2.3396425247192383,0.22369444370269775
1695712362160926000,16.073926025390627,3.536966323852539,2.225341796875,0.34642350673675537
1695712362179999500,16.09299951171875,1.6029722690582275,2.9860715866088867,2.094926357269287
1695712362199103500,16.112103515625,-0.5527137517929077,5.101146697998047,3.4485843181610107
1695712362218177000,16.131177001953127,-1.5427945852279663,4.5897722244262695,3.92924165725708
1695712362237281000,16.150281005859377,-1.5896897315979004,2.003504753112793,1.645108699798584
1695712362256354600,16.1693544921875,-1.4414284229278564,-0.3607139587402344,-2.4691078662872314
1695712362275458600,16.18845849609375,-0.9762293696403503,1.5401010513305664,-4.398036003112793
1695712362294562600,16.2075625,-0.7812803983688354,3.6111793518066406,-3.653120994567871
1695712362313636000,16.226635986328127,1.573266863822937,4.509881973266602,-1.985589861869812
1695712362332709400,16.24570947265625,2.3145840167999268,3.3789806365966797,-0.30484962463378906
1695712362351813400,16.2648134765625,1.2091059684753418,3.743732452392578,-0.05046510696411133
1695712362370887000,16.283886962890627,-7.759947299957275,1.503549575805664,-2.5745301246643066
1695712362389991000,16.302990966796877,-12.899246215820312,1.6371164321899414,1.0434914827346802
1695712362409064400,16.322064453125,-6.671048641204834,-0.8091602325439453,1.286741852760315
1695712362428199000,16.341198974609377,-1.4145686626434326,-2.2579708099365234,0.3338221311569214
1695712362447272400,16.3602724609375,0.3446221351623535,-3.0560426712036133,-0.558908224105835
1695712362466376400,16.37937646484375,-1.9632282257080078,-3.69830322265625,-1.3835134506225586
1695712362485450000,16.398449951171877,-3.9640822410583496,-4.575462341308594,-0.8592416048049927
1695712362504554000,16.417553955078127,-3.5836596488952637,-5.102974891662598,-0.12448084354400635
1695712362523627500,16.43662744140625,-2.4694786071777344,-5.197100639343262,0.3853118419647217
1695712362542731500,16.4557314453125,-2.1438732147216797,-4.962516784667969,0.2605020999908447
1695712362561805000,16.47480517578125,-1.8677291870117188,-4.807150840759277,-0.1808568239212036
1695712362580909000,16.493908935546877,-0.8141274452209473,-4.831697463989258,-0.5270340442657471
1695712362599982300,16.512982421875,0.006453752517700195,-3.585638999938965,-0.01963639259338379
1695712362619086300,16.53208642578125,1.5422534942626953,-0.5693206787109375,0.7166279554367065
1695712362638160000,16.551159912109377,4.536711692810059,5.018996238708496,1.0118104219436646
1695712362657263900,16.570263916015627,5.170745849609375,11.295815467834473,0.26948821544647217
1695712362676337400,16.58933740234375,9.097355842590332,9.205573081970215,-1.7323694229125977
1695712362695441400,16.60844140625,3.215642213821411,-1.2089614868164062,-4.186793804168701
1695712362714545400,16.62754541015625,-2.416295051574707,-7.902978897094727,-4.814948081970215
1695712362733649400,16.6466494140625,-1.3294227123260498,-2.6321163177490234,-4.2077555656433105
1695712362752723000,16.665722900390627,1.5623817443847656,7.396731376647949,-2.919705390930176
1695712362771827000,16.684826904296877,-4.794622898101807,8.391788482666016,0.7209087610244751
1695712362790900500,16.703900390625,-1.49525785446167,0.21513080596923828,4.808444023132324
1695712362810004500,16.72300439453125,-7.718372821807861,-6.60869026184082,4.318886756896973
1695712362829078000,16.742078125,-3.24780011177063,-4.515011787414551,1.2131001949310303
1695712362848182000,16.76118212890625,-2.508357048034668,3.6306848526000977,0.05295431613922119
1695712362867255300,16.78025537109375,-2.379458427429199,5.154680252075195,1.3406115770339966
1695712362886359300,16.799359375,-1.4689953327178955,1.5677289962768555,0.14547371864318848
1695712362905432800,16.818432861328127,-0.7790652513504028,-1.2210798263549805,-2.070916175842285
1695712362924536800,16.837536865234377,0.5817645788192749,-1.9992074966430664,-1.0272818803787231
1695712362943610400,16.8566103515625,-1.1632299423217773,-1.0356826782226562,1.193109393119812
1695712362962733600,16.875733642578126,-3.255002498626709,0.03811359405517578,1.8482387065887451
1695712362981807000,16.89480712890625,-2.505317211151123,-0.7492046356201172,1.485945701599121
1695712363000941600,16.913941650390626,-0.9779393672943115,-2.024169921875,0.8750549554824829
1695712363020015000,16.93301513671875,0.006172880530357361,-1.8346881866455078,0.4522519111633301
1695712363039119000,16.952119140625,0.009175397455692291,-1.243525505065918,0.36975812911987305
1695712363058192600,16.971192626953126,-0.09643435478210449,-1.1770267486572266,0.6647810935974121
1695712363077296600,16.990296630859376,0.2986060380935669,-1.221510887145996,1.012718915939331
1695712363096370000,17.009369873046875,0.6454107761383057,-1.0108938217163086,1.200049877166748
1695712363115474000,17.028473876953125,0.657914400100708,-0.48665809631347656,0.9001038074493408
1695712363134547500,17.04754736328125,1.312010407447815,0.4043397903442383,0.43473029136657715
1695712363153651500,17.0666513671875,2.611006736755371,0.9266443252563477,0.6237061023712158
1695712363172725000,17.08572509765625,2.328646659851074,1.2158308029174805,1.2747796773910522
1695712363191829000,17.1048291015625,0.23267734050750732,1.6324224472045898,1.355283260345459
1695712363210902500,17.123902587890626,0.48384571075439453,1.5972366333007812,1.7913763523101807
1695712363230006500,17.143006591796876,2.4713377952575684,1.9940338134765625,1.6324362754821777
1695712363249110500,17.162110595703126,3.9169726371765137,2.621440887451172,1.1366815567016602
1695712363268184000,17.18118408203125,2.4315788745880127,2.966435432434082,2.4231820106506348
1695712363287318500,17.200318603515626,-0.26831114292144775,4.7649736404418945,3.756840705871582
1695712363306392000,17.21939208984375,-1.5749410390853882,5.397211074829102,4.347815036773682
1695712363325496000,17.23849609375,-1.2641448974609375,3.803032875061035,2.2342491149902344
1695712363344569600,17.257569580078126,-1.0187374353408813,0.45113468170166016,-2.0116653442382812
1695712363363673600,17.276673583984376,-1.4011173248291016,-0.23300933837890625,-5.034367561340332
1695712363382747000,17.295746826171875,-0.701126217842102,1.976633071899414,-3.8402304649353027
1695712363401851000,17.314850830078125,-0.3646063208580017,3.6974878311157227,-1.649393081665039
1695712363420924400,17.33392431640625,0.5271326303482056,3.7521190643310547,-1.015246868133545
1695712363440028400,17.3530283203125,0.6535406112670898,2.714447021484375,-0.7635533809661865
1695712363459102000,17.37210205078125,-3.7453410625457764,2.4638795852661133,-0.5797234773635864
1695712363478206000,17.3912060546875,-7.452328681945801,2.3522567749023438,0.502577543258667
1695712363497279500,17.410279541015626,-6.243093490600586,-0.2468576431274414,1.6820627450942993
1695712363516383500,17.429383544921876,-2.5766489505767822,-1.9565200805664062,1.7526757717132568
1695712363535457000,17.44845703125,-1.200249195098877,-2.5993309020996094,0.7327384948730469
1695712363554561000,17.46756103515625,-1.845144271850586,-2.5104894638061523,-0.3413572311401367
1695712363573665000,17.4866650390625,-3.521289348602295,-2.2193422317504883,-0.8349764347076416
1695712363592769000,17.50576904296875,-3.939612865447998,-3.192854881286621,-0.938988447189331
1695712363611842300,17.52484228515625,-3.425344467163086,-4.308642387390137,-0.6123921871185303
1695712363630946300,17.5439462890625,-2.4071617126464844,-5.104265213012695,-0.05275535583496094
1695712363650050600,17.563050537109376,-1.5258398056030273,-5.000101089477539,0.17464733123779297
1695712363669123800,17.582123779296875,-1.2760653495788574,-4.3823442459106445,0.10058712959289551
1695712363688197400,17.601197265625,0.023590564727783203,-4.212428092956543,-0.06026911735534668
1695712363707301400,17.62030126953125,1.5295321941375732,-2.8101863861083984,0.030550003051757812
1695712363726375000,17.639375,1.941709280014038,-0.49253082275390625,-0.08492755889892578
1695712363745479000,17.65847900390625,1.3091199398040771,4.326275825500488,-0.19419753551483154
1695712363764552400,17.677552490234376,4.237221717834473,8.485877990722656,-1.3817073106765747
1695712363783656400,17.696656494140626,7.163053512573242,8.213489532470703,-2.38850474357605
1695712363802730000,17.71572998046875,8.110372543334961,1.1593599319458008,-2.6509716510772705
1695712363821834000,17.734833984375,1.380579948425293,-6.768221855163574,-2.1506924629211426
1695712363840907300,17.7539072265625,-1.6937978267669678,-6.6429033279418945,-1.6234447956085205
1695712363860042000,17.7730419921875,-0.4948410987854004,1.831857681274414,-1.2078408002853394
1695712363879115300,17.792115234375,4.264743804931641,10.003119468688965,-1.271665096282959
1695712363898219300,17.81121923828125,-9.880910873413086,7.937348365783691,-1.2588982582092285
1695712363917292800,17.830292724609375,-5.579598426818848,-4.934148788452148,3.5126633644104004
1695712363936396800,17.849396728515625,-6.446850776672363,-9.191732406616211,0.8083451986312866
1695712363955470300,17.86847021484375,0.14341950416564941,-2.4924983978271484,0.02441394329071045
1695712363974574300,17.88757421875,-0.23344087600708008,6.530463218688965,1.051567554473877
1695712363993647900,17.90664794921875,-2.7258450984954834,6.4585113525390625,1.8578869104385376
1695712364012752000,17.925751953125,-3.2949910163879395,1.7014236450195312,-1.0440044403076172
1695712364031825400,17.944825439453126,-1.1318281888961792,-1.9422969818115234,-2.37949800491333
1695712364050929400,17.963929443359376,0.1635756492614746,-3.117952346801758,0.18700754642486572
1695712364070003000,17.9830029296875,-1.7488468885421753,-1.691512107849121,1.5409666299819946
1695712364089107000,18.00210693359375,-3.417684555053711,-0.23602008819580078,1.0727678537368774
1695712364108180200,18.02118017578125,-1.9530242681503296,-0.23668575286865234,0.2023146152496338
1695712364127284200,18.0402841796875,0.10493597388267517,-2.242678642272949,0.35964012145996094
1695712364146388200,18.05938818359375,-0.02432795614004135,-2.1310501098632812,0.18384921550750732
1695712364165492200,18.0784921875,-0.2664220333099365,-1.0717620849609375,-0.12657856941223145
1695712364184565800,18.097565673828125,-0.07134765386581421,-0.907374382019043,0.19117236137390137
1695712364203669800,18.116669677734375,1.5283920764923096,-1.8765926361083984,0.9071190357208252
1695712364222743300,18.135743408203126,1.1592117547988892,-1.1935291290283203,1.4243754148483276
1695712364241847300,18.154847412109376,-0.1548147201538086,0.17057228088378906,1.1387090682983398
1695712364260920800,18.1739208984375,1.4837626218795776,0.42582130432128906,0.910747766494751
1695712364280024800,18.19302490234375,3.1727824211120605,0.4718151092529297,0.8458988666534424
1695712364299098400,18.212098388671876,1.7193950414657593,0.8872356414794922,0.8483192920684814
1695712364318202400,18.231202392578126,0.8096237182617188,1.6457242965698242,1.3817784786224365
1695712364337275600,18.250275634765625,1.8196333646774292,2.107301712036133,2.3830056190490723
1695712364356380000,18.2693798828125,2.4282665252685547,2.904608726501465,1.665806531906128
1695712364375453200,18.288453125,3.0088510513305664,3.035959243774414,0.9147555828094482
1695712364394557200,18.30755712890625,2.352858543395996,2.937623977661133,1.3913421630859375
1695712364413630700,18.326630615234375,0.6531165838241577,4.662618637084961,1.960484266281128
1695712364432765200,18.34576513671875,-0.5577050447463989,4.890832901000977,2.5496668815612793
1695712364451838700,18.364838623046875,-0.36915552616119385,2.8154964447021484,1.209380865097046
1695712364470942700,18.383942626953125,-0.6772490739822388,0.4859304428100586,-1.225344181060791
1695712364490016300,18.403016357421876,-1.3608942031860352,-0.12185478210449219,-3.5212953090667725
1695712364509120300,18.422120361328126,-1.687309980392456,0.9072780609130859,-3.544166088104248
1695712364528193800,18.44119384765625,-1.2293272018432617,3.291217803955078,-2.598397970199585
1695712364547297800,18.4602978515625,1.4049310684204102,3.6468067169189453,-1.248373031616211
1695712364566371300,18.479371337890626,0.8559697866439819,2.4435338973999023,-0.22694730758666992
1695712364585475300,18.498475341796876,-2.9626142978668213,2.2899160385131836,-0.7112829685211182
1695712364604579300,18.517579345703126,-7.217642307281494,2.3362932205200195,-0.43953800201416016
1695712364623652600,18.536652587890625,-4.453256607055664,0.07983207702636719,1.484354019165039
1695712364642756600,18.555756591796875,-1.7069401741027832,-1.475419044494629,1.572638750076294
1695712364661830100,18.574830078125,-2.184955358505249,-2.0368452072143555,0.2071528434753418
1695712364680934100,18.59393408203125,-3.082019567489624,-2.7994537353515625,-0.6494686603546143
1695712364700007700,18.613007568359375,-3.919384002685547,-3.2820987701416016,-0.90826416015625
1695712364719142100,18.63214208984375,-4.454032897949219,-4.290114402770996,-0.3869788646697998
1695712364738215700,18.651215576171875,-3.7920432090759277,-5.421778678894043,0.6974608898162842
1695712364757319700,18.670319580078125,-1.679882526397705,-5.330820083618164,0.9086568355560303
1695712364776393200,18.689393310546876,-0.16058731079101562,-4.246386528015137,0.21619606018066406
1695712364795497200,18.708497314453126,0.1602325439453125,-4.128377914428711,-0.034360647201538086
1695712364814570800,18.72757080078125,0.7362015247344971,-3.816415786743164,0.09406304359436035
1695712364833674800,18.7466748046875,1.632131814956665,-2.1348342895507812,0.08822202682495117
1695712364852748300,18.765748291015626,3.163240432739258,1.2736015319824219,0.28885412216186523
1695712364871852300,18.784852294921876,4.43394660949707,6.576094627380371,-0.6888672113418579
1695712364890925600,18.803925537109375,4.9361138343811035,8.746113777160645,-2.810555934906006
1695712364910029600,18.823029541015625,7.868681907653809,5.280886650085449,-3.3324971199035645
1695712364929103000,18.84210302734375,2.128197193145752,-3.945815086364746,-1.7214267253875732
1695712364948207000,18.86120703125,-0.836961030960083,-7.969123840332031,-1.8091747760772705
1695712364967280600,18.88028076171875,0.5859267711639404,-1.2736425399780273,-2.1550045013427734
1695712364986384600,18.899384521484375,4.3880109786987305,10.10102653503418,-2.5592308044433594
1695712365005519000,18.91851904296875,-9.850648880004883,11.851924896240234,-1.5647038221359253
1695712365024592600,18.937592529296875,-4.306007385253906,-0.5334606170654297,1.2808678150177002
1695712365043666200,18.956666259765626,-4.760045051574707,-10.36031436920166,0.7011392116546631
1695712365062770200,18.975770263671876,-0.9065732955932617,-9.01157283782959,-1.5452083349227905
1695712365081843700,18.99484375,-2.0344114303588867,3.3412437438964844,-0.01869654655456543
1695712365100947700,19.01394775390625,-4.770535469055176,7.839080810546875,3.3853206634521484
1695712365120021200,19.033021240234376,-5.337053298950195,3.770437240600586,2.261564254760742
1695712365139125200,19.052125244140626,-1.7659974098205566,-0.9672880172729492,-1.7332245111465454
1695712365158198500,19.071198486328125,2.4789958000183105,-2.340991973876953,-0.8062667846679688
1695712365177302500,19.090302490234375,1.1090916395187378,-1.5033187866210938,0.40921783447265625
1695712365196376000,19.1093759765625,-2.549846649169922,-0.7503471374511719,0.39217138290405273
1695712365215480000,19.12847998046875,-3.2063629627227783,-1.478306770324707,0.45089590549468994
1695712365234553600,19.1475537109375,-1.8832881450653076,-2.471806526184082,0.856747031211853
1695712365253657600,19.16665771484375,-0.5171332359313965,-1.5234174728393555,0.6708319187164307
1695712365272731100,19.185731201171876,0.4566780924797058,-0.3121070861816406,0.24491655826568604
1695712365291865600,19.204865478515625,0.41914910078048706,-0.9697980880737305,0.40693187713623047
1695712365310939100,19.223939208984376,0.5131149291992188,-1.5558786392211914,0.6928322315216064
1695712365330043100,19.243043212890626,0.8767752647399902,-1.2130041122436523,1.065019130706787
1695712365349116700,19.26211669921875,1.366927146911621,-0.35098743438720703,1.3272559642791748
1695712365368220700,19.281220703125,2.1897897720336914,0.36609840393066406,1.2851594686508179
1695712365387294200,19.300294189453126,2.347677707672119,0.5532989501953125,0.8872653245925903
1695712365406398200,19.319398193359376,2.121518611907959,0.9797515869140625,0.46584224700927734
1695712365425471500,19.338471435546875,1.365570068359375,1.3843450546264648,1.1528793573379517
1695712365444575500,19.357575439453125,1.2886582612991333,1.9453868865966797,2.8916678428649902
1695712365463649000,19.37664892578125,2.220452308654785,2.951345443725586,2.664656400680542
1695712365482753000,19.3957529296875,3.98126482963562,3.3703460693359375,0.9139120578765869
1695712365501826600,19.41482666015625,3.608792781829834,2.5221996307373047,0.7797850370407104
1695712365520930600,19.4339306640625,-0.025414347648620605,2.9061203002929688,1.7940419912338257
1695712365540004000,19.453004150390626,-2.048018455505371,3.8689708709716797,3.0955147743225098
1695712365559108000,19.472108154296876,-1.9121365547180176,3.0142173767089844,2.08988618850708
1695712365578212000,19.491212158203126,-0.36099565029144287,0.669219970703125,-2.319770574569702
1695712365597316000,19.510316162109376,-0.5530746579170227,0.8143014907836914,-7.132664680480957
1695712365616389600,19.5293896484375,-3.3978617191314697,1.3109655380249023,-7.147859573364258
1695712365635493600,19.54849365234375,0.8840121030807495,4.947508811950684,-2.514824867248535
1695712365654567000,19.56756689453125,3.650141477584839,4.756988525390625,-1.457110047340393
1695712365673671000,19.5866708984375,0.08368110656738281,2.780299186706543,-1.87410306930542
1695712365692744400,19.605744384765625,-5.4512224197387695,2.9555625915527344,-1.4231189489364624
1695712365711848400,19.624848388671875,-8.448864936828613,0.851588249206543,0.03435206413269043
1695712365730922000,19.643921875,-4.827130317687988,-2.1816577911376953,1.0424209833145142
1695712365750026000,19.66302587890625,-3.1157779693603516,-2.638974189758301,2.389760971069336
1695712365769099500,19.682099609375,-2.431621551513672,-3.024167060852051,0.4350370168685913
1695712365788203500,19.70120361328125,-1.277245044708252,-2.908763885498047,-0.6247991323471069
1695712365807277000,19.720277099609376,-2.7502341270446777,-2.5595169067382812,-1.562170147895813
1695712365826381000,19.739381103515626,-3.9116134643554688,-3.8790435791015625,-0.8073968887329102
1695712365845454600,19.75845458984375,-3.4998888969421387,-4.645137786865234,-0.04507279396057129
1695712365864589000,19.777589111328126,-2.5067286491394043,-5.46553897857666,0.7413160800933838
1695712365883662600,19.79666259765625,-1.3086967468261719,-5.914764404296875,1.060646891593933
1695712365902766600,19.8157666015625,-0.689387321472168,-5.345416069030762,0.47870051860809326
1695712365921839900,19.83483984375,-0.27033281326293945,-3.462132453918457,-0.03288531303405762
1695712365940944000,19.85394384765625,1.4617528915405273,0.4079704284667969,-0.8753032684326172
1695712365960017400,19.873017333984375,5.206537246704102,5.873810768127441,-0.3156944513320923
1695712365979121400,19.892121337890625,7.407353401184082,12.559962272644043,0.17338550090789795
1695712365998225400,19.911225341796875,7.981118202209473,10.18504524230957,-1.070610761642456
1695712366017299000,19.930298828125,1.846776008605957,-0.2794151306152344,-2.1657350063323975
1695712366036403000,19.94940283203125,-2.931391954421997,-10.90011215209961,-2.4116005897521973
1695712366055476500,19.9684765625,-1.0350277423858643,-10.788542747497559,-2.5190699100494385
1695712366074580500,19.98758056640625,-1.4281692504882812,-0.39249229431152344,-2.9812424182891846
1695712366093654000,20.006654052734376,2.177217483520508,11.225457191467285,-4.312165260314941
1695712366112758000,20.025758056640626,-2.9421722888946533,12.041373252868652,-3.0489394664764404
1695712366131831600,20.04483154296875,-0.16696763038635254,-0.5917396545410156,3.77584171295166
1695712366150966000,20.063966064453126,-9.285263061523438,-4.576001167297363,1.132137656211853
1695712366170039600,20.08303955078125,-2.4134159088134766,-5.930289268493652,1.6266188621520996
1695712366189143600,20.1021435546875,0.11559295654296875,1.7396926879882812,2.8840174674987793
1695712366208216800,20.121216796875,-4.081454277038574,5.480589866638184,2.9937195777893066
1695712366227320800,20.14032080078125,-3.9349422454833984,2.691190719604492,0.5021206140518188
1695712366246394400,20.159394287109375,-0.4991523027420044,-1.082932472229004,-2.6477179527282715
1695712366265498400,20.178498291015625,2.9778521060943604,-1.8053779602050781,-2.640709400177002
1695712366284572000,20.197572021484376,0.7553468942642212,-1.4448919296264648,-0.1716463565826416
1695712366303676000,20.216676025390626,-2.9520769119262695,-0.3313913345336914,0.797032356262207
1695712366322749400,20.23574951171875,-3.9521524906158447,-0.21091842651367188,0.9145745038986206
1695712366341853400,20.254853515625,-2.4920175075531006,-1.1959714889526367,1.020462989807129
1695712366360927000,20.273927001953126,-1.1994285583496094,-1.209737777709961,0.717384934425354
1695712366380031000,20.293031005859376,-0.02710750699043274,-2.267538070678711,0.8269898891448975
1695712366399104500,20.3121044921875,0.24205735325813293,-2.101472854614258,0.9169254302978516
1695712366418208500,20.33120849609375,-0.4980302155017853,-0.5971956253051758,0.6343357563018799
1695712366437312500,20.3503125,-0.2575758695602417,-0.8949394226074219,0.6693416833877563
1695712366456416500,20.36941650390625,0.25337517261505127,-0.9613142013549805,0.3159613609313965
1695712366475489800,20.38848974609375,0.5630208849906921,-0.614720344543457,0.03819108009338379
1695712366494593800,20.40759375,0.897005021572113,-0.29957103729248047,0.05108439922332764
1695712366513667300,20.426667236328125,0.8204452991485596,0.2516441345214844,0.594643235206604
1695712366532771300,20.445771240234375,-0.05118119716644287,0.8322935104370117,1.2618674039840698
1695712366551844900,20.464844970703126,-0.12559020519256592,1.3271427154541016,1.5502748489379883
1695712366570948900,20.483948974609376,0.48792386054992676,1.1817665100097656,1.7596356868743896
1695712366590022400,20.5030224609375,0.9352892637252808,1.5942144393920898,1.3004844188690186
1695712366609126400,20.52212646484375,2.788943290710449,2.1552982330322266,0.288496732711792
1695712366628200000,20.541199951171876,4.391420841217041,2.05023193359375,-0.16802871227264404
1695712366647304000,20.560303955078126,3.991337776184082,0.24697494506835938,0.6556174755096436
1695712366666377200,20.579377197265625,2.4101614952087402,0.8857812881469727,2.117558479309082
1695712366685481200,20.598481201171875,1.2139285802841187,2.7492122650146484,3.9224612712860107
1695712366704554800,20.6175546875,-0.5052685737609863,5.545086860656738,5.034193992614746
1695712366723689500,20.636689453125,-1.51436448097229,4.572866439819336,4.418942928314209
1695712366742762800,20.6557626953125,-0.5581339597702026,1.2927370071411133,1.1589970588684082
1695712366761866800,20.67486669921875,-0.6694797277450562,0.1896076202392578,-2.913046360015869
1695712366780940300,20.693940185546875,-1.275388479232788,-0.47005653381347656,-4.49655294418335
1695712366800044300,20.713044189453125,-1.91200590133667,1.1522274017333984,-4.160911560058594
1695712366819117800,20.732117919921876,-2.0801258087158203,2.872518539428711,-1.0056483745574951
1695712366838221800,20.751221923828126,-1.2453768253326416,3.712937355041504,0.9822602272033691
1695712366857295400,20.77029541015625,-0.6267297267913818,3.9773998260498047,1.385925054550171
1695712366876399400,20.7893994140625,-3.030784845352173,3.6633167266845703,0.4853324890136719
1695712366895473000,20.808472900390626,-6.015661716461182,1.7818470001220703,0.7646372318267822
1695712366914577000,20.827576904296876,-3.067119598388672,-0.44011497497558594,0.5562560558319092
1695712366933650200,20.846650146484375,0.2534976005554199,-1.6988554000854492,0.28641772270202637
1695712366952785000,20.865784912109376,-1.1732978820800781,-2.078907012939453,-0.9893903732299805
1695712366971827700,20.88482763671875,-3.4718515872955322,-2.3487911224365234,-1.136491298675537
1695712366990931700,20.903931640625,-3.3869214057922363,-3.7061386108398438,0.34191036224365234
1695712367010035700,20.92303564453125,-2.397561550140381,-4.183266639709473,0.7508156299591064
1695712367029139700,20.9421396484375,-2.616095542907715,-2.471860885620117,-0.04012632369995117
1695712367048213200,20.961213134765625,-2.585357189178467,-2.343390464782715,-0.2035369873046875
1695712367067317200,20.980317138671875,-1.7261719703674316,-2.121440887451172,-0.8948235511779785
1695712367086390800,20.999390869140626,-0.8946571350097656,-2.008880615234375,-1.036149024963379
1695712367105494800,21.018494873046876,-0.7848703861236572,-1.4993276596069336,-0.8037426471710205
1695712367124568300,21.037568359375,1.8677055835723877,-1.4581356048583984,-1.4656591415405273
1695712367143672300,21.05667236328125,3.186691999435425,0.27753257751464844,-1.9515105485916138
1695712367162745900,21.075745849609376,0.8175559043884277,2.697066307067871,0.4328104257583618
1695712367181849900,21.094849853515626,2.01061749458313,5.224734306335449,2.2018918991088867
1695712367200923100,21.113923095703125,7.1714067459106445,3.526712417602539,1.8373205661773682
1695712367220027100,21.133027099609375,4.030472278594971,2.8242034912109375,-0.590533971786499
1695712367239100700,21.1521005859375,0.9232676029205322,2.356682777404785,-1.7588739395141602
1695712367258204700,21.17120458984375,1.2830705642700195,3.0726089477539062,-1.0246365070343018
1695712367277278200,21.1902783203125,-0.7178642749786377,7.649433135986328,0.014278769493103027
1695712367296412700,21.20941259765625,-2.8198931217193604,8.074274063110352,-0.6941476464271545
1695712367315486200,21.228486328125,-3.2063207626342773,2.9050283432006836,-2.5037078857421875
1695712367334590200,21.247590087890625,-0.9661524295806885,1.055842399597168,-0.2749520540237427
1695712367353663700,21.266663818359376,-2.9276278018951416,2.382078170776367,0.2853890359401703
1695712367372767700,21.285767822265626,3.2020487785339355,-0.5485801696777344,-0.7946510314941406
1695712367391841300,21.30484130859375,-3.463831901550293,-0.1687002182006836,-0.4740300178527832
1695712367410945300,21.3239453125,-6.637815475463867,4.979148864746094,2.708421468734741
1695712367430049300,21.34304931640625,2.048262596130371,3.2501726150512695,4.067860126495361
1695712367449122800,21.362122802734376,-1.5483920574188232,3.8910903930664062,2.4241724014282227
1695712367468226800,21.381226806640626,1.022837519645691,1.5416316986083984,-0.8654177188873291
1695712367487300000,21.400300048828125,4.587777614593506,-0.5616226196289062,-2.2411086559295654
1695712367506404000,21.419404052734375,6.002164840698242,-3.3473777770996094,-2.921891212463379
1695712367525477600,21.4384775390625,2.0651845932006836,-0.05559730529785156,-1.4497344493865967
1695712367544581600,21.45758154296875,4.098204612731934,1.252981185913086,0.676247239112854
1695712367563655200,21.4766552734375,7.557259559631348,3.165273666381836,0.08110350370407104
1695712367582789600,21.49578955078125,6.93345832824707,2.296529769897461,0.2867283225059509
1695712367601863200,21.51486328125,2.3082127571105957,-0.2370615005493164,0.1119086742401123
1695712367620967200,21.53396728515625,-2.569988250732422,-2.708841323852539,0.8256920576095581
1695712367640040700,21.553040771484376,-1.1463861465454102,-2.991605281829834,1.8686258792877197
1695712367659144700,21.572144775390626,1.4411401748657227,-2.187094211578369,2.1186790466308594
1695712367678218200,21.59121826171875,0.17153596878051758,-2.5447397232055664,1.889880657196045
1695712367697322200,21.610322265625,-2.8413543701171875,-2.2965917587280273,1.3185596466064453
1695712367716395500,21.6293955078125,-3.134823799133301,-0.405362606048584,0.5344142913818359
1695712367735499800,21.648499755859376,-0.5593705177307129,-0.315826416015625,-1.805713176727295
1695712367754573000,21.667572998046875,0.7366762161254883,-1.3145442008972168,-3.008867025375366
1695712367773677000,21.686677001953125,-0.7869982719421387,-0.055774688720703125,-3.1069834232330322
1695712367792872700,21.705872802734376,-2.4187731742858887,-0.19309425354003906,-2.6558656692504883
1695712367812098800,21.725098876953126,-2.3809781074523926,-0.9053659439086914,-2.810293674468994
1695712367831325000,21.744324951171876,1.11260986328125,-2.5035557746887207,-2.865138053894043
1695712367850581500,21.76358154296875,2.3212947845458984,-3.7519712448120117,-2.778109312057495
1695712367869044500,21.78204443359375,-0.16122674942016602,-2.0520193576812744,-5.610868453979492
1695712367888209700,21.801209716796876,-1.454078197479248,-1.424560308456421,-4.475064277648926
1695712367907344100,21.82034423828125,0.6314210891723633,-1.8318407535552979,-4.382574558258057
1695712367926417700,21.839417724609376,3.5713720321655273,-2.4790163040161133,-4.502150058746338
1695712367945491200,21.8584912109375,4.749021530151367,-1.5057342052459717,-7.422961711883545
1695712367964595200,21.87759521484375,1.955164909362793,0.4335252642631531,-6.972228527069092
1695712367983668500,21.89666845703125,-1.3603801727294922,0.007143676280975342,-3.1515274047851562
1695712368002772500,21.9157724609375,0.020346641540527344,0.46307337284088135,-2.2080390453338623
1695712368021846000,21.934845947265625,3.5112857818603516,0.2250056266784668,-1.7228317260742188
1695712368040950000,21.953949951171875,0.09450149536132812,0.5476568937301636,0.22781658172607422
1695712368060023600,21.9730234375,-2.037095069885254,1.852411150932312,1.2846825122833252
1695712368079127600,21.99212744140625,-2.9931859970092773,2.0201210975646973,1.1424791812896729
1695712368098201000,22.011201171875,-3.5803775787353516,-0.06702744960784912,0.12674450874328613
1695712368117305000,22.03030517578125,-0.49466896057128906,-0.27488207817077637,-0.5712025165557861
1695712368136378600,22.049378662109376,1.3885993957519531,1.0277082920074463,-0.9718860387802124
1695712368155513000,22.06851318359375,0.39186763763427734,2.091637134552002,-1.1032006740570068
1695712368174586600,22.087586669921876,-1.3174524307250977,1.5539638996124268,-0.26607680320739746
1695712368193690600,22.106690673828126,-0.9262104034423828,1.0969862937927246,-0.16441702842712402
1695712368212764200,22.12576416015625,-0.6191463470458984,0.3333622217178345,0.22708547115325928
1695712368231868200,22.1448681640625,-0.4665975570678711,-0.0006262063980102539,0.5776495337486267
1695712368250941400,22.16394140625,-0.46426963806152344,0.27467215061187744,0.8420738577842712
1695712368270045400,22.18304541015625,-0.48705101013183594,0.6046215295791626,0.8923722505569458
1695712368289119000,22.202118896484375,0.06549739837646484,0.5075092315673828,0.8918846845626831
1695712368308253400,22.22125341796875,0.7121791839599609,-1.260450005531311,1.7221142053604126
1695712368327296500,22.240296630859376,0.04884147644042969,-3.73002290725708,2.184835195541382
1695712368346400500,22.259400390625,0.28987979888916016,-1.8142398595809937,-0.37974777817726135
1695712368365474000,22.27847412109375,-0.0991373062133789,0.1288532018661499,-1.5111933946609497
1695712368384578000,22.297578125,-0.6034402847290039,0.9423220157623291,-1.8411914110183716
1695712368403651600,22.316651611328126,-1.0324068069458008,0.5878978967666626,-1.3755320310592651
1695712368422755600,22.335755615234376,-1.1079940795898438,-0.06435346603393555,-0.7485354542732239
1695712368441859600,22.354859619140626,-1.2473487854003906,-0.34357237815856934,-0.4126586616039276
1695712368460963600,22.373963623046876,-1.558420181274414,-0.010080099105834961,-0.3662283420562744
1695712368480037000,22.393037109375,-1.3888044357299805,0.7090672254562378,-0.33923637866973877
1695712368499141000,22.41214111328125,-0.9682025909423828,0.2811926603317261,-0.035949431359767914
1695712368518214400,22.43121435546875,-0.5477094650268555,0.03713500499725342,-0.011336911469697952
1695712368537318400,22.450318359375,-0.5185604095458984,0.1072702407836914,-0.12368755042552948
1695712368556392000,22.469391845703125,-0.7193136215209961,0.44397544860839844,-0.23011013865470886
1695712368575496000,22.488495849609375,-0.9361581802368164,0.9090311527252197,-0.5878729224205017
1695712368594569500,22.507569580078126,-0.8797616958618164,0.9848611354827881,-0.9204527139663696
1695712368613673500,22.526673583984376,-0.47428417205810547,0.38895106315612793,-0.6680583953857422
1695712368632747000,22.5457470703125,-0.8715715408325195,-0.40511131286621094,0.13807380199432373
1695712368651851000,22.56485107421875,-1.3430919647216797,-0.5071828365325928,0.16813522577285767
1695712368670924500,22.583924560546876,-0.29972267150878906,0.19298887252807617,-0.9898838996887207
1695712368690028500,22.603028564453126,0.09054946899414062,0.9599622488021851,-1.0782259702682495
1695712368709101800,22.622101806640625,0.3366889953613281,0.9153472185134888,-0.36796092987060547
1695712368728236500,22.641236572265626,0.38970279693603516,0.21014726161956787,-0.2109590768814087
1695712368747340500,22.660340576171876,0.43538856506347656,-0.1840776801109314,-0.4951738715171814
1695712368766414000,22.6794140625,-0.5661907196044922,0.16922283172607422,-0.641403079032898
1695712368785518000,22.69851806640625,0.08101654052734375,0.8849060535430908,-1.093822717666626
1695712368804591400,22.71759130859375,0.6116609573364258,0.6800370812416077,-0.5146634578704834
1695712368823695400,22.7366953125,1.3582134246826172,0.1784524768590927,0.0571940541267395
1695712368842769000,22.755768798828125,1.1808156967163086,-0.1689777374267578,0.39686310291290283
1695712368861842400,22.774842529296876,0.754878044128418,-0.09070208668708801,-0.0630044937133789
1695712368880946400,22.793946533203126,0.3935708999633789,0.1673753261566162,-0.6149088144302368
1695712368900050400,22.813050537109376,0.41730690002441406,0.2862389087677002,-0.8119349479675293
1695712368919124000,22.8321240234375,-0.2219085693359375,0.06384557485580444,-0.545487642288208
1695712368938228000,22.85122802734375,-0.36356163024902344,0.05749940872192383,-0.6329253911972046
1695712368957301500,22.870301513671876,0.4611330032348633,0.052898287773132324,-0.7340707182884216
1695712368976405500,22.889405517578126,0.8746967315673828,-0.30729150772094727,-0.746254563331604
1695712368995478800,22.908478759765625,0.19417667388916016,-0.6878681182861328,-0.7020608186721802
1695712369014613500,22.927613525390626,-0.700587272644043,-0.4695960283279419,-0.8568218350410461
1695712369033686800,22.946686767578125,-0.9164934158325195,-0.028292059898376465,-0.939561665058136
1695712369052790800,22.965790771484375,-0.7733516693115234,0.1460937261581421,-0.9215978980064392
1695712369071864300,22.9848642578125,-0.5190496444702148,0.057965874671936035,-0.7207302451133728
1695712369090968300,23.00396826171875,-0.12335872650146484,-0.02462947368621826,-0.5321400165557861
1695712369110041900,23.023041748046875,0.12375736236572266,-0.013744950294494629,-0.40650421380996704
1695712369129145900,23.042145751953125,0.3059825897216797,0.12748205661773682,-0.3612837791442871
1695712369148219400,23.061219482421876,0.3155031204223633,0.23064696788787842,-0.3031468987464905
1695712369167323400,23.080323486328126,0.261199951171875,0.19155514240264893,-0.29759812355041504
1695712369186397000,23.09939697265625,0.10016727447509766,0.02794468402862549,-0.32471543550491333
1695712369205501000,23.1185009765625,-0.004910469055175781,-0.05121660232543945,-0.3972712755203247
1695712369224574500,23.137574462890626,0.04988288879394531,-0.11078238487243652,-0.40856969356536865
1695712369243678500,23.156678466796876,-0.06358623504638672,-0.165252685546875,-0.33839190006256104
1695712369262751700,23.175751708984375,-0.22712993621826172,-0.18238401412963867,-0.1675897240638733
1695712369281855700,23.194855712890625,-0.13858604431152344,-0.05700254440307617,-0.11902004480361938
1695712369300959700,23.213959716796875,0.15964031219482422,0.01797771453857422,-0.18259412050247192
1695712369320063700,23.233063720703125,0.32912158966064453,-0.020932674407958984,-0.3080238699913025
1695712369339137300,23.25213720703125,0.1085805892944336,-0.038578033447265625,-0.4156162142753601
1695712369358241300,23.2712412109375,-0.104522705078125,-0.05705976486206055,-0.39969563484191895
1695712369377314800,23.290314697265625,-0.19413375854492188,-0.030319690704345703,-0.27566635608673096
1695712369396418800,23.309418701171875,-0.3123950958251953,0.0468144416809082,-0.30467814207077026
1695712369415492400,23.328492431640626,-0.3581829071044922,0.09679651260375977,-0.49514609575271606
1695712369434596400,23.347596435546876,-0.40813159942626953,-0.005018949508666992,-0.5144081115722656
1695712369453670000,23.366669921875,-0.2442483901977539,-0.028719425201416016,-0.4308692216873169
1695712369472774000,23.38577392578125,-0.03882598876953125,0.0014591217041015625,-0.3367490768432617
1695712369491847400,23.404847412109376,0.09485149383544922,0.06726861000061035,-0.35004884004592896
1695712369510951400,23.423951416015626,0.12728309631347656,-0.03368425369262695,-0.2703247666358948
1695712369530024700,23.443024658203125,0.003956794738769531,-0.15475940704345703,-0.250985324382782
1695712369549128700,23.462128662109375,-0.002315521240234375,-0.16683483123779297,-0.3007180094718933
1695712369568202200,23.4812021484375,-0.06562995910644531,-0.14403748512268066,-0.3248804807662964
1695712369587336700,23.500336669921875,-0.11044883728027344,-0.15443682670593262,-0.32380610704421997
