time,seconds_elapsed,z,y,x
1695393207588476200,0.20747607421875,-0.041046142578125,-0.31097412109375,-0.333404541015625
1695393207597997800,0.216997802734375,-0.077362060546875,-0.32562255859375,-0.316619873046875
1695393207607519200,0.226519287109375,-0.114898681640625,-0.34210205078125,-0.305938720703125
1695393207617071000,0.236071044921875,-0.12969970703125,-0.38604736328125,-0.296173095703125
1695393207626623200,0.245623291015625,-0.114288330078125,-0.41961669921875,-0.281219482421875
1695393207636175400,0.25517529296875,-0.091400146484375,-0.4193115234375,-0.250091552734375
1695393207645727200,0.264727294921875,-0.049896240234375,-0.464019775390625,-0.222930908203125
1695393207655248600,0.27424853515625,-0.016632080078125,-0.482025146484375,-0.212860107421875
1695393207664800800,0.28380078125,-0.009002685546875,-0.42938232421875,-0.226898193359375
1695393207674352600,0.2933525390625,-0.009307861328125,-0.3399658203125,-0.272979736328125
1695393207683904800,0.30290478515625,-0.000152587890625,-0.340576171875,-0.341339111328125
1695393207693426200,0.31242626953125,-0.039215087890625,-0.34332275390625,-0.4302978515625
1695393207702978300,0.321978271484375,-0.066375732421875,-0.32623291015625,-0.5133056640625
1695393207712530200,0.3315302734375,-0.028533935546875,-0.3759765625,-0.552215576171875
1695393207722082300,0.341082275390625,-0.001678466796875,-0.35430908203125,-0.574493408203125
1695393207731603700,0.350603759765625,0.04364013671875,-0.2825927734375,-0.593109130859375
1695393207741155600,0.360155517578125,0.15106201171875,-0.274658203125,-0.599822998046875
1695393207750707700,0.369707763671875,0.295867919921875,-0.2886962890625,-0.593109130859375
1695393207760259600,0.379259521484375,0.4180908203125,-0.240020751953125,-0.576629638671875
1695393207769811700,0.388811767578125,0.50140380859375,-0.148773193359375,-0.546722412109375
1695393207779333000,0.3983330078125,0.56121826171875,-0.106048583984375,-0.496826171875
1695393207788885200,0.40788525390625,0.589447021484375,-0.118560791015625,-0.4376220703125
1695393207798437000,0.41743701171875,0.56304931640625,-0.156097412109375,-0.382080078125
1695393207807989200,0.4269892578125,0.5035400390625,-0.161285400390625,-0.293426513671875
1695393207817510700,0.4365107421875,0.457763671875,-0.25909423828125,-0.17669677734375
1695393207827062800,0.446062744140625,0.4034423828125,-0.42327880859375,-0.072021484375
1695393207836614700,0.45561474609375,0.318145751953125,-0.6500244140625,-0.00335693359375
1695393207846166800,0.465166748046875,0.22125244140625,-0.75042724609375,0.071563720703125
1695393207855718700,0.47471875,0.16510009765625,-0.856170654296875,0.108489990234375
1695393207865270800,0.484270751953125,0.13458251953125,-0.857696533203125,0.099945068359375
1695393207874822700,0.49382275390625,0.11444091796875,-0.777130126953125,0.054473876953125
1695393207884374800,0.503374755859375,0.107421875,-0.635986328125,-0.0146484375
1695393207893926700,0.5129267578125,0.10772705078125,-0.460052490234375,-0.08819580078125
1695393207903448000,0.522447998046875,0.11016845703125,-0.3271484375,-0.15838623046875
1695393207913000200,0.532000244140625,0.0933837890625,-0.308837890625,-0.214691162109375
1695393207922552000,0.541552001953125,0.05767822265625,-0.175933837890625,-0.193634033203125
1695393207932104200,0.551104248046875,0.028839111328125,-0.123748779296875,-0.14404296875
1695393207941625600,0.56062548828125,0.009918212890625,-0.0482177734375,-0.07965087890625
1695393207951177700,0.570177734375,-0.004119873046875,0.0335693359375,-0.015869140625
1695393207960729600,0.5797294921875,-0.017242431640625,0.125579833984375,0.036163330078125
1695393207970281700,0.58928173828125,-0.027923583984375,0.218963623046875,0.078582763671875
1695393207979833600,0.59883349609375,-0.030364990234375,0.296630859375,0.113983154296875
1695393207989355300,0.608355224609375,-0.034332275390625,0.3607177734375,0.142364501953125
1695393207998907100,0.6179072265625,-0.048980712890625,0.4095458984375,0.161285400390625
1695393208008459300,0.627459228515625,-0.069427490234375,0.43792724609375,0.17608642578125
1695393208018011100,0.63701123046875,-0.092315673828125,0.44342041015625,0.18951416015625
1695393208027532500,0.646532470703125,-0.106048583984375,0.42449951171875,0.2081298828125
1695393208037084700,0.656084716796875,-0.104827880859375,0.38055419921875,0.2313232421875
1695393208046636500,0.665636474609375,-0.086517333984375,0.32440185546875,0.24932861328125
1695393208056188700,0.675188720703125,-0.052642822265625,0.263214111328125,0.260009765625
1695393208065740500,0.684740478515625,-0.009307861328125,0.198516845703125,0.262451171875
1695393208075262200,0.69426220703125,0.027923583984375,0.130462646484375,0.2447509765625
1695393208084814000,0.70381396484375,0.039520263671875,0.08209228515625,0.20965576171875
1695393208094366200,0.7133662109375,0.023040771484375,0.0555419921875,0.158843994140625
1695393208103918000,0.72291796875,-0.005950927734375,0.03662109375,0.094451904296875
1695393208113439700,0.732439697265625,-0.033111572265625,0.0225830078125,0.022430419921875
1695393208122991600,0.74199169921875,-0.053558349609375,0.01190185546875,-0.0433349609375
1695393208132543700,0.751543701171875,-0.062103271484375,0.01068115234375,-0.09521484375
1695393208142095600,0.761095703125,-0.061187744140625,0.02471923828125,-0.13275146484375
1695393208151678200,0.77067822265625,-0.052642822265625,0.05584716796875,-0.1556396484375
1695393208161199600,0.78019970703125,-0.043792724609375,0.09002685546875,-0.16510009765625
1695393208170751700,0.789751708984375,-0.038299560546875,0.120391845703125,-0.16387939453125
1695393208180303600,0.7993037109375,-0.039215087890625,0.140228271484375,-0.15106201171875
1695393208189855700,0.808855712890625,-0.052032470703125,0.153961181640625,-0.13031005859375
1695393208199377200,0.818377197265625,-0.073394775390625,0.153350830078125,-0.1055908203125
1695393208208929000,0.827928955078125,-0.092315673828125,0.133819580078125,-0.08453369140625
1695393208218481200,0.837481201171875,-0.113372802734375,0.103912353515625,-0.074462890625
1695393208228033000,0.847032958984375,-0.12359619140625,0.06622314453125,-0.08087158203125
1695393208237585200,0.856585205078125,-0.118255615234375,0.03936767578125,-0.10223388671875
1695393208247106600,0.8661064453125,-0.105743408203125,0.0372314453125,-0.1324462890625
1695393208256658700,0.87565869140625,-0.090179443359375,0.05523681640625,-0.16448974609375
1695393208266210600,0.88521044921875,-0.080413818359375,0.0909423828125,-0.193634033203125
1695393208275762700,0.8947626953125,-0.082244873046875,0.135040283203125,-0.221710205078125
1695393208285284000,0.9042841796875,-0.095367431640625,0.169525146484375,-0.250396728515625
1695393208294836200,0.913836181640625,-0.113067626953125,0.189361572265625,-0.276641845703125
1695393208304388000,0.92338818359375,-0.127410888671875,0.198822021484375,-0.293426513671875
1695393208313940200,0.932940185546875,-0.12786865234375,0.199432373046875,-0.286407470703125
1695393208323461600,0.942461669921875,-0.111236572265625,0.189666748046875,-0.245513916015625
1695393208333013500,0.952013427734375,-0.081329345703125,0.166473388671875,-0.17364501953125
1695393208342565600,0.961565673828125,-0.036773681640625,0.125885009765625,-0.078125
1695393208352117500,0.971117431640625,0.011444091796875,0.08056640625,0.029754638671875
1695393208361669600,0.980669677734375,0.05035400390625,0.045166015625,0.125885009765625
1695393208371191000,0.99019091796875,0.07080078125,0.02716064453125,0.19287109375
1695393208380743200,0.9997431640625,0.07293701171875,0.028076171875,0.22064208984375
1695393208390295000,1.009294921875,0.064697265625,0.04364013671875,0.21636962890625
1695393208399847200,1.01884716796875,0.05218505859375,0.0714111328125,0.189208984375
1695393208409368600,1.02836865234375,0.038299560546875,0.10101318359375,0.154571533203125
1695393208418920700,1.037920654296875,0.029144287109375,0.120697021484375,0.120391845703125
1695393208428472600,1.04747265625,0.028228759765625,0.118255615234375,0.091705322265625
1695393208438055200,1.05705517578125,0.031585693359375,0.0927734375,0.071868896484375
1695393208447607000,1.06660693359375,0.038604736328125,0.05645751953125,0.062408447265625
1695393208457128700,1.076128662109375,0.05157470703125,0.03509521484375,0.060272216796875
1695393208466680600,1.0856806640625,0.05889892578125,0.04364013671875,0.061798095703125
1695393208476232700,1.095232666015625,0.05401611328125,0.08087158203125,0.059051513671875
1695393208485784600,1.10478466796875,0.042572021484375,0.134429931640625,0.057830810546875
1695393208495306000,1.114305908203125,0.025177001953125,0.195465087890625,0.056304931640625
1695393208504858000,1.123858154296875,0.007476806640625,0.248565673828125,0.051727294921875
1695393208514410000,1.133409912109375,-0.004119873046875,0.272064208984375,0.049285888671875
1695393208523962000,1.142962158203125,-0.007476806640625,0.262603759765625,0.056610107421875
1695393208533514000,1.152513916015625,-0.008697509765625,0.230865478515625,0.082550048828125
1695393208543035600,1.16203564453125,-0.017242431640625,0.202484130859375,0.118560791015625
1695393208552587500,1.17158740234375,-0.033416748046875,0.181732177734375,0.14892578125
1695393208562139600,1.1811396484375,-0.045318603515625,0.174407958984375,0.157470703125
1695393208571691500,1.19069140625,-0.046844482421875,0.189361572265625,0.1458740234375
1695393208581213200,1.200213134765625,-0.037384033203125,0.225067138671875,0.120697021484375
1695393208590765000,1.20976513671875,-0.018463134765625,0.272064208984375,0.088653564453125
1695393208600317200,1.219317138671875,0.006256103515625,0.301513671875,0.058746337890625
1695393208609869000,1.228869140625,0.025482177734375,0.3070068359375,0.039825439453125
1695393208619421200,1.238421142578125,0.034942626953125,0.294189453125,0.036468505859375
1695393208628942600,1.247942626953125,0.037384033203125,0.268096923828125,0.052947998046875
1695393208638494500,1.257494384765625,0.034942626953125,0.245819091796875,0.081939697265625
1695393208648046600,1.267046630859375,0.040130615234375,0.219268798828125,0.120086669921875
1695393208657598500,1.276598388671875,0.0482177734375,0.185394287109375,0.15472412109375
1695393208667120000,1.2861201171875,0.05157470703125,0.150299072265625,0.17486572265625
1695393208676672000,1.295672119140625,0.04852294921875,0.109405517578125,0.17913818359375
1695393208686224100,1.30522412109375,0.037689208984375,0.0689697265625,0.16845703125
1695393208695776000,1.31477587890625,0.022735595703125,0.03387451171875,0.1385498046875
1695393208705297700,1.324297607421875,0.016021728515625,0.01251220703125,0.099945068359375
1695393208714849500,1.333849609375,0.022430419921875,0.00640869140625,0.055694580078125
1695393208724432100,1.34343212890625,0.038604736328125,0.01251220703125,0.015411376953125
1695393208733984000,1.35298388671875,0.05767822265625,0.01922607421875,-0.007476806640625
1695393208743536000,1.3625361328125,0.07598876953125,0.0189208984375,-0.008087158203125
1695393208753057500,1.3720576171875,0.08544921875,0.018310546875,0.009613037109375
1695393208762609700,1.381609619140625,0.0823974609375,0.02197265625,0.037078857421875
1695393208772161500,1.39116162109375,0.0701904296875,0.03082275390625,0.067291259765625
1695393208781713700,1.400713623046875,0.05645751953125,0.04241943359375,0.091094970703125
1695393208791235000,1.410235107421875,0.043182373046875,0.05523681640625,0.100860595703125
1695393208800787000,1.419786865234375,0.030975341796875,0.07049560546875,0.092010498046875
1695393208810339000,1.429339111328125,0.020904541015625,0.0787353515625,0.075225830078125
1695393208819891000,1.438890869140625,0.015716552734375,0.0762939453125,0.055084228515625
1695393208829443000,1.448443115234375,0.012969970703125,0.06622314453125,0.039215087890625
1695393208838964500,1.457964599609375,0.010528564453125,0.05584716796875,0.026702880859375
1695393208848516600,1.4675166015625,0.007476806640625,0.04425048828125,0.019683837890625
1695393208858068500,1.477068359375,-0.000152587890625,0.0390625,0.015716552734375
1695393208867620600,1.48662060546875,-0.012359619140625,0.048828125,0.016632080078125
1695393208877142000,1.49614208984375,-0.026702880859375,0.0640869140625,0.022735595703125
1695393208886694100,1.505694091796875,-0.034637451171875,0.07843017578125,0.028533935546875
1695393208896246000,1.51524609375,-0.033416748046875,0.09063720703125,0.034027099609375
1695393208905798100,1.524798095703125,-0.025177001953125,0.100860595703125,0.037994384765625
1695393208915319600,1.534319580078125,-0.016937255859375,0.101318359375,0.043182373046875
1695393208924871400,1.543871337890625,-0.013275146484375,0.08453369140625,0.047149658203125
1695393208934423600,1.553423583984375,-0.016021728515625,0.05767822265625,0.049591064453125
1695393208943975400,1.562975341796875,-0.020294189453125,0.0323486328125,0.055084228515625
1695393208953527600,1.572527587890625,-0.027008056640625,0.0189208984375,0.058135986328125
1695393208963049000,1.582049072265625,-0.034027099609375,0.00946044921875,0.059051513671875
1695393208972601000,1.59160107421875,-0.037994384765625,-0.00152587890625,0.052337646484375
1695393208982153000,1.601153076171875,-0.041046142578125,-0.008544921875,0.036773681640625
1695393208991705000,1.610705078125,-0.041656494140625,-0.01373291015625,0.020294189453125
1695393209001257000,1.620257080078125,-0.040130615234375,-0.0213623046875,0.005645751953125
1695393209010809000,1.62980908203125,-0.036163330078125,-0.015869140625,-0.0018310546875
1695393209020361000,1.63936083984375,-0.027923583984375,0.010986328125,0.003509521484375
1695393209029913000,1.6489130859375,-0.010833740234375,0.04913330078125,0.018157958984375
1695393209039465000,1.65846484375,0.006866455078125,0.08331298828125,0.031585693359375
1695393209048986600,1.667986572265625,0.011749267578125,0.106048583984375,0.035247802734375
1695393209058538500,1.67753857421875,0.001068115234375,0.113983154296875,0.022430419921875
1695393209068090600,1.687090576171875,-0.023040771484375,0.126800537109375,-0.00701904296875
1695393209077642500,1.696642578125,-0.053253173828125,0.156097412109375,-0.05126953125
1695393209087164000,1.706163818359375,-0.074920654296875,0.199127197265625,-0.0982666015625
1695393209096716000,1.715716064453125,-0.079498291015625,0.253143310546875,-0.13763427734375
1695393209106268000,1.725267822265625,-0.071563720703125,0.30670166015625,-0.16571044921875
1695393209115820000,1.734820068359375,-0.051727294921875,0.3387451171875,-0.1806640625
1695393209125372000,1.744371826171875,-0.021209716796875,0.33721923828125,-0.185394287109375
1695393209134893600,1.7538935546875,0.006256103515625,0.31524658203125,-0.190277099609375
1695393209144445400,1.763445556640625,0.027923583984375,0.29205322265625,-0.208587646484375
1695393209153997600,1.77299755859375,0.0494384765625,0.27069091796875,-0.236358642578125
1695393209163549400,1.782549560546875,0.07965087890625,0.274658203125,-0.257110595703125
1695393209173071000,1.792071044921875,0.126953125,0.31341552734375,-0.269622802734375
1695393209182623000,1.801623046875,0.189208984375,0.374755859375,-0.278472900390625
1695393209192175000,1.811175048828125,0.248565673828125,0.457000732421875,-0.293121337890625
1695393209201727000,1.82072705078125,0.289154052734375,0.556182861328125,-0.322723388671875
1695393209211279000,1.830279052734375,0.312347412109375,0.6640625,-0.38055419921875
1695393209220800500,1.839800537109375,0.331573486328125,0.758056640625,-0.46783447265625
1695393209230352400,1.849352294921875,0.365142822265625,0.828094482421875,-0.583038330078125
1695393209239904500,1.858904541015625,0.406494140625,0.868377685546875,-0.725555419921875
1695393209249456400,1.868456298828125,0.4144287109375,0.885772705078125,-0.89996337890625
1695393209258978000,1.87797802734375,0.41229248046875,0.890350341796875,-1.08306884765625
1695393209268530000,1.887530029296875,0.407562255859375,0.881500244140625,-1.2493896484375
1695393209278082000,1.89708203125,0.404510498046875,0.852203369140625,-1.352081298828125
1695393209287634000,1.906634033203125,0.40496826171875,0.79345703125,-1.357269287109375
1695393209297216500,1.916216552734375,0.41229248046875,0.711669921875,-1.275482177734375
1695393209306738000,1.925738037109375,0.42510986328125,0.66162109375,-1.14593505859375
1695393209316290000,1.9352900390625,0.4412841796875,0.62957763671875,-1.017303466796875
1695393209325842000,1.944842041015625,0.45684814453125,0.622100830078125,-0.900115966796875
1695393209335394000,1.95439404296875,0.4193115234375,0.7684326171875,-0.83953857421875
1695393209344915500,1.96391552734375,0.289154052734375,1.02783203125,-0.82489013671875
1695393209354467600,1.973467529296875,0.07904052734375,1.3671875,-0.8367919921875
1695393209364019500,1.98301953125,-0.16693115234375,1.81549072265625,-0.87646484375
1695393209373571600,1.992571533203125,-0.378570556640625,2.237548828125,-0.933380126953125
1695393209383123500,2.00212353515625,-0.482940673828125,2.315216064453125,-0.941314697265625
1695393209392644900,2.011644775390625,-0.464935302734375,2.005157470703125,-0.8551025390625
1695393209402197000,2.021197021484375,-0.417022705078125,1.505126953125,-0.75103759765625
1695393209411748900,2.030748779296875,-0.309295654296875,0.559844970703125,-0.594940185546875
1695393209421301000,2.040301025390625,-0.1361083984375,-0.894927978515625,-0.3826904296875
1695393209430822400,2.049822509765625,0.05645751953125,-2.54638671875,-0.17242431640625
1695393209440374500,2.05937451171875,0.1812744140625,-3.754730224609375,-0.0445556640625
1695393209449926400,2.068926513671875,0.225677490234375,-4.3035888671875,-0.00396728515625
1695393209459478500,2.078478515625,0.166015625,-5.182342529296875,-0.15350341796875
1695393209469000000,2.088,-0.066986083984375,-5.257720947265625,-0.683746337890625
1695393209478552000,2.097552001953125,-0.20233154296875,-4.163665771484375,-1.12640380859375
1695393209488104000,2.10710400390625,-0.17578125,-2.705230712890625,-1.343536376953125
1695393209497656000,2.116656005859375,-0.081939697265625,-2.014923095703125,-1.546630859375
1695393209507208000,2.1262080078125,0.07843017578125,-2.09075927734375,-1.677398681640625
1695393209516729300,2.135729248046875,0.261688232421875,-1.620635986328125,-1.558837890625
1695393209526281500,2.145281494140625,0.22186279296875,-1.131439208984375,-1.298675537109375
1695393209535833300,2.154833251953125,0.1141357421875,-1.043701171875,-0.914306640625
1695393209545385500,2.164385498046875,0.18218994140625,-0.576629638671875,-0.338287353515625
1695393209554907000,2.173906982421875,0.330047607421875,-0.411224365234375,0.23162841796875
1695393209564459000,2.183458984375,0.4437255859375,-0.645751953125,0.705413818359375
1695393209574011000,2.193010986328125,0.53253173828125,-1.08306884765625,1.090545654296875
1695393209583593500,2.202593505859375,0.590057373046875,-1.3232421875,1.339111328125
1695393209593145300,2.212145263671875,0.586395263671875,-1.175994873046875,1.407623291015625
1695393209602667000,2.2216669921875,0.56915283203125,-0.803985595703125,1.265869140625
1695393209612219000,2.231218994140625,0.623321533203125,-0.37933349609375,0.9637451171875
1695393209621771000,2.24077099609375,0.78399658203125,-0.00244140625,0.57159423828125
1695393209631323000,2.250322998046875,1.013641357421875,0.222930908203125,0.15655517578125
1695393209640844500,2.259844482421875,1.23748779296875,0.295562744140625,-0.19927978515625
1695393209650396400,2.269396484375,1.392059326171875,0.214691162109375,-0.4010009765625
1695393209659948500,2.278948486328125,1.458282470703125,0.02685546875,-0.42236328125
1695393209669500400,2.28850048828125,1.411590576171875,-0.193328857421875,-0.280914306640625
1695393209679052500,2.298052490234375,1.2615966796875,-0.413665771484375,-0.015716552734375
1695393209688574000,2.307573974609375,1.061248779296875,-0.536041259765625,0.28533935546875
1695393209698125800,2.317125732421875,0.84991455078125,-0.567779541015625,0.52093505859375
1695393209707678000,2.326677978515625,0.638885498046875,-0.61187744140625,0.66986083984375
1695393209717229800,2.336229736328125,0.53680419921875,-0.66986083984375,0.743255615234375
1695393209726751500,2.34575146484375,0.47149658203125,-0.63507080078125,0.721588134765625
1695393209736303400,2.355303466796875,0.386505126953125,-0.58837890625,0.61859130859375
1695393209745855500,2.36485546875,0.298309326171875,-0.5902099609375,0.444793701171875
1695393209755407400,2.374407470703125,0.2227783203125,-0.6610107421875,0.24322509765625
1695393209764959500,2.38395947265625,0.172119140625,-0.7415771484375,0.056610107421875
1695393209774481000,2.39348095703125,0.270843505859375,-0.7513427734375,-0.07843017578125
1695393209784033000,2.403032958984375,0.83526611328125,-0.60028076171875,-0.06011962890625
1695393209793585000,2.4125849609375,1.48468017578125,-0.131683349609375,0.110321044921875
1695393209803137000,2.422136962890625,1.6436767578125,0.218658447265625,0.242919921875
1695393209812658400,2.431658447265625,1.424713134765625,0.37811279296875,0.2581787109375
1695393209822210300,2.441210205078125,1.207275390625,0.4254150390625,0.17791748046875
1695393209831762400,2.450762451171875,1.107330322265625,0.38299560546875,0.100860595703125
1695393209841314300,2.460314208984375,1.092376708984375,0.32135009765625,0.029754638671875
1695393209850866400,2.469866455078125,1.104888916015625,0.240631103515625,-0.0537109375
1695393209860387800,2.479387939453125,1.088104248046875,0.091552734375,-0.10833740234375
1695393209869970400,2.488970458984375,1.027679443359375,0.0244140625,-0.1239013671875
1695393209879522300,2.498522216796875,0.958099365234375,0.06988525390625,-0.11474609375
1695393209889074400,2.508074462890625,0.88714599609375,0.119476318359375,-0.09185791015625
1695393209898595800,2.517595947265625,0.84014892578125,0.146026611328125,-0.08056640625
1695393209908148000,2.52714794921875,0.87982177734375,0.186309814453125,-0.07293701171875
1695393209917699800,2.536699951171875,0.974578857421875,0.259857177734375,-0.0848388671875
1695393209927252000,2.546251953125,1.070404052734375,0.30731201171875,-0.12237548828125
1695393209936773400,2.5557734375,1.109771728515625,0.214080810546875,-0.15045166015625
1695393209946325500,2.565325439453125,1.085662841796875,0.05523681640625,-0.1312255859375
1695393209955877400,2.57487744140625,1.023712158203125,-0.093231201171875,-0.0823974609375
1695393209965429500,2.584429443359375,0.942230224609375,-0.203704833984375,-0.0299072265625
1695393209974981400,2.5939814453125,0.85235595703125,-0.238037109375,0.002288818359375
1695393209984502800,2.603502685546875,0.7958984375,-0.153045654296875,0.015411376953125
1695393209994055000,2.613054931640625,0.80810546875,0.0152587890625,0.004730224609375
1695393210003606800,2.622606689453125,0.86517333984375,0.236968994140625,-0.0299072265625
1695393210013159000,2.632158935546875,0.9228515625,0.477294921875,-0.09368896484375
1695393210022680300,2.641680419921875,0.93597412109375,0.625152587890625,-0.1824951171875
1695393210032232400,2.651232421875,0.89324951171875,0.581207275390625,-0.261688232421875
1695393210041784300,2.660784423828125,0.780792236328125,0.32867431640625,-0.288543701171875
1695393210051336400,2.67033642578125,0.665130615234375,0.0567626953125,-0.236968994140625
1695393210060888300,2.679888427734375,0.631256103515625,-0.107879638671875,-0.16021728515625
1695393210070409700,2.68940966796875,0.670318603515625,-0.26763916015625,-0.10467529296875
1695393210079961900,2.6989619140625,0.692596435546875,-0.382080078125,-0.05096435546875
1695393210089513700,2.708513671875,0.649871826171875,-0.289306640625,-0.014495849609375
1695393210099065900,2.71806591796875,0.607757568359375,-0.167083740234375,-0.02655029296875
1695393210108587300,2.727587158203125,0.59356689453125,-0.069427490234375,-0.05035400390625
1695393210118139400,2.737139404296875,0.59661865234375,-0.01220703125,-0.07537841796875
1695393210127691300,2.746691162109375,0.610504150390625,0.00640869140625,-0.07781982421875
1695393210137243400,2.756243408203125,0.649871826171875,-0.052337646484375,-0.03814697265625
1695393210146795300,2.765795166015625,0.691680908203125,-0.174713134765625,0.041351318359375
1695393210156347400,2.775347412109375,0.737152099609375,-0.31829833984375,0.133514404296875
1695393210165899300,2.784899169921875,0.784912109375,-0.3558349609375,0.19500732421875
1695393210175451400,2.794451416015625,0.80230712890625,-0.218658447265625,0.18341064453125
1695393210185003300,2.804003173828125,0.768585205078125,-0.009765625,0.107879638671875
1695393210194525000,2.81352490234375,0.714263916015625,0.191802978515625,-0.021209716796875
1695393210204076800,2.823076904296875,0.673370361328125,0.35797119140625,-0.14862060546875
1695393210213629000,2.83262890625,0.702056884765625,0.34820556640625,-0.1959228515625
1695393210223180800,2.842180908203125,0.763397216796875,0.1043701171875,-0.12664794921875
1695393210232702200,2.8517021484375,0.78460693359375,-0.2520751953125,0.022735595703125
1695393210242254300,2.86125439453125,0.750274658203125,-0.61767578125,0.21514892578125
1695393210251806200,2.87080615234375,0.672454833984375,-0.834503173828125,0.408782958984375
1695393210261358300,2.8803583984375,0.54412841796875,-0.830230712890625,0.51971435546875
1695393210270879700,2.889879638671875,0.43792724609375,-0.71990966796875,0.489349365234375
1695393210280431900,2.899431884765625,0.371551513671875,-0.58563232421875,0.353240966796875
1695393210289983700,2.908983642578125,0.332183837890625,-0.447235107421875,0.1812744140625
1695393210299536000,2.918535888671875,0.384368896484375,-0.306396484375,0.021209716796875
1695393210309087700,2.928087646484375,0.4681396484375,-0.117950439453125,-0.07720947265625
1695393210318609400,2.937609375,0.5267333984375,0.050048828125,-0.067138671875
1695393210328161300,2.947161376953125,0.5255126953125,0.1220703125,0.064544677734375
1695393210337713400,2.95671337890625,0.46142578125,0.0531005859375,0.24566650390625
1695393210347265300,2.966265380859375,0.380706787109375,-0.088043212890625,0.406646728515625
1695393210356817400,2.9758173828125,0.309906005859375,-0.240478515625,0.53558349609375
1695393210366338800,2.9853388671875,0.277862548828125,-0.34393310546875,0.61309814453125
1695393210375890700,2.994890625,0.271453857421875,-0.38543701171875,0.6390380859375
1695393210385442800,3.00444287109375,0.257720947265625,-0.38177490234375,0.62896728515625
1695393210394994700,3.01399462890625,0.21728515625,-0.3265380859375,0.5731201171875
1695393210404516400,3.023516357421875,0.18310546875,-0.27374267578125,0.481414794921875
1695393210414068200,3.033068115234375,0.1849365234375,-0.23468017578125,0.378570556640625
1695393210423620400,3.042620361328125,0.20904541015625,-0.200958251953125,0.28411865234375
1695393210433172200,3.052172119140625,0.23101806640625,-0.182952880859375,0.1922607421875
1695393210442754800,3.0617548828125,0.22247314453125,-0.157318115234375,0.094757080078125
1695393210452276200,3.071276123046875,0.19775390625,-0.121612548828125,0.005035400390625
1695393210461828400,3.080828369140625,0.1873779296875,-0.092315673828125,-0.06134033203125
1695393210471380200,3.090380126953125,0.19805908203125,-0.079498291015625,-0.1031494140625
1695393210480932400,3.099932373046875,0.211181640625,-0.080413818359375,-0.12451171875
1695393210490453800,3.109453857421875,0.2239990234375,-0.092926025390625,-0.12939453125
1695393210500006000,3.119005859375,0.240020751953125,-0.120697021484375,-0.10406494140625
1695393210509557800,3.128557861328125,0.266571044921875,-0.134124755859375,-0.0555419921875
1695393210519110000,3.13810986328125,0.305328369140625,-0.121307373046875,0.002288818359375
1695393210528661800,3.147661865234375,0.350189208984375,-0.072174072265625,0.061187744140625
1695393210538183200,3.15718310546875,0.387725830078125,0.00091552734375,0.094451904296875
1695393210547735300,3.1667353515625,0.41015625,0.0823974609375,0.076751708984375
1695393210557287200,3.176287109375,0.42816162109375,0.161285400390625,0.019378662109375
1695393210566839300,3.18583935546875,0.44158935546875,0.229034423828125,-0.07171630859375
1695393210576360700,3.195360595703125,0.44921875,0.249176025390625,-0.1727294921875
1695393210585912800,3.204912841796875,0.4638671875,0.239105224609375,-0.240631103515625
1695393210595464700,3.214464599609375,0.47515869140625,0.186309814453125,-0.263214111328125
1695393210605016800,3.224016845703125,0.49468994140625,0.151824951171875,-0.219879150390625
1695393210614568700,3.233568603515625,0.5267333984375,0.154876708984375,-0.1318359375
1695393210624090400,3.24309033203125,0.56793212890625,0.192718505859375,-0.037841796875
1695393210633642200,3.252642333984375,0.57525634765625,0.236053466796875,0.023956298828125
1695393210643194400,3.2621943359375,0.54962158203125,0.32623291015625,0.037078857421875
1695393210652746200,3.271746337890625,0.53863525390625,0.43548583984375,0.018463134765625
1695393210662267600,3.281267578125,0.535888671875,0.471649169921875,-0.015106201171875
1695393210671819800,3.29081982421875,0.52581787109375,0.41656494140625,-0.05126953125
1695393210681371600,3.30037158203125,0.54290771484375,0.261688232421875,-0.067138671875
1695393210690923800,3.309923828125,0.57769775390625,0.10223388671875,-0.010223388671875
1695393210700445200,3.319445068359375,0.577392578125,-0.00457763671875,0.116424560546875
1695393210709997300,3.328997314453125,0.5706787109375,-0.0384521484375,0.25970458984375
1695393210719549200,3.338549072265625,0.579071044921875,0.109100341796875,0.334930419921875
1695393210729131800,3.3481318359375,0.5810546875,0.462188720703125,0.238037109375
1695393210738684000,3.357683837890625,0.5487060546875,0.8087158203125,0.013580322265625
1695393210748205300,3.367205322265625,0.4840087890625,1.0546875,-0.18341064453125
1695393210757757200,3.376757080078125,0.423583984375,1.1151123046875,-0.294647216796875
1695393210767309300,3.386309326171875,0.41961669921875,0.970306396484375,-0.293426513671875
1695393210776861200,3.395861083984375,0.44921875,0.753173828125,-0.14312744140625
1695393210786382800,3.4053828125,0.5084228515625,0.498809814453125,0.079498291015625
1695393210795934700,3.414934814453125,0.56732177734375,0.245208740234375,0.2813720703125
1695393210805486800,3.42448681640625,0.572509765625,0.098419189453125,0.402679443359375
1695393210815038700,3.434038818359375,0.5535888671875,0.0640869140625,0.417633056640625
1695393210824590800,3.4435908203125,0.54290771484375,0.125885009765625,0.351715087890625
1695393210834112300,3.4531123046875,0.535888671875,0.268096923828125,0.23468017578125
1695393210843664100,3.4626640625,0.52978515625,0.418701171875,0.115814208984375
1695393210853216300,3.47221630859375,0.523681640625,0.489349365234375,0.041046142578125
1695393210862768000,3.48176806640625,0.5218505859375,0.43609619140625,0.029144287109375
1695393210872289800,3.491289794921875,0.521240234375,0.30487060546875,0.063629150390625
1695393210881841700,3.500841552734375,0.5206298828125,0.136871337890625,0.113067626953125
1695393210891393800,3.510393798828125,0.5230712890625,0.001220703125,0.16510009765625
1695393210900945700,3.519945556640625,0.54046630859375,-0.03814697265625,0.18951416015625
1695393210910497800,3.529497802734375,0.57342529296875,0.00579833984375,0.18707275390625
1695393210920019200,3.539019287109375,0.613555908203125,0.099945068359375,0.1776123046875
1695393210929571300,3.5485712890625,0.642242431640625,0.204925537109375,0.16265869140625
1695393210939123200,3.558123291015625,0.665130615234375,0.31524658203125,0.16204833984375
1695393210948675300,3.56767529296875,0.702972412109375,0.4254150390625,0.1568603515625
1695393210958196700,3.57719677734375,0.749664306640625,0.514678955078125,0.128021240234375
1695393210967748600,3.58674853515625,0.7940673828125,0.528411865234375,0.053863525390625
1695393210977300700,3.59630078125,0.830078125,0.4022216796875,-0.0677490234375
1695393210986852600,3.6058525390625,0.843505859375,0.158233642578125,-0.215606689453125
1695393210996374300,3.615374267578125,0.843505859375,-0.064849853515625,-0.356597900390625
1695393211005926100,3.624926025390625,0.84930419921875,-0.138397216796875,-0.41748046875
1695393211015508700,3.6345087890625,0.86944580078125,-0.073394775390625,-0.354766845703125
1695393211025060600,3.644060546875,0.899658203125,0.098876953125,-0.206756591796875
1695393211034612700,3.65361279296875,0.93597412109375,0.287628173828125,-0.04852294921875
1695393211044134100,3.663134033203125,0.965118408203125,0.39764404296875,0.085906982421875
1695393211053686300,3.672686279296875,0.967864990234375,0.443115234375,0.16510009765625
1695393211063238100,3.682238037109375,0.93231201171875,0.37567138671875,0.189208984375
1695393211072790300,3.691790283203125,0.89508056640625,0.241546630859375,0.2081298828125
1695393211082311700,3.701311767578125,0.89813232421875,0.126495361328125,0.250244140625
1695393211091863800,3.71086376953125,0.91644287109375,0.08544921875,0.316162109375
1695393211101415700,3.720415771484375,0.92437744140625,0.1031494140625,0.368804931640625
1695393211110967800,3.7299677734375,0.916748046875,0.11688232421875,0.388031005859375
1695393211120519700,3.739519775390625,0.88409423828125,0.127105712890625,0.357513427734375
1695393211130041000,3.749041015625,0.83526611328125,0.139007568359375,0.26702880859375
1695393211139593200,3.75859326171875,0.8013916015625,0.10650634765625,0.140228271484375
1695393211149145000,3.76814501953125,0.80657958984375,0.02960205078125,0.021209716796875
1695393211158697200,3.777697265625,0.8477783203125,-0.059051513671875,-0.08087158203125
1695393211168218600,3.787218505859375,0.90179443359375,-0.161285400390625,-0.135498046875
1695393211177770800,3.796770751953125,0.973663330078125,-0.28045654296875,-0.1190185546875
1695393211187322600,3.806322509765625,1.065216064453125,-0.428009033203125,-0.0262451171875
1695393211196874800,3.815874755859375,1.15325927734375,-0.592041015625,0.15655517578125
1695393211206426600,3.825426513671875,1.24359130859375,-0.755615234375,0.406036376953125
1695393211215948300,3.8349482421875,1.406097412109375,-0.919647216796875,0.675048828125
1695393211225500200,3.844500244140625,1.703948974609375,-1.09405517578125,0.941162109375
1695393211235052300,3.85405224609375,2.149810791015625,-1.30889892578125,1.212615966796875
1695393211244604200,3.863604248046875,2.669677734375,-1.581268310546875,1.495208740234375
1695393211254125600,3.87312548828125,3.198394775390625,-1.938934326171875,1.822662353515625
1695393211263677700,3.882677734375,3.72161865234375,-2.40142822265625,2.190399169921875
1695393211273229600,3.8922294921875,4.225921630859375,-2.966156005859375,2.568206787109375
1695393211282781700,3.90178173828125,4.72869873046875,-3.59771728515625,2.941131591796875
1695393211292333600,3.91133349609375,5.22552490234375,-4.161529541015625,3.290557861328125
1695393211301885700,3.9208857421875,5.711822509765625,-4.490509033203125,3.54278564453125
1695393211311437600,3.9304375,6.219482421875,-4.458160400390625,3.657073974609375
1695393211320989700,3.93998974609375,6.6632080078125,-4.2041015625,3.632049560546875
1695393211330541600,3.94954150390625,6.95831298828125,-3.878173828125,3.641510009765625
1695393211340063200,3.959063232421875,7.04803466796875,-3.52569580078125,3.80340576171875
1695393211349615000,3.968614990234375,6.98883056640625,-3.13720703125,4.019927978515625
1695393211359167200,3.978167236328125,6.90826416015625,-2.835693359375,4.173583984375
1695393211368719000,3.987718994140625,6.859588623046875,-2.658538818359375,4.22821044921875
1695393211378271200,3.997271240234375,6.807098388671875,-2.47222900390625,4.20684814453125
1695393211387792600,4.006792724609375,6.800384521484375,-2.316741943359375,4.089202880859375
1695393211397344800,4.0163447265625,6.798553466796875,-2.226104736328125,3.8934326171875
1695393211406896600,4.025896728515625,6.768035888671875,-2.223052978515625,3.75335693359375
1695393211416448800,4.03544873046875,6.67877197265625,-2.342987060546875,3.74114990234375
1695393211425970200,4.04497021484375,6.5234375,-2.587432861328125,3.88885498046875
1695393211435522000,4.05452197265625,6.327972412109375,-2.923583984375,4.16412353515625
1695393211445074200,4.06407421875,6.125335693359375,-3.27362060546875,4.4610595703125
1695393211454626000,4.0736259765625,5.90850830078125,-3.61419677734375,4.735565185546875
1695393211464178200,4.08317822265625,5.681304931640625,-3.9056396484375,4.98748779296875
1695393211473699600,4.092699462890625,5.46600341796875,-4.117584228515625,5.184326171875
1695393211483251700,4.102251708984375,5.295257568359375,-4.22515869140625,5.24749755859375
1695393211492803600,4.111803466796875,5.16357421875,-4.30877685546875,5.178070068359375
1695393211502355700,4.121355712890625,4.959564208984375,-4.384918212890625,5.017547607421875
1695393211511877000,4.130877197265625,4.615631103515625,-4.334716796875,4.729766845703125
1695393211521429200,4.14042919921875,4.38751220703125,-4.025421142578125,4.315948486328125
1695393211530981000,4.149981201171875,4.336090087890625,-3.5638427734375,3.8104248046875
1695393211540533200,4.159533203125,4.332122802734375,-2.989959716796875,3.272857666015625
1695393211550054700,4.1690546875,4.271087646484375,-2.40386962890625,2.7850341796875
1695393211559606500,4.1786064453125,4.13421630859375,-2.015533447265625,2.425537109375
1695393211569158700,4.18815869140625,3.905792236328125,-1.870574951171875,2.196502685546875
1695393211578710500,4.19771044921875,3.628997802734375,-1.695556640625,2.08770751953125
1695393211588293000,4.207293212890625,3.42803955078125,-1.555023193359375,2.01873779296875
1695393211597814500,4.216814453125,3.2904052734375,-1.511077880859375,1.902313232421875
1695393211607366700,4.22636669921875,3.158111572265625,-1.562042236328125,1.7572021484375
1695393211616918500,4.23591845703125,3.104095458984375,-1.573638916015625,1.6204833984375
1695393211626470700,4.245470703125,3.130340576171875,-1.494140625,1.528472900390625
1695393211635992000,4.254991943359375,3.171539306640625,-1.46484375,1.467437744140625
1695393211645544200,4.264544189453125,3.205108642578125,-1.502532958984375,1.443634033203125
1695393211655096000,4.274095947265625,3.188323974609375,-1.595611572265625,1.418609619140625
1695393211664648200,4.283648193359375,3.128204345703125,-1.642913818359375,1.37481689453125
1695393211674200000,4.293199951171875,2.96142578125,-1.585540771484375,1.30615234375
1695393211683721700,4.3027216796875,2.66357421875,-1.4141845703125,1.182098388671875
1695393211693273600,4.312273681640625,2.31170654296875,-1.12518310546875,0.9747314453125
1695393211702825700,4.32182568359375,2.21343994140625,-0.7427978515625,0.6768798828125
1695393211712377600,4.331377685546875,2.2027587890625,-0.40496826171875,0.402984619140625
1695393211721899000,4.34089892578125,2.052459716796875,-0.0555419921875,0.19744873046875
1695393211731451100,4.350451171875,1.687774658203125,0.535430908203125,0.016632080078125
1695393211741003000,4.3600029296875,1.419830322265625,0.76416015625,0.032196044921875
1695393211750555100,4.36955517578125,1.1309814453125,0.486602783203125,0.25421142578125
1695393211760107000,4.37910693359375,0.738067626953125,0.0323486328125,0.5511474609375
1695393211769628700,4.388628662109375,0.371246337890625,-0.204315185546875,0.740203857421875
1695393211779180500,4.3981806640625,0.1312255859375,-0.172882080078125,0.66986083984375
1695393211788732700,4.407732666015625,0.09674072265625,-0.0482177734375,0.497894287109375
1695393211798284500,4.417284423828125,0.240936279296875,-0.0457763671875,0.402374267578125
1695393211807806200,4.42680615234375,0.47637939453125,-0.33538818359375,0.324859619140625
1695393211817358000,4.436358154296875,0.663909912109375,-0.798797607421875,0.320587158203125
1695393211826910200,4.44591015625,0.848388671875,-1.201324462890625,0.386505126953125
1695393211836462000,4.455462158203125,0.949249267578125,-1.4654541015625,0.489959716796875
1695393211846014200,4.46501416015625,0.9234619140625,-1.540374755859375,0.6036376953125
1695393211855535600,4.47453564453125,0.836181640625,-1.38427734375,0.6689453125
1695393211865118200,4.4841181640625,0.756378173828125,-1.02569580078125,0.6292724609375
1695393211874670000,4.493670166015625,0.724639892578125,-0.558013916015625,0.6085205078125
1695393211884222200,4.50322216796875,0.744781494140625,-0.27618408203125,0.634765625
1695393211893743600,4.51274365234375,0.684051513671875,-0.186004638671875,0.67291259765625
1695393211903295500,4.52229541015625,0.702972412109375,-0.064849853515625,0.763397216796875
1695393211912847600,4.53184765625,0.8990478515625,-0.226287841796875,0.88714599609375
1695393211922399500,4.5413994140625,0.975189208984375,-0.457916259765625,0.843353271484375
1695393211931921200,4.550921142578125,0.9393310546875,-0.483856201171875,0.787506103515625
1695393211941473000,4.56047314453125,0.860595703125,-0.36590576171875,0.755767822265625
1695393211951025200,4.570025146484375,0.672149658203125,-0.190582275390625,0.693817138671875
1695393211960577000,4.579576904296875,0.349273681640625,0.0286865234375,0.640869140625
1695393211970129200,4.589129150390625,-0.033721923828125,0.215606689453125,0.691680908203125
1695393211979650600,4.598650634765625,-0.376739501953125,0.3741455078125,0.746612548828125
1695393211989202700,4.60820263671875,-0.742950439453125,0.34759521484375,0.68206787109375
1695393211998754600,4.617754638671875,-1.076507568359375,0.10162353515625,0.58197021484375
1695393212008306700,4.627306640625,-1.2890625,-0.127716064453125,0.52459716796875
1695393212017828000,4.636828125,-1.30401611328125,-0.159454345703125,0.410308837890625
1695393212027380000,4.6463798828125,-1.186370849609375,0.0836181640625,0.330963134765625
1695393212036932000,4.65593212890625,-1.117706298828125,0.33843994140625,0.399017333984375
1695393212046484000,4.66548388671875,-1.023712158203125,0.558929443359375,0.55145263671875
1695393212056036000,4.6750361328125,-0.91400146484375,0.628814697265625,0.599365234375
1695393212065557500,4.6845576171875,-0.783538818359375,0.292205810546875,0.733795166015625
1695393212075109600,4.694109619140625,-0.57830810546875,-0.22979736328125,0.829315185546875
1695393212084661500,4.70366162109375,-0.381011962890625,-0.58349609375,0.775909423828125
1695393212094213600,4.713213623046875,-0.28656005859375,-0.71044921875,0.781097412109375
1695393212103735000,4.722735107421875,-0.28900146484375,-0.6207275390625,0.8795166015625
1695393212113287200,4.732287109375,-0.26336669921875,-0.485382080078125,0.9320068359375
1695393212122839000,4.741839111328125,-0.20538330078125,-0.537567138671875,0.835113525390625
1695393212132391200,4.75139111328125,-0.152587890625,-0.530242919921875,0.801849365234375
1695393212141912600,4.76091259765625,-0.117950439453125,-0.482635498046875,0.801544189453125
1695393212151495200,4.7704951171875,-0.106353759765625,-0.487213134765625,0.801544189453125
1695393212161047000,4.780047119140625,-0.104217529296875,-0.534210205078125,0.810089111328125
1695393212170599200,4.78959912109375,0.012664794921875,-0.72967529296875,0.800018310546875
1695393212180151000,4.799151123046875,0.08880615234375,-0.874481201171875,0.788421630859375
1695393212189672400,4.80867236328125,0.1171875,-0.801544189453125,0.8990478515625
1695393212199224600,4.818224609375,0.12298583984375,-0.72021484375,0.9844970703125
1695393212208776400,4.8277763671875,0.231475830078125,-0.62042236328125,1.0418701171875
1695393212218328600,4.83732861328125,0.223236083984375,-0.475616455078125,1.120147705078125
1695393212227880400,4.84688037109375,0.1953125,-0.449066162109375,1.098480224609375
1695393212237402000,4.856402099609375,0.20538330078125,-0.425567626953125,1.02081298828125
1695393212246954000,4.8659541015625,0.222930908203125,-0.36712646484375,0.94451904296875
1695393212256506000,4.875506103515625,0.253753662109375,-0.36468505859375,0.810394287109375
1695393212266058000,4.88505810546875,0.297088623046875,-0.452117919921875,0.759124755859375
1695393212275579600,4.89457958984375,0.309600830078125,-0.440826416015625,0.732269287109375
1695393212285131500,4.904131591796875,0.229644775390625,-0.462493896484375,0.687408447265625
1695393212294683600,4.91368359375,0.1568603515625,-0.481719970703125,0.66070556640625
1695393212304235500,4.923235595703125,0.08209228515625,-0.455474853515625,0.65765380859375
1695393212313787600,4.93278759765625,-0.038909912109375,-0.3973388671875,0.62530517578125
1695393212323309000,4.94230908203125,-0.104522705078125,-0.35064697265625,0.58380126953125
1695393212332861000,4.95186083984375,-0.12847900390625,-0.34515380859375,0.5279541015625
1695393212342413000,4.9614130859375,-0.085906982421875,-0.380859375,0.445709228515625
1695393212351965000,4.97096484375,0.037078857421875,-0.405731201171875,0.342864990234375
1695393212361486600,4.980486572265625,0.1495361328125,-0.499420166015625,0.25421142578125
1695393212371038500,4.99003857421875,0.276641845703125,-0.6292724609375,0.1788330078125
1695393212380590600,4.999590576171875,0.39886474609375,-0.768890380859375,0.103607177734375
1695393212390142500,5.009142578125,0.506591796875,-0.924224853515625,0.026092529296875
1695393212399664000,5.0186640625,0.593719482421875,-1.0809326171875,-0.005645751953125
1695393212409216000,5.028216064453125,0.663604736328125,-1.231842041015625,-0.016021728515625
1695393212418768100,5.03776806640625,0.722808837890625,-1.270904541015625,-0.0244140625
1695393212428320000,5.047320068359375,0.804443359375,-1.116943359375,-0.02288818359375
1695393212437872000,5.0568720703125,0.83648681640625,-0.72540283203125,-0.03936767578125
1695393212447424000,5.066424072265625,0.853271484375,-0.235595703125,-0.06103515625
1695393212456976100,5.07597607421875,0.85418701171875,0.1153564453125,-0.007476806640625
1695393212466528000,5.085528076171875,0.86669921875,0.196685791015625,0.121917724609375
1695393212476080000,5.095080078125,0.9173583984375,0.203704833984375,0.138702392578125
1695393212485601500,5.1046015625,1.088104248046875,-0.00640869140625,0.103302001953125
1695393212495153400,5.1141533203125,1.20025634765625,-0.3466796875,0.064239501953125
1695393212504705500,5.12370556640625,1.1688232421875,-0.714111328125,0.069122314453125
1695393212514257400,5.13325732421875,1.089324951171875,-0.920257568359375,0.14251708984375
1695393212523809500,5.1428095703125,0.945892333984375,-0.857086181640625,0.077056884765625
1695393212533331000,5.1523310546875,0.749664306640625,-0.677490234375,-0.1312255859375
1695393212542883000,5.161883056640625,0.50628662109375,-0.452117919921875,-0.348052978515625
1695393212552435000,5.17143505859375,0.279998779296875,-0.25482177734375,-0.531005859375
1695393212561987000,5.180987060546875,0.1385498046875,-0.133819580078125,-0.610198974609375
1695393212571508500,5.190508544921875,0.13092041015625,-0.150604248046875,-0.570220947265625
1695393212581060600,5.200060546875,0.21026611328125,-0.23162841796875,-0.517578125
1695393212590612500,5.209612548828125,0.44097900390625,-0.191802978515625,-0.580902099609375
1695393212600164600,5.21916455078125,0.696258544921875,-0.00823974609375,-0.82794189453125
1695393212609716500,5.228716552734375,0.87371826171875,0.249176025390625,-1.141357421875
1695393212619238000,5.23823779296875,0.948638916015625,0.276031494140625,-1.18621826171875
1695393212628790000,5.2477900390625,0.91461181640625,0.139312744140625,-1.12548828125
1695393212638342000,5.257341796875,0.83160400390625,0.1043701171875,-1.079864501953125
1695393212647894000,5.26689404296875,0.714874267578125,0.210723876953125,-1.12091064453125
1695393212657415400,5.27641552734375,0.587005615234375,0.357666015625,-1.18438720703125
1695393212666967600,5.285967529296875,0.4071044921875,0.39459228515625,-1.12579345703125
1695393212676519400,5.29551953125,0.219573974609375,0.4400634765625,-0.993194580078125
1695393212686071600,5.305071533203125,0.042724609375,0.572357177734375,-0.88592529296875
1695393212695623400,5.31462353515625,-0.1324462890625,0.665283203125,-0.76629638671875
1695393212705144800,5.324144775390625,-0.327911376953125,0.69488525390625,-0.644378662109375
1695393212714697000,5.333697021484375,-0.5584716796875,0.73455810546875,-0.546875
1695393212724249000,5.3432490234375,-0.843505859375,0.79376220703125,-0.467529296875
1695393212733831400,5.35283154296875,-1.067352294921875,0.871124267578125,-0.4827880859375
1695393212743353000,5.36235302734375,-1.157379150390625,0.799560546875,-0.633697509765625
1695393212752905000,5.371905029296875,-1.163177490234375,0.651397705078125,-0.8251953125
1695393212762457000,5.38145703125,-1.053619384765625,0.572357177734375,-0.934600830078125
1695393212772009000,5.391009033203125,-0.87799072265625,0.483551025390625,-0.87249755859375
1695393212781530400,5.4005302734375,-0.713348388671875,0.177764892578125,-0.621490478515625
1695393212791082500,5.41008251953125,-0.454254150390625,-0.196380615234375,-0.333099365234375
1695393212800634400,5.41963427734375,-0.20843505859375,-0.448150634765625,-0.0982666015625
1695393212810186500,5.4291865234375,0.008087158203125,-0.459442138671875,0.001983642578125
1695393212819738400,5.43873828125,0.1483154296875,-0.3033447265625,0.005645751953125
1695393212829260000,5.448260009765625,0.283660888671875,-0.3240966796875,-0.1263427734375
1695393212838812000,5.45781201171875,0.287017822265625,-0.3436279296875,-0.323028564453125
1695393212848364000,5.467364013671875,0.19866943359375,-0.23681640625,-0.44952392578125
1695393212857916000,5.476916015625,0.1220703125,0.04669189453125,-0.49224853515625
1695393212867437300,5.486437255859375,0.04669189453125,0.41107177734375,-0.4949951171875
1695393212876989400,5.495989501953125,-0.013885498046875,0.625762939453125,-0.49224853515625
1695393212886541600,5.50554150390625,0.05889892578125,0.615692138671875,-0.38909912109375
1695393212896093400,5.515093505859375,0.377960205078125,0.515594482421875,-0.211944580078125
1695393212905614800,5.52461474609375,0.681610107421875,0.125579833984375,-0.1220703125
1695393212915167000,5.5341669921875,0.741424560546875,-0.27374267578125,-0.13214111328125
1695393212924718800,5.54371875,0.84503173828125,-0.419769287109375,-0.12603759765625
1695393212934271000,5.55327099609375,0.950775146484375,-0.7122802734375,-0.13916015625
1695393212943822800,5.56282275390625,0.941925048828125,-1.280059814453125,-0.14678955078125
1695393212953344500,5.572344482421875,1.111907958984375,-1.653594970703125,-0.318450927734375
1695393212962896400,5.581896484375,1.546630859375,-1.7681884765625,-0.665435791015625
1695393212972448500,5.591448486328125,2.186737060546875,-1.639251708984375,-1.10443115234375
1695393212982000400,5.60100048828125,2.794036865234375,-1.172027587890625,-1.5643310546875
1695393212991552500,5.610552490234375,3.092041015625,-0.4168701171875,-2.082672119140625
1695393213001074000,5.620073974609375,3.01055908203125,0.522918701171875,-2.62451171875
1695393213010656500,5.629656494140625,2.800445556640625,0.576629638671875,-2.809600830078125
1695393213020208400,5.63920849609375,2.482757568359375,-0.067901611328125,-2.61688232421875
1695393213029760500,5.648760498046875,2.140960693359375,-0.05279541015625,-2.22076416015625
1695393213039282000,5.658281982421875,1.8408203125,0.428466796875,-1.556396484375
1695393213048834000,5.667833984375,1.62506103515625,1.13372802734375,-0.54473876953125
1695393213058386000,5.677385986328125,1.319122314453125,1.318817138671875,0.453033447265625
1695393213067938000,5.68693798828125,0.941314697265625,1.298675537109375,1.071014404296875
1695393213077490000,5.696489990234375,0.593719482421875,1.692047119140625,1.2677001953125
1695393213087011300,5.70601123046875,0.339202880859375,2.56744384765625,1.219635009765625
1695393213096563500,5.7155634765625,-0.181884765625,1.679840087890625,0.4962158203125
1695393213106115300,5.725115234375,-0.20751953125,0.41656494140625,-0.263824462890625
1695393213115667500,5.73466748046875,0.284271240234375,-0.6866455078125,-0.674896240234375
1695393213125188900,5.74418896484375,0.87738037109375,-1.43341064453125,-0.87554931640625
1695393213134741000,5.753740966796875,1.29302978515625,-1.654815673828125,-0.988006591796875
1695393213144292900,5.76329296875,1.58935546875,-1.154632568359375,-1.10443115234375
1695393213153845000,5.772844970703125,1.778106689453125,-0.230560302734375,-1.14776611328125
1695393213163396900,5.78239697265625,1.8682861328125,0.547027587890625,-0.9063720703125
1695393213172918300,5.791918212890625,1.8798828125,0.78887939453125,-0.322418212890625
1695393213182470400,5.801470458984375,1.8670654296875,0.66650390625,0.423126220703125
1695393213192022500,5.8110224609375,1.739044189453125,0.475006103515625,1.040802001953125
1695393213201574400,5.820574462890625,1.47735595703125,0.528106689453125,1.3531494140625
1695393213211095800,5.830095703125,1.1395263671875,0.880584716796875,1.441802978515625
1695393213220648000,5.83964794921875,0.777587890625,1.323394775390625,1.3470458984375
1695393213230199800,5.84919970703125,0.48583984375,1.76666259765625,1.140594482421875
1695393213239752000,5.858751953125,0.285186767578125,2.098388671875,1.00616455078125
1695393213249365000,5.868364990234375,0.250396728515625,2.362823486328125,1.055755615234375
1695393213258978000,5.87797802734375,0.4254150390625,2.61383056640625,1.191558837890625
1695393213268591000,5.887591064453125,0.669403076171875,2.755889892578125,1.38763427734375
1695393213278204200,5.8972041015625,0.94024658203125,2.286224365234375,1.74835205078125
1695393213287817000,5.90681689453125,1.2115478515625,1.8060302734375,2.06298828125
1695393213297430000,5.916429931640625,1.396636962890625,1.563568115234375,2.166290283203125
1695393213307043000,5.92604296875,1.524658203125,1.5289306640625,2.0166015625
1695393213325628400,5.94462841796875,1.324615478515625,0.34912109375,0.066680908203125
1695393213335149800,5.95414990234375,1.078338623046875,-0.500640869140625,-1.0992431640625
1695393213344732400,5.963732421875,1.083221435546875,-0.471649169921875,-1.51580810546875
1695393213354315000,5.97331494140625,1.082305908203125,-0.529022216796875,-1.48681640625
1695393213363867000,5.982866943359375,1.029205322265625,-0.446929931640625,-1.069793701171875
1695393213373419000,5.9924189453125,0.89447021484375,-0.157623291015625,-0.276031494140625
1695393213382940400,6.0019404296875,0.518798828125,0.614166259765625,0.708465576171875
1695393213392492300,6.0114921875,0.0921630859375,1.669464111328125,1.68731689453125
1695393213402044400,6.02104443359375,-0.030364990234375,2.20001220703125,2.606658935546875
1695393213411596300,6.03059619140625,-0.1318359375,2.15850830078125,2.412109375
1695393213421118000,6.040117919921875,-0.54718017578125,1.577911376953125,1.188507080078125
1695393213430669800,6.049669921875,-0.826263427734375,1.271209716796875,0.96588134765625
1695393213440222000,6.059221923828125,-1.079254150390625,1.5106201171875,1.077728271484375
1695393213449773800,6.06877392578125,-1.440277099609375,1.997528076171875,1.33056640625
1695393213459326000,6.078325927734375,-1.847991943359375,2.60711669921875,1.94580078125
1695393213468847400,6.087847412109375,-2.246856689453125,2.86712646484375,2.155914306640625
1695393213478399200,6.097399169921875,-2.71759033203125,2.501220703125,1.38763427734375
1695393213487951400,6.106951416015625,-3.07647705078125,1.52191162109375,0.699310302734375
1695393213497503200,6.116503173828125,-3.13568115234375,0.261993408203125,0.286865234375
1695393213507025000,6.12602490234375,-2.63671875,-0.732421875,-0.08697509765625
1695393213516576800,6.13557666015625,-1.740875244140625,-1.305084228515625,-0.42266845703125
1695393213526129000,6.14512890625,-0.697479248046875,-1.596527099609375,-0.609588623046875
1695393213535680800,6.1546806640625,0.030670166015625,-1.542510986328125,-0.602569580078125
1695393213545233000,6.16423291015625,0.08026123046875,-1.08551025390625,-0.428466796875
1695393213554754300,6.17375439453125,-0.109710693359375,-0.501251220703125,-0.10894775390625
1695393213564306400,6.183306396484375,-0.283203125,-0.142669677734375,0.23345947265625
1695393213573858300,6.1928583984375,-0.391998291015625,-0.138702392578125,0.409088134765625
1695393213583410400,6.202410400390625,-0.48248291015625,-0.3143310546875,0.356292724609375
1695393213592962300,6.21196240234375,-0.57586669921875,-0.436553955078125,0.130462646484375
1695393213602514400,6.221514404296875,-0.606689453125,-0.420379638671875,-0.17913818359375
1695393213612066300,6.23106640625,-0.5450439453125,-0.2484130859375,-0.49072265625
1695393213621618400,6.240618408203125,-0.427703857421875,-0.00732421875,-0.78765869140625
1695393213631170300,6.25017041015625,-0.2960205078125,0.231170654296875,-1.038360595703125
1695393213640691700,6.259691650390625,-0.20050048828125,0.553741455078125,-1.1468505859375
1695393213650243800,6.269243896484375,-0.126190185546875,0.896759033203125,-1.20025634765625
1695393213659795700,6.278795654296875,-0.064849853515625,1.13006591796875,-1.341400146484375
1695393213669347800,6.288347900390625,-0.046539306640625,1.09588623046875,-1.58416748046875
1695393213678869200,6.297869140625,-0.061187744140625,0.836944580078125,-1.8646240234375
1695393213688421400,6.30742138671875,-0.079498291015625,0.45928955078125,-2.149505615234375
1695393213697973200,6.31697314453125,-0.051727294921875,0.04150390625,-2.438507080078125
1695393213707525400,6.326525390625,0.0848388671875,-0.36224365234375,-2.67822265625
1695393213717046800,6.336046875,0.316619873046875,-0.6964111328125,-2.816925048828125
1695393213726599000,6.345598876953125,0.54046630859375,-0.916900634765625,-2.853240966796875
1695393213736150800,6.35515087890625,0.678863525390625,-1.03515625,-2.797088623046875
1695393213745703000,6.364702880859375,0.698089599609375,-1.01348876953125,-2.6593017578125
1695393213755254800,6.3742548828125,0.629425048828125,-0.804901123046875,-2.505035400390625
1695393213764776200,6.383776123046875,0.5596923828125,-0.459747314453125,-2.410430908203125
1695393213774328300,6.393328369140625,0.48675537109375,-0.086822509765625,-2.358856201171875
1695393213783880200,6.402880126953125,0.43212890625,0.36224365234375,-2.27508544921875
1695393213793432300,6.412432373046875,0.41229248046875,0.830078125,-2.1795654296875
1695393213802953700,6.42195361328125,0.43182373046875,1.318817138671875,-2.113494873046875
1695393213812505900,6.431505859375,0.53955078125,2.058258056640625,-2.014007568359375
1695393213822057700,6.4410576171875,0.735015869140625,3.080291748046875,-1.98760986328125
1695393213831609900,6.45060986328125,0.8660888671875,3.7066650390625,-2.26898193359375
1695393213841161700,6.46016162109375,0.85723876953125,3.524932861328125,-2.6580810546875
1695393213850683400,6.469683349609375,0.76995849609375,2.8851318359375,-2.9229736328125
1695393213860235300,6.4792353515625,0.716400146484375,2.272796630859375,-3.06732177734375
1695393213869817900,6.48881787109375,0.676727294921875,1.978912353515625,-3.164825439453125
1695393213879369700,6.49836962890625,0.665130615234375,1.948394775390625,-3.172454833984375
1695393213888891400,6.507891357421875,0.699005126953125,2.15179443359375,-3.04168701171875
1695393213898443300,6.517443359375,0.78338623046875,2.50518798828125,-2.758941650390625
1695393213907995400,6.526995361328125,0.90240478515625,2.767791748046875,-2.388153076171875
1695393213917547300,6.53654736328125,0.994720458984375,2.749176025390625,-2.010955810546875
1695393213927099400,6.546099365234375,0.981903076171875,2.46795654296875,-1.705474853515625
1695393213936620800,6.555620849609375,0.91461181640625,2.142333984375,-1.47857666015625
1695393213946172700,6.565172607421875,0.84686279296875,1.8780517578125,-1.298675537109375
1695393213955724800,6.574724853515625,0.77880859375,1.637725830078125,-1.12518310546875
1695393213965276700,6.584276611328125,0.723114013671875,1.3873291015625,-0.928192138671875
1695393213974798300,6.59379833984375,0.689544677734375,1.14837646484375,-0.723419189453125
1695393213984350200,6.60335009765625,0.686798095703125,0.975799560546875,-0.513916015625
1695393213993902300,6.61290234375,0.685272216796875,0.905609130859375,-0.279693603515625
1695393214003446300,6.6224462890625,0.641937255859375,0.904083251953125,-0.04852294921875
1695393214012998100,6.631998046875,0.5572509765625,0.8349609375,0.181884765625
1695393214022519600,6.64151953125,0.4974365234375,0.684814453125,0.413665771484375
1695393214032071700,6.65107177734375,0.4638671875,0.543365478515625,0.63507080078125
1695393214041623600,6.66062353515625,0.41961669921875,0.421142578125,0.837554931640625
1695393214051175700,6.67017578125,0.351104736328125,0.32135009765625,1.01715087890625
1695393214060697000,6.679697021484375,0.241241455078125,0.295562744140625,1.153411865234375
1695393214070249200,6.689249267578125,0.17059326171875,0.34271240234375,1.2493896484375
1695393214079801000,6.698801025390625,0.11627197265625,0.3863525390625,1.31317138671875
1695393214089353200,6.708353271484375,0.05218505859375,0.40374755859375,1.35772705078125
1695393214098874600,6.71787451171875,0.004425048828125,0.42572021484375,1.3763427734375
1695393214108426800,6.7274267578125,-0.003814697265625,0.46722412109375,1.34674072265625
1695393214117978600,6.736978515625,0.035247802734375,0.544586181640625,1.206512451171875
1695393214127530800,6.74653076171875,0.14984130859375,0.677490234375,0.821075439453125
1695393214137082600,6.75608251953125,0.330047607421875,0.891265869140625,0.121307373046875
1695393214146604000,6.76560400390625,0.4083251953125,1.03790283203125,-0.716094970703125
1695393214156186600,6.7751865234375,0.4132080078125,0.78033447265625,-1.27166748046875
1695393214165738800,6.78473876953125,0.40374755859375,-0.070343017578125,-1.321563720703125
1695393214175290600,6.79429052734375,0.325775146484375,-1.0003662109375,-1.053924560546875
1695393214184812000,6.80381201171875,0.224151611328125,-1.236419677734375,-0.76873779296875
1695393214194364200,6.8133642578125,0.137939453125,-0.599365234375,-0.611419677734375
1695393214203916300,6.822916259765625,0.032501220703125,0.624237060546875,-0.5126953125
1695393214213468200,6.83246826171875,-0.100860595703125,1.719818115234375,-0.302886962890625
1695393214223020300,6.842020263671875,-0.29632568359375,2.034149169921875,0.24322509765625
1695393214232541700,6.851541748046875,-0.450286865234375,0.863800048828125,1.28265380859375
1695393214242093600,6.861093505859375,-0.13336181640625,-1.7138671875,2.00775146484375
1695393214251645700,6.870645751953125,0.662689208984375,-3.24249267578125,1.526947021484375
1695393214261197600,6.880197509765625,1.173095703125,-2.591094970703125,0.065155029296875
1695393214270719200,6.88971923828125,1.341400146484375,-1.04095458984375,-0.75042724609375
1695393214280271000,6.89927099609375,1.024017333984375,0.131072998046875,-0.2008056640625
1695393214289823200,6.9088232421875,0.358428955078125,0.46905517578125,0.97076416015625
1695393214299375000,6.918375,-0.2154541015625,0.298614501953125,1.813812255859375
1695393214308927200,6.92792724609375,-0.713958740234375,-0.146942138671875,1.6473388671875
1695393214318448600,6.93744873046875,-1.179046630859375,-0.772552490234375,1.398468017578125
1695393214328000500,6.94700048828125,-1.328125,-1.31500244140625,1.934051513671875
1695393214337552600,6.956552734375,-0.986328125,-1.902923583984375,2.762451171875
1695393214347104500,6.9661044921875,-0.22064208984375,-2.5555419921875,3.239898681640625
1695393214356626200,6.975626220703125,0.48553466796875,-2.779541015625,2.876129150390625
1695393214366178000,6.985177978515625,0.638885498046875,-2.250823974609375,1.933135986328125
1695393214375730200,6.994730224609375,0.440673828125,-1.253814697265625,1.165924072265625
1695393214385282000,7.004281982421875,0.20111083984375,-0.189666748046875,1.0003662109375
1695393214394834200,7.013834228515625,-0.044403076171875,0.603790283203125,1.3128662109375
1695393214404355600,7.02335546875,-0.244140625,0.791015625,1.7315673828125
1695393214413907700,7.03290771484375,-0.313568115234375,0.43548583984375,2.012939453125
1695393214423459600,7.04245947265625,-0.29388427734375,-0.171051025390625,2.143096923828125
1695393214433011700,7.05201171875,-0.2862548828125,-0.71533203125,2.140350341796875
1695393214442563600,7.0615634765625,-0.25665283203125,-0.788116455078125,2.0501708984375
1695393214452115700,7.07111572265625,-0.19256591796875,-0.36773681640625,1.829681396484375
1695393214461667600,7.08066748046875,-0.1446533203125,0.236663818359375,1.499786376953125
1695393214471219700,7.0902197265625,-0.17303466796875,0.848541259765625,1.186981201171875
1695393214480771600,7.099771484375,-0.27099609375,1.303863525390625,0.98388671875
1695393214490293000,7.10929296875,-0.380096435546875,1.3909912109375,0.90850830078125
1695393214499845000,7.11884521484375,-0.428924560546875,1.1126708984375,0.96466064453125
1695393214509397000,7.12839697265625,-0.442657470703125,0.536956787109375,1.100921630859375
1695393214518949000,7.13794921875,-0.454254150390625,0.03662109375,1.2469482421875
1695393214528470500,7.147470458984375,-0.465087890625,-0.216827392578125,1.33056640625
1695393214538022700,7.157022705078125,-0.459747314453125,-0.32440185546875,1.33697509765625
1695393214547574500,7.166574462890625,-0.458526611328125,-0.3594970703125,1.27593994140625
1695393214557126700,7.176126708984375,-0.474853515625,-0.345458984375,1.206817626953125
1695393214566648000,7.18564794921875,-0.47698974609375,-0.3076171875,1.177520751953125
1695393214576200200,7.1952001953125,-0.455780029296875,-0.274658203125,1.184234619140625
1695393214585752000,7.204751953125,-0.437774658203125,-0.27130126953125,1.178131103515625
1695393214595304200,7.21430419921875,-0.451507568359375,-0.281982421875,1.141510009765625
1695393214604856000,7.22385595703125,-0.48126220703125,-0.29571533203125,1.099090576171875
1695393214614377500,7.23337744140625,-0.50323486328125,-0.37353515625,1.055755615234375
1695393214623929600,7.2429296875,-0.528564453125,-0.510711669921875,1.0113525390625
1695393214633481500,7.2524814453125,-0.5694580078125,-0.635986328125,0.9661865234375
1695393214643033600,7.26203369140625,-0.611572265625,-0.68115234375,0.90087890625
1695393214652555000,7.271554931640625,-0.62652587890625,-0.63690185546875,0.807952880859375
1695393214662107100,7.281107177734375,-0.6060791015625,-0.524139404296875,0.689239501953125
1695393214671659000,7.290658935546875,-0.5682373046875,-0.35614013671875,0.560302734375
1695393214681211100,7.300211181640625,-0.5364990234375,-0.167694091796875,0.435333251953125
1695393214690763000,7.309762939453125,-0.538330078125,0.00457763671875,0.3192138671875
1695393214700284700,7.31928466796875,-0.57586669921875,0.166778564453125,0.21453857421875
1695393214709836500,7.32883642578125,-0.626220703125,0.3594970703125,0.094451904296875
1695393214719388700,7.338388671875,-0.6341552734375,0.582122802734375,-0.08392333984375
1695393214728940500,7.3479404296875,-0.5322265625,0.77301025390625,-0.360565185546875
1695393214738492700,7.35749267578125,-0.314483642578125,0.867156982421875,-0.697784423828125
1695393214748044500,7.36704443359375,-0.044403076171875,0.885467529296875,-0.967254638671875
1695393214757596700,7.3765966796875,0.19622802734375,0.861663818359375,-1.1212158203125
1695393214767148500,7.3861484375,0.353851318359375,0.73638916015625,-1.320037841796875
1695393214776700700,7.39570068359375,0.45135498046875,0.46630859375,-1.674652099609375
1695393214786222000,7.40522216796875,0.435791015625,0.181732177734375,-2.110137939453125
1695393214795774000,7.41477392578125,0.287322998046875,-0.02960205078125,-2.53936767578125
1695393214805326000,7.424326171875,0.22247314453125,-0.24688720703125,-2.855377197265625
1695393214814878000,7.4338779296875,0.308380126953125,-0.513458251953125,-2.96112060546875
1695393214824399600,7.443399658203125,0.45745849609375,-0.813446044921875,-2.90252685546875
1695393214833951500,7.452951416015625,0.58441162109375,-1.10321044921875,-2.777252197265625
1695393214843503600,7.462503662109375,0.604095458984375,-1.33087158203125,-2.64923095703125
1695393214853055500,7.472055419921875,0.5279541015625,-1.429443359375,-2.586669921875
1695393214862607600,7.481607666015625,0.408477783203125,-1.407470703125,-2.64068603515625
1695393214872129000,7.49112890625,0.323944091796875,-1.3824462890625,-2.735748291015625
1695393214881681200,7.50068115234375,0.262908935546875,-1.34765625,-2.756500244140625
1695393214891233000,7.51023291015625,0.23101806640625,-1.00799560546875,-2.6275634765625
1695393214900785200,7.51978515625,0.265350341796875,-0.23101806640625,-2.439727783203125
1695393214910306600,7.529306640625,0.320587158203125,0.71502685546875,-2.391510009765625
1695393214919858400,7.5388583984375,0.374603271484375,1.717681884765625,-2.470855712890625
1695393214929410600,7.54841064453125,0.400238037109375,2.20489501953125,-2.779998779296875
1695393214938962400,7.55796240234375,0.381622314453125,1.985015869140625,-3.174591064453125
1695393214948514600,7.5675146484375,0.378265380859375,1.570281982421875,-3.464202880859375
1695393214958036000,7.577035888671875,0.366363525390625,1.282501220703125,-3.602142333984375
1695393214967588000,7.586588134765625,0.348663330078125,1.13067626953125,-3.578033447265625
1695393214977140000,7.596139892578125,0.332794189453125,1.07513427734375,-3.37677001953125
1695393214986692000,7.605692138671875,0.333709716796875,1.142578125,-3.011474609375
1695393214996213500,7.615213623046875,0.391387939453125,1.42669677734375,-2.520294189453125
1695393215005765600,7.624765625,0.48828125,1.690216064453125,-2.012176513671875
1695393215015348000,7.634347900390625,0.574951171875,1.686248779296875,-1.62628173828125
1695393215024900000,7.643900146484375,0.626373291015625,1.5386962890625,-1.369476318359375
1695393215034421500,7.65342138671875,0.644073486328125,1.4093017578125,-1.2127685546875
1695393215043973600,7.6629736328125,0.648956298828125,1.312103271484375,-1.10382080078125
1695393215053525500,7.672525390625,0.634918212890625,1.18377685546875,-0.983123779296875
1695393215063077600,7.68207763671875,0.5908203125,1.009979248046875,-0.79864501953125
1695393215072629500,7.69162939453125,0.54779052734375,0.8197021484375,-0.5242919921875
1695393215082151000,7.70115087890625,0.5126953125,0.630950927734375,-0.16845703125
1695393215091703000,7.710703125,0.487060546875,0.445556640625,0.24200439453125
1695393215101255000,7.7202548828125,0.48004150390625,0.30426025390625,0.662841796875
1695393215110807000,7.72980712890625,0.49835205078125,0.199737548828125,1.059112548828125
1695393215120328400,7.739328369140625,0.52886962890625,0.10101318359375,1.416473388671875
1695393215129880600,7.748880615234375,0.548095703125,0.0592041015625,1.71417236328125
1695393215139432400,7.758432373046875,0.548095703125,0.123748779296875,1.924285888671875
1695393215148984600,7.767984619140625,0.54046630859375,0.224151611328125,2.0111083984375
1695393215158536400,7.777536376953125,0.52490234375,0.287933349609375,1.95068359375
1695393215168058000,7.78705810546875,0.46112060546875,0.3076171875,1.72821044921875
1695393215177610000,7.79660986328125,0.330352783203125,0.34149169921875,1.36138916015625
1695393215187162000,7.806162109375,0.16357421875,0.46417236328125,0.8843994140625
1695393215196714000,7.8157138671875,-0.009613037109375,0.697021484375,0.24871826171875
1695393215206235400,7.8252353515625,-0.1123046875,1.053466796875,-0.583648681640625
1695393215215787500,7.83478759765625,-0.080413818359375,1.237945556640625,-1.306610107421875
1695393215225339400,7.84433935546875,0.08819580078125,0.861968994140625,-1.4794921875
1695393215234891500,7.8538916015625,0.293426513671875,0.01953125,-1.13311767578125
1695393215244443400,7.863443359375,0.410308837890625,-0.75347900390625,-0.662689208984375
1695393215253965000,7.872965087890625,0.42938232421875,-1.02996826171875,-0.38299560546875
1695393215263517000,7.882516845703125,0.4351806640625,-0.828094482421875,-0.39581298828125
1695393215273069000,7.892069091796875,0.319671630859375,-0.36376953125,-0.574493408203125
1695393215282621000,7.901620849609375,-0.066680908203125,0.276336669921875,-0.46905517578125
1695393215292142600,7.911142578125,-0.6396484375,0.639190673828125,0.2593994140625
1695393215301725000,7.920724853515625,-0.8465576171875,-0.472259521484375,1.158599853515625
1695393215311277000,7.930277099609375,-0.172119140625,-2.16064453125,1.133270263671875
1695393215320829000,7.939828857421875,0.81817626953125,-1.71478271484375,0.18951416015625
1695393215330381000,7.949381103515625,1.472015380859375,-0.390625,0.059661865234375
1695393215339902500,7.95890234375,1.49627685546875,-0.198211669921875,1.123199462890625
1695393215349454600,7.96845458984375,1.015167236328125,-0.2996826171875,1.9891357421875
1695393215359006500,7.97800634765625,0.2166748046875,-0.72662353515625,1.6571044921875
1695393215368558600,7.98755859375,-0.60882568359375,-1.517486572265625,0.51513671875
1695393215378080000,7.997080078125,-1.3214111328125,-1.857147216796875,0.5657958984375
1695393215387631900,8.0066318359375,-1.70318603515625,-1.140899658203125,1.7633056640625
1695393215397184000,8.01618408203125,-1.407318115234375,-0.477752685546875,3.02947998046875
1695393215406736000,8.02573583984375,-0.428924560546875,-0.927886962890625,3.42254638671875
1695393215416288000,8.0352880859375,0.52337646484375,-1.78070068359375,3.08380126953125
1695393215425809400,8.044809326171874,0.82061767578125,-2.06451416015625,2.75726318359375
1695393215435361500,8.054361572265625,0.647430419921875,-2.03338623046875,2.554168701171875
1695393215444913400,8.063913330078124,0.309906005859375,-2.017974853515625,2.44293212890625
1695393215454465500,8.073465576171875,-0.019989013671875,-1.861419677734375,2.476959228515625
1695393215463987000,8.082987060546875,-0.27099609375,-1.42425537109375,2.598724365234375
1695393215473539000,8.0925390625,-0.455169677734375,-1.11083984375,2.563323974609375
1695393215483091000,8.102091064453125,-0.48095703125,-1.10595703125,2.36419677734375
1695393215492643000,8.11164306640625,-0.373992919921875,-1.116790771484375,2.0867919921875
1695393215502164500,8.12116455078125,-0.25360107421875,-1.07025146484375,1.809539794921875
1695393215511716400,8.13071630859375,-0.18646240234375,-0.97442626953125,1.6363525390625
1695393215521268500,8.1402685546875,-0.15899658203125,-0.838470458984375,1.59942626953125
1695393215530820400,8.1498203125,-0.17059326171875,-0.68695068359375,1.6265869140625
1695393215540372500,8.15937255859375,-0.23101806640625,-0.6195068359375,1.6070556640625
1695393215549894000,8.168893798828124,-0.297698974609375,-0.7232666015625,1.521759033203125
1695393215559446000,8.178446044921875,-0.351409912109375,-0.879669189453125,1.432342529296875
1695393215568998000,8.187997802734374,-0.393524169921875,-0.9478759765625,1.39892578125
1695393215578550000,8.197550048828125,-0.432586669921875,-0.882720947265625,1.420440673828125
1695393215588102000,8.207101806640624,-0.442352294921875,-0.73150634765625,1.432952880859375
1695393215597654000,8.216654052734375,-0.416412353515625,-0.61431884765625,1.405487060546875
1695393215607206000,8.226205810546874,-0.384368896484375,-0.565643310546875,1.33087158203125
1695393215616758000,8.235758056640625,-0.380096435546875,-0.500946044921875,1.2347412109375
1695393215626310000,8.245309814453124,-0.386199951171875,-0.40771484375,1.144256591796875
1695393215635831600,8.25483154296875,-0.383758544921875,-0.3131103515625,1.105194091796875
1695393215645383400,8.264383544921875,-0.390472412109375,-0.2410888671875,1.110382080078125
1695393215654935600,8.273935546875,-0.425262451171875,-0.26458740234375,1.102752685546875
1695393215664487400,8.2834873046875,-0.4840087890625,-0.38238525390625,1.052398681640625
1695393215674008800,8.2930087890625,-0.54840087890625,-0.518035888671875,0.977783203125
1695393215683561000,8.30256103515625,-0.60577392578125,-0.63201904296875,0.91522216796875
1695393215693112800,8.31211279296875,-0.646820068359375,-0.69427490234375,0.87432861328125
1695393215702665000,8.3216650390625,-0.657806396484375,-0.6976318359375,0.836334228515625
1695393215712216800,8.331216796875,-0.62225341796875,-0.6524658203125,0.781707763671875
1695393215721738500,8.340738525390625,-0.54290771484375,-0.576934814453125,0.691680908203125
1695393215731290400,8.350290283203124,-0.446319580078125,-0.479583740234375,0.59173583984375
1695393215740842500,8.359842529296875,-0.349884033203125,-0.39520263671875,0.504302978515625
1695393215750394400,8.369394287109374,-0.2703857421875,-0.343017578125,0.444793701171875
1695393215759916000,8.378916015625,-0.22735595703125,-0.32562255859375,0.418243408203125
1695393215769468000,8.388468017578125,-0.24566650390625,-0.31982421875,0.405731201171875
1695393215779020000,8.39802001953125,-0.319671630859375,-0.3265380859375,0.371551513671875
1695393215788572000,8.407572021484375,-0.417327880859375,-0.33966064453125,0.28656005859375
1695393215798124000,8.4171240234375,-0.49102783203125,-0.33111572265625,0.1446533203125
1695393215807645400,8.4266455078125,-0.5340576171875,-0.28839111328125,-0.0439453125
1695393215817197300,8.436197265625,-0.51727294921875,-0.160980224609375,-0.311126708984375
1695393215826749400,8.44574951171875,-0.397491455078125,0.08026123046875,-0.648956298828125
1695393215836301300,8.45530126953125,-0.19073486328125,0.3448486328125,-1.024322509765625
1695393215845823000,8.464822998046875,0.040130615234375,0.595245361328125,-1.381072998046875
1695393215855374800,8.474374755859374,0.2166748046875,0.8349609375,-1.711578369140625
1695393215864927000,8.483927001953125,0.357818603515625,1.002655029296875,-2.056427001953125
1695393215874478800,8.493478759765624,0.52642822265625,0.916900634765625,-2.398223876953125
1695393215884031000,8.503031005859375,0.626983642578125,0.503387451171875,-2.69622802734375
1695393215893582800,8.512582763671874,0.57037353515625,-0.050506591796875,-2.94464111328125
1695393215903135000,8.522135009765625,0.43304443359375,-0.543670654296875,-3.115386962890625
1695393215912686800,8.531686767578124,0.388641357421875,-0.916595458984375,-3.196258544921875
1695393215922239000,8.541239013671875,0.4742431640625,-1.172943115234375,-3.200836181640625
1695393215931760400,8.550760498046875,0.56793212890625,-1.305999755859375,-3.147735595703125
1695393215941312500,8.5603125,0.560302734375,-1.32843017578125,-3.05511474609375
1695393215950864400,8.569864501953125,0.45166015625,-1.34490966796875,-2.867889404296875
1695393215960416500,8.57941650390625,0.305328369140625,-1.486663818359375,-2.63885498046875
1695393215969938000,8.58893798828125,0.17852783203125,-1.546173095703125,-2.367706298828125
1695393215979489800,8.59848974609375,0.13702392578125,-1.04248046875,-2.037811279296875
1695393215989042000,8.6080419921875,0.1654052734375,-0.24505615234375,-1.907958984375
1695393215998593800,8.61759375,0.366363525390625,0.7037353515625,-2.020416259765625
1695393216008146000,8.62714599609375,0.610198974609375,1.53656005859375,-2.467193603515625
1695393216017667300,8.636667236328124,0.675506591796875,1.948394775390625,-3.031005859375
1695393216027219500,8.646219482421875,0.671539306640625,2.0953369140625,-3.452301025390625
1695393216036771300,8.655771240234374,0.612335205078125,2.152099609375,-3.71856689453125
1695393216046323500,8.665323486328125,0.4962158203125,1.963043212890625,-3.801422119140625
1695393216055844900,8.674844970703125,0.363616943359375,1.5472412109375,-3.71246337890625
1695393216065397000,8.68439697265625,0.313568115234375,1.13037109375,-3.459014892578125
1695393216074948900,8.693948974609375,0.352020263671875,0.926971435546875,-3.084259033203125
1695393216084501000,8.7035009765625,0.4437255859375,1.14837646484375,-2.59002685546875
1695393216094052900,8.713052978515625,0.5633544921875,1.51458740234375,-1.9830322265625
1695393216103574300,8.72257421875,0.626068115234375,1.461181640625,-1.447906494140625
1695393216113126400,8.73212646484375,0.608978271484375,1.192626953125,-1.063079833984375
1695393216122678300,8.74167822265625,0.54412841796875,1.0491943359375,-0.82427978515625
1695393216132230400,8.75123046875,0.4547119140625,1.011199951171875,-0.695953369140625
1695393216141751800,8.760751708984374,0.370330810546875,0.971221923828125,-0.609283447265625
1695393216151304000,8.770303955078125,0.305023193359375,0.894927978515625,-0.48675537109375
1695393216160886300,8.77988623046875,0.269927978515625,0.77789306640625,-0.282745361328125
1695393216170438400,8.7894384765625,0.254364013671875,0.660400390625,0.026397705078125
1695393216179990300,8.798990234375,0.269012451171875,0.579071044921875,0.410919189453125
1695393216189512000,8.808511962890625,0.295867919921875,0.535125732421875,0.821075439453125
1695393216199063800,8.818063720703124,0.301055908203125,0.497283935546875,1.220550537109375
1695393216208616000,8.827615966796875,0.290069580078125,0.45196533203125,1.61041259765625
1695393216218167800,8.837167724609374,0.276947021484375,0.42022705078125,1.97906494140625
1695393216227689500,8.846689453125,0.269012451171875,0.41717529296875,2.274627685546875
1695393216237241300,8.856241455078125,0.277252197265625,0.41656494140625,2.41912841796875
1695393216246793500,8.86579345703125,0.260467529296875,0.4083251953125,2.3291015625
1695393216256345300,8.875345458984375,0.19073486328125,0.450439453125,2.0062255859375
1695393216265897500,8.8848974609375,0.08758544921875,0.545806884765625,1.521759033203125
1695393216275419000,8.8944189453125,0.001068115234375,0.726318359375,0.93902587890625
1695393216284970800,8.903970703125,-0.048675537109375,0.917816162109375,0.21697998046875
1695393216294523000,8.91352294921875,-0.023345947265625,1.002655029296875,-0.665435791015625
1695393216304074800,8.92307470703125,0.06561279296875,0.84014892578125,-1.48590087890625
1695393216313596400,8.932596435546875,0.22308349609375,0.31463623046875,-1.82373046875
1695393216323148300,8.942148193359374,0.43426513671875,-0.389404296875,-1.684112548828125
1695393216332700400,8.951700439453125,0.5828857421875,-0.7513427734375,-1.318511962890625
1695393216342252300,8.961252197265624,0.52581787109375,-0.69915771484375,-0.87371826171875
1695393216351774000,8.97077392578125,0.318145751953125,-0.438995361328125,-0.40740966796875
1695393216361325800,8.980325927734375,0.19195556640625,-0.090179443359375,-0.0439453125
1695393216370878000,8.9898779296875,0.1715087890625,0.262298583984375,0.114288330078125
1695393216380429800,8.999429931640625,0.048370361328125,0.6939697265625,0.14404296875
1695393216389982000,9.00898193359375,-0.292510986328125,1.368255615234375,0.3033447265625
1695393216399503400,9.01850341796875,-0.6231689453125,1.674652099609375,1.0272216796875
1695393216409055200,9.02805517578125,-0.360260009765625,0.06317138671875,1.906280517578125
1695393216418607400,9.037607421875,0.53375244140625,-2.297515869140625,1.67938232421875
1695393216428159200,9.0471591796875,1.24603271484375,-2.567901611328125,0.312652587890625
1695393216437681000,9.056680908203125,1.6546630859375,-1.356201171875,-0.46722412109375
1695393216447263200,9.06626318359375,1.712188720703125,-0.75653076171875,0.30364990234375
1695393216456815400,9.0758154296875,1.2835693359375,-0.791473388671875,1.573028564453125
1695393216466367200,9.0853671875,0.44036865234375,-0.559234619140625,2.308349609375
1695393216475919400,9.09491943359375,-0.474090576171875,-0.567169189453125,1.69891357421875
1695393216485440800,9.104440673828124,-1.172943115234375,-0.67230224609375,0.744781494140625
1695393216494993000,9.113992919921875,-1.480865478515625,-0.379638671875,0.90789794921875
1695393216504544800,9.123544677734374,-1.34979248046875,0.097808837890625,1.73309326171875
1695393216514097000,9.133096923828125,-0.797271728515625,-0.30029296875,2.632904052734375
1695393216523618300,9.142618408203125,0.03875732421875,-1.42608642578125,2.984771728515625
1695393216533170400,9.15217041015625,0.681304931640625,-2.267913818359375,2.67822265625
1695393216542722300,9.161722412109375,0.753631591796875,-2.289886474609375,2.238922119140625
1695393216552274400,9.1712744140625,0.5340576171875,-1.914825439453125,2.00958251953125
1695393216561826300,9.180826416015625,0.237274169921875,-1.47491455078125,1.99676513671875
1695393216571347700,9.19034765625,-0.046234130859375,-0.9942626953125,2.141571044921875
1695393216580899800,9.19989990234375,-0.2996826171875,-0.76202392578125,2.273712158203125
1695393216590451700,9.20945166015625,-0.444183349609375,-0.804901123046875,2.281036376953125
1695393216600003800,9.21900390625,-0.443572998046875,-0.96466064453125,2.124481201171875
1695393216609525200,9.228525146484374,-0.360870361328125,-0.920867919921875,1.905975341796875
1695393216619077400,9.238077392578125,-0.2447509765625,-0.65185546875,1.690673828125
1695393216628629200,9.247629150390624,-0.14678955078125,-0.29754638671875,1.543426513671875
1695393216638181400,9.257181396484375,-0.12237548828125,-0.150299072265625,1.478424072265625
1695393216647733200,9.266733154296874,-0.14923095703125,-0.209808349609375,1.479949951171875
1695393216657254700,9.276254638671874,-0.17852783203125,-0.27069091796875,1.496124267578125
1695393216666806800,9.285806884765625,-0.22979736328125,-0.205841064453125,1.464996337890625
1695393216676359000,9.29535888671875,-0.291748046875,-0.232696533203125,1.415863037109375
1695393216685910800,9.304910888671875,-0.346832275390625,-0.3759765625,1.405792236328125
1695393216695432200,9.31443212890625,-0.385589599609375,-0.449371337890625,1.454010009765625
1695393216704984300,9.323984375,-0.389556884765625,-0.444183349609375,1.515045166015625
1695393216714536200,9.3335361328125,-0.388946533203125,-0.492706298828125,1.519317626953125
1695393216724088300,9.34308837890625,-0.403289794921875,-0.600738525390625,1.460418701171875
1695393216733640200,9.35264013671875,-0.453643798828125,-0.68817138671875,1.3861083984375
1695393216743192300,9.3621923828125,-0.4962158203125,-0.64117431640625,1.3433837890625
1695393216752744200,9.371744140625,-0.4986572265625,-0.569000244140625,1.31622314453125
1695393216762296300,9.38129638671875,-0.4937744140625,-0.575714111328125,1.30767822265625
1695393216771848200,9.39084814453125,-0.4962158203125,-0.64605712890625,1.31683349609375
1695393216781369900,9.400369873046875,-0.4949951171875,-0.7183837890625,1.298828125
1695393216790921700,9.409921630859374,-0.48980712890625,-0.778045654296875,1.2261962890625
1695393216800473900,9.419473876953125,-0.4913330078125,-0.814971923828125,1.113433837890625
1695393216810025700,9.429025634765624,-0.48919677734375,-0.810089111328125,1.00311279296875
1695393216819547100,9.438547119140624,-0.48675537109375,-0.76385498046875,0.9210205078125
1695393216829099300,9.448099365234375,-0.473480224609375,-0.68115234375,0.855560302734375
1695393216838651400,9.4576513671875,-0.440826416015625,-0.553436279296875,0.761260986328125
1695393216848203300,9.467203369140625,-0.402069091796875,-0.41900634765625,0.633544921875
1695393216857755400,9.47675537109375,-0.385589599609375,-0.3277587890625,0.5157470703125
1695393216867276800,9.48627685546875,-0.396270751953125,-0.284423828125,0.443572998046875
1695393216876828700,9.49582861328125,-0.428619384765625,-0.26611328125,0.403900146484375
1695393216886380800,9.505380859375,-0.463409423828125,-0.25299072265625,0.351715087890625
1695393216895932700,9.5149326171875,-0.51177978515625,-0.228424072265625,0.2569580078125
1695393216905454300,9.524454345703125,-0.56640625,-0.207061767578125,0.072479248046875
1695393216915006200,9.534006103515624,-0.560302734375,-0.141143798828125,-0.18707275390625
1695393216924558300,9.543558349609375,-0.444183349609375,0.05218505859375,-0.48492431640625
1695393216934110200,9.553110107421874,-0.2239990234375,0.277557373046875,-0.79620361328125
1695393216943662300,9.562662353515625,0.018768310546875,0.4071044921875,-1.090850830078125
1695393216953183700,9.572183837890625,0.18951416015625,0.44769287109375,-1.373138427734375
1695393216962735600,9.581735595703124,0.291595458984375,0.3582763671875,-1.684722900390625
1695393216972287700,9.591287841796875,0.395355224609375,0.141754150390625,-2.013092041015625
1695393216981840000,9.60083984375,0.49224853515625,-0.154266357421875,-2.32269287109375
1695393216991361300,9.610361328125,0.5560302734375,-0.537567138671875,-2.62054443359375
1695393217000913200,9.6199130859375,0.5792236328125,-0.99090576171875,-2.873687744140625
1695393217010465300,9.62946533203125,0.5804443359375,-1.3958740234375,-2.9779052734375
1695393217020048000,9.6390478515625,0.587615966796875,-1.650848388671875,-2.911376953125
1695393217029599700,9.648599853515625,0.5718994140625,-1.75140380859375,-2.751312255859375
1695393217039121200,9.65812109375,0.509033203125,-1.74224853515625,-2.60772705078125
1695393217048673300,9.66767333984375,0.378570556640625,-1.66046142578125,-2.59002685546875
1695393217058225200,9.67722509765625,0.243682861328125,-1.517181396484375,-2.69561767578125
1695393217067777300,9.68677734375,0.19500732421875,-1.293182373046875,-2.808380126953125
1695393217077298700,9.696298583984374,0.08331298828125,-0.778350830078125,-2.755279541015625
1695393217086850800,9.705850830078125,0.009307861328125,0.0018310546875,-2.625732421875
1695393217096402700,9.715402587890624,-0.095367431640625,0.613555908203125,-2.6446533203125
1695393217105954800,9.724954833984375,-0.077362060546875,1.203155517578125,-2.717437744140625
1695393217115506700,9.734506591796874,0.11749267578125,1.44775390625,-2.97882080078125
1695393217125028000,9.744028076171874,0.312957763671875,1.257476806640625,-3.32183837890625
1695393217134580200,9.753580322265625,0.44647216796875,0.994720458984375,-3.523406982421875
1695393217144132000,9.763132080078124,0.4412841796875,0.862579345703125,-3.579254150390625
1695393217153684200,9.772684326171875,0.334014892578125,0.80474853515625,-3.451385498046875
1695393217163205600,9.78220556640625,0.233612060546875,0.840911865234375,-3.161468505859375
1695393217172757800,9.7917578125,0.1898193359375,0.8197021484375,-2.731170654296875
1695393217182309600,9.8013095703125,0.220947265625,0.81024169921875,-2.26043701171875
1695393217191861800,9.81086181640625,0.320892333984375,0.898284912109375,-1.8731689453125
1695393217201383200,9.820383056640624,0.43853759765625,0.918731689453125,-1.54083251953125
1695393217210935300,9.829935302734375,0.54046630859375,0.83251953125,-1.25213623046875
1695393217220487200,9.839487060546874,0.620269775390625,0.927581787109375,-1.102294921875
1695393217230039300,9.849039306640625,0.77423095703125,1.324005126953125,-1.12457275390625
1695393217239591200,9.858591064453124,0.865478515625,1.48651123046875,-1.12396240234375
1695393217249112600,9.868112548828124,0.7623291015625,1.08612060546875,-0.87982177734375
1695393217258664700,9.877664794921875,0.5511474609375,0.72601318359375,-0.53253173828125
1695393217268216600,9.887216552734374,0.270538330078125,0.562591552734375,-0.14892578125
1695393217277768700,9.896768798828125,0.10223388671875,0.679931640625,0.14923095703125
1695393217287290000,9.9062900390625,0.19683837890625,0.643463134765625,0.464630126953125
1695393217296842200,9.91584228515625,0.322723388671875,0.45654296875,0.845184326171875
1695393217306424800,9.9254248046875,0.395355224609375,0.37109375,1.2432861328125
1695393217315976700,9.934976806640625,0.44189453125,0.38238525390625,1.64794921875
1695393217325528800,9.94452880859375,0.4656982421875,0.44464111328125,2.0367431640625
1695393217335050200,9.95405029296875,0.48431396484375,0.516204833984375,2.34832763671875
1695393217344602000,9.96360205078125,0.49713134765625,0.557098388671875,2.47222900390625
1695393217354154200,9.973154296875,0.47119140625,0.573272705078125,2.290802001953125
1695393217363706000,9.9827060546875,0.40069580078125,0.563507080078125,1.74774169921875
1695393217373227800,9.992227783203125,0.285186767578125,0.569610595703125,0.93536376953125
1695393217382779600,10.001779541015624,0.16571044921875,0.638885498046875,-0.02899169921875
1695393217392331800,10.011331787109375,0.07598876953125,0.861053466796875,-0.981292724609375
1695393217401883600,10.020883544921874,0.0433349609375,0.991973876953125,-1.713714599609375
1695393217411435800,10.030435791015625,0.096435546875,0.787353515625,-2.010650634765625
1695393217420957200,10.039957275390625,0.270538330078125,0.316162109375,-1.793670654296875
1695393217430509000,10.049509033203124,0.44525146484375,-0.148773193359375,-1.291046142578125
1695393217440061200,10.059061279296875,0.47637939453125,-0.34576416015625,-0.77239990234375
1695393217449613000,10.068613037109374,0.389556884765625,-0.27923583984375,-0.43243408203125
1695393217459134700,10.078134765625,0.320892333984375,-0.04150390625,-0.354766845703125
1695393217468686600,10.0876865234375,0.1812744140625,0.34454345703125,-0.39886474609375
1695393217478238700,10.09723876953125,-0.17608642578125,0.77178955078125,-0.279083251953125
1695393217487790600,10.10679052734375,-0.775604248046875,0.924835205078125,0.30029296875
1695393217497342700,10.1163427734375,-0.9576416015625,-0.129852294921875,1.117095947265625
1695393217506864000,10.125864013671874,-0.19012451171875,-1.629180908203125,1.239013671875
1695393217516416300,10.135416259765625,0.698699951171875,-1.85577392578125,0.5914306640625
1695393217525968100,10.144968017578124,1.29150390625,-1.229400634765625,0.19561767578125
1695393217535520300,10.154520263671875,1.380767822265625,-0.4010009765625,0.756072998046875
1695393217545041700,10.164041748046875,0.91339111328125,-0.2569580078125,1.6802978515625
1695393217554593500,10.173593505859374,0.1324462890625,-0.209808349609375,2.0281982421875
1695393217564145700,10.183145751953125,-0.55694580078125,-0.391845703125,1.30615234375
1695393217573697500,10.192697509765624,-0.9918212890625,-0.732421875,1.050262451171875
1695393217583249700,10.202249755859375,-1.148834228515625,-0.568389892578125,1.7242431640625
1695393217592801500,10.211801513671874,-0.9234619140625,-0.26885986328125,2.6971435546875
1695393217602353700,10.221353759765625,-0.375213623046875,-0.514373779296875,3.312225341796875
1695393217611905500,10.230905517578124,0.279693603515625,-1.206512451171875,3.033447265625
1695393217621457700,10.240457763671875,0.76904296875,-1.638946533203125,2.270050048828125
1695393217630979000,10.24997900390625,0.870361328125,-1.3299560546875,1.769866943359375
1695393217640531200,10.25953125,0.655975341796875,-0.831756591796875,1.63665771484375
1695393217650083000,10.2690830078125,0.340423583984375,-0.62042236328125,1.769561767578125
1695393217659635200,10.27863525390625,0.024261474609375,-0.62042236328125,2.095947265625
1695393217669187000,10.28818701171875,-0.23101806640625,-0.77484130859375,2.42401123046875
1695393217678708700,10.297708740234375,-0.398712158203125,-1.09619140625,2.569732666015625
1695393217688260600,10.307260498046874,-0.466461181640625,-1.41021728515625,2.518463134765625
1695393217697812700,10.316812744140625,-0.413055419921875,-1.48773193359375,2.36480712890625
1695393217707364600,10.326364501953124,-0.299224853515625,-1.244354248046875,2.198944091796875
1695393217716886000,10.335885986328124,-0.1904296875,-0.897369384765625,1.99920654296875
1695393217726438100,10.345438232421875,-0.1275634765625,-0.594329833984375,1.754150390625
1695393217735990000,10.354989990234374,-0.14678955078125,-0.32562255859375,1.506195068359375
1695393217745542100,10.364542236328125,-0.203857421875,-0.142974853515625,1.33026123046875
1695393217755063600,10.3740634765625,-0.2655029296875,-0.052490234375,1.2591552734375
1695393217764615700,10.38361572265625,-0.312652587890625,0.0164794921875,1.28326416015625
1695393217774167600,10.39316748046875,-0.330657958984375,0.03570556640625,1.35223388671875
1695393217783719700,10.4027197265625,-0.29754638671875,-0.112457275390625,1.430206298828125
1695393217793271600,10.412271484375,-0.25848388671875,-0.3765869140625,1.488494873046875
1695393217802793200,10.421793212890625,-0.23834228515625,-0.597686767578125,1.531219482421875
1695393217812345000,10.431344970703124,-0.255126953125,-0.72509765625,1.546783447265625
1695393217821897200,10.440897216796875,-0.286865234375,-0.7269287109375,1.532135009765625
1695393217831449000,10.450448974609374,-0.307159423828125,-0.602264404296875,1.482696533203125
1695393217840970500,10.459970458984374,-0.335235595703125,-0.496063232421875,1.39617919921875
1695393217850522600,10.469522705078125,-0.373382568359375,-0.469818115234375,1.31439208984375
1695393217860074500,10.479074462890624,-0.400543212890625,-0.529022216796875,1.26861572265625
1695393217869626600,10.488626708984375,-0.408172607421875,-0.598907470703125,1.260986328125
1695393217879209200,10.498209228515625,-0.414886474609375,-0.638427734375,1.23779296875
1695393217888730600,10.507730712890625,-0.433807373046875,-0.70831298828125,1.151275634765625
1695393217898282500,10.517282470703124,-0.467681884765625,-0.810394287109375,1.03515625
1695393217907834600,10.526834716796875,-0.5047607421875,-0.896148681640625,0.9405517578125
1695393217917386500,10.536386474609374,-0.52215576171875,-0.926971435546875,0.853118896484375
1695393217926908200,10.545908203125,-0.5120849609375,-0.863189697265625,0.747222900390625
1695393217936460000,10.5554599609375,-0.47943115234375,-0.71990966796875,0.6182861328125
1695393217946012200,10.56501220703125,-0.434417724609375,-0.565948486328125,0.490264892578125
1695393217955564000,10.57456396484375,-0.398406982421875,-0.474090576171875,0.393524169921875
1695393217965116200,10.5841162109375,-0.393218994140625,-0.460357666015625,0.333404541015625
1695393217974637600,10.593637451171874,-0.410919189453125,-0.489349365234375,0.28411865234375
1695393217984189700,10.603189697265625,-0.422821044921875,-0.532073974609375,0.21148681640625
1695393217993741600,10.612741455078124,-0.437469482421875,-0.576934814453125,0.086822509765625
1695393218003293700,10.622293701171875,-0.441741943359375,-0.58685302734375,-0.1239013671875
1695393218012815000,10.631815185546875,-0.395965576171875,-0.498199462890625,-0.39215087890625
1695393218022367000,10.641366943359374,-0.2581787109375,-0.32135009765625,-0.707244873046875
1695393218031919000,10.650919189453125,-0.040435791015625,-0.164337158203125,-1.043853759765625
1695393218041471000,10.660470947265624,0.162353515625,-0.03387451171875,-1.374969482421875
1695393218051023000,10.670023193359375,0.290069580078125,0.0634765625,-1.704559326171875
1695393218060544500,10.67954443359375,0.389862060546875,0.06439208984375,-2.042999267578125
1695393218070096600,10.6890966796875,0.50872802734375,-0.069732666015625,-2.35595703125
1695393218079648500,10.6986484375,0.632171630859375,-0.35552978515625,-2.60406494140625
1695393218089200600,10.70820068359375,0.725250244140625,-0.7489013671875,-2.758941650390625
1695393218098722000,10.71772216796875,0.76751708984375,-1.168975830078125,-2.813568115234375
1695393218108274200,10.727274169921875,0.76385498046875,-1.46453857421875,-2.773284912109375
1695393218117826000,10.736825927734374,0.708770751953125,-1.608428955078125,-2.7001953125
1695393218127378200,10.746378173828125,0.617523193359375,-1.644134521484375,-2.66876220703125
1695393218136899600,10.755899658203125,0.4791259765625,-1.581878662109375,-2.694091796875
1695393218146451500,10.765451416015624,0.334930419921875,-1.486358642578125,-2.69805908203125
1695393218156003600,10.775003662109375,0.316009521484375,-1.34552001953125,-2.60345458984375
1695393218165586200,10.784586181640625,0.305938720703125,-1.04248046875,-2.413482666015625
1695393218175138000,10.794137939453124,0.269317626953125,-0.36834716796875,-2.165679931640625
1695393218184659500,10.803659423828124,0.18096923828125,0.196075439453125,-2.067413330078125
1695393218194211600,10.813211669921875,0.18798828125,0.73333740234375,-2.120513916015625
1695393218203763500,10.822763427734374,0.305633544921875,1.185302734375,-2.376556396484375
1695393218213315600,10.832315673828125,0.362396240234375,1.37725830078125,-2.771759033203125
1695393218222837000,10.8418369140625,0.384368896484375,1.330718994140625,-3.131256103515625
1695393218232389000,10.85138916015625,0.41961669921875,1.341705322265625,-3.3392333984375
1695393218241941000,10.86094091796875,0.386199951171875,1.342010498046875,-3.3917236328125
1695393218251493000,10.8704931640625,0.309906005859375,1.11846923828125,-3.220062255859375
1695393218261045000,10.880044921875,0.288543701171875,0.36468505859375,-2.719268798828125
1695393218270566700,10.889566650390625,0.318450927734375,0.8050537109375,-2.58209228515625
1695393218280118500,10.899118408203124,0.338897705078125,1.304473876953125,-2.2705078125
1695393218289670700,10.908670654296875,0.362701416015625,1.315765380859375,-1.809844970703125
1695393218299222500,10.918222412109374,0.40985107421875,1.10076904296875,-1.363983154296875
1695393218308744000,10.927743896484374,0.48309326171875,1.004486083984375,-1.033782958984375
1695393218318296000,10.937296142578125,0.55908203125,1.0791015625,-0.8209228515625
1695393218327848000,10.946847900390624,0.606231689453125,1.14654541015625,-0.688323974609375
1695393218337400000,10.956400146484375,0.610809326171875,1.11846923828125,-0.585174560546875
1695393218346952000,10.965951904296874,0.595855712890625,1.043701171875,-0.458984375
1695393218356473600,10.9754736328125,0.57037353515625,0.966644287109375,-0.287017822265625
1695393218366025500,10.985025390625,0.5322265625,0.883331298828125,-0.05218505859375
1695393218375577600,10.99457763671875,0.4998779296875,0.7879638671875,0.25848388671875
1695393218385129500,11.00412939453125,0.49346923828125,0.728759765625,0.63995361328125
1695393218394651100,11.013651123046875,0.5145263671875,0.70831298828125,1.054534912109375
1695393218404203000,11.023203125,0.52734375,0.7171630859375,1.486663818359375
1695393218413755100,11.032755126953125,0.5181884765625,0.777587890625,1.903533935546875
1695393218423307000,11.04230712890625,0.4901123046875,0.893707275390625,2.248382568359375
1695393218432859100,11.051859130859375,0.42877197265625,1.01806640625,2.421875
1695393218442380500,11.061380615234375,0.316619873046875,1.12579345703125,2.30072021484375
1695393218451963100,11.070963134765625,0.16815185546875,1.15692138671875,1.828155517578125
1695393218461515000,11.080514892578124,0.06622314453125,0.985260009765625,1.096649169921875
1695393218471067100,11.090067138671875,0.06103515625,0.646514892578125,0.124053955078125
1695393218480588500,11.099588623046875,0.081787109375,0.590972900390625,-1.040191650390625
1695393218490140400,11.109140380859374,0.032196044921875,0.8056640625,-2.000274658203125
1695393218499692500,11.118692626953125,0.028839111328125,0.540008544921875,-2.2088623046875
1695393218509244400,11.128244384765624,0.13946533203125,-0.039520263671875,-1.789398193359375
1695393218518796500,11.137796630859375,0.274200439453125,-0.486602783203125,-1.20819091796875
1695393218528318000,11.14731787109375,0.279693603515625,-0.62103271484375,-0.737762451171875
1695393218537870000,11.1568701171875,0.17669677734375,-0.34576416015625,-0.5181884765625
1695393218547422000,11.166421875,0.030975341796875,0.174713134765625,-0.50628662109375
1695393218556974000,11.17597412109375,-0.245361328125,0.7623291015625,-0.439453125
1695393218566495500,11.18549560546875,-0.770416259765625,1.220245361328125,-0.05096435546875
1695393218576047600,11.195047607421875,-1.2744140625,1.04217529296875,0.61676025390625
1695393218585599500,11.204599609375,-1.031646728515625,-0.213165283203125,0.94757080078125
1695393218595151600,11.214151611328125,-0.069427490234375,-1.262969970703125,0.705718994140625
1695393218604673000,11.223673095703125,0.565185546875,-0.823516845703125,-0.013275146484375
1695393218614225000,11.233224853515624,1.010589599609375,-0.2972412109375,-0.016021728515625
1695393218623777000,11.242777099609375,1.1712646484375,-0.640869140625,1.157989501953125
1695393218633329000,11.252328857421874,0.84686279296875,-0.66864013671875,2.254486083984375
1695393218642881000,11.261881103515625,0.22216796875,-0.457305908203125,2.43255615234375
1695393218652402400,11.27140234375,-0.25970458984375,-0.66192626953125,1.76239013671875
1695393218661954600,11.28095458984375,-0.648193359375,-0.883026123046875,1.497650146484375
1695393218671506400,11.29050634765625,-0.841522216796875,-0.553741455078125,1.968994140625
1695393218681058600,11.30005859375,-0.682830810546875,-0.201263427734375,2.610626220703125
1695393218690580000,11.309580078125,-0.2862548828125,-0.462188720703125,2.78564453125
1695393218700132000,11.319132080078125,0.21331787109375,-1.07635498046875,2.293548583984375
1695393218709684000,11.32868408203125,0.607757568359375,-1.262664794921875,1.6741943359375
1695393218719236000,11.338236083984375,0.667266845703125,-0.883026123046875,1.3458251953125
1695393218728788000,11.3477880859375,0.47454833984375,-0.38543701171875,1.324462890625
1695393218738340000,11.357340087890625,0.231781005859375,-0.02838134765625,1.514434814453125
1695393218747892000,11.36689208984375,0.020294189453125,0.09674072265625,1.7523193359375
1695393218757444000,11.376444091796875,-0.15777587890625,-0.180511474609375,1.904144287109375
1695393218766996000,11.385995849609374,-0.2874755859375,-0.532684326171875,1.99859619140625
1695393218776517400,11.395517333984374,-0.332183837890625,-0.775604248046875,2.07244873046875
1695393218786069500,11.405069580078125,-0.2813720703125,-0.815887451171875,2.0965576171875
1695393218795621400,11.414621337890624,-0.1715087890625,-0.628662109375,2.0037841796875
1695393218805173500,11.424173583984375,-0.058441162109375,-0.3765869140625,1.775054931640625
1695393218814725400,11.433725341796874,-0.021209716796875,-0.128631591796875,1.481781005859375
1695393218824247000,11.4432470703125,-0.068817138671875,0.10955810546875,1.23504638671875
1695393218833799000,11.452798828125,-0.14007568359375,0.33599853515625,1.102752685546875
1695393218843351000,11.46235107421875,-0.19378662109375,0.4339599609375,1.103057861328125
1695393218852903000,11.47190283203125,-0.19683837890625,0.37261962890625,1.194915771484375
1695393218862424600,11.481424560546875,-0.20111083984375,0.194854736328125,1.2890625
1695393218871976400,11.4909765625,-0.213623046875,-0.001220703125,1.35711669921875
1695393218881528600,11.500528564453125,-0.22186279296875,-0.177154541015625,1.38671875
1695393218891080400,11.51008056640625,-0.23101806640625,-0.27099609375,1.35711669921875
1695393218900632600,11.519632568359375,-0.24078369140625,-0.26336669921875,1.30157470703125
1695393218910154000,11.529154052734375,-0.26092529296875,-0.25543212890625,1.2353515625
1695393218919705900,11.538705810546874,-0.29937744140625,-0.26336669921875,1.201934814453125
1695393218929258000,11.548258056640625,-0.347747802734375,-0.30303955078125,1.197662353515625
1695393218938809900,11.557809814453124,-0.394134521484375,-0.3955078125,1.206512451171875
1695393218948331500,11.56733154296875,-0.427093505859375,-0.502166748046875,1.22772216796875
1695393218957883400,11.57688330078125,-0.443878173828125,-0.5889892578125,1.23382568359375
1695393218967435500,11.586435546875,-0.448760986328125,-0.654296875,1.195220947265625
1695393218976987400,11.5959873046875,-0.449371337890625,-0.69915771484375,1.121063232421875
1695393218986509000,11.605509033203125,-0.440521240234375,-0.7135009765625,1.03515625
1695393218996061000,11.61506103515625,-0.413360595703125,-0.70281982421875,0.94573974609375
1695393219005613000,11.624613037109375,-0.370635986328125,-0.660400390625,0.823822021484375
1695393219015165000,11.6341650390625,-0.334930419921875,-0.550994873046875,0.681304931640625
1695393219024747500,11.64374755859375,-0.307159423828125,-0.39215087890625,0.540771484375
1695393219034269000,11.65326904296875,-0.28778076171875,-0.2978515625,0.435943603515625
1695393219043821000,11.662821044921875,-0.2825927734375,-0.318603515625,0.380401611328125
1695393219053373000,11.672373046875,-0.28106689453125,-0.3857421875,0.352630615234375
1695393219062925000,11.681925048828125,-0.286865234375,-0.406341552734375,0.30242919921875
1695393219072446500,11.691446533203125,-0.28839111328125,-0.382080078125,0.21148681640625
1695393219081998300,11.700998291015624,-0.2734375,-0.38299560546875,0.088958740234375
1695393219091550500,11.710550537109375,-0.25146484375,-0.459136962890625,-0.06378173828125
1695393219101102300,11.720102294921874,-0.2069091796875,-0.554962158203125,-0.247344970703125
1695393219110654500,11.729654541015625,-0.103607177734375,-0.528411865234375,-0.460205078125
1695393219120175900,11.73917578125,0.025482177734375,-0.3851318359375,-0.713653564453125
1695393219129728000,11.74872802734375,0.11993408203125,-0.227508544921875,-1.016693115234375
1695393219139280000,11.75827978515625,0.1605224609375,-0.092010498046875,-1.362457275390625
1695393219148832000,11.76783203125,0.1953125,-0.00762939453125,-1.717987060546875
1695393219158353400,11.777353515625,0.250396728515625,0.02105712890625,-2.052154541015625
1695393219167905500,11.786905517578125,0.316314697265625,-0.058135986328125,-2.3565673828125
1695393219177457400,11.79645751953125,0.382843017578125,-0.32684326171875,-2.620849609375
1695393219187009500,11.806009521484375,0.45166015625,-0.71044921875,-2.814483642578125
1695393219196561400,11.8155615234375,0.49530029296875,-1.0797119140625,-2.9315185546875
1695393219206082800,11.825082763671874,0.49957275390625,-1.3372802734375,-2.99072265625
1695393219215635000,11.834635009765625,0.4193115234375,-1.508636474609375,-2.9803466796875
1695393219225186800,11.844186767578124,0.223846435546875,-1.621551513671875,-2.873382568359375
1695393219234739000,11.853739013671875,-0.062408447265625,-1.70379638671875,-2.66571044921875
1695393219244260400,11.86326025390625,-0.25146484375,-1.7608642578125,-2.379913330078125
1695393219253812500,11.8728125,-0.2545166015625,-1.7645263671875,-2.135467529296875
1695393219263364400,11.8823642578125,-0.115203857421875,-1.568450927734375,-1.98638916015625
1695393219272916500,11.89191650390625,0.021209716796875,-1.01776123046875,-1.91314697265625
1695393219282468400,11.90146826171875,0.0592041015625,-0.30609130859375,-1.9378662109375
1695393219291990000,11.910989990234375,0.008697509765625,0.3753662109375,-2.009735107421875
1695393219301542000,11.9205419921875,0.050048828125,0.994720458984375,-2.067108154296875
1695393219311124500,11.93012451171875,0.19134521484375,1.484375,-2.21832275390625
1695393219320676400,11.93967626953125,0.348968505859375,1.584625244140625,-2.456207275390625
1695393219330198000,11.949197998046875,0.4290771484375,1.40594482421875,-2.701416015625
1695393219339750000,11.95875,0.45654296875,1.208953857421875,-2.837371826171875
1695393219349302000,11.968302001953125,0.4595947265625,1.02783203125,-2.835540771484375
1695393219358854000,11.97785400390625,0.44525146484375,0.887908935546875,-2.70721435546875
1695393219368406000,11.987406005859375,0.43243408203125,0.78521728515625,-2.458953857421875
1695393219377927400,11.996927490234375,0.4315185546875,0.7257080078125,-2.100982666015625
1695393219387479300,12.006479248046874,0.43548583984375,0.7623291015625,-1.688079833984375
1695393219397031400,12.016031494140625,0.44158935546875,0.8416748046875,-1.299896240234375
1695393219406583300,12.025583251953124,0.4412841796875,0.899200439453125,-1.016082763671875
1695393219416105000,12.03510498046875,0.43365478515625,0.952606201171875,-0.88134765625
1695393219425656800,12.04465673828125,0.42755126953125,0.994720458984375,-0.8453369140625
1695393219435209000,12.054208984375,0.4296875,0.978546142578125,-0.82305908203125
1695393219444760800,12.0637607421875,0.4449462890625,0.884857177734375,-0.738372802734375
1695393219454282500,12.073282470703125,0.46783447265625,0.74737548828125,-0.546875
1695393219463834400,12.08283447265625,0.479736328125,0.611114501953125,-0.228729248046875
1695393219473386500,12.092386474609375,0.46539306640625,0.500030517578125,0.19622802734375
1695393219482938400,12.1019384765625,0.4388427734375,0.42266845703125,0.678558349609375
1695393219492490500,12.111490478515625,0.42266845703125,0.34515380859375,1.132659912109375
1695393219502012000,12.121011962890625,0.4107666015625,0.260162353515625,1.517791748046875
1695393219511563800,12.130563720703124,0.359954833984375,0.200653076171875,1.814117431640625
1695393219521116000,12.140115966796875,0.292816162109375,0.181427001953125,2.00958251953125
1695393219530667800,12.149667724609374,0.235137939453125,0.171966552734375,2.0623779296875
1695393219540189400,12.159189453125,0.17608642578125,0.124053955078125,1.909942626953125
1695393219549741300,12.1687412109375,0.09735107421875,0.01739501953125,1.533050537109375
1695393219559293400,12.17829345703125,0.006256103515625,-0.097808837890625,1.00616455078125
1695393219568845300,12.18784521484375,-0.034637451171875,-0.056610107421875,0.440826416015625
1695393219578397400,12.1973974609375,0.018463134765625,0.216827392578125,-0.12603759765625
1695393219587918800,12.2069189453125,0.07537841796875,0.492706298828125,-0.682830810546875
1695393219597501400,12.21650146484375,0.14251708984375,0.583648681640625,-1.123046875
1695393219607053300,12.22605322265625,0.248565673828125,0.4632568359375,-1.305084228515625
1695393219616605400,12.23560546875,0.346221923828125,0.193023681640625,-1.20849609375
1695393219626126800,12.245126953125,0.391387939453125,-0.091705322265625,-0.90118408203125
1695393219635679000,12.254678955078125,0.41229248046875,-0.3094482421875,-0.41839599609375
1695393219645230800,12.26423095703125,0.279083251953125,-0.015869140625,-0.103759765625
1695393219654783000,12.273782958984375,0.15045166015625,0.290985107421875,0.068206787109375
1695393219664334800,12.2833349609375,0.1953125,0.41351318359375,0.22613525390625
1695393219673856300,12.292856201171874,0.236663818359375,0.586090087890625,0.383148193359375
1695393219683408400,12.302408447265625,0.10986328125,0.77911376953125,0.5078125
1695393219692960300,12.311960205078124,-0.20111083984375,0.908966064453125,0.736236572265625
1695393219702512400,12.321512451171875,-0.460052490234375,0.561370849609375,1.133270263671875
1695393219712033800,12.33103369140625,-0.336761474609375,-0.497283935546875,1.2249755859375
1695393219721586000,12.3405859375,-0.041961669921875,-1.41510009765625,0.56365966796875
1695393219731137800,12.3501376953125,0.345916748046875,-1.0943603515625,-0.373687744140625
1695393219740690000,12.35968994140625,0.765380859375,-0.127716064453125,-0.4827880859375
1695393219750241800,12.36924169921875,0.9063720703125,-0.160064697265625,0.357513427734375
1695393219759763200,12.37876318359375,0.676116943359375,-0.185089111328125,1.176910400390625
1695393219769315300,12.3883154296875,0.222930908203125,0.084228515625,1.3201904296875
1695393219778867500,12.397867431640625,-0.123291015625,0.115966796875,0.66192626953125
1695393219788419300,12.40741943359375,-0.469818115234375,-0.493011474609375,0.196533203125
1695393219797940700,12.416940673828124,-0.845947265625,-0.793914794921875,0.756683349609375
1695393219807492900,12.426492919921875,-1.034088134765625,-0.502777099609375,2.02545166015625
1695393219817044700,12.436044677734374,-0.744171142578125,-0.39825439453125,3.09600830078125
1695393219826596900,12.445596923828125,-0.020599365234375,-1.06231689453125,3.13018798828125
1695393219836148700,12.455148681640624,0.52886962890625,-1.933135986328125,2.194671630859375
1695393219845670400,12.46467041015625,0.58074951171875,-1.885833740234375,1.29669189453125
1695393219855222300,12.47422216796875,0.4730224609375,-1.07574462890625,0.892333984375
1695393219864774400,12.4837744140625,0.352325439453125,-0.3240966796875,1.01898193359375
1695393219874326300,12.493326171875,0.221099853515625,-0.139007568359375,1.421356201171875
1695393219883878400,12.50287841796875,0.10162353515625,-0.33905029296875,1.786651611328125
1695393219893430300,12.51243017578125,-0.076751708984375,-0.807342529296875,1.924285888671875
1695393219902982400,12.521982421875,-0.2569580078125,-1.263580322265625,1.863250732421875
1695393219912534300,12.5315341796875,-0.360870361328125,-1.45782470703125,1.73431396484375
1695393219922055700,12.5410556640625,-0.370025634765625,-1.3909912109375,1.63604736328125
1695393219931607800,12.55060791015625,-0.294036865234375,-1.154937744140625,1.619873046875
1695393219941160000,12.560159912109375,-0.198974609375,-1.01165771484375,1.6156005859375
1695393219950711800,12.5697119140625,-0.12237548828125,-0.99700927734375,1.556243896484375
1695393219960264000,12.579263916015625,-0.097198486328125,-0.953369140625,1.422576904296875
1695393219969785300,12.588785400390625,-0.1116943359375,-0.807647705078125,1.2603759765625
1695393219979337200,12.598337158203124,-0.14556884765625,-0.6048583984375,1.137847900390625
1695393219988889300,12.607889404296875,-0.17669677734375,-0.484161376953125,1.098480224609375
1695393219998441200,12.617441162109374,-0.17547607421875,-0.572662353515625,1.124725341796875
1695393220007963000,12.626962890625,-0.15838623046875,-0.801544189453125,1.182098388671875
1695393220017514800,12.6365146484375,-0.166015625,-0.97900390625,1.24755859375
1695393220027067000,12.64606689453125,-0.19744873046875,-1.03668212890625,1.3140869140625
1695393220036618800,12.65561865234375,-0.2435302734375,-0.975341796875,1.35467529296875
1695393220046171000,12.6651708984375,-0.27923583984375,-1.04583740234375,1.3330078125
1695393220055692300,12.6746923828125,-0.27984619140625,-1.299896240234375,1.27166748046875
1695393220065244200,12.684244140625,-0.274658203125,-1.48040771484375,1.191864013671875
1695393220074796300,12.69379638671875,-0.287322998046875,-1.4703369140625,1.121368408203125
1695393220084348400,12.703348388671875,-0.320281982421875,-1.35498046875,1.085052490234375
1695393220093869800,12.712869873046875,-0.355377197265625,-1.223907470703125,1.053619384765625
1695393220103421700,12.722421630859374,-0.386199951171875,-1.225738525390625,1.00341796875
1695393220112973800,12.731973876953125,-0.424957275390625,-1.33148193359375,0.92864990234375
1695393220122525700,12.741525634765624,-0.46173095703125,-1.43096923828125,0.845489501953125
1695393220132077800,12.751077880859375,-0.46539306640625,-1.495208740234375,0.782318115234375
1695393220141599200,12.76059912109375,-0.430755615234375,-1.517181396484375,0.725860595703125
1695393220151151400,12.7701513671875,-0.389862060546875,-1.553497314453125,0.6634521484375
1695393220160703200,12.779703125,-0.348663330078125,-1.604766845703125,0.601806640625
1695393220170285800,12.789285888671875,-0.307159423828125,-1.6729736328125,0.5523681640625
1695393220179807200,12.79880712890625,-0.27374267578125,-1.81427001953125,0.51177978515625
1695393220189359400,12.808359375,-0.24169921875,-2.002105712890625,0.473785400390625
1695393220198911200,12.8179111328125,-0.2337646484375,-2.277984619140625,0.416717529296875
1695393220208463400,12.82746337890625,-0.24322509765625,-2.48046875,0.370941162109375
1695393220218015200,12.83701513671875,-0.22491455078125,-2.515869140625,0.353240966796875
1695393220227536600,12.84653662109375,-0.14007568359375,-2.358551025390625,0.283203125
1695393220237088800,12.8560888671875,-0.035858154296875,-2.0599365234375,0.1513671875
1695393220246641000,12.865640869140625,0.051727294921875,-1.75262451171875,0.033721923828125
1695393220256192800,12.87519287109375,0.15533447265625,-1.497344970703125,-0.0439453125
1695393220265714200,12.884714111328124,0.16754150390625,-1.302032470703125,-0.107421875
1695393220275266300,12.894266357421875,0.1220703125,-1.244659423828125,-0.16448974609375
1695393220284818200,12.903818115234374,0.126953125,-1.43157958984375,-0.205841064453125
1695393220294370300,12.913370361328125,0.14068603515625,-1.83837890625,-0.234832763671875
1695393220303922200,12.922922119140624,0.061492919921875,-2.338409423828125,-0.225982666015625
1695393220313443800,12.93244384765625,-0.12420654296875,-2.7532958984375,-0.200347900390625
1695393220322995700,12.94199560546875,-0.326690673828125,-3.060760498046875,-0.12420654296875
1695393220332547800,12.9515478515625,-0.50567626953125,-3.324127197265625,0.079498291015625
1695393220342099700,12.961099609375,-0.678253173828125,-3.53057861328125,0.350799560546875
1695393220351621000,12.97062109375,-0.84625244140625,-3.651885986328125,0.5615234375
1695393220361173200,12.98017333984375,-0.97259521484375,-3.649444580078125,0.63232421875
1695393220370725000,12.98972509765625,-1.040191650390625,-3.52081298828125,0.55999755859375
1695393220380277200,12.99927734375,-1.047515869140625,-3.315887451171875,0.437164306640625
