time,seconds_elapsed,z,y,x
1695712566052003000,0.175003173828125,0.733489990234375,-1.80389404296875,-3.709869384765625
1695712566061555200,0.18455517578125,0.712432861328125,-2.278594970703125,-3.4906005859375
1695712566071076600,0.19407666015625,0.780029296875,-2.8582763671875,-2.996368408203125
1695712566080598000,0.203597900390625,0.83038330078125,-3.453216552734375,-2.273406982421875
1695712566090150100,0.213150146484375,0.677642822265625,-2.979278564453125,-1.2451171875
1695712566099702000,0.222701904296875,0.14556884765625,-1.639556884765625,-0.30059814453125
1695712566109254100,0.232254150390625,-0.572509765625,-1.661529541015625,0.184326171875
1695712566118806000,0.241805908203125,-1.075897216796875,-1.597442626953125,0.593414306640625
1695712566128327700,0.25132763671875,-1.29302978515625,-1.84356689453125,0.8819580078125
1695712566137879600,0.260879638671875,-1.29150390625,-2.027130126953125,1.11846923828125
1695712566147431700,0.270431640625,-1.158905029296875,-2.028350830078125,1.303253173828125
1695712566156983600,0.279983642578125,-0.97686767578125,-2.281646728515625,1.443634033203125
1695712566166535700,0.28953564453125,-0.800018310546875,-2.8045654296875,1.5618896484375
1695712566176087600,0.299087646484375,-0.698699951171875,-3.319244384765625,1.669158935546875
1695712566185639700,0.3086396484375,-0.690155029296875,-3.752899169921875,1.736297607421875
1695712566195191600,0.318191650390625,-0.744781494140625,-4.036712646484375,1.759796142578125
1695712566204713000,0.327712890625,-0.821380615234375,-3.955078125,1.723480224609375
1695712566214265000,0.33726513671875,-0.8917236328125,-3.57757568359375,1.6278076171875
1695712566223817000,0.34681689453125,-0.97503662109375,-3.054656982421875,1.49932861328125
1695712566233369000,0.356369140625,-1.103973388671875,-2.51129150390625,1.342010498046875
1695712566242890500,0.365890380859375,-1.263427734375,-2.05902099609375,1.16058349609375
1695712566252442600,0.375442626953125,-1.441802978515625,-1.7022705078125,0.960540771484375
1695712566261994500,0.384994384765625,-1.6015625,-1.49139404296875,0.7696533203125
1695712566271546600,0.394546630859375,-1.700439453125,-1.37451171875,0.601959228515625
1695712566281098500,0.404098388671875,-1.70135498046875,-1.199188232421875,0.40771484375
1695712566290620200,0.4136201171875,-1.6180419921875,-1.166534423828125,0.272674560546875
1695712566300172000,0.423172119140625,-1.480865478515625,-1.148834228515625,0.213775634765625
1695712566309724200,0.43272412109375,-1.3079833984375,-1.07574462890625,0.19989013671875
1695712566319276000,0.442276123046875,-1.135406494140625,-0.948638916015625,0.220794677734375
1695712566328797400,0.45179736328125,-0.99639892578125,-0.770263671875,0.229644775390625
1695712566338349600,0.461349609375,-0.9002685546875,-0.61248779296875,0.17486572265625
1695712566347901400,0.4709013671875,-0.83740234375,-0.513763427734375,0.0531005859375
1695712566357453600,0.48045361328125,-0.794219970703125,-0.445098876953125,-0.114593505859375
1695712566366975000,0.48997509765625,-0.757598876953125,-0.3692626953125,-0.29998779296875
1695712566376527000,0.499527099609375,-0.54351806640625,-0.41046142578125,-0.442047119140625
1695712566386079000,0.509078857421875,-0.024566650390625,-0.4254150390625,-0.484771728515625
1695712566395631000,0.518631103515625,0.4254150390625,-0.2783203125,-0.465240478515625
1695712566405152500,0.528152587890625,0.54290771484375,-0.095367431640625,-0.473175048828125
1695712566414704600,0.53770458984375,0.45013427734375,0.081787109375,-0.50628662109375
1695712566424256500,0.547256591796875,0.343475341796875,0.205230712890625,-0.516357421875
1695712566433808600,0.55680859375,0.265655517578125,0.226593017578125,-0.483856201171875
1695712566443391000,0.566390869140625,0.22369384765625,0.203704833984375,-0.413055419921875
1695712566452912600,0.57591259765625,0.20843505859375,0.191497802734375,-0.30059814453125
1695712566462464500,0.585464599609375,0.18707275390625,0.194549560546875,-0.17059326171875
1695712566472016600,0.5950166015625,0.13427734375,0.202484130859375,-0.061798095703125
1695712566481568500,0.604568603515625,0.07659912109375,0.202789306640625,0.013275146484375
1695712566491090000,0.61408984375,0.029449462890625,0.200958251953125,0.054931640625
1695712566500642000,0.62364208984375,-0.009613037109375,0.218353271484375,0.032501220703125
1695712566510194000,0.63319384765625,-0.103607177734375,0.218048095703125,-0.054779052734375
1695712566519746000,0.64274609375,-0.14892578125,0.251922607421875,-0.15380859375
1695712566529267500,0.652267333984375,-0.1495361328125,0.4437255859375,-0.25604248046875
1695712566538819600,0.661819580078125,-0.094146728515625,0.561370849609375,-0.308837890625
1695712566548371500,0.671371337890625,0.018768310546875,0.592803955078125,-0.2520751953125
1695712566557923600,0.680923583984375,0.12542724609375,0.64849853515625,-0.126495361328125
1695712566567475500,0.690475341796875,0.19012451171875,0.630950927734375,-0.001068115234375
1695712566576997000,0.6999970703125,0.208740234375,0.481109619140625,0.0933837890625
1695712566586549000,0.709549072265625,0.1776123046875,0.303955078125,0.15960693359375
1695712566596101000,0.71910107421875,0.12420654296875,0.137481689453125,0.18341064453125
1695712566605653000,0.728653076171875,0.089111328125,-0.03631591796875,0.130615234375
1695712566615174400,0.73817431640625,0.0860595703125,-0.133209228515625,0.04150390625
1695712566624726500,0.7477265625,0.09185791015625,-0.091705322265625,-0.039215087890625
1695712566634278400,0.7572783203125,0.0885009765625,0.048828125,-0.092926025390625
1695712566643830500,0.76683056640625,0.07354736328125,0.222320556640625,-0.108489990234375
1695712566653352000,0.77635205078125,0.0653076171875,0.41168212890625,-0.086517333984375
1695712566662904000,0.785904052734375,0.07232666015625,0.564727783203125,-0.060882568359375
1695712566672456000,0.7954560546875,0.0701904296875,0.618133544921875,-0.070343017578125
1695712566682008000,0.805008056640625,0.08270263671875,0.537567138671875,-0.13641357421875
1695712566691529500,0.814529541015625,0.08392333984375,0.338134765625,-0.19866943359375
1695712566701081300,0.824081298828125,0.07568359375,-0.00762939453125,-0.22674560546875
1695712566710633500,0.833633544921875,0.06927490234375,-0.430450439453125,-0.1666259765625
1695712566720185300,0.843185302734375,0.07781982421875,-0.796661376953125,-0.026092529296875
1695712566729768000,0.852767822265625,0.10345458984375,-1.01287841796875,0.11810302734375
1695712566739289600,0.86228955078125,0.14190673828125,-1.109619140625,0.2105712890625
1695712566748841500,0.871841552734375,0.1971435546875,-1.145782470703125,0.198974609375
1695712566758393600,0.8813935546875,0.22979736328125,-0.950775146484375,0.05462646484375
1695712566767945500,0.890945556640625,0.252838134765625,-0.437774658203125,-0.18524169921875
1695712566777467000,0.900466796875,0.275726318359375,0.193634033203125,-0.426483154296875
1695712566787019000,0.91001904296875,0.310821533203125,0.72235107421875,-0.5804443359375
1695712566796571000,0.91957080078125,0.352935791015625,1.03424072265625,-0.6121826171875
1695712566806123000,0.929123046875,0.400848388671875,1.03729248046875,-0.55084228515625
1695712566815644400,0.93864453125,0.52978515625,0.6561279296875,-0.471649169921875
1695712566825196500,0.948196533203125,0.643768310546875,0.117340087890625,-0.3021240234375
1695712566834748400,0.95774853515625,0.675506591796875,-0.520477294921875,-0.064239501953125
1695712566844300500,0.967300537109375,0.681304931640625,-1.211700439453125,0.2093505859375
1695712566853852400,0.976852294921875,0.749053955078125,-1.85150146484375,0.4949951171875
1695712566863373800,0.986373779296875,0.89508056640625,-2.349395751953125,0.747528076171875
1695712566872926000,0.995926025390625,1.105804443359375,-2.646942138671875,0.92864990234375
1695712566882478000,1.00547802734375,1.23077392578125,-2.728424072265625,1.007232666015625
1695712566892030000,1.015030029296875,1.19232177734375,-2.655487060546875,0.958099365234375
1695712566901551400,1.02455126953125,1.091766357421875,-2.57049560546875,0.816650390625
1695712566911103500,1.034103515625,1.012420654296875,-2.5115966796875,0.616607666015625
1695712566920655400,1.0436552734375,0.999908447265625,-2.308197021484375,0.4046630859375
1695712566930207500,1.05320751953125,1.114959716796875,-1.991119384765625,0.216217041015625
1695712566939729000,1.06272900390625,1.317596435546875,-1.68914794921875,0.07659912109375
1695712566949281000,1.072281005859375,1.441802978515625,-1.282196044921875,-0.068206787109375
1695712566958833000,1.0818330078125,1.401824951171875,-0.797271728515625,-0.27435302734375
1695712566968385000,1.091385009765625,1.27593994140625,-0.3729248046875,-0.52032470703125
1695712566977906400,1.100906494140625,1.128082275390625,-0.139007568359375,-0.717926025390625
1695712566987458300,1.110458251953125,1.010894775390625,-0.152740478515625,-0.854339599609375
1695712566997010400,1.120010498046875,0.92620849609375,-0.403900146484375,-0.89141845703125
1695712567006562300,1.129562255859375,0.91156005859375,-0.75531005859375,-0.796051025390625
1695712567016145000,1.139144775390625,0.987396240234375,-1.02752685546875,-0.54595947265625
1695712567025666300,1.148666259765625,1.070404052734375,-1.157684326171875,-0.2606201171875
1695712567035218400,1.158218505859375,1.127471923828125,-1.187896728515625,-0.026397705078125
1695712567044770300,1.167770263671875,1.2066650390625,-1.185455322265625,0.18585205078125
1695712567054322400,1.177322509765625,1.280517578125,-1.227874755859375,0.355682373046875
1695712567063843800,1.18684375,1.345062255859375,-1.272735595703125,0.40496826171875
1695712567073396000,1.19639599609375,1.428680419921875,-1.244659423828125,0.335235595703125
1695712567082947800,1.20594775390625,1.52191162109375,-1.193389892578125,0.244598388671875
1695712567092500000,1.2155,1.64520263671875,-1.208648681640625,0.218963623046875
1695712567102021400,1.225021484375,1.860198974609375,-1.3580322265625,0.315704345703125
1695712567111573500,1.234573486328125,2.181549072265625,-1.7095947265625,0.615997314453125
1695712567121125400,1.24412548828125,2.58056640625,-2.299041748046875,1.19293212890625
1695712567130677500,1.253677490234375,3.01849365234375,-3.1011962890625,2.032012939453125
1695712567140199000,1.263198974609375,3.500823974609375,-3.96881103515625,3.038330078125
1695712567149750800,1.272750732421875,4.0545654296875,-4.64935302734375,4.0142822265625
1695712567159303000,1.282302978515625,4.608306884765625,-5.01617431640625,4.754638671875
1695712567168854800,1.291854736328125,5.0958251953125,-5.06683349609375,5.1422119140625
1695712567178407000,1.301406982421875,5.47454833984375,-4.872283935546875,5.16693115234375
1695712567187928300,1.31092822265625,5.699005126953125,-4.57061767578125,4.941558837890625
1695712567197480400,1.32048046875,5.93109130859375,-4.118804931640625,4.7802734375
1695712567207032300,1.3300322265625,5.61004638671875,-3.741607666015625,4.607391357421875
1695712567216584400,1.33958447265625,4.954681396484375,-3.317108154296875,4.4677734375
1695712567226105900,1.34910595703125,4.346466064453125,-2.8350830078125,4.44061279296875
1695712567235658000,1.358657958984375,3.942718505859375,-2.427978515625,4.4915771484375
1695712567245209900,1.3682099609375,3.71337890625,-2.05322265625,4.579925537109375
1695712567254762000,1.377761962890625,3.543548583984375,-1.71417236328125,4.657440185546875
1695712567264283400,1.387283447265625,3.38623046875,-1.41693115234375,4.70550537109375
1695712567273835300,1.396835205078125,3.227386474609375,-1.181488037109375,4.7149658203125
1695712567283387400,1.406387451171875,3.10516357421875,-0.99395751953125,4.70550537109375
1695712567292939300,1.415939208984375,3.056640625,-0.9844970703125,4.68902587890625
1695712567302491400,1.425491455078125,2.989501953125,-1.171417236328125,4.635162353515625
1695712567312043300,1.435043212890625,2.857818603515625,-1.42730712890625,4.532012939453125
1695712567321595400,1.444595458984375,2.67181396484375,-1.68426513671875,4.38568115234375
1695712567331147300,1.454147216796875,2.477874755859375,-1.81182861328125,4.214019775390625
1695712567340699400,1.463699462890625,2.34222412109375,-1.69342041015625,4.01397705078125
1695712567350220800,1.473220703125,2.216796875,-1.33087158203125,3.810577392578125
1695712567359773000,1.48277294921875,2.091522216796875,-1.00006103515625,3.67156982421875
1695712567369324800,1.49232470703125,1.91436767578125,-2.584075927734375,3.163909912109375
1695712567378877000,1.501876953125,1.23291015625,-9.141998291015625,0.030517578125
1695712567388398300,1.5113984375,1.497650146484375,-9.210205078125,-0.255126953125
1695712567397950500,1.520950439453125,1.392669677734375,-3.9031982421875,2.1783447265625
1695712567407502300,1.53050244140625,1.754302978515625,-0.919647216796875,1.795806884765625
1695712567417054500,1.540054443359375,2.783660888671875,0.640411376953125,0.622100830078125
1695712567426576000,1.549575927734375,3.77349853515625,1.43798828125,-0.14801025390625
1695712567436127700,1.559127685546875,4.15130615234375,1.719512939453125,-0.62103271484375
1695712567445679900,1.568679931640625,3.536224365234375,1.53778076171875,-0.955810546875
1695712567455231700,1.578231689453125,2.485809326171875,0.942840576171875,-1.04034423828125
1695712567464784000,1.587783935546875,1.617431640625,0.269927978515625,-0.784759521484375
1695712567474305300,1.59730517578125,1.258544921875,-0.2984619140625,-0.353546142578125
1695712567483857400,1.606857421875,1.17401123046875,-0.70465087890625,0.011749267578125
1695712567493409300,1.6164091796875,1.18377685546875,-1.041259765625,0.184326171875
1695712567502961400,1.62596142578125,1.382598876953125,-1.380615234375,0.16510009765625
1695712567512482800,1.63548291015625,1.5802001953125,-1.7413330078125,0.000762939453125
1695712567522035000,1.645034912109375,1.63421630859375,-2.17010498046875,-0.2294921875
1695712567531586800,1.6545869140625,1.62567138671875,-2.302398681640625,-0.30914306640625
1695712567541139000,1.664138916015625,1.9805908203125,-2.210235595703125,-0.24658203125
1695712567550660400,1.673660400390625,2.7398681640625,-1.33880615234375,-0.2349853515625
1695712567560212200,1.683212158203125,2.905120849609375,-0.63568115234375,-0.416412353515625
1695712567569764400,1.692764404296875,2.420806884765625,0.566864013671875,-1.118316650390625
1695712567579316200,1.702316162109375,2.109832763671875,1.49169921875,-0.58807373046875
1695712567588868400,1.711868408203125,2.185821533203125,2.725067138671875,0.331268310546875
1695712567598420200,1.721420166015625,2.450103759765625,4.546966552734375,0.954132080078125
1695712567607972400,1.730972412109375,2.21466064453125,4.38568115234375,0.55328369140625
1695712567617524200,1.740524169921875,1.21917724609375,0.953826904296875,0.319671630859375
1695712567627076400,1.750076416015625,0.81695556640625,-1.641693115234375,1.349334716796875
1695712567636597800,1.75959765625,0.84136962890625,-2.82623291015625,2.370452880859375
1695712567646150000,1.76914990234375,0.976104736328125,-3.038177490234375,2.576904296875
1695712567655701800,1.77870166015625,1.21826171875,-3.231201171875,2.176513671875
1695712567665254000,1.78825390625,1.58447265625,-3.9459228515625,0.956268310546875
1695712567674775300,1.797775390625,1.768951416015625,-3.22662353515625,-0.327301025390625
1695712567684358000,1.80735791015625,1.91436767578125,-1.874542236328125,-0.6591796875
1695712567693971000,1.816970947265625,2.133026123046875,-0.9814453125,-0.465240478515625
1695712567703584000,1.826583984375,2.426605224609375,-0.788421630859375,-0.370635986328125
1695712567713197000,1.836197021484375,2.465667724609375,-0.74920654296875,-0.434417724609375
1695712567722809900,1.845809814453125,2.33428955078125,-0.61492919921875,-0.5535888671875
1695712567732423000,1.8554228515625,2.33642578125,-0.571746826171875,-0.732269287109375
1695712567742036000,1.865035888671875,2.461090087890625,-0.59295654296875,-0.8905029296875
1695712567751679500,1.874679443359375,2.584228515625,-0.68939208984375,-0.97686767578125
1695712567770173200,1.893173095703125,2.93060302734375,-1.218719482421875,-0.97503662109375
1695712567779725300,1.902725341796875,3.05267333984375,-1.508941650390625,-0.90301513671875
1695712567789308000,1.912307861328125,3.079833984375,-1.42822265625,-0.832672119140625
1695712567798859800,1.92185986328125,3.147125244140625,-1.0736083984375,-0.718841552734375
1695712567808412000,1.931411865234375,3.227996826171875,-0.69061279296875,-0.52978515625
1695712567817963800,1.9409638671875,3.215179443359375,-0.124969482421875,-0.29693603515625
1695712567827516000,1.950515869140625,2.867889404296875,0.237884521484375,-0.22308349609375
1695712567837037300,1.960037353515625,2.183074951171875,0.124969482421875,-0.24658203125
1695712567846589200,1.969589111328125,1.5679931640625,-0.343017578125,-0.30731201171875
1695712567856141300,1.979141357421875,1.16455078125,-1.04156494140625,-0.616455078125
1695712567865693200,1.988693115234375,0.754547119140625,-0.7135009765625,-0.5987548828125
1695712567875245300,1.998245361328125,0.238494873046875,-0.22979736328125,-0.21514892578125
1695712567884797200,2.007797119140625,-0.1849365234375,0.42205810546875,0.07049560546875
1695712567894349300,2.017349365234375,-0.25848388671875,0.652313232421875,0.16876220703125
1695712567903901200,2.026901123046875,-0.1202392578125,0.573272705078125,0.113525390625
1695712567913453300,2.036453369140625,-0.006561279296875,0.0823974609375,0.0537109375
1695712567922974700,2.045974609375,0.08087158203125,-0.04119873046875,0.09124755859375
1695712567932526800,2.05552685546875,0.12420654296875,0.04425048828125,0.11138916015625
1695712567942078700,2.06507861328125,0.1885986328125,0.245513916015625,0.216827392578125
1695712567951630800,2.074630859375,0.330963134765625,0.481414794921875,0.39093017578125
1695712567961152300,2.08415234375,0.49652099609375,0.583343505859375,0.48309326171875
1695712567970704400,2.093704345703125,0.663909912109375,0.643157958984375,0.404052734375
1695712567980256300,2.10325634765625,0.82305908203125,0.75592041015625,0.213775634765625
1695712567989808400,2.112808349609375,1.017608642578125,0.411376953125,-0.026397705078125
1695712567999329800,2.122329833984375,1.361541748046875,-0.522613525390625,-0.2362060546875
1695712568008881700,2.131881591796875,1.6412353515625,0.152740478515625,-0.413970947265625
1695712568018433800,2.141433837890625,1.801605224609375,0.156097412109375,-0.463104248046875
1695712568027985700,2.150985595703125,1.87652587890625,-0.134429931640625,-0.3131103515625
1695712568037537800,2.160537841796875,1.834259033203125,-0.527801513671875,-0.19927978515625
1695712568047059200,2.17005908203125,1.66412353515625,-1.0443115234375,-0.17791748046875
1695712568056611300,2.179611328125,1.352081298828125,-1.39404296875,-0.19500732421875
1695712568066163200,2.1891630859375,0.943603515625,-1.08551025390625,-0.22003173828125
1695712568075715300,2.19871533203125,0.49652099609375,-0.25634765625,-0.19805908203125
1695712568085236700,2.20823681640625,0.014190673828125,0.77880859375,-0.153350830078125
1695712568094788900,2.217788818359375,-0.262451171875,1.51611328125,-0.25543212890625
1695712568104340700,2.2273408203125,0.572509765625,0.4583740234375,-1.37054443359375
1695712568113892900,2.236892822265625,1.263427734375,-0.823516845703125,-1.408233642578125
1695712568123414300,2.246414306640625,1.324005126953125,-0.604248046875,-0.869598388671875
1695712568132966100,2.255966064453125,1.724395751953125,0.35614013671875,-0.730743408203125
1695712568142518300,2.265518310546875,2.145233154296875,1.03851318359375,-0.66864013671875
1695712568152070100,2.275070068359375,2.501983642578125,1.0540771484375,-0.57403564453125
1695712568161622300,2.284622314453125,2.795562744140625,0.7171630859375,-0.430145263671875
1695712568171174100,2.294174072265625,2.93243408203125,0.616912841796875,-0.2496337890625
1695712568180726300,2.303726318359375,2.859954833984375,0.587005615234375,-0.034027099609375
1695712568190278100,2.313278076171875,2.548370361328125,0.38238525390625,0.11199951171875
1695712568199830300,2.322830322265625,2.252197265625,0.601654052734375,-0.61065673828125
1695712568209351700,2.3323515625,1.9085693359375,0.987091064453125,-1.908721923828125
1695712568218903800,2.34190380859375,1.96136474609375,-0.171051025390625,-1.939849853515625
1695712568228455700,2.35145556640625,2.29736328125,-0.61431884765625,-0.90911865234375
1695712568238007800,2.3610078125,2.470245361328125,0.3839111328125,0.3753662109375
1695712568247529200,2.370529296875,2.30621337890625,1.573638916015625,1.408538818359375
1695712568257081300,2.380081298828125,1.65191650390625,2.5311279296875,1.367034912109375
1695712568266633200,2.38963330078125,1.1529541015625,2.296295166015625,1.325531005859375
1695712568276185300,2.399185302734375,0.674896240234375,1.083984375,0.675201416015625
1695712568285706800,2.408706787109375,0.14556884765625,-0.24322509765625,0.7989501953125
1695712568295258600,2.418258544921875,0.037994384765625,-1.011962890625,1.417694091796875
1695712568304810800,2.427810791015625,0.412750244140625,-1.236114501953125,1.966552734375
1695712568314362600,2.437362548828125,0.673675537109375,-1.06414794921875,2.24517822265625
1695712568323884300,2.44688427734375,0.345306396484375,-0.36285400390625,2.440338134765625
1695712568333436200,2.456436279296875,-0.107421875,0.597991943359375,2.34130859375
1695712568342988300,2.46598828125,-0.543212890625,1.252593994140625,1.93878173828125
1695712568352540200,2.4755400390625,-0.93109130859375,1.19171142578125,1.380157470703125
1695712568362092300,2.48509228515625,-1.202392578125,0.4583740234375,0.9088134765625
1695712568371613700,2.49461376953125,-1.30340576171875,-0.38330078125,0.76202392578125
1695712568381165600,2.50416552734375,-1.163482666015625,-0.879669189453125,0.81878662109375
1695712568390717700,2.5137177734375,-0.731048583984375,-0.99639892578125,0.8905029296875
1695712568400269800,2.523269775390625,0.032196044921875,-0.895233154296875,0.8172607421875
1695712568409791200,2.532791259765625,0.308380126953125,-0.553436279296875,0.671539306640625
1695712568419343000,2.542343017578125,0.14923095703125,-0.432891845703125,0.563201904296875
1695712568428895200,2.551895263671875,-0.064544677734375,-0.811309814453125,0.299835205078125
1695712568438447000,2.561447021484375,-0.235595703125,-0.2691650390625,0.672454833984375
1695712568447999200,2.570999267578125,-0.2374267578125,-0.31585693359375,0.8843994140625
1695712568457551000,2.580551025390625,-0.1727294921875,-0.437469482421875,0.76080322265625
1695712568467103200,2.590103271484375,-0.16387939453125,-0.465850830078125,0.584259033203125
1695712568476655000,2.599655029296875,-0.1629638671875,-0.447540283203125,0.48797607421875
1695712568486207200,2.609207275390625,-0.18341064453125,-0.459442138671875,0.4840087890625
1695712568495728600,2.618728759765625,-0.206298828125,-0.483245849609375,0.50567626953125
1695712568505280800,2.62828076171875,-0.23040771484375,-0.493621826171875,0.5157470703125
1695712568514832600,2.63783251953125,-0.26092529296875,-0.497894287109375,0.5316162109375
1695712568524384800,2.647384765625,-0.292510986328125,-0.519561767578125,0.54229736328125
1695712568533906200,2.65690625,-0.319366455078125,-0.535430908203125,0.53497314453125
1695712568543458300,2.666458251953125,-0.361785888671875,-0.528411865234375,0.528564453125
1695712568553010200,2.67601025390625,-0.410919189453125,-0.511016845703125,0.5316162109375
1695712568562562300,2.685562255859375,-0.45684814453125,-0.490264892578125,0.54290771484375
1695712568572083700,2.695083740234375,-0.48431396484375,-0.466156005859375,0.555877685546875
1695712568581635600,2.704635498046875,-0.4931640625,-0.446319580078125,0.558624267578125
1695712568591187700,2.714187744140625,-0.487060546875,-0.447845458984375,0.53802490234375
1695712568600739600,2.723739501953125,-0.4644775390625,-0.473785400390625,0.49163818359375
1695712568610261200,2.73326123046875,-0.430755615234375,-0.497589111328125,0.42022705078125
1695712568619813000,2.742813232421875,-0.380096435546875,-0.483245849609375,0.343780517578125
1695712568629365200,2.752365234375,-0.326080322265625,-0.447540283203125,0.291595458984375
1695712568638917000,2.761917236328125,-0.274505615234375,-0.40283203125,0.274200439453125
1695712568648469200,2.77146923828125,-0.260009765625,-0.3338623046875,0.270843505859375
1695712568657990700,2.78099072265625,-0.284271240234375,-0.218353271484375,0.253143310546875
1695712568667542500,2.79054248046875,-0.350494384765625,-0.079193115234375,0.238494873046875
1695712568677094700,2.8000947265625,-0.44677734375,0.02838134765625,0.238189697265625
1695712568686646500,2.809646484375,-0.5419921875,0.06256103515625,0.239410400390625
1695712568696168200,2.819168212890625,-0.6011962890625,-0.03997802734375,0.214996337890625
1695712568705720000,2.828719970703125,-0.59814453125,-0.255126953125,0.15594482421875
1695712568715272200,2.838272216796875,-0.5364990234375,-0.463409423828125,0.0750732421875
1695712568724824000,2.847823974609375,-0.46295166015625,-0.559234619140625,-0.004119873046875
1695712568734376200,2.857376220703125,-0.426483154296875,-0.537872314453125,-0.068511962890625
1695712568743928000,2.866927978515625,-0.404815673828125,-0.412139892578125,-0.114898681640625
1695712568753480200,2.876480224609375,-0.334320068359375,-0.22613525390625,-0.17852783203125
1695712568763032000,2.886031982421875,-0.22247314453125,-0.048065185546875,-0.28533935546875
1695712568772553700,2.8955537109375,-0.074310302734375,0.1116943359375,-0.403289794921875
1695712568782105600,2.905105712890625,0.0872802734375,0.289459228515625,-0.555419921875
1695712568791657700,2.91465771484375,0.258941650390625,0.44952392578125,-0.761260986328125
1695712568801209600,2.924209716796875,0.422821044921875,0.550689697265625,-1.0125732421875
1695712568810761700,2.93376171875,0.5322265625,0.580902099609375,-1.29425048828125
1695712568820283100,2.943283203125,0.6158447265625,0.541229248046875,-1.582489013671875
1695712568829835000,2.9528349609375,0.720672607421875,0.42083740234375,-1.872406005859375
1695712568839387100,2.96238720703125,0.806884765625,0.275726318359375,-2.135467529296875
1695712568848939000,2.97193896484375,0.8465576171875,0.186309814453125,-2.35504150390625
1695712568858460700,2.981460693359375,0.85357666015625,0.164642333984375,-2.525177001953125
1695712568868012500,2.991012451171875,0.80352783203125,0.169219970703125,-2.636871337890625
1695712568877564700,3.000564697265625,0.779571533203125,0.144195556640625,-2.6995849609375
1695712568887116500,3.010116455078125,0.721282958984375,0.243377685546875,-2.4658203125
1695712568896638200,3.01963818359375,0.646209716796875,0.167388916015625,-2.202911376953125
1695712568906190000,3.029190185546875,0.51177978515625,-0.433197021484375,-2.193145751953125
1695712568915742200,3.0387421875,0.51666259765625,-0.543670654296875,-2.03826904296875
1695712568925294000,3.048294189453125,0.53680419921875,-0.69793701171875,-1.878814697265625
1695712568934846200,3.05784619140625,0.368194580078125,-0.813140869140625,-1.766510009765625
1695712568944367600,3.06736767578125,0.284881591796875,-0.505218505859375,-1.6302490234375
1695712568953919500,3.07691943359375,0.086669921875,0.355224609375,-1.6278076171875
1695712568963471600,3.0864716796875,-0.174560546875,1.299896240234375,-1.6815185546875
1695712568973023500,3.0960234375,-0.17059326171875,1.8206787109375,-1.65863037109375
1695712568982545200,3.105545166015625,-0.14068603515625,1.81640625,-1.811676025390625
1695712568992097000,3.115096923828125,-0.329132080078125,1.42669677734375,-1.94854736328125
1695712569001649200,3.124649169921875,-0.367584228515625,0.529937744140625,-1.799468994140625
1695712569011201000,3.134200927734375,-0.216064453125,-0.580596923828125,-1.6455078125
1695712569020753200,3.143753173828125,-0.111083984375,-0.2935791015625,-1.23260498046875
1695712569030305000,3.153304931640625,0.002288818359375,-0.153656005859375,-0.958251953125
1695712569039857200,3.162857177734375,0.2294921875,-0.220489501953125,-0.736236572265625
1695712569049409000,3.172408935546875,0.386505126953125,-0.204620361328125,-0.60760498046875
1695712569058930700,3.1819306640625,0.484619140625,-0.110626220703125,-0.487823486328125
1695712569068482600,3.191482666015625,0.5230712890625,0.0872802734375,-0.349578857421875
1695712569078034700,3.20103466796875,0.49774169921875,0.3759765625,-0.23681640625
1695712569087586600,3.210586669921875,0.43060302734375,0.560150146484375,-0.16143798828125
1695712569097138700,3.220138671875,0.334320068359375,0.636444091796875,-0.070953369140625
1695712569106660000,3.22966015625,0.23101806640625,0.578460693359375,0.052490234375
1695712569116212000,3.2392119140625,0.1336669921875,0.45562744140625,0.19561767578125
1695712569125764000,3.24876416015625,0.050811767578125,0.33905029296875,0.366363525390625
1695712569135316000,3.25831591796875,-0.002288818359375,0.237274169921875,0.558013916015625
1695712569144837600,3.267837646484375,-0.044097900390625,0.173492431640625,0.74066162109375
1695712569154389500,3.277389404296875,-0.089263916015625,0.158233642578125,0.919342041015625
1695712569163941600,3.286941650390625,-0.133056640625,0.179595947265625,1.1199951171875
1695712569173493500,3.296493408203125,-0.18035888671875,0.222320556640625,1.340484619140625
1695712569183015200,3.30601513671875,-0.22735595703125,0.281219482421875,1.54449462890625
1695712569192567000,3.315567138671875,-0.23834228515625,0.33721923828125,1.703643798828125
1695712569202119200,3.325119140625,-0.20751953125,0.41351318359375,1.752166748046875
1695712569211671000,3.334671142578125,-0.12176513671875,0.540008544921875,1.6131591796875
1695712569221223200,3.34422314453125,0.019683837890625,0.74554443359375,1.280059814453125
1695712569230744600,3.35374462890625,0.2288818359375,1.041259765625,0.823974609375
1695712569240296400,3.36329638671875,0.48492431640625,1.42364501953125,0.254058837890625
1695712569249848600,3.3728486328125,0.750885009765625,1.660614013671875,-0.531005859375
1695712569259400400,3.382400390625,0.986480712890625,1.344757080078125,-1.34552001953125
1695712569268922000,3.391922119140625,1.036224365234375,0.40863037109375,-1.812896728515625
1695712569278474000,3.401473876953125,0.8892822265625,-0.489654541015625,-1.877899169921875
1695712569288026000,3.411026123046875,0.719451904296875,-0.716552734375,-1.763458251953125
1695712569297608400,3.4206083984375,0.58929443359375,-0.443878173828125,-1.59027099609375
1695712569307130000,3.430130126953125,0.47637939453125,0.187530517578125,-1.234130859375
1695712569316682000,3.439681884765625,0.306549072265625,0.580291748046875,-0.742645263671875
1695712569326234000,3.449234130859375,0.029754638671875,0.841827392578125,-0.110321044921875
1695712569335786000,3.458785888671875,-0.344085693359375,0.74859619140625,0.629425048828125
1695712569345307600,3.4683076171875,-0.782012939453125,0.129547119140625,1.302947998046875
1695712569354859500,3.477859619140625,-1.121063232421875,-0.5914306640625,1.701812744140625
1695712569364411600,3.48741162109375,-0.99365234375,-0.773162841796875,1.386871337890625
1695712569373963500,3.496963623046875,-0.431976318359375,-0.093231201171875,0.125732421875
1695712569383515600,3.506515625,0.042266845703125,0.504913330078125,-0.94940185546875
1695712569393037000,3.516037109375,0.14556884765625,0.175933837890625,-0.53680419921875
1695712569402589000,3.5255888671875,0.036163330078125,-0.760498046875,0.535888671875
1695712569412141000,3.53514111328125,-0.1312255859375,-1.43096923828125,1.335906982421875
1695712569421693000,3.54469287109375,-0.312957763671875,-1.38153076171875,1.82586669921875
1695712569431214600,3.554214599609375,-0.52093505859375,-0.7421875,1.9854736328125
1695712569440766500,3.563766357421875,-0.735931396484375,-0.102996826171875,1.83135986328125
1695712569450318600,3.573318603515625,-0.88470458984375,0.212554931640625,1.629638671875
1695712569459870500,3.582870361328125,-0.90087890625,0.269012451171875,1.47552490234375
1695712569469392100,3.59239208984375,-0.663909912109375,0.157012939453125,1.21826171875
1695712569478944000,3.601944091796875,-0.286102294921875,-0.049285888671875,1.1163330078125
1695712569488496000,3.61149609375,-0.081939697265625,-0.3167724609375,1.1700439453125
1695712569498048000,3.621048095703125,0.042266845703125,-0.459442138671875,1.16302490234375
1695712569507600100,3.63060009765625,0.1385498046875,-0.601806640625,1.18255615234375
1695712569517121500,3.64012158203125,0.13519287109375,-0.7159423828125,1.2579345703125
1695712569526673400,3.64967333984375,0.030364990234375,-0.7025146484375,1.309356689453125
1695712569536225500,3.6592255859375,-0.1177978515625,-0.542144775390625,1.331329345703125
1695712569545777400,3.66877734375,-0.21270751953125,-0.29754638671875,1.326446533203125
1695712569555299000,3.678299072265625,-0.2447509765625,-0.194854736328125,1.307830810546875
1695712569564851000,3.687850830078125,-0.25665283203125,-0.2496337890625,1.288604736328125
1695712569574403000,3.697403076171875,-0.23193359375,-0.3192138671875,1.304168701171875
1695712569583985400,3.7069853515625,-0.21514892578125,-0.39398193359375,1.303863525390625
1695712569593507000,3.716507080078125,-0.24627685546875,-0.426483154296875,1.2335205078125
1695712569603059000,3.726058837890625,-0.315704345703125,-0.440826416015625,1.1029052734375
1695712569612611000,3.735611083984375,-0.385894775390625,-0.412750244140625,0.953826904296875
1695712569622163000,3.745162841796875,-0.437469482421875,-0.29815673828125,0.87249755859375
1695712569631684600,3.7546845703125,-0.474853515625,-0.184783935546875,0.85479736328125
1695712569641236500,3.764236572265625,-0.4827880859375,-0.123748779296875,0.85723876953125
1695712569650788600,3.77378857421875,-0.47027587890625,-0.122528076171875,0.85723876953125
1695712569660340500,3.783340576171875,-0.45440673828125,-0.180206298828125,0.8551025390625
1695712569669892600,3.792892578125,-0.443572998046875,-0.2386474609375,0.860595703125
1695712569679414000,3.8024140625,-0.45166015625,-0.26947021484375,0.8685302734375
1695712569688966000,3.8119658203125,-0.478515625,-0.2618408203125,0.86700439453125
1695712569698518000,3.82151806640625,-0.518798828125,-0.23956298828125,0.85540771484375
1695712569708070000,3.83106982421875,-0.565185546875,-0.24261474609375,0.84930419921875
1695712569717591600,3.840591552734375,-0.60699462890625,-0.2734375,0.85113525390625
1695712569727143400,3.850143310546875,-0.639801025390625,-0.31402587890625,0.84869384765625
1695712569736695600,3.859695556640625,-0.663909912109375,-0.31524658203125,0.84014892578125
1695712569746247400,3.869247314453125,-0.680084228515625,-0.2972412109375,0.80657958984375
1695712569755769000,3.87876904296875,-0.681915283203125,-0.3155517578125,0.7379150390625
1695712569765321000,3.888321044921875,-0.666961669921875,-0.39947509765625,0.649261474609375
1695712569774873000,3.897873046875,-0.6219482421875,-0.504608154296875,0.548095703125
1695712569784425000,3.907425048828125,-0.53009033203125,-0.578155517578125,0.44677734375
1695712569793977000,3.91697705078125,-0.418243408203125,-0.5963134765625,0.371551513671875
1695712569803498500,3.92649853515625,-0.345611572265625,-0.523223876953125,0.316009521484375
1695712569813050400,3.93605029296875,-0.335845947265625,-0.3399658203125,0.237274169921875
1695712569822602500,3.9456025390625,-0.374298095703125,-0.141143798828125,0.13397216796875
1695712569832154400,3.955154296875,-0.431976318359375,0.009765625,0.03662109375
1695712569841676000,3.964676025390625,-0.45867919921875,0.142669677734375,-0.041351318359375
1695712569851228000,3.974227783203125,-0.403900146484375,0.248260498046875,-0.100555419921875
1695712569860780000,3.983780029296875,-0.25848388671875,0.295562744140625,-0.16693115234375
1695712569870362400,3.9933623046875,-0.078887939453125,0.290985107421875,-0.30426025390625
1695712569879884000,4.002884033203125,0.089111328125,0.2978515625,-0.5126953125
1695712569889436000,4.012435791015625,0.22857666015625,0.39306640625,-0.704803466796875
1695712569898988000,4.021988037109375,0.307159423828125,0.549774169921875,-0.894775390625
1695712569908540000,4.031539794921875,0.383758544921875,0.74462890625,-1.132354736328125
1695712569918061600,4.0410615234375,0.4522705078125,0.8331298828125,-1.434173583984375
1695712569927613400,4.050613525390625,0.460205078125,0.7489013671875,-1.770477294921875
1695712569937165600,4.06016552734375,0.462646484375,0.560455322265625,-2.127227783203125
1695712569946717400,4.069717529296875,0.49407958984375,0.37750244140625,-2.487640380859375
1695712569956269600,4.07926953125,0.5718994140625,0.273590087890625,-2.794189453125
1695712569965791000,4.088791015625,0.664215087890625,0.243682861328125,-2.964935302734375
1695712569975342800,4.0983427734375,0.731658935546875,0.134735107421875,-2.987518310546875
1695712569984895000,4.10789501953125,0.7733154296875,-0.070648193359375,-2.868804931640625
1695712569994446800,4.11744677734375,0.773773193359375,-0.28717041015625,-2.68829345703125
1695712570003968500,4.126968505859375,0.729827880859375,-0.528106689453125,-2.547760009765625
1695712570013520400,4.136520263671875,0.643768310546875,-0.861358642578125,-2.47528076171875
1695712570023072500,4.146072509765625,0.56732177734375,-1.152801513671875,-2.4188232421875
1695712570032624400,4.155624267578125,0.513916015625,-1.176605224609375,-2.37335205078125
1695712570042145800,4.165145751953125,0.42724609375,-0.913848876953125,-2.32696533203125
1695712570051698000,4.174697998046875,0.308380126953125,-0.33294677734375,-2.217254638671875
1695712570061250000,4.18425,0.266571044921875,0.408935546875,-2.11151123046875
1695712570070802000,4.193802001953125,0.309600830078125,0.991058349609375,-2.02301025390625
1695712570080323300,4.2033232421875,0.380096435546875,1.353607177734375,-1.923065185546875
1695712570089875500,4.21287548828125,0.46875,1.12945556640625,-1.66717529296875
1695712570099427300,4.22242724609375,0.533447265625,1.1370849609375,-1.566009521484375
1695712570108979500,4.2319794921875,0.531005859375,1.327362060546875,-1.62384033203125
1695712570118531300,4.24153125,0.53558349609375,1.177978515625,-1.533966064453125
1695712570128053000,4.251052978515625,0.58837890625,1.03607177734375,-1.38336181640625
1695712570137604900,4.26060498046875,0.659332275390625,0.963287353515625,-1.209869384765625
1695712570147157000,4.270156982421875,0.748443603515625,0.968780517578125,-1.0296630859375
1695712570156739300,4.2797392578125,0.8477783203125,1.05224609375,-0.857696533203125
1695712570166261000,4.289260986328125,0.91156005859375,1.1627197265625,-0.729827880859375
1695712570175812900,4.298812744140625,0.93841552734375,1.274871826171875,-0.638427734375
1695712570185365000,4.308364990234375,0.94451904296875,1.374664306640625,-0.55145263671875
1695712570194916900,4.317916748046875,0.92742919921875,1.40960693359375,-0.462188720703125
1695712570204438500,4.3274384765625,0.89996337890625,1.364593505859375,-0.350189208984375
1695712570213990400,4.336990478515625,0.86669921875,1.233367919921875,-0.1953125
1695712570223542500,4.34654248046875,0.8160400390625,1.002655029296875,0.001068115234375
1695712570233094400,4.356094482421875,0.749969482421875,0.709228515625,0.249176025390625
1695712570242646500,4.365646484375,0.668487548828125,0.41900634765625,0.54656982421875
1695712570252168000,4.37516796875,0.577392578125,0.205230712890625,0.87188720703125
1695712570261719800,4.3847197265625,0.4779052734375,0.09552001953125,1.20391845703125
1695712570271272000,4.39427197265625,0.367279052734375,0.06622314453125,1.52374267578125
1695712570280823800,4.40382373046875,0.258331298828125,0.09521484375,1.801300048828125
1695712570290345500,4.413345458984375,0.17120361328125,0.173187255859375,2.011566162109375
1695712570299897300,4.4228974609375,0.09765625,0.290069580078125,2.124786376953125
1695712570309449500,4.432449462890625,0.027618408203125,0.452880859375,2.080841064453125
1695712570319001300,4.44200146484375,-0.013275146484375,0.66741943359375,1.8310546875
1695712570328522800,4.451522705078125,0.021820068359375,0.908050537109375,1.381683349609375
1695712570338075000,4.461074951171875,0.1531982421875,1.210784912109375,0.736083984375
1695712570347626800,4.470626708984375,0.358123779296875,1.614227294921875,-0.101470947265625
1695712570357179000,4.480178955078125,0.596923828125,1.7742919921875,-0.90118408203125
1695712570366700300,4.4897001953125,0.771942138671875,1.19049072265625,-1.205596923828125
1695712570376252400,4.49925244140625,0.8233642578125,0.133209228515625,-1.0174560546875
1695712570385804300,4.50880419921875,0.762481689453125,-0.68328857421875,-0.749664306640625
1695712570395356400,4.5183564453125,0.610504150390625,-0.68878173828125,-0.699310302734375
1695712570404908300,4.527908203125,0.42144775390625,-0.723876953125,-0.5938720703125
1695712570414430000,4.537429931640625,0.2203369140625,-0.558013916015625,-0.322265625
1695712570423981800,4.54698193359375,0.076904296875,0.595245361328125,-0.205078125
1695712570433534000,4.556533935546875,-0.097198486328125,0.904998779296875,0.363311767578125
1695712570443116300,4.5661162109375,-0.52154541015625,1.42730712890625,0.823974609375
1695712570452638000,4.575637939453125,-0.82977294921875,0.627899169921875,1.54876708984375
1695712570462189800,4.58518994140625,-0.92315673828125,-1.10870361328125,1.988067626953125
1695712570471742000,4.594741943359375,-0.589599609375,-2.54486083984375,0.961456298828125
1695712570481293800,4.6042939453125,-0.056915283203125,-1.850128173828125,-0.87371826171875
1695712570490815200,4.613815185546875,0.412750244140625,0.05218505859375,-1.188507080078125
1695712570500367400,4.623367431640625,0.540771484375,0.3875732421875,0.004730224609375
1695712570509919200,4.632919189453125,0.1312255859375,-0.450897216796875,1.015472412109375
1695712570519471400,4.642471435546875,-0.46356201171875,-0.33935546875,1.26708984375
1695712570528992800,4.65199267578125,-0.8514404296875,0.288848876953125,0.987396240234375
1695712570538545000,4.661544921875,-0.987548828125,0.560455322265625,0.680999755859375
1695712570548096800,4.6710966796875,-0.9918212890625,0.178680419921875,0.8831787109375
1695712570557649000,4.68064892578125,-0.836181640625,-0.25146484375,1.371002197265625
1695712570567200800,4.69020068359375,-0.61614990234375,-0.70556640625,1.746063232421875
1695712570576722400,4.699722412109375,-0.394134521484375,-1.191558837890625,1.8389892578125
1695712570586274300,4.7092744140625,-0.080718994140625,-1.3446044921875,1.744842529296875
1695712570595826400,4.718826416015625,0.313568115234375,-1.12396240234375,1.434173583984375
1695712570605378300,4.72837841796875,0.51239013671875,-0.75103759765625,1.085357666015625
1695712570614899700,4.737899658203125,0.4571533203125,-0.536346435546875,1.029510498046875
1695712570624451800,4.747451904296875,0.253753662109375,-0.614013671875,1.1761474609375
1695712570634003700,4.757003662109375,-0.013580322265625,-0.783843994140625,1.327972412109375
1695712570643555800,4.766555908203125,-0.2490234375,-0.796051025390625,1.409454345703125
1695712570653077200,4.7760771484375,-0.409088134765625,-0.73455810546875,1.382904052734375
1695712570662629400,4.78562939453125,-0.459747314453125,-0.62347412109375,1.316070556640625
1695712570672181200,4.79518115234375,-0.412139892578125,-0.495452880859375,1.282501220703125
1695712570681733400,4.8047333984375,-0.317230224609375,-0.443572998046875,1.294403076171875
1695712570691285200,4.81428515625,-0.2587890625,-0.474090576171875,1.315155029296875
1695712570700807000,4.823806884765625,-0.27496337890625,-0.575714111328125,1.281585693359375
1695712570710358800,4.83335888671875,-0.328521728515625,-0.68267822265625,1.2109375
1695712570719911000,4.842910888671875,-0.381317138671875,-0.69854736328125,1.1334228515625
1695712570729493200,4.8524931640625,-0.419769287109375,-0.581817626953125,1.073455810546875
1695712570739015000,4.862014892578125,-0.45623779296875,-0.422210693359375,1.029510498046875
1695712570748566800,4.87156689453125,-0.496826171875,-0.321044921875,0.997161865234375
1695712570758119000,4.881118896484375,-0.51544189453125,-0.2569580078125,1.012115478515625
1695712570767670800,4.8906708984375,-0.518798828125,-0.27923583984375,1.036834716796875
1695712570777192200,4.900192138671875,-0.51177978515625,-0.364990234375,1.034698486328125
1695712570786744300,4.909744384765625,-0.4998779296875,-0.417327880859375,1.023406982421875
1695712570796296200,4.919296142578125,-0.50811767578125,-0.3961181640625,1.022491455078125
1695712570805848300,4.928848388671875,-0.5316162109375,-0.323486328125,1.034393310546875
1695712570815369700,4.93836962890625,-0.55877685546875,-0.28411865234375,1.038665771484375
1695712570824921900,4.947921875,-0.58258056640625,-0.296630859375,1.034393310546875
1695712570834473700,4.9574736328125,-0.59539794921875,-0.32684326171875,1.022796630859375
1695712570844025900,4.96702587890625,-0.5950927734375,-0.37445068359375,0.982513427734375
1695712570853577700,4.97657763671875,-0.5853271484375,-0.426788330078125,0.9002685546875
1695712570863099400,4.986099365234375,-0.57403564453125,-0.451202392578125,0.78125
1695712570872651300,4.9956513671875,-0.55999755859375,-0.449981689453125,0.642547607421875
1695712570882203400,5.005203369140625,-0.52032470703125,-0.434417724609375,0.50689697265625
1695712570891755300,5.01475537109375,-0.462493896484375,-0.3961181640625,0.40740966796875
1695712570901276700,5.024276611328125,-0.416412353515625,-0.328369140625,0.335845947265625
1695712570910828800,5.033828857421875,-0.404510498046875,-0.23193359375,0.251312255859375
1695712570920380700,5.043380615234375,-0.434417724609375,-0.141448974609375,0.1544189453125
1695712570929932800,5.052932861328125,-0.48553466796875,-0.071868896484375,0.06683349609375
1695712570939454200,5.0624541015625,-0.52032470703125,-0.03265380859375,-0.000457763671875
1695712570949006300,5.07200634765625,-0.49652099609375,-0.091705322265625,-0.085601806640625
1695712570958558200,5.08155810546875,-0.418243408203125,-0.27587890625,-0.21209716796875
1695712570968110300,5.0911103515625,-0.330657958984375,-0.505523681640625,-0.373077392578125
1695712570977662200,5.100662109375,-0.2105712890625,-0.6494140625,-0.52001953125
1695712570987183900,5.110183837890625,-0.050201416015625,-0.61187744140625,-0.64208984375
1695712570996735700,5.11973583984375,0.07080078125,-0.37384033203125,-0.801544189453125
1695712571006288000,5.129287841796875,0.130615234375,0.03082275390625,-1.01837158203125
1695712571015870200,5.1388701171875,0.20721435546875,0.46905517578125,-1.26434326171875
1695712571025391900,5.148391845703125,0.313568115234375,0.854949951171875,-1.511993408203125
1695712571034943700,5.15794384765625,0.413360595703125,1.0626220703125,-1.763763427734375
1695712571044496000,5.167495849609375,0.4864501953125,1.041259765625,-2.021484375
1695712571054047700,5.1770478515625,0.52978515625,0.857391357421875,-2.32086181640625
1695712571063569200,5.186569091796875,0.53131103515625,0.605926513671875,-2.68096923828125
1695712571073121300,5.196121337890625,0.43914794921875,0.38726806640625,-3.022003173828125
1695712571082673200,5.205673095703125,0.273895263671875,0.156402587890625,-3.273773193359375
1695712571092225300,5.215225341796875,0.18951416015625,-0.121307373046875,-3.307647705078125
1695712571101746700,5.22474658203125,0.244903564453125,-0.451202392578125,-3.10028076171875
1695712571111298800,5.234298828125,0.385894775390625,-0.932769775390625,-2.82989501953125
1695712571120850700,5.2438505859375,0.4681396484375,-1.549224853515625,-2.592010498046875
1695712571130402800,5.25340283203125,0.418853759765625,-1.959991455078125,-2.41546630859375
1695712571139954700,5.26295458984375,0.395965576171875,-2.05963134765625,-2.286834716796875
1695712571149476400,5.272476318359375,0.420074462890625,-1.81304931640625,-2.134246826171875
1695712571159028200,5.2820283203125,0.433349609375,-1.76544189453125,-1.74896240234375
1695712571168580400,5.291580322265625,0.4986572265625,-1.644134521484375,-1.23870849609375
1695712571178132200,5.30113232421875,0.412445068359375,-0.451202392578125,-1.179962158203125
1695712571187653600,5.310653564453125,0.4913330078125,1.18011474609375,-1.58782958984375
1695712571197205800,5.320205810546875,0.47760009765625,2.303924560546875,-1.887969970703125
1695712571206757600,5.329757568359375,0.4986572265625,2.5701904296875,-2.01446533203125
1695712571216309800,5.339309814453125,0.5706787109375,2.455291748046875,-2.04742431640625
1695712571225831200,5.3488310546875,0.5694580078125,2.17987060546875,-1.96197509765625
1695712571235383300,5.35838330078125,0.59417724609375,1.76910400390625,-1.72119140625
1695712571244935200,5.36793505859375,0.641021728515625,1.424560546875,-1.433563232421875
1695712571254487300,5.3774873046875,0.681915283203125,1.18438720703125,-1.158294677734375
1695712571264039200,5.3870390625,0.724945068359375,0.995635986328125,-0.9075927734375
1695712571273560800,5.396560791015625,0.756072998046875,0.845184326171875,-0.703887939453125
1695712571283112700,5.40611279296875,0.773773193359375,0.76934814453125,-0.5560302734375
1695712571292664800,5.415664794921875,0.778045654296875,0.7806396484375,-0.451812744140625
1695712571302247200,5.4252470703125,0.768585205078125,0.8251953125,-0.371856689453125
1695712571311768800,5.434768798828125,0.744476318359375,0.878753662109375,-0.29144287109375
1695712571321320700,5.44432080078125,0.707855224609375,0.948028564453125,-0.19195556640625
1695712571330872800,5.453872802734375,0.660552978515625,0.970306396484375,-0.049285888671875
1695712571340424700,5.4634248046875,0.59234619140625,0.923614501953125,0.1324462890625
1695712571349946000,5.472946044921875,0.50567626953125,0.79315185546875,0.367584228515625
1695712571359498200,5.482498291015625,0.4168701171875,0.608978271484375,0.648651123046875
1695712571369050000,5.492050048828125,0.340423583984375,0.413818359375,0.962677001953125
1695712571378602200,5.501602294921875,0.274810791015625,0.253753662109375,1.284637451171875
1695712571388123600,5.51112353515625,0.22125244140625,0.116119384765625,1.60736083984375
1695712571397675800,5.52067578125,0.17791748046875,0.04119873046875,1.893310546875
1695712571407227600,5.5302275390625,0.133056640625,0.069580078125,2.119598388671875
1695712571416779800,5.53977978515625,0.09796142578125,0.155487060546875,2.2705078125
1695712571426331600,5.54933154296875,0.0701904296875,0.262298583984375,2.2784423828125
1695712571435853300,5.558853271484375,0.051422119140625,0.391845703125,2.087554931640625
1695712571445405200,5.5684052734375,0.087890625,0.481109619140625,1.664886474609375
1695712571454957300,5.577957275390625,0.1641845703125,0.548553466796875,1.005096435546875
1695712571464509200,5.58750927734375,0.300140380859375,0.7421875,0.08331298828125
1695712571474030600,5.597030517578125,0.50628662109375,0.976409912109375,-0.931396484375
1695712571483582700,5.606582763671875,0.708770751953125,0.755615234375,-1.574859619140625
1695712571493134600,5.616134521484375,0.82366943359375,0.0494384765625,-1.58447265625
1695712571502686700,5.625686767578125,0.80963134765625,-0.551300048828125,-1.28875732421875
1695712571512208100,5.6352080078125,0.738983154296875,-0.6109619140625,-1.053619384765625
1695712571521760300,5.64476025390625,0.5950927734375,-0.225830078125,-0.914306640625
1695712571531312000,5.65431201171875,0.358123779296875,0.226593017578125,-0.749969482421875
1695712571540864300,5.6638642578125,0.1336669921875,0.611419677734375,-0.438995361328125
1695712571550416100,5.673416015625,-0.068206787109375,1.001739501953125,0.0738525390625
1695712571559937800,5.682937744140625,-0.377044677734375,1.12274169921875,0.730133056640625
1695712571569489700,5.69248974609375,-0.759735107421875,0.748291015625,1.51214599609375
1695712571579041800,5.702041748046875,-1.073760986328125,-0.26397705078125,2.21527099609375
1695712571588624100,5.7116240234375,-0.91339111328125,-1.895294189453125,1.85699462890625
1695712571598145800,5.721145751953125,-0.22430419921875,-2.45361328125,0.01922607421875
1695712571607697700,5.73069775390625,0.320587158203125,-0.71441650390625,-1.23260498046875
1695712571617249800,5.740249755859375,0.727996826171875,0.42266845703125,-0.55999755859375
1695712571626801700,5.7498017578125,0.735931396484375,-0.552215576171875,0.8380126953125
1695712571636323000,5.759322998046875,0.291290283203125,-1.266632080078125,1.60614013671875
1695712571645875200,5.768875244140625,-0.293121337890625,-0.68328857421875,1.5692138671875
1695712571655427000,5.778427001953125,-0.728302001953125,0.291290283203125,1.017913818359375
1695712571664979200,5.787979248046875,-0.92803955078125,0.516204833984375,0.897216796875
1695712571674500600,5.79750048828125,-0.96771240234375,0.122833251953125,1.23992919921875
1695712571684052700,5.807052734375,-0.8599853515625,-0.552825927734375,1.632843017578125
1695712571693604600,5.8166044921875,-0.712127685546875,-1.30096435546875,1.792449951171875
1695712571703156700,5.82615673828125,-0.54718017578125,-1.6729736328125,1.671600341796875
1695712571712708600,5.83570849609375,-0.269622802734375,-1.35589599609375,1.345367431640625
1695712571722230300,5.845230224609375,0.015716552734375,-0.846405029296875,0.982208251953125
1695712571731782100,5.8547822265625,0.15167236328125,-0.61492919921875,0.894775390625
1695712571741334300,5.864334228515625,0.157470703125,-0.65460205078125,1.044769287109375
1695712571750886100,5.87388623046875,0.09979248046875,-0.798187255859375,1.2298583984375
1695712571760407600,5.883407470703125,-0.039825439453125,-0.910491943359375,1.348114013671875
1695712571769959700,5.892959716796875,-0.19775390625,-1.00616455078125,1.357879638671875
1695712571779511600,5.902511474609375,-0.303192138671875,-1.03515625,1.310577392578125
1695712571789063700,5.912063720703125,-0.334320068359375,-0.858001708984375,1.26007080078125
1695712571798585000,5.921585205078125,-0.299530029296875,-0.5877685546875,1.23870849609375
1695712571808137200,5.93113720703125,-0.225830078125,-0.3887939453125,1.25579833984375
1695712571817689000,5.940689208984375,-0.1934814453125,-0.410003662109375,1.25244140625
1695712571827241200,5.9502412109375,-0.24505615234375,-0.532073974609375,1.1871337890625
1695712571836793000,5.95979296875,-0.339508056640625,-0.58502197265625,1.076812744140625
1695712571846314500,5.969314453125,-0.399932861328125,-0.506439208984375,1.001129150390625
1695712571855866600,5.97886669921875,-0.44525146484375,-0.439910888671875,0.995635986328125
1695712571865418800,5.988418701171875,-0.48126220703125,-0.36773681640625,1.033172607421875
1695712571875001000,5.9980009765625,-0.45013427734375,-0.25848388671875,1.037139892578125
1695712571884522800,6.007522705078125,-0.424652099609375,-0.224151611328125,0.985260009765625
1695712571894074600,6.01707470703125,-0.44403076171875,-0.2410888671875,0.945892333984375
1695712571903626800,6.026626708984375,-0.45806884765625,-0.264892578125,0.924530029296875
1695712571913178600,6.0361787109375,-0.46630859375,-0.338134765625,0.925750732421875
1695712571922700000,6.045699951171875,-0.4705810546875,-0.328369140625,0.943450927734375
1695712571932252200,6.055252197265625,-0.48614501953125,-0.26519775390625,0.952606201171875
1695712571941804000,6.064803955078125,-0.5364990234375,-0.214691162109375,0.947113037109375
1695712571951356200,6.074356201171875,-0.594482421875,-0.145416259765625,0.947723388671875
1695712571960877600,6.083877685546875,-0.62591552734375,-0.064239501953125,0.949249267578125
1695712571970429700,6.0934296875,-0.6060791015625,-0.054779052734375,0.931854248046875
1695712571979981600,6.102981689453125,-0.5621337890625,-0.184173583984375,0.88714599609375
1695712571989533700,6.11253369140625,-0.579833984375,-0.32470703125,0.791015625
1695712571999085600,6.12208544921875,-0.57586669921875,-0.456390380859375,0.655670166015625
1695712572008607000,6.13160693359375,-0.52032470703125,-0.519866943359375,0.526123046875
1695712572018159000,6.1411591796875,-0.478515625,-0.478668212890625,0.4278564453125
1695712572027711200,6.150711181640625,-0.456390380859375,-0.3558349609375,0.362396240234375
1695712572037263000,6.16026318359375,-0.413055419921875,-0.25970458984375,0.322723388671875
1695712572046784500,6.169784423828125,-0.360260009765625,-0.24383544921875,0.285491943359375
1695712572056336600,6.179336669921875,-0.369720458984375,-0.22430419921875,0.228118896484375
1695712572065888500,6.188888427734375,-0.427093505859375,-0.175933837890625,0.14068603515625
1695712572075440600,6.198440673828125,-0.49285888671875,-0.145111083984375,0.035400390625
1695712572084962000,6.207962158203125,-0.52093505859375,-0.171356201171875,-0.064849853515625
1695712572094514200,6.21751416015625,-0.49774169921875,-0.24658203125,-0.141754150390625
1695712572104066000,6.227066162109375,-0.424957275390625,-0.3192138671875,-0.2215576171875
1695712572113618200,6.2366181640625,-0.298614501953125,-0.35186767578125,-0.355987548828125
1695712572123139600,6.2461396484375,-0.1629638671875,-0.2911376953125,-0.550537109375
1695712572132691500,6.25569140625,-0.074310302734375,-0.088348388671875,-0.793914794921875
1695712572142243600,6.26524365234375,0.009002685546875,0.216522216796875,-1.057891845703125
1695712572151795500,6.27479541015625,0.15411376953125,0.547027587890625,-1.31103515625
1695712572161378000,6.2843779296875,0.285797119140625,0.8343505859375,-1.555938720703125
1695712572170899500,6.2938994140625,0.305633544921875,1.010589599609375,-1.826629638671875
1695712572180451600,6.30345166015625,0.278167724609375,1.04736328125,-2.141876220703125
1695712572190003700,6.313003662109375,0.303192138671875,0.902252197265625,-2.511138916015625
1695712572199555600,6.3225556640625,0.368499755859375,0.658416748046875,-2.868804931640625
1695712572209077000,6.332076904296875,0.380401611328125,0.3619384765625,-3.11553955078125
1695712572218629000,6.341629150390625,0.354766845703125,0.04486083984375,-3.217926025390625
1695712572228181000,6.351180908203125,0.313262939453125,-0.162811279296875,-3.1414794921875
1695712572237733000,6.360733154296875,0.282440185546875,-0.210113525390625,-2.891998291015625
1695712572247254500,6.370254638671875,0.287933349609375,-0.296630859375,-2.554473876953125
1695712572256806700,6.379806640625,0.312347412109375,-0.66192626953125,-2.31536865234375
1695712572266358500,6.389358642578125,0.282135009765625,-1.164398193359375,-2.251129150390625
1695712572275910700,6.39891064453125,0.23956298828125,-1.4715576171875,-2.255096435546875
1695712572285432000,6.40843212890625,0.296478271484375,-1.40777587890625,-2.232208251953125
1695712572294984000,6.41798388671875,0.371246337890625,-1.0052490234375,-2.10906982421875
1695712572304536000,6.4275361328125,0.364532470703125,-0.26824951171875,-1.893768310546875
1695712572314088000,6.437087890625,0.42755126953125,0.45684814453125,-1.75445556640625
1695712572323640000,6.44664013671875,0.55023193359375,0.82855224609375,-1.74346923828125
1695712572333161500,6.456161376953125,0.606231689453125,1.02569580078125,-1.75018310546875
1695712572342713600,6.465713623046875,0.557861328125,1.15966796875,-1.72149658203125
1695712572352265500,6.475265380859375,0.50537109375,1.11083984375,-1.68701171875
1695712572361817600,6.484817626953125,0.467529296875,0.998382568359375,-1.567535400390625
1695712572371339000,6.494339111328125,0.43975830078125,0.944366455078125,-1.358642578125
1695712572380891100,6.50389111328125,0.44921875,0.969696044921875,-1.140899658203125
1695712572390443000,6.513443115234375,0.5078125,1.000823974609375,-0.93292236328125
1695712572399995100,6.5229951171875,0.599822998046875,1.0357666015625,-0.724029541015625
1695712572409516500,6.5325166015625,0.702362060546875,1.0675048828125,-0.54412841796875
1695712572419068400,6.542068359375,0.780029296875,1.0760498046875,-0.411529541015625
1695712572428620500,6.55162060546875,0.8013916015625,1.1053466796875,-0.32745361328125
1695712572438172400,6.56117236328125,0.77545166015625,1.153564453125,-0.2789306640625
1695712572447755000,6.570755126953125,0.720977783203125,1.1572265625,-0.22125244140625
1695712572457276400,6.5802763671875,0.642547607421875,1.06536865234375,-0.127410888671875
1695712572466828500,6.58982861328125,0.55267333984375,0.880889892578125,0.017242431640625
1695712572476380400,6.59938037109375,0.46783447265625,0.645904541015625,0.218048095703125
1695712572485932500,6.6089326171875,0.392303466796875,0.430908203125,0.46875
1695712572495454000,6.618453857421875,0.313873291015625,0.285491943359375,0.73455810546875
1695712572505006000,6.628006103515625,0.247344970703125,0.215606689453125,0.996551513671875
1695712572514558000,6.637557861328125,0.19927978515625,0.195770263671875,1.2451171875
1695712572524110000,6.647110107421875,0.16387939453125,0.213775634765625,1.46636962890625
1695712572533631500,6.656631591796875,0.14068603515625,0.279083251953125,1.641082763671875
1695712572543183600,6.66618359375,0.13092041015625,0.3778076171875,1.735382080078125
1695712572552735500,6.675735595703125,0.14190673828125,0.519561767578125,1.709136962890625
1695712572562287600,6.68528759765625,0.18310546875,0.6976318359375,1.5087890625
1695712572571809000,6.69480908203125,0.241851806640625,0.866851806640625,1.0986328125
1695712572581361000,6.70436083984375,0.298004150390625,0.991973876953125,0.51300048828125
1695712572590913000,6.7139130859375,0.363006591796875,1.17340087890625,-0.20294189453125
1695712572600465000,6.72346484375,0.48858642578125,1.309661865234375,-0.93414306640625
1695712572610017000,6.73301708984375,0.693511962890625,1.005706787109375,-1.40045166015625
1695712572619538400,6.742538330078125,0.87921142578125,0.262298583984375,-1.472015380859375
1695712572629090600,6.752090576171875,0.897216796875,-0.458831787109375,-1.28692626953125
1695712572638642400,6.761642333984375,0.755462646484375,-0.73272705078125,-1.071319580078125
1695712572648194600,6.771194580078125,0.4925537109375,-0.516815185546875,-0.8837890625
1695712572657716000,6.780716064453125,0.1995849609375,-0.085601806640625,-0.64300537109375
1695712572667268000,6.79026806640625,0.037689208984375,0.325927734375,-0.27862548828125
1695712572676820000,6.799820068359375,0.059356689453125,0.71990966796875,0.18310546875
1695712572686372000,6.8093720703125,0.11505126953125,1.17828369140625,0.637664794921875
1695712572695893500,6.8188935546875,0.059967041015625,1.604766845703125,1.080169677734375
1695712572705445400,6.8284453125,-0.098419189453125,1.636810302734375,1.648406982421875
1695712572714997500,6.83799755859375,-0.24932861328125,0.654754638671875,2.375030517578125
1695712572724549400,6.84754931640625,-0.12939453125,-1.71783447265625,2.417449951171875
1695712572734132000,6.857132080078125,0.355987548828125,-3.717193603515625,0.957489013671875
1695712572743653400,6.8666533203125,0.607147216796875,-2.3858642578125,-0.90240478515625
1695712572753205500,6.87620556640625,0.78704833984375,-0.164642333984375,-1.129608154296875
1695712572762757400,6.88575732421875,0.709075927734375,-0.083160400390625,0.18402099609375
1695712572772309500,6.8953095703125,0.1702880859375,-0.7171630859375,1.25518798828125
1695712572781831000,6.904830810546875,-0.501708984375,-0.484771728515625,1.61102294921875
1695712572791383000,6.914383056640625,-0.9344482421875,0.488128662109375,1.2420654296875
1695712572800935000,6.923934814453125,-1.093902587890625,1.327667236328125,0.920867919921875
1695712572810487000,6.933487060546875,-1.172332763671875,0.901641845703125,1.18682861328125
1695712572820008400,6.943008544921875,-1.089630126953125,-0.190887451171875,1.704559326171875
1695712572829560600,6.952560546875,-0.82977294921875,-1.45477294921875,2.040252685546875
1695712572839112400,6.962112548828125,-0.49072265625,-2.359466552734375,2.015838623046875
1695712572848664600,6.97166455078125,-0.077056884765625,-2.261810302734375,1.658782958984375
1695712572858186000,6.98118603515625,0.297393798828125,-1.224517822265625,1.1895751953125
1695712572867737900,6.99073779296875,0.4534912109375,-0.145721435546875,0.984954833984375
1695712572877290000,7.0002900390625,0.392913818359375,0.32806396484375,1.084136962890625
1695712572886841900,7.009841796875,0.1751708984375,0.1171875,1.286773681640625
1695712572896394000,7.01939404296875,-0.097503662109375,-0.450286865234375,1.473388671875
1695712572905915400,7.028915283203125,-0.315093994140625,-0.842437744140625,1.59271240234375
1695712572915467500,7.038467529296875,-0.434417724609375,-0.9442138671875,1.5753173828125
1695712572925019400,7.048019287109375,-0.44403076171875,-0.75897216796875,1.4935302734375
1695712572934571500,7.057571533203125,-0.342864990234375,-0.364990234375,1.440887451171875
1695712572944093000,7.067093017578125,-0.18310546875,-0.086212158203125,1.435394287109375
1695712572953645000,7.07664501953125,-0.041046142578125,-0.051116943359375,1.46575927734375
1695712572963197000,7.086197021484375,-0.027008056640625,-0.230712890625,1.424102783203125
1695712572972749000,7.0957490234375,-0.11474609375,-0.369873046875,1.317596435546875
1695712572982270500,7.1052705078125,-0.22613525390625,-0.424041748046875,1.19171142578125
1695712572991822300,7.114822265625,-0.314178466796875,-0.409393310546875,1.098785400390625
1695712573001374500,7.12437451171875,-0.357513427734375,-0.31890869140625,1.045684814453125
1695712573010953000,7.133952880859375,-0.359039306640625,-0.210418701171875,1.026458740234375
1695712573020535300,7.143535400390625,-0.362091064453125,-0.165863037109375,1.001434326171875
1695712573030057000,7.153056884765625,-0.384674072265625,-0.187530517578125,0.957183837890625
1695712573039608800,7.16260888671875,-0.416412353515625,-0.30426025390625,0.89019775390625
1695712573049161000,7.172160888671875,-0.4608154296875,-0.470733642578125,0.85845947265625
1695712573058712800,7.181712890625,-0.5010986328125,-0.558013916015625,0.8856201171875
1695712573068234200,7.191234130859375,-0.52581787109375,-0.520782470703125,0.933990478515625
1695712573077786400,7.200786376953125,-0.546875,-0.38970947265625,0.980072021484375
1695712573087338200,7.210338134765625,-0.5682373046875,-0.245361328125,1.033782958984375
1695712573096890400,7.219890380859375,-0.57769775390625,-0.176239013671875,1.090545654296875
1695712573106411800,7.229411865234375,-0.5712890625,-0.213775634765625,1.1273193359375
1695712573115964000,7.2389638671875,-0.55084228515625,-0.2911376953125,1.12152099609375
1695712573125515800,7.248515869140625,-0.5206298828125,-0.33172607421875,1.060028076171875
1695712573135068000,7.25806787109375,-0.47882080078125,-0.33599853515625,0.949859619140625
1695712573144589300,7.26758935546875,-0.431671142578125,-0.3399658203125,0.819091796875
1695712573154141400,7.277141357421875,-0.391998291015625,-0.3216552734375,0.707550048828125
1695712573163693300,7.286693359375,-0.373077392578125,-0.27252197265625,0.623321533203125
1695712573173245400,7.296245361328125,-0.391998291015625,-0.215911865234375,0.53466796875
1695712573182797300,7.30579736328125,-0.440826416015625,-0.178375244140625,0.42816162109375
1695712573192318700,7.315318603515625,-0.49072265625,-0.181732177734375,0.327301025390625
1695712573201870800,7.324870849609375,-0.49041748046875,-0.207672119140625,0.261993408203125
1695712573211422700,7.334422607421875,-0.430755615234375,-0.2996826171875,0.202789306640625
1695712573220974800,7.343974853515625,-0.367279052734375,-0.475006103515625,0.0921630859375
1695712573230496300,7.353496337890625,-0.351715087890625,-0.66497802734375,-0.080108642578125
1695712573240048400,7.36304833984375,-0.358734130859375,-0.774993896484375,-0.2734375
1695712573249600300,7.372600341796875,-0.285186767578125,-0.7403564453125,-0.447845458984375
1695712573259152400,7.38215234375,-0.12298583984375,-0.530242919921875,-0.596923828125
1695712573268673800,7.391673828125,0.022125244140625,-0.143280029296875,-0.755462646484375
1695712573278226000,7.401225830078125,0.16571044921875,0.265655517578125,-0.96435546875
1695712573287777800,7.41077783203125,0.370025634765625,0.507659912109375,-1.213836669921875
1695712573297330000,7.420329833984375,0.50262451171875,0.588531494140625,-1.515045166015625
1695712573306881800,7.4298818359375,0.50872802734375,0.595855712890625,-1.883697509765625
1695712573316434000,7.439433837890625,0.49774169921875,0.508270263671875,-2.276153564453125
1695712573325985800,7.44898583984375,0.47607421875,0.36468505859375,-2.71209716796875
1695712573335538000,7.458537841796875,0.420379638671875,0.142059326171875,-3.16986083984375
1695712573345089800,7.46808984375,0.387115478515625,-0.160980224609375,-3.47503662109375
1695712573354611200,7.477611083984375,0.379180908203125,-0.420074462890625,-3.4991455078125
1695712573364163300,7.487163330078125,0.362701416015625,-0.506134033203125,-3.317413330078125
1695712573373715200,7.496715087890625,0.327301025390625,-0.422821044921875,-3.1048583984375
1695712573383267300,7.506267333984375,0.257720947265625,-0.34515380859375,-2.932891845703125
1695712573392788700,7.515788818359375,0.15594482421875,-0.513153076171875,-2.7880859375
1695712573402340900,7.5253408203125,0.051727294921875,-0.875091552734375,-2.69195556640625
1695712573411892700,7.534892822265625,-0.034637451171875,-1.180267333984375,-2.653350830078125
1695712573421444900,7.54444482421875,-0.13153076171875,-1.3043212890625,-2.621612548828125
1695712573430966300,7.55396630859375,-0.23193359375,-1.241302490234375,-2.593841552734375
1695712573440518400,7.563518310546875,-0.230712890625,-0.798187255859375,-2.492218017578125
1695712573450070300,7.5730703125,-0.115966796875,0.05767822265625,-2.277679443359375
1695712573459622400,7.582622314453125,0.0653076171875,0.920867919921875,-2.1099853515625
1695712573469174300,7.59217431640625,0.17974853515625,1.303863525390625,-2.145233154296875
1695712573478695700,7.60169580078125,0.1953125,1.04156494140625,-2.274322509765625
1695712573488247800,7.611247802734375,0.179443359375,0.623321533203125,-2.238922119140625
1695712573497799700,7.620799560546875,0.249786376953125,0.3411865234375,-2.03826904296875
1695712573507351800,7.630351806640625,0.323944091796875,0.245513916015625,-1.814422607421875
1695712573516873200,7.639873291015625,0.393524169921875,0.31036376953125,-1.5911865234375
1695712573526425300,7.64942529296875,0.4693603515625,0.42724609375,-1.383056640625
1695712573535977200,7.658977294921875,0.550537109375,0.530548095703125,-1.178131103515625
1695712573545529300,7.668529296875,0.617828369140625,0.599822998046875,-0.986328125
1695712573555050800,7.67805078125,0.653533935546875,0.645294189453125,-0.804290771484375
1695712573564603000,7.687602783203125,0.659332275390625,0.6939697265625,-0.631103515625
1695712573574154800,7.69715478515625,0.651092529296875,0.736083984375,-0.467376708984375
1695712573583707000,7.706706787109375,0.626983642578125,0.75531005859375,-0.30364990234375
1695712573593289200,7.716289306640625,0.584716796875,0.7257080078125,-0.126495361328125
1695712573602811000,7.725810791015625,0.51177978515625,0.658721923828125,0.06927490234375
1695712573612362800,7.73536279296875,0.42144775390625,0.531158447265625,0.304412841796875
1695712573621915000,7.744914794921875,0.335235595703125,0.38238525390625,0.586700439453125
1695712573631466800,7.754466796875,0.249786376953125,0.247955322265625,0.89569091796875
1695712573640988200,7.76398828125,0.17852783203125,0.161590576171875,1.2213134765625
1695712573650540300,7.773540283203125,0.12603759765625,0.134429931640625,1.556396484375
1695712573660092200,7.783092041015625,0.09002685546875,0.176239013671875,1.8853759765625
1695712573669644300,7.792644287109375,0.0848388671875,0.282745361328125,2.169036865234375
1695712573679165700,7.802165771484375,0.111083984375,0.43701171875,2.357635498046875
1695712573688717800,7.8117177734375,0.159912109375,0.615081787109375,2.363739013671875
1695712573698269700,7.821269775390625,0.255584716796875,0.841217041015625,2.063140869140625
1695712573707821800,7.83082177734375,0.400543212890625,1.10321044921875,1.373748779296875
1695712573717343200,7.84034326171875,0.52825927734375,1.38946533203125,0.352630615234375
1695712573726895400,7.849895263671875,0.5419921875,1.5093994140625,-0.916748046875
1695712573736447200,7.859447265625,0.54412841796875,0.898590087890625,-1.861419677734375
1695712573745999400,7.868999267578125,0.730743408203125,-0.458221435546875,-1.930694580078125
1695712573755551200,7.87855126953125,1.004180908203125,-1.212005615234375,-1.62384033203125
1695712573765072600,7.88807275390625,1.075592041015625,-0.792694091796875,-1.454010009765625
1695712573774624800,7.897624755859375,0.765533447265625,0.09490966796875,-1.31500244140625
1695712573784176600,7.9071767578125,0.357513427734375,0.7257080078125,-1.062469482421875
1695712573793728800,7.916728759765625,0.1275634765625,1.1383056640625,-0.61492919921875
1695712573803250200,7.926250244140625,0.0799560546875,1.661834716796875,0.015869140625
1695712573812802300,7.93580224609375,-0.023345947265625,1.846923828125,0.81695556640625
1695712573822354200,7.945354248046875,-0.2178955078125,0.706787109375,1.9000244140625
1695712573831906300,7.95490625,-0.444183349609375,-1.537017822265625,2.781524658203125
1695712573841427700,7.964427734375,-0.511474609375,-3.211669921875,2.059478759765625
1695712573850979800,7.973979736328125,-0.52154541015625,-1.944122314453125,-0.450286865234375
1695712573860531700,7.98353173828125,-0.12908935546875,0.273895263671875,-1.30279541015625
1695712573870083800,7.993083740234375,0.4766845703125,-0.60394287109375,0.145263671875
1695712573879635700,8.0026357421875,0.56976318359375,-0.807647705078125,1.345672607421875
1695712573889187800,8.012187744140626,0.292510986328125,0.254669189453125,1.61102294921875
1695712573898739700,8.02173974609375,-0.059051513671875,1.044921875,1.2298583984375
1695712573908291800,8.031291748046876,-0.4864501953125,0.592498779296875,0.86700439453125
1695712573917843700,8.04084375,-0.792694091796875,-0.653076171875,1.260986328125
1695712573927365000,8.050365234375,-0.8685302734375,-1.551666259765625,1.97479248046875
1695712573936917200,8.059917236328126,-0.766143798828125,-1.938934326171875,2.436370849609375
1695712573946469000,8.06946923828125,-0.52520751953125,-2.0257568359375,2.436981201171875
1695712573956021200,8.079021240234376,-0.23345947265625,-1.846466064453125,2.053375244140625
1695712573965542700,8.088542724609376,-0.027618408203125,-1.487579345703125,1.617431640625
1695712573975094800,8.0980947265625,0.017242431640625,-0.9912109375,1.451263427734375
1695712573984646700,8.107646728515626,-0.004730224609375,-0.6158447265625,1.54022216796875
1695712573994198800,8.11719873046875,-0.046234130859375,-0.654296875,1.696319580078125
1695712574003720200,8.12672021484375,-0.10711669921875,-0.928802490234375,1.780242919921875
1695712574013272300,8.136272216796876,-0.15716552734375,-1.0479736328125,1.765899658203125
1695712574022824200,8.14582421875,-0.1806640625,-0.843963623046875,1.707305908203125
1695712574032376300,8.155376220703126,-0.1617431640625,-0.33172607421875,1.673431396484375
1695712574041897700,8.164897705078126,-0.09857177734375,0.1165771484375,1.674346923828125
1695712574051449600,8.17444970703125,-0.032806396484375,0.148468017578125,1.654205322265625
1695712574061001700,8.184001708984376,-0.001678466796875,-0.092315673828125,1.635284423828125
1695712574070553600,8.1935537109375,-0.028839111328125,-0.3662109375,1.61041259765625
1695712574080105700,8.203105712890626,-0.11566162109375,-0.572662353515625,1.53900146484375
1695712574089627100,8.212627197265626,-0.20538330078125,-0.64117431640625,1.441192626953125
1695712574099179300,8.22217919921875,-0.275726318359375,-0.59478759765625,1.336212158203125
1695712574108731100,8.231731201171876,-0.349273681640625,-0.444793701171875,1.24298095703125
1695712574118283300,8.241283203125,-0.436859130859375,-0.28778076171875,1.18194580078125
1695712574127804700,8.2508046875,-0.4931640625,-0.161285400390625,1.18499755859375
1695712574137356800,8.260356689453126,-0.48492431640625,-0.076141357421875,1.2286376953125
1695712574146908700,8.26990869140625,-0.4534912109375,-0.069122314453125,1.25091552734375
1695712574156460800,8.279460693359376,-0.433502197265625,-0.162811279296875,1.22528076171875
1695712574166012700,8.2890126953125,-0.440216064453125,-0.214996337890625,1.19659423828125
1695712574175564800,8.298564697265626,-0.45867919921875,-0.195159912109375,1.1865234375
1695712574185116700,8.30811669921875,-0.4803466796875,-0.185699462890625,1.16912841796875
1695712574194668800,8.317668701171876,-0.4986572265625,-0.207977294921875,1.1175537109375
1695712574204220700,8.327220703125,-0.51055908203125,-0.216827392578125,1.032562255859375
1695712574213742000,8.3367421875,-0.5230712890625,-0.199432373046875,0.927886962890625
1695712574223294200,8.346294189453126,-0.53131103515625,-0.226898193359375,0.82305908203125
1695712574232846000,8.35584619140625,-0.5194091796875,-0.3533935546875,0.714569091796875
1695712574242398200,8.365398193359376,-0.467529296875,-0.521392822265625,0.590362548828125
1695712574251919600,8.374919677734376,-0.392913818359375,-0.60272216796875,0.46417236328125
1695712574261471700,8.3844716796875,-0.320892333984375,-0.526275634765625,0.373077392578125
1695712574271023600,8.394023681640626,-0.282135009765625,-0.37689208984375,0.329437255859375
1695712574280575700,8.40357568359375,-0.297393798828125,-0.27130126953125,0.313568115234375
1695712574290097200,8.41309716796875,-0.359954833984375,-0.27374267578125,0.278472900390625
1695712574299649300,8.422649169921876,-0.434722900390625,-0.37811279296875,0.222625732421875
1695712574309201200,8.432201171875,-0.49591064453125,-0.513458251953125,0.1519775390625
1695712574318753300,8.441753173828126,-0.53070068359375,-0.6317138671875,0.079345703125
1695712574328274700,8.451274658203126,-0.5322265625,-0.7470703125,0.012969970703125
1695712574337826600,8.46082666015625,-0.52001953125,-0.873260498046875,-0.069427490234375
1695712574347378700,8.470378662109376,-0.5120849609375,-0.934600830078125,-0.1873779296875
1695712574356930600,8.4799306640625,-0.4803466796875,-0.866241455078125,-0.364532470703125
1695712574366482700,8.489482666015626,-0.381011962890625,-0.65765380859375,-0.59906005859375
1695712574376004000,8.499004150390626,-0.213623046875,-0.3131103515625,-0.852508544921875
1695712574385556200,8.50855615234375,-0.019073486328125,0.123443603515625,-1.088714599609375
1695712574395108000,8.518108154296876,0.18218994140625,0.568695068359375,-1.31591796875
1695712574404660200,8.52766015625,0.376434326171875,0.863189697265625,-1.562957763671875
1695712574414181600,8.537181640625,0.49041748046875,0.927581787109375,-1.860198974609375
1695712574423733500,8.5467333984375,0.51177978515625,0.79010009765625,-2.264251708984375
1695712574433285600,8.55628564453125,0.460205078125,0.491485595703125,-2.78228759765625
1695712574442837500,8.56583740234375,0.401458740234375,0.03997802734375,-3.192138671875
1695712574452389600,8.5753896484375,0.405120849609375,-0.454864501953125,-3.336639404296875
1695712574461941800,8.584941650390626,0.4290771484375,-0.770416259765625,-3.214874267578125
1695712574471493600,8.59449365234375,0.417022705078125,-0.796966552734375,-2.986907958984375
1695712574481045800,8.604045654296876,0.346527099609375,-0.513458251953125,-2.8082275390625
1695712574490597600,8.61359765625,0.224609375,-0.216217041015625,-2.73040771484375
1695712574500119000,8.623119140625,0.11383056640625,-0.214691162109375,-2.71881103515625
1695712574509671200,8.632671142578126,0.0604248046875,-0.467376708984375,-2.696533203125
1695712574519223000,8.64222314453125,0.037994384765625,-0.780487060546875,-2.618255615234375
1695712574528775200,8.651775146484376,-0.001983642578125,-0.9637451171875,-2.487945556640625
1695712574538296600,8.661296630859376,-0.070343017578125,-0.928192138671875,-2.36297607421875
1695712574547848700,8.6708486328125,-0.1348876953125,-0.64178466796875,-2.268524169921875
1695712574557400600,8.680400634765626,-0.107421875,0.0177001953125,-2.164459228515625
1695712574566952700,8.68995263671875,0.0604248046875,0.82855224609375,-2.047119140625
1695712574576474000,8.69947412109375,0.2386474609375,1.236724853515625,-2.069091796875
1695712574586026000,8.70902587890625,0.310211181640625,1.16241455078125,-2.150115966796875
1695712574595578000,8.718578125,0.319366455078125,0.841217041015625,-2.135162353515625
1695712574605130200,8.728130126953126,0.351409912109375,0.556793212890625,-1.9866943359375
1695712574614651600,8.737651611328126,0.410919189453125,0.38970947265625,-1.76605224609375
1695712574624203500,8.74720361328125,0.4864501953125,0.39947509765625,-1.538543701171875
1695712574633755600,8.756755615234376,0.57373046875,0.485992431640625,-1.3330078125
1695712574643307500,8.7663076171875,0.662689208984375,0.625152587890625,-1.135711669921875
1695712574652859600,8.775859619140626,0.731353759765625,0.7659912109375,-0.95977783203125
1695712574662381000,8.785381103515626,0.760040283203125,0.884246826171875,-0.819854736328125
1695712574671933200,8.79493310546875,0.749969482421875,0.993499755859375,-0.704498291015625
1695712574681485000,8.804485107421876,0.719451904296875,1.06353759765625,-0.589599609375
1695712574691037200,8.814037109375,0.674896240234375,1.08245849609375,-0.459747314453125
1695712574700558600,8.82355859375,0.625152587890625,1.03424072265625,-0.308837890625
1695712574710110500,8.8331103515625,0.5633544921875,0.917816162109375,-0.117950439453125
1695712574719662600,8.84266259765625,0.49774169921875,0.76904296875,0.1263427734375
1695712574729214500,8.85221435546875,0.43304443359375,0.605926513671875,0.42236328125
1695712574738766600,8.8617666015625,0.372161865234375,0.45074462890625,0.75714111328125
1695712574748318500,8.871318359375,0.323028564453125,0.3399658203125,1.10748291015625
1695712574757870600,8.88087060546875,0.293426513671875,0.294952392578125,1.45263671875
1695712574767422700,8.890422607421876,0.287017822265625,0.3118896484375,1.766815185546875
1695712574776974600,8.899974609375,0.303802490234375,0.40252685546875,2.015228271484375
1695712574786496000,8.90949609375,0.315093994140625,0.549774169921875,2.142791748046875
1695712574796048100,8.919048095703126,0.313568115234375,0.7379150390625,2.074127197265625
1695712574805600000,8.92860009765625,0.338287353515625,0.919952392578125,1.756439208984375
1695712574815152000,8.938152099609376,0.400543212890625,1.04217529296875,1.17584228515625
1695712574824673500,8.947673583984376,0.45166015625,1.17767333984375,0.336456298828125
1695712574834225700,8.9572255859375,0.43792724609375,1.44012451171875,-0.753326416015625
1695712574843777500,8.966777587890626,0.44830322265625,1.44256591796875,-1.73492431640625
1695712574853329700,8.97632958984375,0.58319091796875,0.70556640625,-1.988525390625
1695712574862851000,8.98585107421875,0.762786865234375,-0.3717041015625,-1.62628173828125
1695712574872403000,8.99540283203125,0.7928466796875,-0.73150634765625,-1.25579833984375
1695712574881955000,9.004955078125,0.53741455078125,-0.34881591796875,-1.061859130859375
1695712574891507000,9.0145068359375,0.18402099609375,0.221405029296875,-0.87646484375
1695712574901028600,9.024028564453126,-0.005340576171875,0.7708740234375,-0.61187744140625
1695712574910580500,9.03358056640625,0.026702880859375,1.356048583984375,-0.2008056640625
1695712574920132600,9.043132568359376,0.017852783203125,1.9085693359375,0.348968505859375
1695712574929684500,9.0526845703125,-0.13397216796875,2.18597412109375,1.16607666015625
1695712574939236600,9.062236572265626,-0.399932861328125,1.283416748046875,2.428436279296875
1695712574948758000,9.071758056640626,-0.711517333984375,-1.583099365234375,3.031005859375
1695712574958310100,9.08131005859375,-0.57159423828125,-4.24896240234375,1.171875
1695712574967862000,9.090862060546876,-0.059356689453125,-2.241973876953125,-1.403350830078125
1695712574977414100,9.1004140625,0.725555419921875,0.650482177734375,-1.640625
1695712574986935600,9.109935546875,1.012725830078125,1.07940673828125,0.279693603515625
1695712574996487400,9.1194873046875,0.626678466796875,0.499114990234375,1.722259521484375
1695712575006039600,9.12903955078125,-0.001068115234375,0.128631591796875,2.053985595703125
1695712575015591400,9.13859130859375,-0.47393798828125,0.0531005859375,1.662139892578125
1695712575025143600,9.1481435546875,-0.79986572265625,0.3704833984375,1.14715576171875
1695712575034695400,9.1576953125,-0.95489501953125,0.136566162109375,1.27288818359375
1695712575044247600,9.16724755859375,-0.9552001953125,-0.706787109375,1.794586181640625
1695712575053799400,9.17679931640625,-0.823974609375,-1.627044677734375,2.21527099609375
1695712575063351600,9.1863515625,-0.53985595703125,-2.264862060546875,2.244873046875
1695712575072873000,9.195873046875,-0.12603759765625,-2.362213134765625,1.87408447265625
1695712575082425000,9.205425048828126,0.24749755859375,-1.80877685546875,1.47064208984375
1695712575091977000,9.21497705078125,0.427093505859375,-0.886077880859375,1.311187744140625
1695712575101529000,9.224529052734376,0.434417724609375,-0.151519775390625,1.383819580078125
1695712575111050500,9.234050537109376,0.297393798828125,0.128326416015625,1.531982421875
1695712575120602600,9.2436025390625,0.0836181640625,0.06072998046875,1.643524169921875
1695712575130154500,9.253154541015626,-0.14007568359375,-0.109405517578125,1.698150634765625
1695712575139706600,9.26270654296875,-0.304412841796875,-0.3277587890625,1.673431396484375
1695712575149228000,9.27222802734375,-0.358123779296875,-0.481109619140625,1.61041259765625
1695712575158780000,9.28177978515625,-0.290069580078125,-0.411224365234375,1.5960693359375
1695712575168332000,9.29133203125,-0.15411376953125,-0.164642333984375,1.60430908203125
1695712575177884000,9.3008837890625,-0.022430419921875,0.103759765625,1.60186767578125
1695712575187405600,9.310405517578126,0.007476806640625,0.201873779296875,1.56158447265625
1695712575196957400,9.31995751953125,-0.065155029296875,0.125579833984375,1.5155029296875
1695712575206509600,9.329509521484376,-0.189208984375,-0.103607177734375,1.454620361328125
1695712575216061400,9.3390615234375,-0.301055908203125,-0.33966064453125,1.390228271484375
1695712575225613600,9.348613525390626,-0.362091064453125,-0.458221435546875,1.340484619140625
1695712575235135000,9.358135009765626,-0.373992919921875,-0.439605712890625,1.300811767578125
1695712575244687000,9.36768701171875,-0.374908447265625,-0.347900390625,1.269989013671875
1695712575254239000,9.377239013671876,-0.391387939453125,-0.26641845703125,1.248779296875
1695712575263791000,9.386791015625,-0.427703857421875,-0.22552490234375,1.24908447265625
1695712575273312500,9.3963125,-0.462646484375,-0.189056396484375,1.2603759765625
1695712575282864400,9.405864501953126,-0.48828125,-0.126800537109375,1.280364990234375
1695712575292416500,9.41541650390625,-0.5029296875,-0.079803466796875,1.293487548828125
1695712575301968400,9.424968505859376,-0.5120849609375,-0.080413818359375,1.300811767578125
1695712575311520500,9.4345205078125,-0.5072021484375,-0.136871337890625,1.304168701171875
1695712575321072400,9.444072265625,-0.4730224609375,-0.221710205078125,1.282501220703125
1695712575330624500,9.45362451171875,-0.426788330078125,-0.272216796875,1.20849609375
1695712575340176400,9.46317626953125,-0.394134521484375,-0.25177001953125,1.064605712890625
1695712575349728500,9.472728515625,-0.375213623046875,-0.198211669921875,0.850830078125
1695712575359250000,9.48225,-0.350799560546875,-0.177154541015625,0.623016357421875
1695712575368802000,9.491802001953126,-0.326385498046875,-0.229034423828125,0.43792724609375
1695712575378354000,9.50135400390625,-0.315399169921875,-0.28564453125,0.319061279296875
1695712575387906000,9.510906005859376,-0.326080322265625,-0.3167724609375,0.237884521484375
1695712575397427500,9.520427490234376,-0.371551513671875,-0.369873046875,0.15777587890625
1695712575406979600,9.5299794921875,-0.428009033203125,-0.428619384765625,0.07110595703125
1695712575416531500,9.539531494140626,-0.432891845703125,-0.420684814453125,0.003509521484375
1695712575426083600,9.54908349609375,-0.370025634765625,-0.352783203125,-0.033111572265625
1695712575435605000,9.55860498046875,-0.27862548828125,-0.3436279296875,-0.075836181640625
1695712575445156900,9.568156982421876,-0.20904541015625,-0.461883544921875,-0.1812744140625
1695712575454709000,9.577708984375,-0.17608642578125,-0.67535400390625,-0.368804931640625
1695712575464260900,9.5872607421875,-0.12054443359375,-0.849151611328125,-0.63629150390625
1695712575473782500,9.596782470703126,-0.016937255859375,-0.792999267578125,-0.95855712890625
1695712575483334400,9.60633447265625,0.0836181640625,-0.446014404296875,-1.27166748046875
1695712575492886500,9.615886474609376,0.20111083984375,0.0518798828125,-1.536712646484375
1695712575502438400,9.6254384765625,0.367279052734375,0.503997802734375,-1.780242919921875
1695712575511960000,9.6349599609375,0.50048828125,0.72479248046875,-2.032470703125
1695712575521512000,9.644511962890626,0.53924560546875,0.6732177734375,-2.388916015625
1695712575531064000,9.65406396484375,0.48797607421875,0.40435791015625,-2.881011962890625
1695712575540616000,9.663615966796876,0.42510986328125,-0.044097900390625,-3.303680419921875
1695712575550137300,9.673137451171876,0.391082763671875,-0.498199462890625,-3.52447509765625
1695712575559689500,9.682689453125,0.407257080078125,-0.777130126953125,-3.52294921875
1695712575569241300,9.692241455078126,0.422515869140625,-0.852813720703125,-3.339385986328125
1695712575578793500,9.70179345703125,0.367889404296875,-0.815582275390625,-3.099365234375
1695712575588345300,9.711345458984376,0.23590087890625,-0.865325927734375,-2.899017333984375
1695712575597897500,9.7208974609375,0.09918212890625,-1.256561279296875,-2.7362060546875
1695712575607449300,9.730449462890626,0.042266845703125,-1.80206298828125,-2.564544677734375
1695712575617001500,9.74000146484375,0.0823974609375,-2.174072265625,-2.337646484375
1695712575626553300,9.74955322265625,0.13519287109375,-2.245330810546875,-2.07244873046875
1695712575636075000,9.759074951171876,0.11566162109375,-1.7645263671875,-1.893157958984375
1695712575645627000,9.768626953125,0.1861572265625,-0.6463623046875,-1.791229248046875
1695712575655179000,9.778178955078126,0.412445068359375,0.614776611328125,-1.818389892578125
1695712575664731000,9.78773095703125,0.543212890625,1.576690673828125,-2.00042724609375
1695712575674283000,9.797282958984376,0.51300048828125,1.91558837890625,-2.272186279296875
1695712575683804400,9.806804443359376,0.426025390625,1.8829345703125,-2.4078369140625
1695712575693356500,9.8163564453125,0.370330810546875,1.599884033203125,-2.39044189453125
1695712575702908400,9.825908447265626,0.349884033203125,1.273651123046875,-2.217254638671875
1695712575712460500,9.83546044921875,0.353546142578125,1.009063720703125,-1.920928955078125
1695712575721982000,9.84498193359375,0.382232666015625,0.82000732421875,-1.558990478515625
1695712575731533800,9.854533935546876,0.4248046875,0.7257080078125,-1.22894287109375
1695712575741086000,9.8640859375,0.48248291015625,0.7080078125,-0.97259521484375
1695712575750637800,9.873637939453126,0.552978515625,0.7171630859375,-0.797271728515625
1695712575760159500,9.883159423828126,0.609283447265625,0.7769775390625,-0.694732666015625
1695712575769711400,9.89271142578125,0.637969970703125,0.897674560546875,-0.62469482421875
1695712575779263500,9.902263427734376,0.637664794921875,1.04888916015625,-0.5474853515625
1695712575788815400,9.9118154296875,0.619964599609375,1.17889404296875,-0.450592041015625
1695712575798337000,9.9213369140625,0.589599609375,1.241302490234375,-0.330352783203125
1695712575807889000,9.930888916015626,0.5517578125,1.226348876953125,-0.1739501953125
1695712575817441000,9.94044091796875,0.50537109375,1.12945556640625,0.02960205078125
1695712575826993000,9.949992919921876,0.44708251953125,0.933685302734375,0.293731689453125
1695712575836545000,9.959544921875,0.378265380859375,0.66192626953125,0.608367919921875
1695712575846066400,9.96906640625,0.310821533203125,0.39794921875,0.944061279296875
1695712575855618300,9.978618408203126,0.267791748046875,0.209503173828125,1.2603759765625
1695712575865170400,9.98817041015625,0.245819091796875,0.121917724609375,1.54571533203125
1695712575874722300,9.997722412109376,0.23895263671875,0.130767822265625,1.786651611328125
1695712575884274400,10.0072744140625,0.267181396484375,0.251922607421875,1.9610595703125
1695712575893826300,10.016826416015626,0.319976806640625,0.469970703125,2.016448974609375
1695712575903378400,10.02637841796875,0.378265380859375,0.750732421875,1.8670654296875
1695712575912930300,10.035930419921876,0.43975830078125,0.997467041015625,1.452178955078125
1695712575922452000,10.045451904296876,0.496826171875,1.05926513671875,0.79193115234375
1695712575932003800,10.05500390625,0.5230712890625,1.06201171875,-0.074005126953125
1695712575941556000,10.064555908203126,0.49896240234375,1.278533935546875,-1.02142333984375
1695712575951107800,10.07410791015625,0.50537109375,1.53961181640625,-1.729736328125
1695712575960660000,10.083659912109376,0.602264404296875,1.225738525390625,-1.885528564453125
1695712575970181400,10.093181396484376,0.701446533203125,0.31768798828125,-1.550445556640625
1695712575979733500,10.1027333984375,0.726470947265625,-0.2838134765625,-1.22406005859375
1695712575989285400,10.112285400390626,0.5517578125,-0.3009033203125,-1.036376953125
1695712575998837500,10.12183740234375,0.2166748046875,-0.076751708984375,-0.827178955078125
1695712576008359000,10.13135888671875,-0.025787353515625,0.222320556640625,-0.53375244140625
1695712576017910800,10.140910888671876,-0.069732666015625,0.643157958984375,-0.124664306640625
1695712576027463000,10.150462890625,0.023345947265625,1.18011474609375,0.350189208984375
1695712576037014800,10.160014892578126,0.009002685546875,1.7706298828125,0.9033203125
1695712576046536400,10.169536376953126,-0.12542724609375,2.21405029296875,1.758270263671875
1695712576056088300,10.17908837890625,-0.440826416015625,1.561126708984375,2.99774169921875
1695712576065640400,10.188640380859376,-0.712127685546875,-1.479644775390625,3.186492919921875
1695712576075192300,10.1981923828125,-0.4931640625,-4.60845947265625,1.083221435546875
1695712576084713700,10.207713623046875,-0.075225830078125,-2.88665771484375,-1.092987060546875
1695712576094265900,10.217265869140626,0.641021728515625,0.565948486328125,-1.205902099609375
1695712576103818000,10.22681787109375,0.964508056640625,0.879669189453125,0.39520263671875
1695712576113369900,10.236369873046876,0.682525634765625,-0.182037353515625,1.643218994140625
1695712576122922000,10.245921875,0.16357421875,-0.28289794921875,1.9683837890625
1695712576132443400,10.255443359375,-0.2288818359375,0.42572021484375,1.418609619140625
1695712576141995300,10.264995361328126,-0.5596923828125,1.07696533203125,0.81207275390625
1695712576151547400,10.27454736328125,-0.798492431640625,0.588226318359375,0.994720458984375
1695712576161099300,10.284099365234376,-0.93719482421875,-0.541534423828125,1.787872314453125
1695712576170651400,10.2936513671875,-0.9295654296875,-1.914215087890625,2.57659912109375
1695712576180203300,10.303203369140626,-0.64239501953125,-2.983856201171875,2.836761474609375
1695712576189755400,10.31275537109375,-0.1873779296875,-3.080596923828125,2.363739013671875
1695712576199307300,10.322307373046876,0.18402099609375,-2.03704833984375,1.539306640625
1695712576208829000,10.331828857421876,0.320587158203125,-0.701904296875,1.053924560546875
1695712576218380800,10.341380859375,0.309600830078125,0.139312744140625,0.991058349609375
1695712576227933000,10.350932861328126,0.22369384765625,0.3302001953125,1.18316650390625
1695712576237484800,10.36048486328125,0.13763427734375,0.11474609375,1.452484130859375
1695712576247037000,10.370036865234376,0.09979248046875,-0.190887451171875,1.664886474609375
1695712576256558300,10.379558349609376,0.10650634765625,-0.439910888671875,1.732940673828125
1695712576266110500,10.3891103515625,0.13427734375,-0.534515380859375,1.681671142578125
1695712576275662300,10.398662353515626,0.1568603515625,-0.422515869140625,1.57562255859375
1695712576285214500,10.40821435546875,0.1513671875,-0.167388916015625,1.51214599609375
1695712576294736000,10.41773583984375,0.11260986328125,-0.01312255859375,1.51397705078125
1695712576304287700,10.427287841796876,0.026702880859375,-0.048370361328125,1.5216064453125
1695712576313839900,10.43683984375,-0.073394775390625,-0.201873779296875,1.48406982421875
1695712576323391700,10.446391845703126,-0.1483154296875,-0.409698486328125,1.420135498046875
1695712576332913400,10.455913330078126,-0.19683837890625,-0.577850341796875,1.329498291015625
1695712576342465300,10.46546533203125,-0.234375,-0.65032958984375,1.2445068359375
1695712576352017400,10.475017333984376,-0.2587890625,-0.6329345703125,1.204833984375
1695712576361569300,10.4845693359375,-0.27984619140625,-0.578765869140625,1.20147705078125
1695712576371090700,10.494090576171875,-0.312042236328125,-0.541839599609375,1.20941162109375
1695712576380642800,10.503642822265626,-0.361175537109375,-0.486907958984375,1.229248046875
1695712576390194700,10.513194580078125,-0.417327880859375,-0.419158935546875,1.2432861328125
1695712576399746800,10.522746826171876,-0.4705810546875,-0.3741455078125,1.23931884765625
1695712576409298700,10.532298583984375,-0.5194091796875,-0.32318115234375,1.246337890625
1695712576418820400,10.5418203125,-0.555419921875,-0.23712158203125,1.287078857421875
1695712576428372200,10.551372314453126,-0.56793212890625,-0.201263427734375,1.341094970703125
1695712576437924400,10.56092431640625,-0.5548095703125,-0.29632568359375,1.369476318359375
1695712576447476200,10.570476318359376,-0.5255126953125,-0.500640869140625,1.330413818359375
1695712576457028400,10.5800283203125,-0.49835205078125,-0.7012939453125,1.2139892578125
1695712576466580200,10.589580322265626,-0.4766845703125,-0.780487060546875,1.037750244140625
1695712576476132400,10.59913232421875,-0.450286865234375,-0.74493408203125,0.83740234375
1695712576485684200,10.608684326171876,-0.405120849609375,-0.6719970703125,0.648345947265625
1695712576495206000,10.618205810546876,-0.346832275390625,-0.5865478515625,0.50872802734375
1695712576504757800,10.6277578125,-0.316009521484375,-0.469512939453125,0.41748046875
1695712576514310000,10.637309814453126,-0.329742431640625,-0.40252685546875,0.349884033203125
1695712576523861800,10.64686181640625,-0.366058349609375,-0.467071533203125,0.284576416015625
1695712576533414000,10.656413818359376,-0.392303466796875,-0.59967041015625,0.215911865234375
1695712576542935300,10.665935302734376,-0.379180908203125,-0.64605712890625,0.13427734375
1695712576552487200,10.675487060546875,-0.326080322265625,-0.577850341796875,0.03662109375
1695712576562039300,10.685039306640626,-0.24993896484375,-0.481109619140625,-0.081024169921875
1695712576571591200,10.694591064453125,-0.1544189453125,-0.444488525390625,-0.23284912109375
1695712576581112800,10.70411279296875,-0.059661865234375,-0.496063232421875,-0.451507568359375
1695712576590664700,10.713664794921876,0.045013427734375,-0.536346435546875,-0.738677978515625
1695712576600216800,10.723216796875,0.1751708984375,-0.417022705078125,-1.03515625
1695712576609768700,10.732768798828126,0.316009521484375,-0.099334716796875,-1.3128662109375
1695712576619290400,10.742290283203126,0.4632568359375,0.29510498046875,-1.556549072265625
1695712576628842200,10.75184228515625,0.602264404296875,0.607452392578125,-1.815948486328125
1695712576638394400,10.761394287109376,0.648651123046875,0.7391357421875,-2.207489013671875
1695712576647946200,10.7709462890625,0.58929443359375,0.68511962890625,-2.74200439453125
1695712576657467600,10.780467529296875,0.47637939453125,0.46600341796875,-3.255157470703125
1695712576667019800,10.790019775390626,0.42755126953125,0.0396728515625,-3.54705810546875
1695712576676571600,10.799571533203125,0.420379638671875,-0.36468505859375,-3.531494140625
1695712576686123800,10.809123779296876,0.392913818359375,-0.552520751953125,-3.284454345703125
1695712576695675600,10.818675537109375,0.328216552734375,-0.444793701171875,-2.993621826171875
1695712576705197300,10.828197265625,0.22247314453125,-0.166778564453125,-2.79754638671875
1695712576714749200,10.837749267578126,0.09246826171875,-0.094451904296875,-2.73162841796875
1695712576724301300,10.84730126953125,-0.019378662109375,-0.402984619140625,-2.74810791015625
1695712576733853200,10.856853271484376,-0.11322021484375,-0.9466552734375,-2.75634765625
1695712576743405300,10.8664052734375,-0.21697998046875,-1.490020751953125,-2.66571044921875
1695712576752957200,10.875957275390626,-0.313262939453125,-1.69189453125,-2.46337890625
1695712576762509300,10.88550927734375,-0.358123779296875,-1.3775634765625,-2.218780517578125
1695712576772061200,10.895061279296876,-0.308685302734375,-0.62225341796875,-2.01904296875
1695712576781582800,10.904582763671876,-0.10650634765625,0.34393310546875,-1.94976806640625
1695712576791134700,10.914134765625,0.14129638671875,1.1822509765625,-2.02606201171875
1695712576800686800,10.923686767578126,0.1800537109375,1.42547607421875,-2.245330810546875
1695712576810238700,10.93323876953125,0.10986328125,1.17462158203125,-2.38616943359375
1695712576819760000,10.942760009765625,0.108642578125,0.6842041015625,-2.36663818359375
1695712576829312300,10.952312255859376,0.16998291015625,0.35247802734375,-2.156829833984375
1695712576838864100,10.961864013671875,0.262603759765625,0.269927978515625,-1.819000244140625
1695712576848416300,10.971416259765626,0.345611572265625,0.3131103515625,-1.472930908203125
1695712576857968000,10.980968017578125,0.41900634765625,0.35186767578125,-1.196136474609375
1695712576867489800,10.99048974609375,0.49560546875,0.413818359375,-0.99273681640625
1695712576877041700,11.000041748046876,0.56365966796875,0.538177490234375,-0.839691162109375
1695712576886593800,11.00959375,0.608367919921875,0.70098876953125,-0.732269287109375
1695712576896145700,11.019145751953126,0.619964599609375,0.850372314453125,-0.65093994140625
1695712576905667300,11.028667236328126,0.606231689453125,0.973358154296875,-0.55877685546875
1695712576915219200,11.03821923828125,0.577392578125,1.04156494140625,-0.430145263671875
1695712576924771300,11.047771240234376,0.53253173828125,1.0382080078125,-0.2691650390625
1695712576934323200,11.0573232421875,0.47454833984375,0.976104736328125,-0.066070556640625
1695712576943844600,11.0668447265625,0.407257080078125,0.840606689453125,0.1849365234375
1695712576953396700,11.076396728515626,0.338592529296875,0.662841796875,0.48919677734375
1695712576962948600,11.085948486328125,0.274810791015625,0.510101318359375,0.8203125
1695712576972500700,11.095500732421876,0.238494873046875,0.41748046875,1.15203857421875
1695712576982052600,11.105052490234375,0.22125244140625,0.39703369140625,1.46820068359375
1695712576991574300,11.11457421875,0.22369384765625,0.46875,1.759185791015625
1695712577001126100,11.124126220703126,0.255584716796875,0.623931884765625,1.992340087890625
1695712577010678300,11.13367822265625,0.300140380859375,0.858917236328125,2.113494873046875
1695712577020230100,11.143230224609376,0.336151123046875,1.13800048828125,1.98394775390625
1695712577029782300,11.1527822265625,0.404205322265625,1.297149658203125,1.453094482421875
1695712577039334100,11.162334228515626,0.50079345703125,1.177978515625,0.563812255859375
1695712577048886300,11.17188623046875,0.50537109375,1.201324462890625,-0.438079833984375
1695712577058438100,11.181438232421876,0.353546142578125,1.305694580078125,-1.38824462890625
1695712577067959800,11.190959716796876,0.258941650390625,1.08245849609375,-1.95220947265625
1695712577077511700,11.20051171875,0.417327880859375,0.196990966796875,-1.9439697265625
1695712577087063800,11.210063720703126,0.702056884765625,-0.64239501953125,-1.627197265625
1695712577096615700,11.21961572265625,0.79132080078125,-0.723876953125,-1.36962890625
1695712577106137000,11.22913720703125,0.49896240234375,-0.216217041015625,-1.145477294921875
1695712577115689200,11.238689208984376,0.12237548828125,0.3143310546875,-0.8758544921875
1695712577125241000,11.248240966796875,-0.045318603515625,0.75408935546875,-0.500030517578125
1695712577134793200,11.257793212890626,0.001068115234375,1.312713623046875,-0.027008056640625
1695712577144314600,11.267314697265626,-0.045013427734375,2.010345458984375,0.537109375
1695712577153866800,11.27686669921875,-0.2081298828125,2.5860595703125,1.20361328125
1695712577163418600,11.286418701171876,-0.331878662109375,1.612701416015625,2.002410888671875
1695712577172970800,11.295970703125,-0.314483642578125,-1.567535400390625,2.098236083984375
1695712577182522600,11.305522705078126,-0.10345458984375,-3.718719482421875,1.041107177734375
1695712577192044300,11.315044189453126,0.128173828125,-1.916351318359375,-0.15350341796875
1695712577201596200,11.32459619140625,0.491943359375,-0.04058837890625,-0.26947021484375
1695712577211148300,11.334148193359376,0.5889892578125,-0.409393310546875,0.80596923828125
1695712577220700200,11.3437001953125,0.4400634765625,-0.7110595703125,1.688995361328125
1695712577230221600,11.3532216796875,0.032501220703125,-0.070037841796875,1.925048828125
1695712577239773700,11.362773681640626,-0.363006591796875,0.8074951171875,1.633758544921875
1695712577249325600,11.37232568359375,-0.5731201171875,0.915985107421875,1.410675048828125
1695712577258877700,11.381877685546876,-0.64361572265625,0.264434814453125,1.755523681640625
1695712577268399000,11.391399169921876,-0.58319091796875,-0.458831787109375,2.385101318359375
1695712577277951200,11.400951171875,-0.388946533203125,-1.1187744140625,2.789764404296875
1695712577287503000,11.410503173828126,-0.1177978515625,-1.71722412109375,2.6629638671875
1695712577297055200,11.42005517578125,0.1312255859375,-1.8389892578125,2.106475830078125
1695712577306607000,11.429607177734376,0.273895263671875,-1.3629150390625,1.57440185546875
1695712577316159200,11.4391591796875,0.321807861328125,-0.64483642578125,1.344757080078125
1695712577325711000,11.448711181640626,0.315093994140625,-0.086212158203125,1.381683349609375
1695712577335263200,11.45826318359375,0.241546630859375,0.147857666015625,1.58355712890625
1695712577344815000,11.467815185546876,0.11505126953125,0.03662109375,1.81427001953125
1695712577354336800,11.477336669921876,0.014495849609375,-0.26702880859375,1.951904296875
1695712577363888600,11.486888671875,-0.024261474609375,-0.525054931640625,1.97601318359375
1695712577373440800,11.496440673828126,-0.018463134765625,-0.615234375,1.9073486328125
1695712577382992600,11.50599267578125,0.020599365234375,-0.484161376953125,1.768035888671875
1695712577392514000,11.51551416015625,0.08331298828125,-0.222015380859375,1.61224365234375
1695712577402066200,11.525066162109376,0.1202392578125,-0.00518798828125,1.52557373046875
1695712577411618000,11.5346181640625,0.10955810546875,0.02349853515625,1.5423583984375
1695712577421170200,11.544170166015626,0.045928955078125,-0.094146728515625,1.5869140625
1695712577430722000,11.55372216796875,-0.016326904296875,-0.30609130859375,1.580810546875
1695712577440243700,11.56324365234375,-0.037689208984375,-0.570220947265625,1.5155029296875
1695712577449795600,11.572795654296876,-0.033721923828125,-0.75164794921875,1.421051025390625
1695712577459347700,11.58234765625,-0.024261474609375,-0.70892333984375,1.330108642578125
1695712577468899600,11.591899658203126,-0.030670166015625,-0.493316650390625,1.25823974609375
1695712577478421200,11.601421142578126,-0.081634521484375,-0.2972412109375,1.21551513671875
1695712577487973000,11.61097314453125,-0.16448974609375,-0.189056396484375,1.18621826171875
1695712577497525200,11.620525146484376,-0.24017333984375,-0.158538818359375,1.16241455078125
1695712577507077000,11.6300771484375,-0.297088623046875,-0.174407958984375,1.15936279296875
1695712577516598500,11.6395986328125,-0.332183837890625,-0.215606689453125,1.17950439453125
1695712577526150700,11.649150634765626,-0.343475341796875,-0.31890869140625,1.20269775390625
1695712577535702500,11.65870263671875,-0.344390869140625,-0.474700927734375,1.221923828125
1695712577545254700,11.668254638671876,-0.356597900390625,-0.58837890625,1.2249755859375
1695712577554776000,11.677776123046876,-0.381317138671875,-0.60699462890625,1.17523193359375
1695712577564328200,11.687328125,-0.409698486328125,-0.540008544921875,1.067962646484375
1695712577573880000,11.696880126953126,-0.442352294921875,-0.432281494140625,0.931854248046875
1695712577583432200,11.70643212890625,-0.460205078125,-0.38360595703125,0.7916259765625
1695712577592984000,11.715984130859376,-0.445556640625,-0.462799072265625,0.663299560546875
1695712577602536200,11.7255361328125,-0.399932861328125,-0.6231689453125,0.54107666015625
1695712577612088000,11.735088134765626,-0.345001220703125,-0.70556640625,0.42633056640625
1695712577621640200,11.74464013671875,-0.309906005859375,-0.6683349609375,0.332794189453125
1695712577631192000,11.754192138671876,-0.313568115234375,-0.64178466796875,0.251007080078125
1695712577640713700,11.763713623046876,-0.334625244140625,-0.69091796875,0.157470703125
1695712577650265600,11.773265625,-0.339508056640625,-0.7421875,0.062255859375
1695712577659817700,11.782817626953126,-0.308380126953125,-0.7269287109375,-0.027008056640625
1695712577669369600,11.79236962890625,-0.24322509765625,-0.6396484375,-0.125274658203125
1695712577678891000,11.80189111328125,-0.16571044921875,-0.494842529296875,-0.262451171875
1695712577688443100,11.811443115234376,-0.078277587890625,-0.31219482421875,-0.448760986328125
1695712577697995000,11.8209951171875,0.037078857421875,-0.161590576171875,-0.67474365234375
1695712577707547100,11.830547119140626,0.16876220703125,-0.083160400390625,-0.8892822265625
1695712577717068500,11.840068603515626,0.285491943359375,0.028076171875,-1.105194091796875
1695712577726620700,11.84962060546875,0.401763916015625,0.2972412109375,-1.3623046875
1695712577736172500,11.859172607421876,0.53497314453125,0.587615966796875,-1.6558837890625
1695712577745724700,11.868724609375,0.5804443359375,0.72784423828125,-2.03460693359375
1695712577755276500,11.878276611328126,0.50048828125,0.68634033203125,-2.564239501953125
1695712577764798200,11.887798095703126,0.398101806640625,0.4620361328125,-3.1024169921875
1695712577774350000,11.89735009765625,0.364532470703125,0.01922607421875,-3.4271240234375
1695712577783902200,11.906902099609376,0.382537841796875,-0.489349365234375,-3.41461181640625
1695712577793454000,11.9164541015625,0.395355224609375,-0.817413330078125,-3.1683349609375
1695712577802975500,11.9259755859375,0.383758544921875,-0.792388916015625,-2.918548583984375
1695712577812527600,11.935527587890626,0.324249267578125,-0.499725341796875,-2.799072265625
1695712577822079500,11.94507958984375,0.2154541015625,-0.28045654296875,-2.80487060546875
1695712577831631600,11.954631591796876,0.063323974609375,-0.32470703125,-2.870941162109375
1695712577841153000,11.964153076171876,-0.10650634765625,-0.567474365234375,-2.888946533203125
1695712577850705200,11.973705078125,-0.275115966796875,-0.821685791015625,-2.7923583984375
1695712577860257000,11.983257080078126,-0.391998291015625,-0.96466064453125,-2.585906982421875
1695712577869809200,11.99280908203125,-0.399017333984375,-0.762786865234375,-2.272796630859375
1695712577879361000,12.002361083984376,-0.2178955078125,-0.111846923828125,-1.951904296875
1695712577888913200,12.0119130859375,0.082855224609375,0.46844482421875,-1.899566650390625
1695712577898465000,12.021465087890626,0.181884765625,0.932769775390625,-2.02850341796875
1695712577908017200,12.03101708984375,0.12542724609375,0.920257568359375,-2.282257080078125
1695712577917569000,12.040569091796876,0.0830078125,0.597076416015625,-2.451171875
1695712577927090700,12.050090576171876,0.1165771484375,0.3314208984375,-2.44873046875
1695712577936642600,12.059642578125,0.19775390625,0.265045166015625,-2.31048583984375
1695712577946194700,12.069194580078126,0.300445556640625,0.34759521484375,-2.0892333984375
1695712577955746600,12.07874658203125,0.395965576171875,0.4644775390625,-1.836395263671875
1695712577965268000,12.08826806640625,0.484619140625,0.583648681640625,-1.593017578125
1695712577974820000,12.097820068359376,0.55908203125,0.71258544921875,-1.39495849609375
1695712577984372000,12.1073720703125,0.59844970703125,0.852203369140625,-1.25579833984375
1695712577993924000,12.116924072265626,0.6072998046875,0.976104736328125,-1.137847900390625
1695712578003445500,12.126445556640626,0.59173583984375,1.0784912109375,-1.0028076171875
1695712578012997600,12.13599755859375,0.557861328125,1.13311767578125,-0.838165283203125
1695712578022549500,12.145549560546876,0.5072021484375,1.09588623046875,-0.6475830078125
1695712578032101600,12.1551015625,0.44281005859375,0.985870361328125,-0.427093505859375
1695712578041653500,12.164653564453126,0.366973876953125,0.83740234375,-0.16326904296875
1695712578051175000,12.1741748046875,0.299835205078125,0.66253662109375,0.1507568359375
1695712578060727000,12.18372705078125,0.256195068359375,0.503997802734375,0.50933837890625
1695712578070279000,12.19327880859375,0.22613525390625,0.4205322265625,0.88104248046875
1695712578079831000,12.2028310546875,0.21636962890625,0.41717529296875,1.2384033203125
1695712578089352400,12.2123525390625,0.233154296875,0.4754638671875,1.56829833984375
1695712578098904600,12.221904541015626,0.284881591796875,0.596160888671875,1.8603515625
1695712578108456400,12.23145654296875,0.362396240234375,0.78094482421875,2.077484130859375
1695712578118008600,12.241008544921876,0.432281494140625,1.01470947265625,2.114410400390625
1695712578127530000,12.250530029296876,0.48065185546875,1.273651123046875,1.849365234375
1695712578137082000,12.26008203125,0.5621337890625,1.444091796875,1.296844482421875
1695712578146634000,12.269634033203126,0.625457763671875,1.500244140625,0.586700439453125
1695712578156186000,12.27918603515625,0.52032470703125,1.597137451171875,-0.22369384765625
1695712578165738000,12.288738037109376,0.312347412109375,1.514892578125,-1.109161376953125
1695712578175290000,12.2982900390625,0.2197265625,0.961151123046875,-1.69891357421875
1695712578184842000,12.307842041015626,0.348968505859375,-0.183563232421875,-1.574554443359375
1695712578194394000,12.31739404296875,0.49468994140625,-1.08917236328125,-1.124114990234375
1695712578203946000,12.326946044921876,0.45562744140625,-1.11663818359375,-0.843353271484375
1695712578213467400,12.33646728515625,0.20294189453125,-0.40130615234375,-0.802459716796875
1695712578223019500,12.34601953125,-0.022735595703125,0.44677734375,-0.848846435546875
1695712578232571400,12.3555712890625,-0.1202392578125,1.229705810546875,-0.740203857421875
1695712578242123500,12.36512353515625,-0.394134521484375,1.881103515625,-0.451202392578125
1695712578251645000,12.37464501953125,-0.722198486328125,2.017364501953125,-0.034637451171875
1695712578261197000,12.384197021484376,-0.685577392578125,0.543670654296875,0.558013916015625
1695712578270749000,12.3937490234375,-0.18951416015625,-1.507415771484375,0.931243896484375
1695712578280301000,12.403301025390626,0.11566162109375,-1.03057861328125,0.215606689453125
1695712578289822500,12.412822509765626,0.2008056640625,-0.115203857421875,-0.1416015625
1695712578299374600,12.42237451171875,0.289764404296875,-0.928497314453125,0.951995849609375
1695712578308926500,12.431926513671876,0.26031494140625,-1.016845703125,1.8414306640625
1695712578318478600,12.441478515625,0.033416748046875,-0.25634765625,1.82861328125
1695712578328030500,12.451030517578126,-0.22735595703125,0.270538330078125,1.48956298828125
1695712578337552000,12.4605517578125,-0.386199951171875,-0.003662109375,1.671295166015625
1695712578347104000,12.47010400390625,-0.333099365234375,-0.575103759765625,2.21954345703125
1695712578356655900,12.47965576171875,-0.09918212890625,-0.98388671875,2.59368896484375
1695712578366208000,12.4892080078125,0.13275146484375,-1.011962890625,2.5628662109375
1695712578375729400,12.4987294921875,0.301666259765625,-0.788726806640625,2.22412109375
1695712578385281500,12.508281494140626,0.384674072265625,-0.493011474609375,1.786956787109375
1695712578394833400,12.51783349609375,0.350189208984375,-0.2349853515625,1.48681640625
1695712578404385500,12.527385498046876,0.272979736328125,-0.157928466796875,1.388397216796875
1695712578413907000,12.536906982421876,0.216064453125,-0.22125244140625,1.488037109375
1695712578423459000,12.546458984375,0.1544189453125,-0.36041259765625,1.685943603515625
1695712578433011000,12.556010986328126,0.07843017578125,-0.496978759765625,1.88018798828125
1695712578442563000,12.56556298828125,-0.008697509765625,-0.549163818359375,1.9830322265625
1695712578452115000,12.575114990234376,-0.100250244140625,-0.63323974609375,1.98455810546875
1695712578461667000,12.5846669921875,-0.13671875,-0.64544677734375,1.9073486328125
1695712578471219000,12.594218994140626,-0.101776123046875,-0.515289306640625,1.770477294921875
1695712578480771000,12.60377099609375,0.001373291015625,-0.31402587890625,1.63421630859375
1695712578490323000,12.613322998046876,0.08148193359375,-0.183258056640625,1.52679443359375
1695712578499844400,12.62284423828125,0.0958251953125,-0.193023681640625,1.46087646484375
1695712578509396500,12.632396484375,0.0750732421875,-0.2777099609375,1.445465087890625
1695712578518948400,12.6419482421875,0.028839111328125,-0.394287109375,1.436614990234375
1695712578528500500,12.65150048828125,-0.019073486328125,-0.511322021484375,1.401824951171875
1695712578538022000,12.66102197265625,-0.059661865234375,-0.584716796875,1.349639892578125
1695712578547574000,12.670573974609376,-0.088653564453125,-0.5853271484375,1.301422119140625
1695712578557126000,12.6801259765625,-0.11322021484375,-0.530853271484375,1.2713623046875
1695712578566678000,12.689677978515626,-0.1397705078125,-0.449676513671875,1.2542724609375
1695712578576199400,12.699199462890626,-0.1806640625,-0.33538818359375,1.24237060546875
1695712578585751600,12.70875146484375,-0.23162841796875,-0.22064208984375,1.2542724609375
1695712578595303400,12.718303466796876,-0.27313232421875,-0.146331787109375,1.286773681640625
1695712578604855600,12.72785546875,-0.301055908203125,-0.171051025390625,1.315765380859375
1695712578614407400,12.737407470703126,-0.323638916015625,-0.25360107421875,1.327362060546875
1695712578623928800,12.7469287109375,-0.350494384765625,-0.31463623046875,1.331939697265625
1695712578633481000,12.75648095703125,-0.371246337890625,-0.3729248046875,1.333160400390625
1695712578643032800,12.76603271484375,-0.388031005859375,-0.490875244140625,1.309661865234375
1695712578652585000,12.7755849609375,-0.402679443359375,-0.595703125,1.25762939453125
1695712578662106400,12.7851064453125,-0.427398681640625,-0.59661865234375,1.1822509765625
1695712578671658500,12.794658447265626,-0.439300537109375,-0.517120361328125,1.068572998046875
1695712578681210400,12.80421044921875,-0.425567626953125,-0.471649169921875,0.9088134765625
1695712578690762500,12.813762451171876,-0.381011962890625,-0.503387451171875,0.718841552734375
1695712578700284000,12.823283935546876,-0.313568115234375,-0.524444580078125,0.55145263671875
1695712578709836000,12.8328359375,-0.25482177734375,-0.451202392578125,0.45257568359375
1695712578719388000,12.842387939453126,-0.233154296875,-0.35430908203125,0.40557861328125
1695712578728940000,12.85193994140625,-0.24627685546875,-0.3460693359375,0.359039306640625
1695712578738492000,12.861491943359376,-0.28228759765625,-0.449371337890625,0.279998779296875
1695712578748044000,12.8710439453125,-0.312652587890625,-0.572052001953125,0.17120361328125
1695712578757596000,12.880595947265626,-0.310211181640625,-0.60638427734375,0.042724609375
1695712578767148000,12.89014794921875,-0.27435302734375,-0.522918701171875,-0.108795166015625
1695712578776700000,12.899699951171876,-0.223388671875,-0.37811279296875,-0.296630859375
1695712578786221300,12.90922119140625,-0.1483154296875,-0.2703857421875,-0.53680419921875
1695712578795773400,12.9187734375,-0.027313232421875,-0.23193359375,-0.796051025390625
1695712578805325300,12.9283251953125,0.0872802734375,-0.141754150390625,-1.052398681640625
1695712578814877400,12.93787744140625,0.1593017578125,0.09307861328125,-1.34246826171875
