time,seconds_elapsed,z,y,x
1695712565972199700,0.09519970703125,7.1605377197265625,2.580392837524414,-1.2355461120605469
1695712565982819800,0.10581982421875,7.565698623657227,2.303098678588867,-1.8958415985107422
1695712565992371700,0.115371826171875,7.799272537231445,1.7155704498291016,-1.9389629364013672
1695712566001893000,0.12489306640625,6.7101593017578125,0.9810104370117188,-1.3457450866699219
1695712566011445200,0.1344453125,4.813419342041016,0.5923194885253906,-0.6971282958984375
1695712566020997000,0.1439970703125,3.4314403533935547,0.9097404479980469,-1.4987659454345703
1695712566030549200,0.15354931640625,2.583087921142578,2.6938858032226562,-5.666563034057617
1695712566040162300,0.163162353515625,4.120183944702148,3.428445816040039,-6.4801788330078125
1695712566054414000,0.1774140625,4.189357757568359,3.5137901306152344,-3.3434009552001953
1695712566063966000,0.186966064453125,3.9153575897216797,3.8928985595703125,-2.6471710205078125
1695712566073487400,0.1964873046875,4.77778434753418,4.55169677734375,-3.5850601196289062
1695712566083009000,0.206009033203125,7.777711868286133,6.423282623291016,-5.547080993652344
1695712566092561000,0.215560791015625,17.535411834716797,7.975351333618164,-7.150056838989258
1695712566102113000,0.225113037109375,11.649948120117188,4.873908996582031,-4.341180801391602
1695712566111665000,0.234664794921875,10.99683952331543,2.438152313232422,-1.3169975280761719
1695712566121217000,0.244217041015625,10.341634750366211,1.8955421447753906,-0.9843044281005859
1695712566130738400,0.253738525390625,10.093986511230469,1.4239025115966797,-1.4796009063720703
1695712566140290600,0.26329052734375,10.582395553588867,0.9289054870605469,-1.1948204040527344
1695712566149842400,0.272842529296875,9.626838684082031,0.9265098571777344,-0.6779632568359375
1695712566159394600,0.28239453125,7.734889984130859,1.1870346069335938,-0.38839149475097656
1695712566168946400,0.291946533203125,7.091663360595703,1.6655616760253906,-0.3192176818847656
1695712566178498600,0.30149853515625,7.44172477722168,2.38604736328125,-0.40276527404785156
1695712566188050400,0.311050537109375,8.199642181396484,2.9831581115722656,-0.5968112945556641
1695712566197602600,0.3206025390625,9.912817001342773,3.269735336303711,-0.47942543029785156
1695712566207124000,0.3301240234375,11.845191955566406,3.2577571868896484,0.0014972686767578125
1695712566216675800,0.33967578125,12.862735748291016,3.310161590576172,0.5566844940185547
1695712566226228000,0.34922802734375,13.167579650878906,3.7815017700195312,1.1379241943359375
1695712566235779800,0.35877978515625,12.63155746459961,4.127370834350586,1.4418697357177734
1695712566245301500,0.368301513671875,11.96677017211914,4.407060623168945,1.5637474060058594
1695712566254853400,0.377853271484375,10.930360794067383,4.416643142700195,1.7146720886230469
1695712566264405500,0.387405517578125,9.786447525024414,4.02076530456543,1.7314414978027344
1695712566273957400,0.396957275390625,10.103569030761719,3.2556610107421875,1.8269672393798828
1695712566283509500,0.406509521484375,9.426803588867188,2.518705368041992,1.8365497589111328
1695712566293031000,0.416031005859375,8.595220565795898,2.0967750549316406,1.8940448760986328
1695712566302583000,0.4255830078125,8.9500732421875,1.9003334045410156,1.9611225128173828
1695712566312135000,0.435135009765625,9.202812194824219,1.8859596252441406,1.9539356231689453
1695712566321687000,0.44468701171875,9.216886520385742,2.068326950073242,2.1500778198242188
1695712566331208400,0.45420849609375,9.104890823364258,2.4618091583251953,2.288724899291992
1695712566340760300,0.46376025390625,9.093212127685547,2.9070968627929688,2.3534069061279297
1695712566350312400,0.4733125,9.081233978271484,3.1987648010253906,2.370176315307617
1695712566359864300,0.4828642578125,9.14561653137207,3.371549606323242,2.3294506072998047
1695712566369386000,0.492385986328125,9.260007858276367,3.3999977111816406,1.9898700714111328
1695712566378937900,0.501937744140625,9.426803588867188,3.402393341064453,1.4706172943115234
1695712566388490000,0.511489990234375,9.879278182983398,3.3431015014648438,2.554340362548828
1695712566398041900,0.521041748046875,10.132017135620117,2.8313350677490234,3.004119873046875
1695712566407563500,0.5305634765625,10.61563491821289,2.848104476928711,2.520801544189453
1695712566417115400,0.540115478515625,10.86837387084961,3.5634994506835938,2.1884078979492188
1695712566426667500,0.54966748046875,10.572813034057617,3.7958755493164062,2.2147598266601562
1695712566436219400,0.559219482421875,10.30120849609375,3.45928955078125,2.389341354370117
1695712566445802000,0.568802001953125,10.220056533813477,3.4191627502441406,2.5040321350097656
1695712566455323400,0.578323486328125,10.353612899780273,3.4829463958740234,2.5327796936035156
1695712566464875500,0.58787548828125,10.45842170715332,3.5706863403320312,2.394132614135742
1695712566474427400,0.597427490234375,10.622821807861328,3.665313720703125,2.3821544647216797
1695712566483979500,0.6069794921875,10.620426177978516,3.7958755493164062,2.3821544647216797
1695712566493501000,0.6165009765625,10.482378005981445,3.7650318145751953,2.317472457885742
1695712566503052800,0.626052734375,10.279647827148438,4.267215728759766,2.3198680877685547
1695712566512605000,0.63560498046875,9.934377670288086,4.376216888427734,2.2719554901123047
1695712566522156800,0.64515673828125,10.513221740722656,3.5706863403320312,2.0806045532226562
1695712566531678500,0.654678466796875,10.725234985351562,3.5281639099121094,2.3342418670654297
1695712566541230300,0.664230224609375,10.2916259765625,3.326631546020508,2.4540233612060547
1695712566550782500,0.673782470703125,10.146390914916992,2.9783668518066406,2.2554855346679688
1695712566560334300,0.683334228515625,9.888860702514648,3.115816116333008,2.0398788452148438
1695712566569886500,0.692886474609375,9.290851593017578,3.4260501861572266,1.9299793243408203
1695712566579408000,0.702407958984375,9.014455795288086,3.606321334838867,1.8700885772705078
1695712566588960000,0.7119599609375,9.062068939208984,3.7033443450927734,1.8006153106689453
1695712566598511900,0.721511962890625,9.28366470336914,3.4452152252197266,1.9180011749267578
1695712566608064000,0.73106396484375,9.738834381103516,2.9238662719726562,2.1716384887695312
1695712566617585400,0.74058544921875,10.336843490600586,2.6205196380615234,2.3390331268310547
1695712566627137300,0.75013720703125,10.825551986694336,2.5588321685791016,2.351011276245117
1695712566636689400,0.759689453125,10.992347717285156,2.4666004180908203,2.293516159057617
1695712566646241300,0.7692412109375,10.920778274536133,2.177328109741211,2.2767467498779297
1695712566655763000,0.778762939453125,10.582395553588867,2.0755138397216797,2.2482986450195312
1695712566665314800,0.788314697265625,9.936473846435547,2.1893062591552734,2.0590438842773438
1695712566674867000,0.797866943359375,9.016851425170898,2.1728363037109375,2.013826370239258
1695712566684418800,0.807418701171875,8.085250854492188,2.3384342193603516,1.3700008392333984
1695712566693940500,0.8169404296875,6.986555099487305,2.4830703735351562,0.9657382965087891
1695712566703492400,0.826492431640625,6.331350326538086,2.513914108276367,0.7695960998535156
1695712566713044500,0.83604443359375,6.314580917358398,2.2578811645507812,0.8363742828369141
1695712566722596400,0.845596435546875,6.696084976196289,1.9973564147949219,0.8315830230712891
1695712566732179000,0.855178955078125,7.1892852783203125,2.0162220001220703,0.6282539367675781
1695712566741700400,0.864700439453125,7.670507431030273,1.9428558349609375,0.8627262115478516
1695712566751252500,0.87425244140625,9.062068939208984,1.7865409851074219,1.8030109405517578
1695712566760804400,0.883804443359375,10.832439422607422,1.729644775390625,2.466001510620117
1695712566770356500,0.8933564453125,11.778413772583008,1.7011966705322266,2.331846237182617
1695712566779878000,0.9028779296875,11.556818008422852,1.5733299255371094,2.2219467163085938
1695712566789429800,0.9124296875,10.522804260253906,1.3717975616455078,2.0302963256835938
1695712566798982000,0.92198193359375,8.912042617797852,1.2059001922607422,1.6236381530761719
1695712566808533800,0.93153369140625,7.191680908203125,0.6066932678222656,1.530508041381836
1695712566818055400,0.941055419921875,6.03129768371582,0.2772941589355469,1.468221664428711
1695712566827607300,0.950607177734375,4.949371337890625,0.6279544830322266,0.9777164459228516
1695712566837159400,0.960159423828125,4.244157791137695,0.7085075378417969,0.9992771148681641
1695712566846711300,0.969711181640625,4.306144714355469,0.33419036865234375,1.25531005859375
1695712566856263400,0.979263427734375,4.815814971923828,-0.24645042419433594,1.6667594909667969
1695712566865784800,0.988784912109375,5.404541015625,-0.6327457427978516,1.9299793243408203
1695712566875337000,0.9983369140625,5.921697616577148,-0.31262969970703125,1.7482109069824219
1695712566884888800,1.007888916015625,6.369680404663086,0.7606124877929688,1.405935287475586
1695712566894441000,1.01744091796875,6.562528610229492,1.755697250366211,1.458639144897461
1695712566903962400,1.02696240234375,6.672128677368164,2.208171844482422,2.0422744750976562
1695712566913514200,1.03651416015625,7.563302993774414,1.694009780883789,2.5663185119628906
1695712566923066400,1.04606640625,9.178855895996094,0.2961597442626953,3.5185813903808594
1695712566932618200,1.0556181640625,10.327260971069336,-1.3861713409423828,5.1002960205078125
1695712566942140000,1.065139892578125,11.306774139404297,-1.2415351867675781,6.181623458862305
1695712566951691800,1.07469189453125,11.911970138549805,0.45726585388183594,6.543064117431641
1695712566961244000,1.084243896484375,12.031152725219727,1.8694896697998047,6.667337417602539
1695712566970795800,1.093795654296875,11.282817840576172,2.5258922576904297,6.452030181884766
1695712566980317200,1.103317138671875,10.146390914916992,2.234224319458008,5.971107482910156
1695712566989869300,1.112869384765625,9.016851425170898,1.329275131225586,5.612361907958984
1695712566999421200,1.122421142578125,8.259233474731445,0.5662670135498047,5.406337738037109
1695712567008973300,1.131973388671875,8.278099060058594,0.2653160095214844,5.437480926513672
1695712567018556000,1.141555908203125,8.885690689086914,0.3910865783691406,5.461437225341797
1695712567028077300,1.151077392578125,9.552873611450195,0.22968101501464844,5.707887649536133
1695712567037629400,1.16062939453125,9.696012496948242,0.18955421447753906,5.868095397949219
1695712567047181300,1.170181396484375,8.990499496459961,0.7486343383789062,5.688722610473633
1695712567056733400,1.1797333984375,8.628459930419922,1.0307197570800781,5.688722610473633
1695712567066254800,1.1892548828125,8.726081848144531,1.2960357666015625,5.600383758544922
1695712567075806700,1.198806640625,8.847660064697266,1.4667243957519531,5.490184783935547
1695712567085358800,1.20835888671875,8.511672973632812,1.4691200256347656,5.413524627685547
1695712567094910700,1.21791064453125,7.90168571472168,0.8339786529541016,5.258108139038086
1695712567104432400,1.227432373046875,7.115320205688477,-0.20392799377441406,5.1050872802734375
1695712567113984300,1.236984375,5.947750091552734,-1.1397209167480469,5.064361572265625
1695712567123536400,1.246536376953125,4.665788650512695,-1.7155704498291016,5.294042587280273
1695712567133088300,1.256088134765625,3.424253463745117,-1.8386459350585938,5.822877883911133
1695712567142609700,1.265609619140625,3.295787811279297,-1.954833984375,6.784723281860352
1695712567152161800,1.275161865234375,3.9749488830566406,-1.8125934600830078,7.964271545410156
1695712567161713700,1.284713623046875,4.832584381103516,-0.9950847625732422,9.062368392944336
1695712567171265800,1.294265869140625,5.69770622253418,0.0023956298828125,10.03858757019043
1695712567180818000,1.30381787109375,6.369680404663086,0.7037162780761719,10.861785888671875
1695712567190339300,1.31333935546875,6.858089447021484,1.8173847198486328,12.75433349609375
1695712567199891200,1.32289111328125,6.812871932983398,3.411975860595703,11.969465255737305
1695712567209443300,1.332443359375,6.364889144897461,2.160858154296875,11.32833480834961
1695712567218995200,1.3419951171875,6.850902557373047,0.45007896423339844,11.488542556762695
1695712567228516900,1.351516845703125,6.74609375,-0.8291873931884766,12.65850830078125
1695712567238068700,1.36106884765625,6.348119735717773,-1.8125934600830078,13.402650833129883
1695712567247620900,1.370620849609375,5.795328140258789,-2.3363380432128906,13.818891525268555
1695712567257172700,1.3801728515625,5.097002029418945,-2.5423622131347656,14.297418594360352
1695712567266694100,1.389694091796875,4.396579742431641,-2.4405479431152344,14.563034057617188
1695712567276246300,1.399246337890625,3.919849395751953,-2.028200149536133,14.462717056274414
1695712567285798100,1.408798095703125,3.1933746337890625,-1.6371135711669922,14.232736587524414
1695712567295350300,1.418350341796875,1.8874568939208984,-1.3268795013427734,14.058155059814453
1695712567304902100,1.427902099609375,1.3178958892822266,-1.1990127563476562,13.268795013427734
1695712567314454300,1.437454345703125,1.1558914184570312,-1.5140380859375,12.440805435180664
1695712567324006400,1.44700634765625,1.403839111328125,-2.253389358520508,12.11050796508789
1695712567333558300,1.456558349609375,2.340230941772461,-3.490133285522461,12.084156036376953
1695712567343110400,1.4661103515625,3.4601879119873047,-4.767303466796875,11.844892501831055
1695712567352631800,1.4756318359375,4.067779541015625,-4.866722106933594,10.148786544799805
1695712567362183700,1.48518359375,0.3575477600097656,-5.691417694091797,10.021818161010742
1695712567371735800,1.49473583984375,-26.1701602935791,1.5472774505615234,9.840049743652344
1695712567381287700,1.50428759765625,-12.962154388427734,-1.703592300415039,9.679542541503906
1695712567390809300,1.513809326171875,-9.16657829284668,-6.565523147583008,9.26809310913086
1695712567400361200,1.523361328125,-5.777959823608398,-4.580144882202148,11.096258163452148
1695712567409913300,1.532913330078125,3.562601089477539,-6.18641471862793,15.891111373901367
1695712567419465200,1.54246533203125,5.390167236328125,-5.963621139526367,17.776472091674805
1695712567428986600,1.551986572265625,3.588653564453125,-4.748138427734375,16.5777587890625
1695712567438538800,1.561538818359375,2.0018482208251953,-2.0755138397216797,10.282642364501953
1695712567448090600,1.571090576171875,-0.6716747283935547,-1.314901351928711,5.214986801147461
1695712567457642800,1.580642822265625,-1.6344184875488281,-3.8881072998046875,4.581043243408203
1695712567467194600,1.590194580078125,-1.4412708282470703,-7.624691009521484,5.509349822998047
1695712567476716300,1.59971630859375,-0.10930061340332031,-9.418418884277344,7.117116928100586
1695712567486268200,1.60926806640625,1.3014259338378906,-8.110404968261719,8.435611724853516
1695712567495820300,1.6188203125,1.9898700714111328,-7.3665618896484375,9.861610412597656
1695712567505372200,1.6283720703125,2.707061767578125,-5.963621139526367,10.986059188842773
1695712567514893800,1.637893798828125,1.9066219329833984,-4.139348983764648,11.30916976928711
1695712567524445700,1.64744580078125,1.9066219329833984,-3.464080810546875,11.17501449584961
1695712567533997800,1.656997802734375,1.1534957885742188,-4.935297012329102,12.361749649047852
1695712567543549700,1.6665498046875,3.731792449951172,-8.16250991821289,17.883975982666016
1695712567553071000,1.676071044921875,3.5554141998291016,-5.449459075927734,14.304605484008789
1695712567562623200,1.685623291015625,3.271831512451172,-5.643804550170898,9.059972763061523
1695712567572175000,1.695175048828125,1.0343132019042969,-7.816640853881836,5.872886657714844
1695712567581727200,1.704727294921875,1.0558738708496094,-8.671880722045898,8.098127365112305
1695712567591279000,1.714279052734375,4.5037841796875,-9.198020935058594,7.351589202880859
1695712567600831200,1.723831298828125,8.249650955200195,-8.008590698242188,6.597864151000977
1695712567610383000,1.733383056640625,-1.5200271606445312,0.3695259094238281,1.506551742553711
1695712567619935200,1.742935302734375,-8.67786979675293,0.2132110595703125,5.75340461730957
1695712567629487000,1.752487060546875,-5.227563858032227,-0.6540069580078125,6.038185119628906
1695712567639008800,1.7620087890625,2.866670608520508,-1.5897998809814453,5.06915283203125
1695712567648560600,1.771560546875,4.122579574584961,-1.7272491455078125,3.379934310913086
1695712567658112800,1.78111279296875,-0.7980442047119141,-2.4950485229492188,4.329801559448242
1695712567667664600,1.79066455078125,2.359395980834961,-3.843189239501953,4.310636520385742
1695712567677186300,1.800186279296875,2.0898876190185547,-5.4165191650390625,3.1310882568359375
1695712567686768600,1.8097685546875,-0.4929008483886719,-4.978118896484375,3.6048240661621094
1695712567696381700,1.819381591796875,-1.1076793670654297,-5.210195541381836,7.129095077514648
1695712567705994800,1.828994873046875,-0.8172092437744141,-5.463832855224609,7.473766326904297
1695712567715607800,1.83860791015625,-0.6336441040039062,-5.8333587646484375,6.057350158691406
1695712567725220900,1.848220947265625,-0.9360923767089844,-6.172340393066406,6.121732711791992
1695712567734834000,1.857833984375,-1.1552925109863281,-6.2597808837890625,6.22474479675293
1695712567744447000,1.867447021484375,-1.2556095123291016,-6.210071563720703,5.552471160888672
1695712567754090500,1.877090576171875,-1.9823837280273438,-6.034891128540039,5.167074203491211
1695712567772584200,1.895584228515625,-1.6916141510009766,-5.653387069702148,4.9373931884765625
1695712567782136000,1.905135986328125,-0.12127876281738281,-6.380760192871094,4.695734024047852
1695712567791718700,1.91471875,1.008260726928711,-6.404417037963867,4.305845260620117
1695712567801270800,1.924270751953125,0.44349098205566406,-5.70549201965332,4.449283599853516
1695712567810822700,1.93382275390625,0.5815391540527344,-5.62493896484375,5.0236358642578125
1695712567820374800,1.943374755859375,0.3838996887207031,-5.987577438354492,4.475635528564453
1695712567829926700,1.9529267578125,-0.7312660217285156,-7.845088958740234,3.655132293701172
1695712567839448000,1.962447998046875,-1.372396469116211,-10.491661071777344,5.289251327514648
1695712567849000200,1.972000244140625,-4.162406921386719,-12.688154220581055,2.1428909301757812
1695712567858552000,1.981552001953125,-0.6740703582763672,-13.24483871459961,-0.3767127990722656
1695712567868104200,1.991104248046875,0.7150955200195312,-10.887239456176758,-1.6110610961914062
1695712567877656000,2.000656005859375,-0.15691375732421875,-9.991573333740234,2.0542526245117188
1695712567887208200,2.010208251953125,-2.709157943725586,-11.242691040039062,6.054954528808594
1695712567896760000,2.019760009765625,-2.9948368072509766,-10.079313278198242,5.243734359741211
1695712567906312200,2.029312255859375,-3.5383453369140625,-8.629358291625977,4.34657096862793
1695712567915864000,2.038864013671875,-3.3308238983154297,-8.105613708496094,3.9707565307617188
1695712567925385700,2.0483857421875,-1.4864883422851562,-7.468376159667969,2.496845245361328
1695712567934937600,2.0579375,-1.8703880310058594,-7.044050216674805,2.8127689361572266
1695712567944489700,2.06748974609375,-2.7971973419189453,-7.473167419433594,4.844263076782227
1695712567954041600,2.07704150390625,-3.025979995727539,-7.368658065795898,5.554866790771484
1695712567963563300,2.086563232421875,-2.149179458618164,-7.444719314575195,5.272481918334961
1695712567973115100,2.096115234375,-0.9672355651855469,-7.771722793579102,4.29865837097168
1695712567982667300,2.105667236328125,-0.3120307922363281,-8.6434326171875,4.085746765136719
1695712567992219100,2.11521923828125,-3.3308238983154297,-10.744998931884766,3.9827346801757812
1695712568001740500,2.124740478515625,4.232179641723633,-13.090919494628906,5.571636199951172
1695712568011292700,2.134292724609375,0.41713905334472656,-12.275806427001953,4.24116325378418
1695712568020844500,2.143844482421875,-3.1283931732177734,-11.140876770019531,2.1285171508789062
1695712568030396700,2.153396728515625,-4.103115081787109,-10.68840217590332,0.7312660217285156
1695712568039948500,2.162948486328125,-5.389568328857422,-10.001155853271484,0.22878265380859375
1695712568049470200,2.17247021484375,-6.62152099609375,-9.039310455322266,-1.2259635925292969
1695712568059022000,2.18202197265625,-4.624763488769531,-7.845088958740234,-3.0873680114746094
1695712568068574200,2.19157421875,-2.906797409057617,-7.029975891113281,-4.743047714233398
1695712568078126000,2.2011259765625,-1.3840751647949219,-6.13670539855957,-5.480003356933594
1695712568087647700,2.210647705078125,-0.4929008483886719,-6.160362243652344,-3.1831932067871094
1695712568097199600,2.22019970703125,0.6102867126464844,-5.096403121948242,1.3125057220458984
1695712568106751700,2.229751708984375,-5.623142242431641,-6.285833358764648,6.521503448486328
1695712568116303600,2.2393037109375,-9.047395706176758,-4.610689163208008,1.5733299255371094
1695712568125825000,2.248824951171875,-5.203907012939453,-7.435136795043945,3.8369007110595703
1695712568135377200,2.258377197265625,-3.1879844665527344,-8.42303466796875,4.047416687011719
1695712568144929000,2.267928955078125,-3.2975845336914062,-8.224197387695312,2.2911205291748047
1695712568154481200,2.277481201171875,-2.275249481201172,-8.112800598144531,1.7769584655761719
1695712568164033000,2.287032958984375,0.9058475494384766,-5.011358261108398,1.4562435150146484
1695712568173585200,2.296585205078125,2.5785961151123047,-0.3815040588378906,0.7073097229003906
1695712568183137000,2.306136962890625,1.4322872161865234,1.7320404052734375,-1.3074150085449219
1695712568192689200,2.315689208984375,0.7986431121826172,0.656402587890625,-1.6493911743164062
1695712568202241000,2.325240966796875,2.1878089904785156,-4.193849563598633,-2.2309303283691406
1695712568211762700,2.3347626953125,-8.032247543334961,-10.058052062988281,-2.5657196044921875
1695712568221314600,2.344314453125,-6.109155654907227,-9.335470199584961,-1.080129623413086
1695712568230866700,2.35386669921875,3.1289920806884766,-11.688278198242188,-0.9890956878662109
1695712568240418600,2.36341845703125,6.631702423095703,-10.536579132080078,-1.9725017547607422
1695712568249940200,2.372940185546875,5.766580581665039,-9.325887680053711,-2.876852035522461
1695712568259492000,2.3824921875,-1.7272491455078125,-13.628738403320312,-2.9990291595458984
1695712568269044200,2.392044189453125,0.7103042602539062,-8.818912506103516,-3.228710174560547
1695712568278596000,2.40159619140625,-4.863128662109375,-12.444099426269531,-5.958530426025391
1695712568288117500,2.411117431640625,-6.123529434204102,-14.898721694946289,-4.389093399047852
1695712568297669600,2.420669677734375,-2.8115711212158203,-14.365694046020508,-1.2235679626464844
1695712568307221500,2.430221435546875,1.1226520538330078,-12.304254531860352,0.4201335906982422
1695712568316773600,2.439773681640625,3.0454444885253906,-10.498847961425781,-2.3480167388916016
1695712568326295000,2.449294921875,4.587331771850586,-10.418294906616211,-2.68310546875
1695712568335847200,2.45884716796875,5.268589019775391,-11.081584930419922,-2.1063575744628906
1695712568345399000,2.46839892578125,3.9153575897216797,-12.515069961547852,-1.6206436157226562
1695712568354951200,2.477951171875,1.1654739379882812,-14.806190490722656,-1.4101276397705078
1695712568364503000,2.4875029296875,-0.9552574157714844,-16.929317474365234,-1.3646106719970703
1695712568374024700,2.497024658203125,-0.47643089294433594,-18.853307723999023,-0.5728549957275391
1695712568383576600,2.50657666015625,0.8462562561035156,-19.758256912231445,1.032815933227539
1695712568393128700,2.516128662109375,1.8874568939208984,-17.879484176635742,3.3104610443115234
1695712568402680600,2.5256806640625,3.131387710571289,-12.076669692993164,2.2767467498779297
1695712568412202000,2.535201904296875,2.7882137298583984,-7.721714019775391,-0.9890956878662109
1695712568421754000,2.544754150390625,0.3195171356201172,-6.48736572265625,-1.4748096466064453
1695712568431306000,2.554305908203125,0.7890605926513672,-8.605701446533203,-2.4246768951416016
1695712568440858000,2.563858154296875,-1.9584274291992188,-10.565027236938477,-1.7020950317382812
1695712568450410000,2.573409912109375,-1.0196399688720703,-10.472795486450195,-1.2475242614746094
1695712568459962000,2.582962158203125,-0.056896209716796875,-9.79513168334961,-1.4245014190673828
1695712568469514000,2.592513916015625,0.3171215057373047,-9.486993789672852,-1.0010738372802734
1695712568479066000,2.602066162109375,0.3482646942138672,-9.178855895996094,-0.9843044281005859
1695712568488618000,2.611617919921875,0.28867340087890625,-9.107885360717773,-1.1876335144042969
1695712568498139600,2.6211396484375,0.26471710205078125,-9.150707244873047,-1.5155353546142578
1695712568507691500,2.63069140625,0.0574951171875,-9.266595840454102,-1.8075027465820312
1695712568517243600,2.64024365234375,-0.19045257568359375,-9.366313934326172,-2.0132274627685547
1695712568526795500,2.64979541015625,-0.17847442626953125,-9.472919464111328,-2.0419750213623047
1695712568536317200,2.659317138671875,0.10031700134277344,-9.451358795166016,-2.010831832885742
1695712568545869000,2.668869140625,0.3314952850341797,-9.486993789672852,-1.9030284881591797
1695712568555421200,2.678421142578125,0.483917236328125,-9.479806900024414,-1.7643814086914062
1695712568564973000,2.68797314453125,0.5411128997802734,-9.56515121459961,-1.6517868041992188
1695712568574494500,2.697494384765625,0.4078559875488281,-9.719070434570312,-1.5918960571289062
1695712568584046600,2.707046630859375,0.0550994873046875,-9.967916488647461,-1.6637649536132812
1695712568593598500,2.716598388671875,-0.33089637756347656,-10.126626968383789,-1.9030284881591797
1695712568603150600,2.726150634765625,-0.45007896423339844,-10.062843322753906,-2.3240604400634766
1695712568612672000,2.735672119140625,-0.1356525421142578,-9.998760223388672,-2.7477874755859375
1695712568622224100,2.74522412109375,0.25273895263671875,-9.953842163085938,-3.0538291931152344
1695712568631776000,2.75477587890625,0.5435085296630859,-9.984685897827148,-3.1831932067871094
1695712568641328000,2.764328125,0.7698955535888672,-9.998760223388672,-3.2715320587158203
1695712568650880000,2.7738798828125,1.0630607604980469,-9.904132843017578,-3.3769397735595703
1695712568660401400,2.7834013671875,1.2511177062988281,-9.802019119262695,-3.5036087036132812
1695712568669953500,2.79295361328125,0.9462738037109375,-9.930185317993164,-3.5587081909179688
1695712568679505700,2.802505615234375,0.2051258087158203,-10.330554962158203,-3.427248001098633
1695712568689057500,2.8120576171875,-0.9336967468261719,-10.723737716674805,-3.1161155700683594
1695712568698579000,2.821578857421875,-2.0871925354003906,-11.148063659667969,-2.6423797607421875
1695712568708131000,2.831131103515625,-2.485166549682617,-11.427453994750977,-2.156665802001953
1695712568717683000,2.840682861328125,-1.8796710968017578,-11.481954574584961,-1.9102153778076172
1695712568727235000,2.850235107421875,-0.7360572814941406,-11.335222244262695,-2.286029815673828
1695712568736787000,2.859786865234375,0.14074325561523438,-11.396610260009766,-2.905599594116211
1695712568746339000,2.869339111328125,0.5150604248046875,-11.96287727355957,-3.4200611114501953
1695712568755891000,2.878890869140625,0.5267391204833984,-12.467756271362305,-3.788389205932617
1695712568765443000,2.888443115234375,0.4958953857421875,-12.83488655090332,-3.8386974334716797
1695712568774964500,2.897964599609375,0.9390869140625,-13.050493240356445,-3.341005325317383
1695712568784516600,2.9075166015625,1.3035221099853516,-12.882200241088867,-2.331247329711914
1695712568794068500,2.917068359375,1.0510826110839844,-12.645332336425781,-1.046590805053711
1695712568803620600,2.92662060546875,0.6650867462158203,-12.458173751831055,-0.16829299926757812
1695712568813172500,2.93617236328125,0.3410778045654297,-12.200044631958008,0.4321117401123047
1695712568822694000,2.94569384765625,0.038330078125,-11.81135368347168,1.2457275390625
1695712568832246000,2.95524609375,-0.1356525421142578,-11.143272399902344,2.0782089233398438
1695712568841798100,2.964798095703125,0.08115196228027344,-10.335346221923828,2.4731884002685547
1695712568851350000,2.97435009765625,0.2434558868408203,-10.07691764831543,2.616626739501953
1695712568860871400,2.983871337890625,-0.1452350616455078,-9.15519905090332,2.1620559692382812
1695712568870423600,2.993423583984375,0.2147083282470703,-8.674276351928711,1.4227046966552734
1695712568879975400,3.002975341796875,-0.9100399017333984,-10.482078552246094,0.29106903076171875
1695712568889527600,3.012527587890625,-2.5375709533691406,-12.235380172729492,-0.48182106018066406
1695712568899049000,3.022049072265625,-2.818758010864258,-12.68336296081543,-1.4005451202392578
1695712568908601000,3.03160107421875,-3.402393341064453,-12.474943161010742,-1.5203266143798828
1695712568918153000,3.041153076171875,-3.080780029296875,-10.51771354675293,0.5207500457763672
1695712568927705000,3.050705078125,-2.6256103515625,-3.7910842895507812,-0.3599433898925781
1695712568937257000,3.060257080078125,-1.3412532806396484,-3.696157455444336,0.4704418182373047
1695712568946778400,3.0697783203125,1.6230392456054688,-8.143644332885742,0.27669525146484375
1695712568956330500,3.07933056640625,3.341005325317383,-12.680967330932617,0.3985729217529297
1695712568965882400,3.08888232421875,2.5806922912597656,-15.192485809326172,1.9898700714111328
1695712568975434500,3.0984345703125,1.7922306060791016,-12.304254531860352,2.8319339752197266
1695712568984956000,3.107955810546875,1.0702476501464844,-5.98518180847168,-0.2928657531738281
1695712568994508000,3.117508056640625,-3.917154312133789,-5.236248016357422,-0.9316005706787109
1695712569004060000,3.127059814453125,-6.805086135864258,-6.776338577270508,-0.22339248657226562
1695712569013612000,3.136612060546875,-4.357950210571289,-7.622295379638672,0.027849197387695312
1695712569023164000,3.146163818359375,-2.3063926696777344,-7.304874420166016,-0.09911918640136719
1695712569032716000,3.155716064453125,-3.402393341064453,-9.084228515625,0.8411655426025391
1695712569042268000,3.165267822265625,-2.735210418701172,-9.486993789672852,0.9465732574462891
1695712569051820000,3.174820068359375,-2.0084362030029297,-9.095907211303711,0.7815742492675781
1695712569061341400,3.184341552734375,-1.4388751983642578,-8.612588882446289,0.7360572814941406
1695712569070893600,3.1938935546875,-0.5312309265136719,-8.074769973754883,0.4057598114013672
1695712569080445400,3.203445556640625,-0.15930938720703125,-7.799871444702148,-0.15631484985351562
1695712569089997600,3.21299755859375,-0.2117137908935547,-7.48005485534668,-0.6135807037353516
1695712569099549400,3.222549560546875,-0.6001052856445312,-7.086872100830078,-0.857635498046875
1695712569109070800,3.23207080078125,-0.7597141265869141,-6.745494842529297,-0.9316005706787109
1695712569118623000,3.241623046875,-0.6240615844726562,-6.470895767211914,-0.656402587890625
1695712569128174800,3.2511748046875,-0.8788967132568359,-6.529888153076172,-0.10870170593261719
1695712569137727000,3.26072705078125,-0.9408836364746094,-6.525396347045898,0.4848155975341797
1695712569147248400,3.270248291015625,-1.0816268920898438,-6.511022567749023,0.8818912506103516
1695712569156800500,3.279800537109375,-1.5772228240966797,-6.608345031738281,1.0543766021728516
1695712569166352400,3.289352294921875,-2.4303665161132812,-6.890130996704102,1.0304203033447266
1695712569175904500,3.298904541015625,-3.106832504272461,-7.316553115844727,0.7240791320800781
1695712569185426000,3.308426025390625,-3.6596240997314453,-7.954090118408203,0.30783843994140625
1695712569194978000,3.31797802734375,-4.148332595825195,-8.769203186035156,0.018266677856445312
1695712569204530000,3.327530029296875,-4.569963455200195,-9.749914169311523,-0.1374492645263672
1695712569214082000,3.33708203125,-5.256311416625977,-10.63839340209961,-0.3383827209472656
1695712569223634000,3.346634033203125,-5.990272521972656,-11.311565399169922,-0.7091064453125
1695712569233155300,3.3561552734375,-6.275951385498047,-12.206932067871094,-1.7236557006835938
1695712569242707500,3.36570751953125,-6.266668319702148,-13.946159362792969,-3.850675582885742
1695712569252259300,3.37525927734375,-7.5198822021484375,-15.960285186767578,-6.116641998291016
1695712569261811500,3.3848115234375,-9.273782730102539,-16.213623046875,-6.161859512329102
1695712569271332900,3.394332763671875,-9.483400344848633,-14.877460479736328,-3.6114120483398438
1695712569280885000,3.403885009765625,-8.041830062866211,-12.716602325439453,-0.44109535217285156
1695712569290436900,3.413436767578125,-6.369081497192383,-9.07464599609375,0.9657382965087891
1695712569300019500,3.42301953125,-5.854320526123047,-5.669857025146484,1.23614501953125
1695712569309540900,3.432540771484375,-6.605051040649414,-2.905000686645508,0.9513645172119141
1695712569319093000,3.442093017578125,-6.600259780883789,-1.3625144958496094,0.7408485412597656
1695712569328644900,3.451644775390625,-6.373872756958008,-2.36688232421875,1.2241668701171875
1695712569338197000,3.461197021484375,-5.73992919921875,-6.27655029296875,1.8557147979736328
1695712569347718400,3.470718505859375,-2.2968101501464844,-12.607601165771484,3.138275146484375
1695712569357270500,3.4802705078125,3.791383743286133,-18.05945587158203,4.368131637573242
1695712569366822400,3.489822509765625,6.352910995483398,-20.781789779663086,3.892000198364258
1695712569376374500,3.49937451171875,0.5102691650390625,-19.98344612121582,-0.2737007141113281
1695712569385926400,3.508926513671875,-6.275951385498047,-14.282745361328125,-3.908170700073242
1695712569395447800,3.51844775390625,-6.752681732177734,-6.532283782958984,-4.795751571655273
1695712569405000000,3.528,-3.264345169067383,-2.5163097381591797,-4.214212417602539
1695712569414551800,3.5375517578125,2.5498485565185547,-1.6158523559570312,-1.9341716766357422
1695712569424104000,3.54710400390625,5.714176177978516,-2.2462024688720703,1.453847885131836
1695712569433625300,3.556625244140625,6.042976379394531,-4.310037612915039,3.530559539794922
1695712569443177500,3.566177490234375,4.9373931884765625,-8.098426818847656,2.810373306274414
1695712569452729300,3.575729248046875,4.703819274902344,-12.621675491333008,0.015871047973632812
1695712569462281500,3.585281494140625,3.8533706665039062,-16.460073471069336,-2.340829849243164
1695712569471803000,3.594802978515625,2.2330265045166016,-17.971715927124023,-3.831510543823242
1695712569481355000,3.60435498046875,-2.966388702392578,-14.493560791015625,-5.934574127197266
1695712569490907000,3.613906982421875,-4.174385070800781,-10.366189956665039,-4.6738739013671875
1695712569500459000,3.623458984375,-4.057598114013672,-8.356855392456055,-1.9174022674560547
1695712569510011000,3.633010986328125,-3.2808151245117188,-7.373449325561523,0.27429962158203125
1695712569519532300,3.6425322265625,-1.1696662902832031,-7.203060150146484,1.6188468933105469
1695712569529084400,3.65208447265625,1.1034870147705078,-7.667213439941406,1.6475944519042969
1695712569538636300,3.66163623046875,2.9574050903320312,-8.626962661743164,0.9944858551025391
1695712569548188400,3.6711884765625,3.057422637939453,-9.541494369506836,0.4177379608154297
1695712569557709800,3.680709716796875,1.7539005279541016,-9.486993789672852,-0.41713905334472656
1695712569567262000,3.690261962890625,0.5054779052734375,-9.138729095458984,-0.8025360107421875
1695712569576813800,3.699813720703125,-0.3000526428222656,-8.655410766601562,-0.9699306488037109
1695712569586396400,3.709396484375,-0.5096702575683594,-8.115196228027344,-1.0921077728271484
1695712569595917800,3.718917724609375,-0.11169624328613281,-7.92085075378418,-0.9938869476318359
1695712569605470000,3.728469970703125,0.2051258087158203,-8.053508758544922,-0.6183719635009766
1695712569615021800,3.738021728515625,1.0915088653564453,-8.356855392456055,-0.3647346496582031
1695712569624574000,3.747573974609375,1.329874038696289,-8.671880722045898,-0.2928657531738281
1695712569634095400,3.757095458984375,1.0486869812011719,-8.849756240844727,-0.3455696105957031
1695712569643647500,3.7666474609375,0.6866474151611328,-9.022541046142578,-0.5177555084228516
1695712569653199400,3.776199462890625,0.09313011169433594,-9.02493667602539,-0.73785400390625
1695712569662751500,3.78575146484375,-0.39288330078125,-8.94438362121582,-0.8025360107421875
1695712569672303400,3.795303466796875,-0.5836353302001953,-8.745546340942383,-0.83367919921875
1695712569681824800,3.80482470703125,-0.6168746948242188,-8.66259765625,-0.9076442718505859
1695712569691377000,3.814376953125,-0.5168571472167969,-8.78327751159668,-1.027425765991211
1695712569700928800,3.8239287109375,-0.5524921417236328,-8.982414245605469,-1.1660728454589844
1695712569710481000,3.83348095703125,-0.5048789978027344,-9.145915985107422,-1.2403373718261719
1695712569720002300,3.843002197265625,-0.47882652282714844,-9.250125885009766,-1.2331504821777344
1695712569729554400,3.852554443359375,-0.4144439697265625,-9.458545684814453,-1.0729427337646484
1695712569739106300,3.862106201171875,-0.41204833984375,-9.600786209106445,-0.8717098236083984
1695712569748658400,3.871658447265625,-0.6596965789794922,-9.697809219360352,-0.8456573486328125
1695712569758179800,3.881179931640625,-0.9816093444824219,-9.821184158325195,-1.0441951751708984
1695712569767732000,3.89073193359375,-1.0432968139648438,-9.991573333740234,-1.3361625671386719
1695712569777283800,3.900283935546875,-0.6860485076904297,-10.209575653076172,-1.4364795684814453
1695712569786836000,3.9098359375,-0.32850074768066406,-10.546161651611328,-1.3074150085449219
1695712569796387800,3.919387939453125,0.0002994537353515625,-10.640789031982422,-1.3765888214111328
1695712569805909200,3.9289091796875,0.7531261444091797,-10.612340927124023,-2.089588165283203
1695712569815461400,3.93846142578125,1.5134391784667969,-10.671632766723633,-3.0777854919433594
1695712569825013200,3.94801318359375,1.5134391784667969,-10.85879135131836,-3.7764110565185547
1695712569834565400,3.9575654296875,0.7914562225341797,-11.346900939941406,-3.9297313690185547
1695712569844086800,3.967086669921875,-0.2593269348144531,-12.23298454284668,-3.7359848022460938
1695712569853639000,3.976638916015625,-1.5868053436279297,-13.429601669311523,-3.293092727661133
1695712569863190800,3.986190673828125,-2.275249481201172,-14.263580322265625,-2.9942378997802734
1695712569872773400,3.9957734375,-1.6104621887207031,-14.413007736206055,-2.977468490600586
1695712569882294800,4.005294677734375,0.09073448181152344,-14.607353210449219,-2.910390853881836
1695712569891847000,4.014846923828125,1.2702827453613281,-14.642688751220703,-2.379159927368164
1695712569901398800,4.024398681640625,1.40863037109375,-14.233036041259766,-1.4508533477783203
1695712569910951000,4.033950927734375,0.9986782073974609,-13.128650665283203,-0.14673233032226562
1695712569920472300,4.043472412109375,0.43151283264160156,-11.38972282409668,0.9465732574462891
1695712569930024400,4.0530244140625,0.3267040252685547,-10.349420547485352,2.2339248657226562
1695712569939576300,4.062576416015625,0.512664794921875,-10.219158172607422,3.549724578857422
1695712569949128400,4.07212841796875,0.9723262786865234,-10.65755844116211,4.387296676635742
1695712569958680300,4.081680419921875,1.3822784423828125,-11.323244094848633,4.506778717041016
1695712569968201700,4.09120166015625,0.7962474822998047,-12.126379013061523,4.045021057128906
1695712569977753900,4.10075390625,-0.7049140930175781,-12.948678970336914,3.5233726501464844
1695712569987305700,4.1103056640625,-1.7607879638671875,-13.31580924987793,2.9181766510009766
1695712569996857900,4.11985791015625,-2.1680450439453125,-13.252025604248047,2.2530899047851562
1695712570006379300,4.129379150390625,-2.6040496826171875,-12.882200241088867,1.6164512634277344
1695712570015931400,4.138931396484375,-2.7067623138427734,-12.711811065673828,1.0543766021728516
1695712570025483300,4.148483154296875,-1.6344184875488281,-12.226097106933594,0.5875282287597656
1695712570035035400,4.158035400390625,-0.08085250854492188,-11.628986358642578,0.20243072509765625
1695712570044556800,4.167556884765625,1.3014259338378906,-10.974979400634766,0.05420112609863281
1695712570054109000,4.17710888671875,2.445039749145508,-11.20016860961914,-0.18027114868164062
1695712570063660800,4.186660888671875,2.3830528259277344,-11.105241775512695,-0.5560855865478516
1695712570073213000,4.196212890625,1.5966873168945312,-10.261680603027344,-1.1564903259277344
1695712570082734300,4.205734375,0.7962474822998047,-9.240543365478516,-1.4676227569580078
1695712570092286200,4.2152861328125,-1.8655967712402344,-8.446990966796875,-1.8886547088623047
1695712570101838300,4.22483837890625,1.0438957214355469,-7.070102691650391,-0.5776462554931641
1695712570111390200,4.23439013671875,-0.7980442047119141,-6.648471832275391,-0.2904701232910156
1695712570120942300,4.2439423828125,-1.5844097137451172,-6.553844451904297,0.27909088134765625
1695712570130463700,4.253463623046875,-1.9108142852783203,-6.771846771240234,0.7983436584472656
1695712570140015900,4.263015869140625,-1.8296623229980469,-7.053632736206055,1.2840576171875
1695712570149567700,4.272567626953125,-1.4676227569580078,-7.193477630615234,1.6787376403808594
1695712570159150300,4.282150390625,-1.1100749969482422,-7.155447006225586,1.7026939392089844
1695712570168671700,4.291671630859375,-0.9528617858886719,-6.980266571044922,1.501760482788086
1695712570178223900,4.301223876953125,-0.8312835693359375,-6.7005767822265625,1.19781494140625
1695712570187775700,4.310775634765625,-0.9004573822021484,-6.222049713134766,0.9321994781494141
1695712570197328000,4.320327880859375,-1.1196575164794922,-5.572834014892578,0.7144966125488281
1695712570206849300,4.329849365234375,-1.4032402038574219,-5.10359001159668,0.5471019744873047
1695712570216401400,4.3394013671875,-1.9751968383789062,-4.658302307128906,0.4105510711669922
1695712570225953300,4.348953369140625,-2.5184059143066406,-4.290872573852539,0.32939910888671875
1695712570235505400,4.35850537109375,-2.9235668182373047,-3.9758472442626953,0.3985729217529297
1695712570245057300,4.368057373046875,-2.9544105529785156,-3.802762985229492,0.4776287078857422
1695712570254578700,4.37757861328125,-2.8208541870117188,-3.7129268646240234,0.5779457092285156
1695712570264130800,4.387130859375,-2.763957977294922,-3.658426284790039,0.5686626434326172
1695712570273682700,4.3966826171875,-2.887632369995117,-3.8881072998046875,0.3985729217529297
1695712570283234800,4.40623486328125,-3.052032470703125,-4.546905517578125,0.12816619873046875
1695712570292756200,4.415756103515625,-3.2379932403564453,-5.511146545410156,-0.24016189575195312
1695712570302308400,4.425308349609375,-3.378437042236328,-6.729024887084961,-0.6016025543212891
1695712570311860200,4.434860107421875,-3.7455673217773438,-8.290376663208008,-0.9890956878662109
1695712570321412400,4.444412353515625,-4.805932998657227,-10.30689811706543,-1.3598194122314453
1695712570330933800,4.453933837890625,-6.2118682861328125,-12.737863540649414,-1.8003158569335938
1695712570340486000,4.46348583984375,-7.5438385009765625,-15.29190444946289,-2.678314208984375
1695712570350037800,4.473037841796875,-9.383382797241211,-17.54768943786621,-3.912961959838867
1695712570359590000,4.48258984375,-11.9781494140625,-18.566431045532227,-4.441797256469727
1695712570369111300,4.492111328125,-12.297367095947266,-17.93638038635254,-3.243083953857422
1695712570378663200,4.5016630859375,-9.878978729248047,-15.479063034057617,-0.9339962005615234
1695712570388215300,4.51121533203125,-5.561155319213867,-11.432245254516602,1.1570892333984375
1695712570397767200,4.52076708984375,-3.2523670196533203,-6.643680572509766,2.485166549682617
1695712570407319300,4.5303193359375,-7.808256149291992,-2.679811477661133,2.432462692260742
1695712570416840700,4.5398408203125,-2.046466827392578,-0.19674110412597656,3.3583736419677734
1695712570426392800,4.549392822265625,-4.445989608764648,-1.5589561462402344,2.7196388244628906
1695712570435944700,4.55894482421875,-6.259481430053711,-4.124975204467773,1.0900115966796875
1695712570445527300,4.56852734375,-6.607446670532227,-10.892030715942383,0.4416942596435547
1695712570455048700,4.578048583984375,-6.566720962524414,-18.075925827026367,0.4488811492919922
1695712570464600800,4.587600830078125,1.3083133697509766,-22.91180419921875,1.310110092163086
1695712570474152700,4.597152587890625,8.070877075195312,-25.181663513183594,1.9275836944580078
1695712570483704800,4.606704833984375,5.440176010131836,-22.08980369567871,1.8629016876220703
1695712570493226200,4.616226318359375,-3.0472412109375,-12.237775802612305,0.5039806365966797
1695712570502778400,4.6257783203125,-5.7327423095703125,-2.234224319458008,-2.668731689453125
1695712570512330200,4.635330322265625,1.81109619140625,2.739103317260742,-3.307466506958008
1695712570521882400,4.64488232421875,6.000154495239258,2.971179962158203,0.5471019744873047
1695712570531403800,4.65440380859375,2.552244186401367,0.33898162841796875,3.3104610443115234
1695712570540955600,4.66395556640625,-0.6501140594482422,-5.001775741577148,2.592670440673828
1695712570550507800,4.6735078125,0.0407257080078125,-11.366065979003906,0.4872112274169922
1695712570560059600,4.6830595703125,1.9802875518798828,-16.742158889770508,-1.9796886444091797
1695712570569611800,4.69261181640625,2.785818099975586,-18.924278259277344,-4.855642318725586
1695712570579133200,4.70213330078125,1.9826831817626953,-18.3508243560791,-6.482574462890625
1695712570588685300,4.711685302734375,-0.7576179504394531,-15.73270034790039,-5.525520324707031
1695712570598237200,4.7212373046875,-2.461210250854492,-11.702352523803711,-2.489358901977539
1695712570607789300,4.730789306640625,-2.754375457763672,-8.726381301879883,0.3865947723388672
1695712570617310700,4.740310791015625,-2.8804454803466797,-7.034767150878906,2.1189346313476562
1695712570626862600,4.749862548828125,-1.8916492462158203,-6.018121719360352,2.466001510620117
1695712570636414700,4.759414794921875,0.2434558868408203,-5.989673614501953,1.8365497589111328
1695712570645966800,4.768966796875,2.0518569946289062,-6.852399826049805,0.9250125885009766
1695712570655488300,4.77848828125,2.9334487915039062,-8.283489227294922,0.07576179504394531
1695712570665040100,4.7880400390625,2.804983139038086,-9.624443054199219,-0.44828224182128906
1695712570674592300,4.79759228515625,1.5802173614501953,-10.070030212402344,-0.728271484375
1695712570684144000,4.80714404296875,0.09792137145996094,-9.60557746887207,-0.8597316741943359
1695712570693696300,4.8166962890625,-0.7216835021972656,-8.626962661743164,-1.056173324584961
1695712570703217700,4.8262177734375,-0.7168922424316406,-7.913663864135742,-0.9531612396240234
1695712570712769800,4.835769775390625,0.09792137145996094,-7.719318389892578,-0.6444244384765625
1695712570722321700,4.84532177734375,1.1963176727294922,-7.934925079345703,-0.2928657531738281
1695712570731904300,4.854904296875,1.880270004272461,-8.344877243041992,-0.09911918640136719
1695712570741425700,4.86442578125,1.5038566589355469,-8.650619506835938,-0.11828422546386719
1695712570750977800,4.873977783203125,0.943878173828125,-8.880300521850586,-0.2976570129394531
1695712570760529700,4.88352978515625,0.3051433563232422,-9.048593521118164,-0.6540069580078125
1695712570770081800,4.893081787109375,-0.2928657531738281,-9.060571670532227,-0.9890956878662109
1695712570779603200,4.902603271484375,-0.48122215270996094,-9.01535415649414,-1.1133689880371094
1695712570789155000,4.912155029296875,-0.44528770446777344,-8.825799942016602,-1.089712142944336
1695712570798707200,4.921707275390625,-0.36443519592285156,-8.59372329711914,-1.1684684753417969
1695712570808259300,4.93125927734375,-0.4192352294921875,-8.681463241577148,-1.2571067810058594
1695712570817780700,4.94078076171875,-0.5405139923095703,-9.022541046142578,-1.3481407165527344
1695712570827332600,4.95033251953125,-0.7408485412597656,-9.318700790405273,-1.3957538604736328
1695712570836884700,4.959884765625,-0.9028530120849609,-9.470523834228516,-1.4173145294189453
1695712570846436600,4.9694365234375,-0.9432792663574219,-9.650495529174805,-1.4221057891845703
1695712570855988700,4.97898876953125,-0.6480178833007812,-9.967916488647461,-1.3670063018798828
1695712570865510100,4.98851025390625,-0.15930938720703125,-10.209575653076172,-1.3933582305908203
1695712570875062300,4.998062255859375,0.27669525146484375,-10.531787872314453,-1.4532489776611328
1695712570884614100,5.0076142578125,0.46505165100097656,-10.875560760498047,-1.4987659454345703
1695712570894166300,5.017166259765625,0.3719215393066406,-11.036666870117188,-1.7116775512695312
1695712570903687700,5.026687744140625,0.5578823089599609,-10.936948776245117,-2.1686439514160156
1695712570913239600,5.036239501953125,0.934295654296875,-10.686006546020508,-2.5205020904541016
1695712570922791700,5.045791748046875,0.8222999572753906,-10.806686401367188,-2.460611343383789
1695712570932343600,5.055343505859375,-0.009283065795898438,-11.432245254516602,-1.9629192352294922
1695712570941865200,5.064865234375,-1.5200271606445312,-12.164409637451172,-1.2930412292480469
1695712570951417000,5.0744169921875,-2.8639755249023438,-12.380016326904297,-0.7162933349609375
1695712570960969200,5.08396923828125,-2.932849884033203,-12.091043472290039,-0.7210845947265625
1695712570970521000,5.09352099609375,-2.1180362701416016,-12.228492736816406,-0.9986782073974609
1695712570980073200,5.1030732421875,-1.0124530792236328,-12.872917175292969,-1.0729427337646484
1695712570989594600,5.1125947265625,0.2123126983642578,-13.04570198059082,-1.5871047973632812
1695712570999146800,5.122146728515625,1.6610698699951172,-12.858543395996094,-2.431863784790039
1695712571008698600,5.13169873046875,2.5118179321289062,-12.969940185546875,-2.68310546875
1695712571018281200,5.14128125,2.607044219970703,-13.090919494628906,-2.2596778869628906
1695712571027802600,5.150802734375,2.1638526916503906,-12.45338249206543,-1.3169975280761719
1695712571037354800,5.160354736328125,1.403839111328125,-11.261556625366211,0.11618804931640625
1695712571046906600,5.16990673828125,0.7366561889648438,-10.460817337036133,1.9132099151611328
1695712571056458800,5.179458740234375,0.29825592041015625,-10.25718879699707,3.9279346466064453
1695712571065980200,5.188980224609375,0.3551521301269531,-10.235628128051758,5.1050872802734375
1695712571075532000,5.198531982421875,0.14313888549804688,-10.380264282226562,5.334768295288086
1695712571085084200,5.208084228515625,-1.0100574493408203,-11.392118453979492,5.0236358642578125
1695712571094636000,5.217635986328125,-2.744792938232422,-12.908252716064453,4.650217056274414
1695712571104157700,5.22715771484375,-4.11479377746582,-14.341737747192383,4.080955505371094
1695712571113709600,5.23670947265625,-5.01555061340332,-14.948431015014648,3.119110107421875
1695712571123261700,5.24626171875,-4.307941436767578,-14.202192306518555,1.0352115631103516
1695712571132813600,5.2558134765625,-2.585184097290039,-13.102598190307617,-0.18745803833007812
1695712571142365700,5.26536572265625,-0.8124179840087891,-12.24256706237793,-0.22339248657226562
1695712571151887000,5.27488720703125,1.1511001586914062,-11.534059524536133,0.09941864013671875
1695712571161439200,5.284439208984375,-5.105985641479492,-12.18327522277832,-0.6255588531494141
1695712571170991000,5.2939912109375,9.552873611450195,-11.216638565063477,1.231353759765625
1695712571180543200,5.303543212890625,4.772993087768555,-10.084104537963867,1.8173847198486328
1695712571190064600,5.313064697265625,7.1892852783203125,-9.330678939819336,1.2265625
1695712571199616500,5.322616455078125,1.870687484741211,-9.032123565673828,-0.03922843933105469
1695712571209168600,5.332168701171875,-0.6884441375732422,-8.747642517089844,-0.75701904296875
1695712571218720500,5.341720458984375,-2.4588146209716797,-7.7929840087890625,-0.68994140625
1695712571228242200,5.3512421875,-3.4691715240478516,-7.015602111816406,-0.23057937622070312
1695712571237794000,5.3607939453125,-3.9051761627197266,-6.750286102294922,0.03743171691894531
1695712571247346200,5.37034619140625,-3.466775894165039,-6.409208297729492,0.5015850067138672
1695712571256898000,5.37989794921875,-2.997232437133789,-6.300207138061523,1.2073974609375
1695712571266450200,5.3894501953125,-2.589975357055664,-6.217258453369141,1.7841453552246094
1695712571275971600,5.3989716796875,-1.9536361694335938,-6.297811508178711,2.1021652221679688
1695712571285523700,5.408523681640625,-1.27447509765625,-6.420886993408203,2.0853958129882812
1695712571295075600,5.41807568359375,-0.7740879058837891,-6.366386413574219,1.8485279083251953
1695712571304658200,5.427658203125,-0.5572834014892578,-6.0537567138671875,1.5185298919677734
1695712571314179600,5.4371796875,-0.4952964782714844,-5.508750915527344,1.2720794677734375
1695712571323731700,5.446731689453125,-0.7216835021972656,-5.049089431762695,1.0995941162109375
1695712571333283600,5.45628369140625,-1.234048843383789,-4.608592987060547,0.9537601470947266
1695712571342835700,5.465835693359375,-1.9988536834716797,-4.316925048828125,0.8291873931884766
1695712571352357000,5.475357177734375,-2.685201644897461,-4.255537033081055,0.7504310607910156
1695712571361909000,5.484908935546875,-3.099945068359375,-4.3145294189453125,0.6785621643066406
1695712571371461000,5.494461181640625,-3.2856063842773438,-4.3336944580078125,0.6737709045410156
1695712571381013000,5.504012939453125,-3.4452152252197266,-4.281589508056641,0.7815742492675781
1695712571390534700,5.51353466796875,-3.562002182006836,-4.1085052490234375,0.8938694000244141
1695712571400086500,5.52308642578125,-3.421558380126953,-4.184267044067383,0.8222999572753906
1695712571409638700,5.532638671875,-3.571584701538086,-4.987401962280273,0.4249248504638672
1695712571419190500,5.5421904296875,-3.9003849029541016,-6.148683547973633,0.025453567504882812
1695712571428742700,5.55174267578125,-4.269611358642578,-7.849880218505859,-0.24974441528320312
1695712571438264000,5.56126416015625,-4.910741806030273,-9.993968963623047,-0.6039981842041016
1695712571447816200,5.570816162109375,-5.697107315063477,-12.581548690795898,-1.1229515075683594
1695712571457368000,5.5803681640625,-6.328655242919922,-15.787200927734375,-1.8218765258789062
1695712571466920200,5.589920166015625,-7.369855880737305,-19.073406219482422,-2.3528079986572266
1695712571476441600,5.599441650390625,-9.388174057006836,-21.092323303222656,-2.257282257080078
1695712571485993500,5.608993408203125,-10.972583770751953,-20.57576560974121,-1.3289756774902344
1695712571495545600,5.618545654296875,-10.133813858032227,-17.701608657836914,0.19284820556640625
1695712571505097500,5.628097412109375,-7.593847274780273,-13.10499382019043,1.468221664428711
1695712571514619100,5.637619140625,-5.427898406982422,-7.574981689453125,2.2959117889404297
1695712571524171000,5.6471708984375,-5.363515853881836,-2.0638351440429688,2.303098678588867
1695712571533723100,5.65672314453125,-5.913911819458008,1.4475593566894531,2.0638351440429688
1695712571543275000,5.66627490234375,-5.966316223144531,1.8599071502685547,1.8652973175048828
1695712571552827100,5.6758271484375,-6.157068252563477,-0.9004573822021484,0.6019020080566406
1695712571562348500,5.6853486328125,-6.497547149658203,-6.148683547973633,-0.3527565002441406
1695712571571900700,5.694900634765625,-4.953563690185547,-13.571842193603516,-0.1374492645263672
1695712571581452500,5.70445263671875,-1.4840927124023438,-20.720401763916016,1.008859634399414
1695712571591035100,5.71403515625,4.382205963134766,-25.525436401367188,1.8461322784423828
1695712571600556500,5.723556640625,7.918455123901367,-25.37840461730957,1.334066390991211
1695712571610108700,5.733108642578125,1.806304931640625,-18.62093162536621,1.3891658782958984
1695712571619660500,5.74266064453125,-7.221925735473633,-8.259532928466797,-1.2571067810058594
1695712571629212700,5.752212646484375,-3.8860111236572266,-0.10181427001953125,-3.8243236541748047
1695712571638734000,5.761734130859375,5.592597961425781,3.4829463958740234,-1.8194808959960938
1695712571648286000,5.771285888671875,7.136880874633789,2.869365692138672,2.4492321014404297
1695712571657838000,5.780838134765625,2.7642574310302734,-1.4760074615478516,4.233976364135742
1695712571667390000,5.790389892578125,-0.15451812744140625,-7.167425155639648,2.9277591705322266
1695712571676911600,5.79991162109375,-0.35245704650878906,-12.721094131469727,1.078033447265625
1695712571686463500,5.80946337890625,0.493499755859375,-16.329811096191406,-1.070547103881836
1695712571696015600,5.819015625,1.2011089324951172,-17.111684799194336,-3.089763641357422
1695712571705567500,5.8285673828125,0.9462738037109375,-16.4720516204834,-4.257333755493164
1695712571715119600,5.83811962890625,-0.37371826171875,-14.270767211914062,-3.297883987426758
1695712571724641000,5.84764111328125,-1.8703880310058594,-11.396610260009766,-0.6875457763671875
1695712571734193200,5.857193115234375,-2.8376235961914062,-9.43488883972168,1.2624969482421875
1695712571743745000,5.8667451171875,-2.4444408416748047,-8.167301177978516,1.8293628692626953
1695712571753297200,5.876297119140625,-0.7360572814941406,-7.304874420166016,0.9226169586181641
1695712571762818600,5.885818603515625,0.6007041931152344,-7.084476470947266,-0.06078910827636719
1695712571772370400,5.895370361328125,1.5182304382324219,-7.492033004760742,-0.6492156982421875
1695712571781922600,5.904922607421875,2.5902748107910156,-8.276302337646484,-0.9579524993896484
1695712571791474400,5.914474365234375,2.6690311431884766,-8.856643676757812,-0.828887939453125
1695712571800996000,5.92399609375,1.756296157836914,-9.226469039916992,-0.5201511383056641
1695712571810548000,5.9335478515625,0.1979389190673828,-8.996488571166992,-0.43869972229003906
1695712571820100000,5.94310009765625,-0.7121009826660156,-8.456274032592773,-0.5992069244384766
1695712571829652000,5.95265185546875,-0.45247459411621094,-8.17209243774414,-0.64202880859375
1695712571839204000,5.9622041015625,0.2171039581298828,-8.003799438476562,-0.6279544830322266
1695712571848725500,5.9717255859375,0.512664794921875,-8.063091278076172,-0.7210845947265625
1695712571858277600,5.981277587890625,0.5530910491943359,-8.93270492553711,-0.742645263671875
1695712571867829500,5.99082958984375,0.7031173706054688,-9.482202529907227,-0.5057773590087891
1695712571877412000,6.000412109375,0.4719390869140625,-9.470523834228516,-0.44349098205566406
1695712571886933500,6.00993359375,0.2123126983642578,-9.614860534667969,-0.47702980041503906
1695712571896485600,6.019485595703125,-0.028448104858398438,-9.416023254394531,-0.43390846252441406
1695712571906037500,6.02903759765625,-0.5572834014892578,-9.058176040649414,-0.38360023498535156
1695712571915589600,6.038589599609375,-0.5264396667480469,-8.52275276184082,-0.5776462554931641
1695712571925111000,6.048111083984375,-0.2236919403076172,-7.584264755249023,-0.9196224212646484
1695712571934663000,6.057662841796875,-0.047313690185546875,-7.918455123901367,-1.1660728454589844
1695712571944215000,6.067215087890625,-0.03323936462402344,-9.252521514892578,-1.027425765991211
1695712571953767000,6.076766845703125,-0.044918060302734375,-10.245210647583008,-0.9555568695068359
1695712571963288600,6.08628857421875,-0.44528770446777344,-10.624319076538086,-0.713897705078125
1695712571972840400,6.09584033203125,-1.2604007720947266,-10.45842170715332,-0.3407783508300781
1695712571982392600,6.105392578125,-1.4580402374267578,-10.060447692871094,-0.46265602111816406
1695712571991944400,6.1149443359375,-1.0576705932617188,-9.830467224121094,-0.5944156646728516
1695712572001496600,6.12449658203125,-0.4024658203125,-10.190710067749023,-0.15152359008789062
1695712572011018000,6.13401806640625,0.4767303466796875,-10.560235977172852,-0.16829299926757812
1695712572020570000,6.143570068359375,0.915130615234375,-10.830343246459961,-0.45786476135253906
1695712572030122000,6.1531220703125,0.6387348175048828,-10.742902755737305,-0.9867000579833984
1695712572039674000,6.162674072265625,-0.009283065795898438,-10.624319076538086,-1.1876335144042969
1695712572049195500,6.172195556640625,0.08115196228027344,-10.52939224243164,-1.5275135040283203
1695712572058747400,6.181747314453125,0.4054603576660156,-10.733320236206055,-1.5966873168945312
1695712572068299500,6.191299560546875,0.17428207397460938,-11.10045051574707,-1.4700183868408203
1695712572077851400,6.200851318359375,-0.6408309936523438,-11.55082893371582,-1.2906455993652344
1695712572087373000,6.210373046875,-1.4888839721679688,-12.02216911315918,-1.2858543395996094
1695712572096925000,6.219925048828125,-1.9916667938232422,-12.59322738647461,-1.5706348419189453
1695712572106477000,6.22947705078125,-1.789236068725586,-13.353839874267578,-1.8407421112060547
1695712572116029000,6.23902880859375,-0.9816093444824219,-14.055160522460938,-2.0919837951660156
1695712572125550300,6.24855029296875,0.46505165100097656,-14.254297256469727,-2.5657196044921875
1695712572135102500,6.2581025390625,1.8874568939208984,-14.325267791748047,-2.7382049560546875
1695712572144654600,6.267654541015625,2.626209259033203,-14.299215316772461,-2.060840606689453
1695712572154206500,6.27720654296875,2.635791778564453,-13.664373397827148,-0.9004573822021484
1695712572163789000,6.2867890625,2.230630874633789,-12.159618377685547,-0.04162406921386719
1695712572173310500,6.296310546875,1.7254524230957031,-10.524900436401367,0.9417819976806641
1695712572182862600,6.305862548828125,1.1678695678710938,-9.77596664428711,2.3534069061279297
1695712572192414500,6.31541455078125,0.6387348175048828,-9.743026733398438,3.9372177124023438
1695712572201966600,6.324966552734375,0.45786476135253906,-9.472919464111328,4.559482574462891
1695712572211488000,6.334488037109375,-0.044918060302734375,-9.657682418823242,4.710107803344727
1695712572221039900,6.344039794921875,-0.8148136138916016,-10.250001907348633,4.501987457275391
1695712572230592000,6.353592041015625,-1.6868228912353516,-10.984561920166016,4.176780700683594
1695712572240144000,6.363143798828125,-2.7019710540771484,-12.344381332397461,3.664714813232422
1695712572249665500,6.37266552734375,-3.8264198303222656,-13.313713073730469,2.772043228149414
1695712572259217400,6.382217529296875,-4.183967590332031,-13.514945983886719,1.334066390991211
1695712572268769500,6.39176953125,-3.259553909301758,-13.03402328491211,0.18566131591796875
1695712572278321400,6.4013212890625,-1.4152183532714844,-12.510278701782227,0.12816619873046875
1695712572287842800,6.4108427734375,0.16949081420898438,-12.567174911499023,1.1091766357421875
1695712572297395000,6.42039501953125,1.6326217651367188,-12.576757431030273,1.6619682312011719
1695712572306947000,6.429947021484375,2.71185302734375,-11.974855422973633,1.8676929473876953
1695712572316499000,6.4394990234375,2.4474353790283203,-11.574485778808594,1.6763420104980469
1695712572326051000,6.449051025390625,1.6395092010498047,-10.261680603027344,1.0612640380859375
1695712572335572500,6.458572509765625,1.3466434478759766,-8.496700286865234,0.33179473876953125
1695712572345124400,6.468124267578125,0.2266864776611328,-7.1317901611328125,0.13774871826171875
1695712572354676500,6.477676513671875,-0.9768180847167969,-6.307394027709961,0.30304718017578125
1695712572364228400,6.487228271484375,-1.6296272277832031,-5.729148864746094,0.4967937469482422
1695712572373750000,6.49675,-1.6580753326416016,-5.719566345214844,0.7192878723144531
1695712572383302000,6.506302001953125,-1.8107967376708984,-6.191205978393555,1.1139678955078125
1695712572392854000,6.51585400390625,-1.9416580200195312,-6.69818115234375,1.5329036712646484
1695712572402406000,6.525406005859375,-1.9251880645751953,-7.108133316040039,1.7074851989746094
1695712572411927300,6.53492724609375,-1.8820667266845703,-7.312061309814453,1.5781211853027344
1695712572421479400,6.5444794921875,-1.6248359680175781,-7.020393371582031,1.319692611694336
1695712572431031300,6.55403125,-1.1528968811035156,-6.409208297729492,1.15948486328125
1695712572440583400,6.56358349609375,-0.8908748626708984,-5.686626434326172,1.135528564453125
1695712572450166000,6.573166015625,-1.0480880737304688,-4.918827056884766,1.0995941162109375
1695712572459687400,6.5826875,-1.4340839385986328,-4.219902038574219,1.0756378173828125
1695712572469239600,6.592239501953125,-1.8344535827636719,-3.7838973999023438,1.111572265625
1695712572478791400,6.60179150390625,-2.0728187561035156,-3.5943431854248047,1.2050018310546875
1695712572488343600,6.611343505859375,-2.101266860961914,-3.480550765991211,1.314901351928711
1695712572497865000,6.620864990234375,-2.0871925354003906,-3.551820755004883,1.381978988647461
1695712572507416800,6.630416748046875,-2.3016014099121094,-3.8243236541748047,1.2529144287109375
1695712572516969000,6.639968994140625,-2.630401611328125,-4.283985137939453,0.9465732574462891
1695712572526520800,6.649520751953125,-2.980762481689453,-4.90235710144043,0.5327281951904297
1695712572536042500,6.65904248046875,-3.452402114868164,-5.8333587646484375,0.14014434814453125
1695712572545594400,6.668594482421875,-4.141145706176758,-7.186290740966797,-0.19224929809570312
1695712572555146500,6.678146484375,-4.891576766967773,-8.920726776123047,-0.40995216369628906
1695712572564698400,6.687698486328125,-5.899538040161133,-10.880352020263672,-0.6324462890625
1695712572574219800,6.6972197265625,-6.981464385986328,-13.221181869506836,-1.0394039154052734
1695712572583772000,6.70677197265625,-7.422260284423828,-15.659334182739258,-1.5562610626220703
1695712572593323800,6.71632373046875,-7.279121398925781,-17.630638122558594,-1.7811508178710938
1695712572602876000,6.7258759765625,-8.077465057373047,-18.573617935180664,-1.7260513305664062
1695712572612427800,6.735427734375,-9.173465728759766,-17.983694076538086,-1.0441951751708984
1695712572621949400,6.744949462890625,-8.966243743896484,-15.223329544067383,0.0038928985595703125
1695712572631501300,6.754501220703125,-7.181499481201172,-11.197772979736328,0.9106388092041016
1695712572641053400,6.764053466796875,-4.987102508544922,-6.819160461425781,1.535299301147461
1695712572650605300,6.773605224609375,-4.272006988525391,-3.0044193267822266,1.9491443634033203
1695712572660127000,6.783126953125,-4.884389877319336,-1.1160640716552734,2.7100563049316406
1695712572669678800,6.792678955078125,-5.373098373413086,-1.0708465576171875,3.4754600524902344
1695712572679231000,6.80223095703125,-5.232355117797852,-2.6064453125,3.7123279571533203
1695712572688782800,6.811782958984375,-5.222772598266602,-5.108381271362305,2.8558902740478516
1695712572698304300,6.82130419921875,-6.030698776245117,-8.95396614074707,1.343648910522461
1695712572707856400,6.8308564453125,-7.82502555847168,-15.251777648925781,0.16170501708984375
1695712572717408300,6.840408203125,-7.851078033447266,-22.736623764038086,-0.3767127990722656
1695712572726960400,6.84996044921875,-2.1920013427734375,-27.39253044128418,0.5207500457763672
1695712572736543000,6.85954296875,6.822154998779297,-25.513458251953125,1.188232421875
1695712572746064400,6.869064453125,7.024885177612305,-18.144800186157227,2.607044219970703
1695712572755616300,6.8786162109375,-2.556436538696289,-7.233604431152344,1.6116600036621094
1695712572765168400,6.88816845703125,-4.567567825317383,2.2557849884033203,-1.6182479858398438
1695712572774720300,6.89772021484375,3.443418502807617,6.323863983154297,-0.9244136810302734
1695712572784242000,6.907241943359375,8.16610336303711,5.357227325439453,2.9873504638671875
1695712572793793800,6.916793701171875,5.201810836791992,1.6302261352539062,5.482997894287109
1695712572803346000,6.926345947265625,-1.0409011840820312,-3.8264198303222656,3.920747756958008
1695712572812897800,6.935897705078125,-2.887632369995117,-11.152555465698242,0.5686626434326172
1695712572822419500,6.94541943359375,-1.4436664581298828,-17.71598243713379,-2.3240604400634766
1695712572831971300,6.954971435546875,0.6911392211914062,-20.469160079956055,-4.4965972900390625
1695712572841523500,6.9645234375,2.2806396484375,-20.01189422607422,-5.403642654418945
1695712572851075300,6.974075439453125,2.185413360595703,-16.96704864501953,-4.377115249633789
1695712572860596700,6.9835966796875,1.0939044952392578,-12.114700317382812,-1.1085777282714844
1695712572870148900,6.99314892578125,-0.8148136138916016,-8.806934356689453,1.6284294128417969
1695712572879700700,7.00270068359375,-2.5923709869384766,-6.693389892578125,2.4492321014404297
1695712572889252900,7.0122529296875,-3.402393341064453,-5.556064605712891,1.8724842071533203
1695712572898804700,7.0218046875,-1.9392623901367188,-5.570438385009766,1.037607192993164
1695712572908326400,7.031326416015625,0.6866474151611328,-6.572710037231445,0.4560680389404297
1695712572917878300,7.040878173828125,2.666635513305664,-7.972955703735352,0.011079788208007812
1695712572927430400,7.050430419921875,3.6245880126953125,-9.508255004882812,-0.22818374633789062
1695712572936982300,7.059982177734375,2.2830352783203125,-10.285636901855469,-0.3192176818847656
1695712572946504000,7.06950390625,0.27669525146484375,-10.185918807983398,-0.3623390197753906
1695712572956055800,7.079055908203125,-1.3792839050292969,-9.110280990600586,-0.5536899566650391
1695712572965608000,7.08860791015625,-1.2720794677734375,-7.9990081787109375,-0.7929534912109375
1695712572975159800,7.098159912109375,-0.17847442626953125,-7.617504119873047,-0.49379920959472656
1695712572984681200,7.10768115234375,0.6483173370361328,-7.996612548828125,0.05420112609863281
1695712572994233300,7.1172333984375,1.2798652648925781,-8.636545181274414,0.5039806365966797
1695712573003785200,7.12678515625,1.353830337524414,-9.039310455322266,0.8031349182128906
1695712573013363700,7.13636376953125,0.7079086303710938,-8.965644836425781,0.8459568023681641
1695712573022946300,7.1459462890625,0.0263519287109375,-8.579648971557617,0.5851325988769531
1695712573032467700,7.1554677734375,-0.6192703247070312,-8.31193733215332,0.23836517333984375
1695712573042019800,7.165019775390625,-1.0768356323242188,-8.181375503540039,-0.23776626586914062
1695712573051571700,7.17457177734375,-0.8312835693359375,-8.368534088134766,-0.5656681060791016
1695712573061123800,7.184123779296875,-0.059291839599609375,-8.700328826904297,-0.6707763671875
1695712573070645200,7.193645263671875,0.6174736022949219,-8.984809875488281,-0.7067108154296875
1695712573080197400,7.203197265625,0.7055130004882812,-9.368410110473633,-0.819305419921875
1695712573089749200,7.212749267578125,0.14793014526367188,-9.749914169311523,-1.065755844116211
1695712573099301400,7.22230126953125,-0.4976921081542969,-10.039186477661133,-1.3481407165527344
1695712573108822800,7.23182275390625,-0.6716747283935547,-10.20718002319336,-1.5227222442626953
1695712573118374700,7.241374755859375,-0.33329200744628906,-10.344629287719727,-1.4580402374267578
1695712573127926800,7.2509267578125,0.09792137145996094,-10.396734237670898,-1.1780509948730469
1695712573137478700,7.260478759765625,0.3886909484863281,-10.43716049194336,-0.7689971923828125
1695712573147000300,7.270000244140625,0.6126823425292969,-10.53897476196289,-0.40516090393066406
1695712573156552200,7.27955224609375,0.6794605255126953,-10.676424026489258,-0.40516090393066406
1695712573166104300,7.289104248046875,0.8462562561035156,-10.778238296508789,-0.8788967132568359
1695712573175656200,7.29865625,1.1726608276367188,-10.94892692565918,-1.4843921661376953
1695712573185208300,7.308208251953125,1.0250301361083984,-11.429849624633789,-1.5251178741455078
1695712573194729700,7.317729736328125,0.071868896484375,-12.356359481811523,-0.69952392578125
1695712573204281600,7.327281494140625,-1.4484577178955078,-13.131046295166016,0.4033641815185547
1695712573213833700,7.336833740234375,-2.5540409088134766,-13.3963623046875,1.0400028228759766
1695712573223385600,7.346385498046875,-2.7136497497558594,-13.038814544677734,0.7432441711425781
1695712573232907300,7.3559072265625,-1.8416404724121094,-12.71420669555664,-0.3407783508300781
1695712573242459100,7.365459228515625,-0.6072921752929688,-13.259212493896484,-1.1948204040527344
1695712573252011300,7.37501123046875,0.6174736022949219,-14.104869842529297,-1.5751266479492188
1695712573261563100,7.384563232421875,1.899435043334961,-14.574113845825195,-2.010831832885742
1695712573271084800,7.394084716796875,2.9406356811523438,-14.867877960205078,-2.075214385986328
1695712573280636700,7.40363671875,2.761861801147461,-14.825355529785156,-0.9938869476318359
1695712573290188800,7.413188720703125,1.889852523803711,-13.851531982421875,0.26232147216796875
1695712573299740700,7.42274072265625,1.6062698364257812,-12.268619537353516,0.9944858551025391
1695712573309292800,7.432292724609375,1.40863037109375,-10.823455810546875,2.0162220001220703
1695712573318844700,7.4418447265625,1.2250652313232422,-9.861310958862305,3.360769271850586
1695712573328396800,7.451396728515625,1.0582695007324219,-9.048593521118164,4.492404937744141
1695712573337948700,7.46094873046875,1.0247306823730469,-9.399253845214844,5.03082275390625
1695712573347500800,7.470500732421875,0.7818737030029297,-10.366189956665039,4.9709320068359375
1695712573357022200,7.480022216796875,0.4767303466796875,-11.209451675415039,4.820306777954102
1695712573366574000,7.489573974609375,0.27909088134765625,-12.074274063110352,4.521152496337891
1695712573376126200,7.499126220703125,-0.33329200744628906,-12.797155380249023,3.791383743286133
1695712573385678300,7.50867822265625,-2.0323925018310547,-13.128650665283203,3.090362548828125
1695712573395199700,7.51819970703125,-3.6144065856933594,-13.078941345214844,2.544757843017578
1695712573404751600,7.527751708984375,-3.657228469848633,-12.747146606445312,2.2959117889404297
1695712573414303700,7.5373037109375,-2.585184097290039,-12.280597686767578,2.307889938354492
1695712573423855600,7.546855712890625,-1.3984489440917969,-11.73080062866211,2.578296661376953
1695712573433377300,7.556377197265625,0.3099346160888672,-11.399005889892578,2.8319339752197266
1695712573442929200,7.56592919921875,3.0646095275878906,-11.278326034545898,2.925363540649414
1695712573452481300,7.575481201171875,4.939788818359375,-11.131294250488281,2.6190223693847656
1695712573462033200,7.585033203125,4.432214736938477,-10.02720832824707,1.3987483978271484
1695712573471585300,7.594585205078125,1.0250301361083984,-8.667089462280273,0.11858367919921875
1695712573481106700,7.604106689453125,-1.5892009735107422,-7.401897430419922,-0.20901870727539062
1695712573490658600,7.613658447265625,-2.210866928100586,-6.856891632080078,0.17607879638671875
1695712573500210700,7.623210693359375,-2.130014419555664,-6.62721061706543,0.5803413391113281
1695712573509762600,7.632762451171875,-1.3888664245605469,-6.404417037963867,0.9633426666259766
1695712573519284200,7.6422841796875,-0.9480705261230469,-6.255289077758789,1.381978988647461
1695712573528836000,7.651836181640625,-0.9624443054199219,-6.120235443115234,1.7290458679199219
1695712573538388200,7.66138818359375,-1.234048843383789,-6.0585479736328125,1.9323749542236328
1695712573547940000,7.670940185546875,-1.6008796691894531,-5.885463714599609,2.0018482208251953
1695712573557461800,7.680461669921875,-1.6296272277832031,-5.511146545410156,1.8940448760986328
1695712573567013600,7.690013671875,-1.4936752319335938,-5.018245697021484,1.8101978302001953
1695712573576565800,7.699565673828125,-1.298431396484375,-4.407060623168945,1.5661430358886719
1695712573586117600,7.70911767578125,-1.269683837890625,-3.8003673553466797,1.2768707275390625
1695712573595700200,7.7187001953125,-1.2460269927978516,-3.1631298065185547,0.9657382965087891
1695712573605221600,7.7282216796875,-1.5580577850341797,-2.539966583251953,0.5899238586425781
1695712573614773800,7.737773681640625,-2.0132274627685547,-2.2297325134277344,0.4632549285888672
1695712573624325600,7.74732568359375,-2.3992233276367188,-2.151275634765625,0.3841991424560547
1695712573633877800,7.756877685546875,-2.6423797607421875,-2.258180618286133,0.4201335906982422
1695712573643399200,7.766399169921875,-2.906797409057617,-2.523496627807617,0.5111675262451172
1695712573652951000,7.775950927734375,-3.2784194946289062,-2.8930225372314453,0.5255413055419922
1695712573662503200,7.785503173828125,-3.700349807739258,-3.525768280029297,0.4249248504638672
1695712573672055000,7.795054931640625,-4.300754547119141,-4.608592987060547,0.3626384735107422
1695712573681576700,7.80457666015625,-5.241937637329102,-6.19599723815918,0.4201335906982422
1695712573691128600,7.814128662109375,-6.423881530761719,-8.473043441772461,0.7743873596191406
1695712573700680700,7.8236806640625,-7.851078033447266,-11.877832412719727,1.0016727447509766
1695712573710232600,7.833232666015625,-9.48100471496582,-16.746950149536133,0.4488811492919922
1695712573719754200,7.842754150390625,-10.681814193725586,-22.423694610595703,-0.20901870727539062
1695712573729306000,7.85230615234375,-12.040136337280273,-27.11284065246582,0.6546058654785156
1695712573738858200,7.861858154296875,-13.500871658325195,-27.638980865478516,2.1836166381835938
1695712573748410000,7.87141015625,-10.624618530273438,-22.08980369567871,3.0496368408203125
1695712573757962200,7.880962158203125,-4.39837646484375,-13.022045135498047,3.0400543212890625
1695712573767483600,7.890483642578125,-1.655679702758789,-3.748262405395508,1.8700885772705078
1695712573777035500,7.900035400390625,-3.05682373046875,3.290996551513672,1.3939571380615234
1695712573786587600,7.909587646484375,-4.951168060302734,6.814369201660156,1.496969223022461
1695712573796139500,7.919139404296875,-4.898763656616211,6.62721061706543,1.8101978302001953
1695712573805661200,7.9286611328125,-5.284759521484375,3.1274948120117188,1.6044731140136719
1695712573815213000,7.938213134765625,-7.150655746459961,-3.3598709106445312,1.0352115631103516
1695712573824765200,7.94776513671875,-6.6239166259765625,-12.206932067871094,1.381978988647461
1695712573834317000,7.957317138671875,-0.5312309265136719,-20.881507873535156,3.468273162841797
1695712573843838700,7.966838623046875,5.430593490600586,-29.003591537475586,5.181447982788086
1695712573853390600,7.976390625,7.958881378173828,-33.133358001708984,5.322790145874023
1695712573862942700,7.985942626953125,-2.239614486694336,-24.669897079467773,-0.15631484985351562
1695712573872494600,7.99549462890625,2.6286048889160156,-10.122135162353516,-4.470245361328125
1695712573882046700,8.005046630859376,9.093212127685547,-0.9810104370117188,-1.6805343627929688
1695712573891598600,8.0145986328125,4.825397491455078,2.092283248901367,1.8341541290283203
1695712573901150700,8.024150634765626,-2.6588497161865234,2.092283248901367,3.4515037536621094
1695712573910702600,8.03370263671875,-6.478681564331055,-1.909616470336914,3.3439998626708984
1695712573920254700,8.043254638671876,-3.2760238647460938,-8.063091278076172,3.205352783203125
1695712573929776000,8.052776123046876,0.7579174041748047,-12.311441421508789,2.4013195037841797
1695712573939328000,8.062327880859375,2.180622100830078,-14.732824325561523,0.8435611724853516
1695712573948880100,8.071880126953126,1.7778568267822266,-15.635677337646484,-1.4221057891845703
1695712573958432000,8.081431884765625,0.3003520965576172,-15.308673858642578,-2.431863784790039
1695712573967953700,8.09095361328125,-1.0648574829101562,-13.55746841430664,-1.3885669708251953
1695712573977505500,8.100505615234376,-1.5344009399414062,-11.449014663696289,0.29106903076171875
1695712573987057700,8.1100576171875,-1.8892536163330078,-9.626838684082031,1.008859634399414
1695712573996609500,8.119609619140626,-1.5748271942138672,-8.13166618347168,0.5518932342529297
1695712574006131200,8.129131103515626,0.26711273193359375,-7.056028366088867,-0.2832832336425781
1695712574015683000,8.13868310546875,2.890626907348633,-6.745494842529297,-0.8025360107421875
1695712574025235200,8.148235107421876,4.789762496948242,-6.987453460693359,-0.8956661224365234
1695712574034787000,8.157787109375,4.527740478515625,-7.463584899902344,-0.6016025543212891
1695712574044308500,8.16730859375,1.9398612976074219,-8.003799438476562,-0.07037162780761719
1695712574053860600,8.176860595703126,-1.1292400360107422,-8.006195068359375,0.4752330780029297
1695712574063412500,8.18641259765625,-2.080005645751953,-7.885215759277344,0.6354408264160156
1695712574072964600,8.195964599609376,-1.7607879638671875,-7.409084320068359,0.6929359436035156
1695712574082516500,8.2055166015625,-0.48122215270996094,-7.155447006225586,0.6929359436035156
1695712574092038100,8.2150380859375,0.9867000579833984,-7.266843795776367,0.8315830230712891
1695712574101590000,8.224590087890626,2.1090526580810547,-7.3402099609375,0.7288703918457031
1695712574111142100,8.23414208984375,2.1090526580810547,-7.771722793579102,0.5207500457763672
1695712574120694000,8.243694091796876,1.3466434478759766,-8.155323028564453,0.32221221923828125
1695712574130215700,8.253215576171876,0.474334716796875,-8.551200866699219,0.23596954345703125
1695712574139767600,8.262767578125,-0.2928657531738281,-8.735963821411133,0.0014972686767578125
1695712574149319700,8.272319580078126,-1.0052661895751953,-8.935100555419922,-0.3240089416503906
1695712574158871600,8.28187158203125,-1.0768356323242188,-9.14352035522461,-0.5441074371337891
1695712574168423700,8.291423583984376,-0.819305419921875,-9.321096420288086,-0.49859046936035156
1695712574177975600,8.3009755859375,-0.6408309936523438,-9.581920623779297,-0.43630409240722656
1695712574187527700,8.310527587890626,-0.4952964782714844,-9.693017959594727,-0.38839149475097656
1695712574197079600,8.32007958984375,-0.2380657196044922,-9.68613052368164,-0.22099685668945312
1695712574206631700,8.329631591796876,-0.047313690185546875,-9.764287948608398,0.08534431457519531
1695712574216153000,8.339153076171876,-0.1404438018798828,-10.159866333007812,0.33179473876953125
1695712574225705000,8.348705078125,-0.416839599609375,-10.671632766723633,0.32460784912109375
1695712574235257000,8.358257080078126,-0.2976570129394531,-10.965396881103516,0.12577056884765625
1695712574244809000,8.36780908203125,0.5219478607177734,-11.174116134643555,0.03982734680175781
1695712574254330600,8.37733056640625,1.5038566589355469,-11.387327194213867,0.15691375732421875
1695712574263882500,8.386882568359376,1.794626235961914,-11.382535934448242,0.4345073699951172
1695712574273434600,8.3964345703125,1.3083133697509766,-11.10045051574707,0.5662670135498047
1695712574282986500,8.405986572265626,0.7294692993164062,-10.778238296508789,0.6114845275878906
1695712574292508200,8.415508056640626,0.18386459350585938,-10.707267761230469,0.7839698791503906
1695712574302060000,8.42506005859375,-0.36683082580566406,-10.977375030517578,1.0708465576171875
1695712574311612200,8.434612060546876,-0.8956661224365234,-11.346900939941406,1.338857650756836
1695712574321164000,8.4441640625,-1.3984489440917969,-11.846988677978516,1.434682846069336
1695712574330685400,8.453685546875,-1.7128753662109375,-12.346776962280273,1.2073974609375
1695712574340237600,8.463237548828126,-1.4032402038574219,-12.394390106201172,0.20003509521484375
1695712574349789400,8.47278955078125,-0.5048789978027344,-12.785177230834961,-1.065755844116211
1695712574359341600,8.482341552734376,0.483917236328125,-13.690425872802734,-2.1638526916503906
1695712574368893400,8.4918935546875,1.4870872497558594,-14.83942985534668,-2.958303451538086
1695712574378415000,8.5014150390625,2.3426265716552734,-15.727909088134766,-3.2023582458496094
1695712574387967000,8.510967041015626,2.776235580444336,-15.675804138183594,-2.6855010986328125
1695712574397519000,8.52051904296875,2.5166091918945312,-14.44864273071289,-1.2115898132324219
1695712574407071000,8.530071044921876,1.6014785766601562,-12.200044631958008,0.5542888641357422
1695712574416592600,8.539592529296876,0.8510475158691406,-10.11734390258789,2.1524734497070312
1695712574426144500,8.54914453125,0.3171215057373047,-8.91353988647461,3.738679885864258
1695712574435696600,8.558696533203126,0.04791259765625,-8.717098236083984,4.805932998657227
1695712574445248500,8.56824853515625,-0.1332569122314453,-9.771474838256836,5.274877548217773
1695712574454800600,8.577800537109376,0.2147083282470703,-10.922874450683594,5.0595703125
1695712574464352500,8.5873525390625,0.7294692993164062,-11.790092468261719,4.683755874633789
1695712574473904600,8.596904541015626,1.1106739044189453,-12.763916015625,4.22199821472168
1695712574483456500,8.60645654296875,0.7698955535888672,-13.34665298461914,3.3008785247802734
1695712574493008600,8.616008544921876,-0.9840049743652344,-13.382287979125977,2.3869457244873047
1695712574502530000,8.625530029296876,-2.8352279663085938,-13.199920654296875,1.7122764587402344
1695712574512082000,8.63508203125,-3.5596065521240234,-12.816020965576172,1.334066390991211
1695712574521634000,8.644634033203126,-2.9900455474853516,-12.37282943725586,1.334066390991211
1695712574531186000,8.65418603515625,-1.7011966705322266,-11.944011688232422,1.5829124450683594
1695712574540707600,8.66370751953125,-0.0020961761474609375,-11.546037673950195,1.8964405059814453
1695712574550259500,8.673259521484376,2.0806045532226562,-11.356483459472656,2.403715133666992
1695712574559811600,8.6828115234375,4.410953521728516,-11.422662734985352,2.872659683227539
1695712574569363500,8.692363525390626,3.8557662963867188,-10.595870971679688,2.635791778564453
1695712574578885000,8.701885009765626,1.794626235961914,-9.14352035522461,1.7146720886230469
1695712574588437000,8.71143701171875,-0.6908397674560547,-7.975351333618164,1.018442153930664
1695712574597989000,8.720989013671876,-1.8200798034667969,-7.094058990478516,0.8890781402587891
1695712574607541000,8.730541015625,-2.1920013427734375,-6.688898086547852,1.0447940826416016
1695712574617062400,8.7400625,-1.6152534484863281,-6.589179992675781,1.3747920989990234
1695712574626614500,8.749614501953126,-0.9956836700439453,-6.679315567016602,1.6811332702636719
1695712574636166400,8.75916650390625,-0.6549053192138672,-6.655658721923828,1.9108142852783203
1695712574645718500,8.768718505859376,-0.5977096557617188,-6.4969482421875,2.0207138061523438
1695712574655270400,8.7782705078125,-0.7168922424316406,-6.198392868041992,1.9946613311767578
1695712574664792000,8.7877919921875,-0.6908397674560547,-5.759992599487305,1.7934284210205078
1695712574674344000,8.797343994140626,-0.7004222869873047,-5.245830535888672,1.5996818542480469
1695712574683896000,8.80689599609375,-0.7192878723144531,-4.599010467529297,1.362813949584961
1695712574693448000,8.816447998046876,-0.828887939453125,-3.9923171997070312,1.0852203369140625
1695712574702969300,8.82596923828125,-1.1148662567138672,-3.4521026611328125,0.8675174713134766
1695712574712521500,8.835521484375,-1.4532489776611328,-3.0160980224609375,0.7408485412597656
1695712574722073600,8.845073486328126,-1.8796710968017578,-2.6938858032226562,0.7001228332519531
1695712574731625500,8.85462548828125,-2.3228626251220703,-2.601654052734375,0.8435611724853516
1695712574741177600,8.864177490234376,-2.711254119873047,-2.6774158477783203,1.0612640380859375
1695712574750729500,8.8737294921875,-3.06640625,-2.980762481689453,1.314901351928711
1695712574760281600,8.883281494140626,-3.421558380126953,-3.442819595336914,1.3268795013427734
1695712574769833500,8.89283349609375,-3.7551498413085938,-4.172588348388672,1.250518798828125
1695712574779385600,8.902385498046876,-4.15312385559082,-5.1961212158203125,1.0208377838134766
1695712574788907000,8.911906982421876,-4.772394180297852,-6.686502456665039,0.8435611724853516
1695712574798459000,8.921458984375,-5.706689834594727,-8.785673141479492,0.9250125885009766
1695712574808011000,8.931010986328126,-6.874259948730469,-11.557716369628906,1.023233413696289
1695712574817563000,8.94056298828125,-7.724708557128906,-14.86069107055664,0.8890781402587891
1695712574827084500,8.95008447265625,-7.843891143798828,-18.27985382080078,0.6330451965332031
1695712574836636400,8.959636474609376,-8.353860855102539,-21.104001998901367,0.8723087310791016
1695712574846188500,8.9691884765625,-10.598566055297852,-21.850540161132812,1.372396469116211
1695712574855740400,8.978740478515626,-12.249753952026367,-19.54265022277832,1.8988361358642578
1695712574865261800,8.98826171875,-9.357030868530273,-14.09768295288086,1.9347705841064453
1695712574874814000,8.99781396484375,-4.979915618896484,-6.951818466186523,1.2337493896484375
1695712574884366000,9.007365966796876,-3.6692066192626953,-0.8007392883300781,1.008859634399414
1695712574893918000,9.01691796875,-4.214811325073242,2.6822071075439453,1.193023681640625
1695712574903439400,9.026439453125,-4.607994079589844,3.5350513458251953,1.386770248413086
1695712574912991500,9.035991455078126,-5.389568328857422,1.3481407165527344,1.5757255554199219
1695712574922543400,9.04554345703125,-6.435859680175781,-3.381132125854492,1.17864990234375
1695712574932095500,9.055095458984376,-8.344278335571289,-11.583768844604492,1.5233211517333984
1695712574941647400,9.0646474609375,-10.191009521484375,-21.92869758605957,2.283933639526367
1695712574951169000,9.0741689453125,-4.658302307128906,-29.223989486694336,3.887208938598633
1695712574960721000,9.083720947265626,11.783205032348633,-30.929977416992188,6.9401397705078125
1695712574970273000,9.09327294921875,13.658683776855469,-24.85495948791504,8.203535079956055
1695712574979825000,9.102824951171876,-0.08324813842773438,-11.455902099609375,3.0831756591796875
1695712574989346300,9.11234619140625,-3.7168197631835938,-0.018865585327148438,-2.828939437866211
1695712574998898400,9.1218984375,2.71185302734375,5.703096389770508,-3.219127655029297
1695712575008450300,9.1314501953125,5.599784851074219,5.681835174560547,0.6977272033691406
1695712575018002400,9.14100244140625,3.727001190185547,3.006814956665039,4.30824089050293
1695712575027554300,9.15055419921875,-0.3096351623535156,-2.5211009979248047,5.0523834228515625
1695712575037106400,9.1601064453125,-2.997232437133789,-10.034395217895508,3.2125396728515625
1695712575046658600,9.169658447265626,-3.0283756256103516,-16.059703826904297,0.6498146057128906
1695712575056210400,9.17921044921875,-1.779653549194336,-19.540254592895508,-1.9030284881591797
1695712575065762600,9.188762451171876,-0.32610511779785156,-19.969072341918945,-3.494325637817383
1695712575075284000,9.198283935546876,0.7150955200195312,-17.298843383789062,-3.0729942321777344
1695712575084835800,9.2078359375,1.5254173278808594,-12.759124755859375,-0.5680637359619141
1695712575094388000,9.217387939453126,1.310708999633789,-9.333074569702148,1.8892536163330078
1695712575103939800,9.22693994140625,0.6866474151611328,-7.00871467590332,2.616626739501953
1695712575113461500,9.23646142578125,0.3243083953857422,-5.62493896484375,1.8101978302001953
1695712575123013400,9.246013427734376,0.483917236328125,-5.442571640014648,0.4848155975341797
1695712575132565500,9.2555654296875,0.7174911499023438,-6.383155822753906,-0.42911720275878906
1695712575142117400,9.265117431640626,0.9082431793212891,-7.653139114379883,-0.7091064453125
1695712575151638800,9.274638671875,1.2535133361816406,-8.987205505371094,-0.3431739807128906
1695712575161191000,9.28419091796875,1.2418346405029297,-9.86610221862793,0.5279369354248047
1695712575170742800,9.29374267578125,0.8747043609619141,-9.95623779296875,1.425100326538086
1695712575180295000,9.303294921875,0.10271263122558594,-9.091415405273438,1.6092643737792969
1695712575189816300,9.31281640625,-0.5977096557617188,-8.112800598144531,1.4035396575927734
1695712575199368400,9.322368408203126,-1.1124706268310547,-7.482450485229492,1.3029232025146484
1695712575208920300,9.33192041015625,-0.8812923431396484,-7.406688690185547,1.14990234375
1695712575218472400,9.341472412109376,-0.08324813842773438,-7.776214599609375,1.0495853424072266
1695712575228024300,9.3510244140625,0.6866474151611328,-8.250249862670898,0.9872989654541016
1695712575237546000,9.3605458984375,0.9675350189208984,-8.544013977050781,0.9609470367431641
1695712575247097900,9.370097900390626,0.7318649291992188,-8.451482772827148,0.9250125885009766
1695712575256650000,9.37964990234375,0.2386646270751953,-8.207427978515625,0.7839698791503906
1695712575266201900,9.389201904296876,-0.09492683410644531,-8.190958023071289,0.6546058654785156
1695712575275723300,9.39872314453125,-0.18326568603515625,-8.39249038696289,0.5566844940185547
1695712575285275400,9.408275390625,-0.2308788299560547,-8.69314193725586,0.31981658935546875
1695712575294827300,9.4178271484375,-0.5216484069824219,-9.141124725341797,-0.05839347839355469
1695712575304379400,9.42737939453125,-0.828887939453125,-9.657682418823242,-0.49619483947753906
1695712575313931300,9.43693115234375,-0.9408836364746094,-10.242815017700195,-0.7833709716796875
1695712575323483400,9.4464833984375,-0.6884441375732422,-10.60784912109375,-0.85284423828125
1695712575333035300,9.45603515625,-0.1308612823486328,-10.65755844116211,-0.7162933349609375
1695712575342587400,9.46558740234375,0.2003345489501953,-10.413503646850586,-0.39797401428222656
1695712575352139300,9.47513916015625,0.2099170684814453,-10.323368072509766,0.09013557434082031
1695712575361661000,9.484660888671876,0.0263519287109375,-10.451234817504883,0.6617927551269531
1695712575371212800,9.494212890625,-0.17847442626953125,-10.614736557006836,0.9872989654541016
1695712575380765000,9.503764892578126,-0.07126998901367188,-10.686006546020508,0.8459568023681641
1695712575390316800,9.51331689453125,0.29106903076171875,-10.76895523071289,0.33179473876953125
1695712575399838500,9.52283837890625,0.6818561553955078,-11.211847305297852,0.10420989990234375
1695712575409390300,9.532390380859376,0.6294517517089844,-12.10272216796875,0.6282539367675781
1695712575418942500,9.5419423828125,-0.14733123779296875,-12.913043975830078,1.2672882080078125
1695712575428494300,9.551494384765626,-1.5580577850341797,-13.27568244934082,1.516134262084961
1695712575438015700,9.561015625,-2.670827865600586,-13.03402328491211,1.14031982421875
1695712575447568000,9.57056787109375,-2.754375457763672,-12.61448860168457,0.26471710205078125
1695712575457119700,9.58011962890625,-1.8248710632324219,-12.977127075195312,-0.44349098205566406
1695712575466671900,9.589671875,0.1907520294189453,-13.870397567749023,-0.733062744140625
1695712575476193300,9.599193359375,2.404613494873047,-14.505239486694336,-1.1061820983886719
1695712575485745400,9.608745361328126,3.772218704223633,-14.825355529785156,-1.2451286315917969
1695712575495297300,9.61829736328125,4.132162094116211,-14.562135696411133,-0.7474365234375
1695712575504849400,9.627849365234376,3.503009796142578,-13.278078079223633,0.33898162841796875
1695712575514370800,9.637370849609376,2.335439682006836,-11.145668029785156,1.4418697357177734
1695712575523923000,9.6469228515625,1.5942916870117188,-9.368410110473633,2.8654727935791016
1695712575533474800,9.656474853515626,0.9606475830078125,-8.671880722045898,4.817911148071289
1695712575543027000,9.66602685546875,0.3910865783691406,-9.096206665039062,6.461612701416016
1695712575552548400,9.67554833984375,0.29106903076171875,-10.209575653076172,7.339611053466797
1695712575562100200,9.685100341796876,0.09552574157714844,-11.61221694946289,7.380336761474609
1695712575571652400,9.69465234375,-0.5836353302001953,-12.733072280883789,6.652963638305664
1695712575581204200,9.704204345703126,-1.7368316650390625,-13.379892349243164,5.04998779296875
1695712575590756400,9.71375634765625,-3.6692066192626953,-13.68563461303711,3.3919124603271484
1695712575600308200,9.72330810546875,-5.268289566040039,-13.894054412841797,2.1931991577148438
1695712575609860400,9.7328603515625,-4.8559417724609375,-13.529319763183594,1.5613517761230469
1695712575619412200,9.742412109375,-3.4547977447509766,-12.90376091003418,1.6883201599121094
1695712575628964400,9.75196435546875,-0.8552398681640625,-12.394390106201172,1.9563312530517578
1695712575638485800,9.76148583984375,3.498218536376953,-12.306650161743164,2.4540233612060547
1695712575648038000,9.771037841796876,6.219354629516602,-13.000783920288086,2.9921417236328125
1695712575657589800,9.78058984375,6.881746292114258,-11.849384307861328,2.554340362548828
1695712575667142000,9.790141845703126,4.775388717651367,-9.619651794433594,1.343648910522461
1695712575676693800,9.79969384765625,2.0662307739257812,-7.743274688720703,0.4057598114013672
1695712575686215400,9.80921533203125,-0.35245704650878906,-6.655658721923828,0.09941864013671875
1695712575695767300,9.818767333984376,-2.2680625915527344,-6.117839813232422,0.3913860321044922
1695712575705319400,9.8283193359375,-3.035562515258789,-5.786045074462891,0.8579349517822266
1695712575714871300,9.837871337890626,-3.1736106872558594,-5.731544494628906,1.362813949584961
1695712575724392700,9.847392822265626,-2.6327972412109375,-5.781253814697266,1.9491443634033203
1695712575733944800,9.85694482421875,-1.784444808959961,-5.913911819458008,2.4252758026123047
1695712575743496700,9.86649658203125,-1.1936225891113281,-6.108257293701172,2.843912124633789
1695712575753048800,9.876048828125,-0.8264923095703125,-6.217258453369141,3.071197509765625
1695712575762570200,9.8855703125,-0.4929008483886719,-6.101070404052734,3.0256805419921875
1695712575772122400,9.895122314453126,-0.31891822814941406,-5.710283279418945,2.7100563049316406
1695712575781674200,9.90467431640625,-0.3761138916015625,-5.205404281616211,2.2719554901123047
1695712575791226400,9.914226318359376,-0.6048965454101562,-4.679563522338867,1.8964405059814453
1695712575800747800,9.923747802734376,-0.9504661560058594,-4.160610198974609,1.5877037048339844
1695712575810300000,9.9332998046875,-1.4128227233886719,-3.6796875,1.334066390991211
1695712575819851800,9.942851806640626,-2.060840606689453,-3.2508697509765625,1.145111083984375
1695712575829404000,9.95240380859375,-2.7232322692871094,-2.9094924926757812,1.0064640045166016
1695712575838955800,9.961955810546876,-3.0379581451416016,-2.798095703125,1.018442153930664
1695712575848477200,9.971477294921876,-3.0472412109375,-3.0400543212890625,1.250518798828125
1695712575858029300,9.981029296875,-2.9091930389404297,-3.4664764404296875,1.415517807006836
1695712575867581200,9.990581298828126,-2.8496017456054688,-3.9450035095214844,1.3843746185302734
1695712575877133300,10.00013330078125,-2.961597442626953,-4.757720947265625,1.3939571380615234
1695712575886685200,10.009685302734376,-3.3451976776123047,-5.956733703613281,1.377187728881836
1695712575896237300,10.0192373046875,-4.126771926879883,-7.634273529052734,1.29364013671875
1695712575905789200,10.0287890625,-5.506355285644531,-9.832862854003906,1.2002105712890625
1695712575915341300,10.03834130859375,-7.646251678466797,-12.735467910766602,0.8603305816650391
1695712575924862700,10.04786279296875,-9.485795974731445,-16.151935577392578,0.24555206298828125
1695712575934414800,10.057414794921876,-9.357030868530273,-19.177915573120117,-0.0008983612060546875
1695712575943966700,10.066966796875,-7.779508590698242,-20.87671661376953,0.4776287078857422
1695712575953518800,10.076518798828126,-8.091838836669922,-20.819820404052734,1.2624969482421875
1695712575963070700,10.08607080078125,-10.357805252075195,-18.391250610351562,2.2530899047851562
1695712575972592400,10.09559228515625,-9.492982864379883,-13.339765548706055,2.8367252349853516
1695712575982144300,10.105144287109376,-6.597864151000977,-6.959005355834961,2.597461700439453
1695712575991696400,10.1146962890625,-5.458742141723633,-1.0307197570800781,1.8173847198486328
1695712576001248300,10.124248291015626,-5.420711517333984,2.433361053466797,1.6667594909667969
1695712576010769700,10.133769775390626,-4.917928695678711,3.5943431854248047,1.8581104278564453
1695712576020321800,10.14332177734375,-4.37921142578125,2.3528079986572266,2.7292213439941406
1695712576029873700,10.152873779296876,-3.97674560546875,-0.40036964416503906,3.167022705078125
1695712576039425800,10.16242578125,-3.53594970703125,-4.771795272827148,2.99932861328125
1695712576048947200,10.171947265625,-5.177555084228516,-12.271015167236328,2.631000518798828
1695712576058499300,10.181499267578126,-9.561857223510742,-21.48790168762207,2.0901870727539062
1695712576068051200,10.19105126953125,-7.765434265136719,-29.856435775756836,2.3150768280029297
1695712576077603300,10.200603271484376,7.582468032836914,-32.13587951660156,5.554866790771484
1695712576087124700,10.210124755859376,13.375101089477539,-26.93286895751953,8.29666519165039
1695712576096676900,10.2196767578125,0.45546913146972656,-13.98658561706543,3.1790008544921875
1695712576106228700,10.229228759765626,-3.993215560913086,-1.6065692901611328,-3.6138076782226562
1695712576115780900,10.23878076171875,4.34657096862793,5.262300491333008,-2.7142486572265625
1695712576125332700,10.248332763671876,6.576902389526367,6.240915298461914,1.2193756103515625
1695712576134854100,10.257854248046876,2.5285873413085938,5.008962631225586,4.647821426391602
1695712576144406300,10.26740625,-2.759166717529297,-0.08534431457519531,4.762811660766602
1695712576153958100,10.276958251953126,-4.607994079589844,-7.868745803833008,3.0160980224609375
1695712576163510300,10.28651025390625,-3.9408111572265625,-14.225849151611328,0.9968814849853516
1695712576173062100,10.296062255859376,-1.31280517578125,-17.794139862060547,-0.41953468322753906
1695712576182614300,10.3056142578125,1.1939220428466797,-19.042861938476562,-1.4388751983642578
1695712576192166100,10.315166259765626,3.052631378173828,-17.64710807800293,-1.7907333374023438
1695712576201718300,10.32471826171875,3.3481922149658203,-13.799427032470703,-0.06318473815917969
1695712576211239700,10.33423974609375,1.761087417602539,-10.629110336303711,1.8030109405517578
1695712576220791800,10.343791748046876,-0.4881095886230469,-8.655410766601562,2.683704376220703
1695712576230343700,10.35334375,-1.7272491455078125,-7.629482269287109,2.1476821899414062
1695712576239895800,10.362895751953126,-1.29364013671875,-7.335718154907227,0.9896945953369141
1695712576249447700,10.37244775390625,0.1979389190673828,-7.596242904663086,0.23836517333984375
1695712576258969300,10.38196923828125,1.6182479858398438,-8.16250991821289,-0.07995414733886719
1695712576268521200,10.391521240234376,2.316274642944336,-8.50149154663086,0.06617927551269531
1695712576278073300,10.4010732421875,2.2474002838134766,-8.532035827636719,0.4872112274169922
1695712576287625200,10.410625244140626,0.8986606597900391,-8.299959182739258,0.9417819976806641
1695712576297146600,10.420146728515626,-0.5453052520751953,-7.885215759277344,1.14990234375
1695712576306698800,10.42969873046875,-1.1792488098144531,-7.634273529052734,1.2145843505859375
1695712576316250600,10.439250732421876,-1.2412357330322266,-7.835506439208984,1.5565605163574219
1695712576325802800,10.448802734375,-0.5216484069824219,-8.065486907958984,1.5281124114990234
1695712576335324200,10.45832421875,0.493499755859375,-8.209823608398438,1.2720794677734375
1695712576344876300,10.467876220703126,1.0702476501464844,-8.333198547363281,1.1139678955078125
1695712576354428200,10.47742822265625,1.2774696350097656,-8.349668502807617,1.1043853759765625
1695712576363980300,10.486980224609376,1.0986957550048828,-8.148435592651367,1.068450927734375
1695712576373501700,10.496501708984376,0.8390693664550781,-7.939716339111328,0.9705295562744141
1695712576383053800,10.5060537109375,0.6842517852783203,-7.873537063598633,0.9441776275634766
1695712576392605700,10.515605712890626,0.493499755859375,-8.008590698242188,1.018442153930664
1695712576402157800,10.52515771484375,0.3695259094238281,-8.39249038696289,1.097198486328125
1695712576411709700,10.534709716796876,0.3099346160888672,-8.882696151733398,1.135528564453125
1695712576421231000,10.544231201171876,-0.09732246398925781,-9.42530632019043,0.9825077056884766
1695712576430783200,10.553783203125,-0.867218017578125,-9.95623779296875,0.5710582733154297
1695712576440335000,10.563335205078126,-1.4200096130371094,-10.204784393310547,-0.017667770385742188
1695712576449887200,10.57288720703125,-1.4292926788330078,-10.24760627746582,-0.42672157287597656
1695712576459439000,10.582439208984376,-0.8052310943603516,-10.302106857299805,-0.49140357971191406
1695712576468991200,10.5919912109375,0.17667770385742188,-10.536579132080078,-0.15152359008789062
1695712576478543000,10.601543212890626,0.9175262451171875,-10.94892692565918,0.3841991424560547
1695712576488095200,10.61109521484375,1.0819263458251953,-11.30916976928711,0.8962650299072266
1695712576497616600,10.62061669921875,0.8055305480957031,-11.266347885131836,1.0948028564453125
1695712576507168800,10.630168701171876,0.2075214385986328,-11.069906234741211,0.9369907379150391
1695712576516720600,10.639720703125,-0.5477008819580078,-11.043554306030273,0.7001228332519531
1695712576526272800,10.649272705078126,-0.9908924102783203,-11.444223403930664,0.6426277160644531
1695712576535824600,10.65882470703125,-0.9408836364746094,-12.079065322875977,0.6665840148925781
1695712576545346300,10.66834619140625,-0.9384880065917969,-12.730676651000977,0.6641883850097656
1695712576554898200,10.677898193359376,-1.3984489440917969,-12.958261489868164,0.3458690643310547
1695712576564450300,10.6874501953125,-1.789236068725586,-13.131046295166016,-0.15631484985351562
1695712576574002200,10.697002197265626,-1.5056533813476562,-13.46523666381836,-0.6731719970703125
1695712576583523600,10.706523681640626,-0.46924400329589844,-13.941368103027344,-1.1325340270996094
1695712576593075700,10.71607568359375,1.1963176727294922,-14.296819686889648,-1.2427330017089844
1695712576602627600,10.725627685546876,2.8430137634277344,-14.687906265258789,-1.075338363647461
1695712576612179700,10.7351796875,3.562601089477539,-14.704376220703125,-0.5345249176025391
1695712576621701000,10.744701171875,3.1598358154296875,-13.728157043457031,0.5614757537841797
1695712576631253200,10.754253173828126,2.404613494873047,-12.060199737548828,1.7194633483886719
1695712576640805000,10.76380517578125,1.9066219329833984,-10.520109176635742,2.592670440673828
1695712576650357200,10.773357177734376,1.5442829132080078,-9.323492050170898,3.4658775329589844
1695712576659878700,10.782878662109376,0.7627086639404297,-9.731048583984375,4.559482574462891
1695712576669430500,10.792430419921875,0.29346466064453125,-10.771350860595703,5.246129989624023
1695712576678982700,10.801982666015626,0.4006690979003906,-11.271139144897461,5.377590179443359
1695712576688534500,10.811534423828125,0.6602954864501953,-11.737987518310547,5.325185775756836
1695712576698086700,10.821086669921876,0.6222648620605469,-12.365942001342773,4.949371337890625
1695712576707608000,10.830608154296876,-0.7168922424316406,-12.922626495361328,3.9135608673095703
1695712576717160200,10.84016015625,-2.985553741455078,-13.199920654296875,2.810373306274414
1695712576726712000,10.849712158203126,-4.557985305786133,-13.178659439086914,1.9371662139892578
1695712576736264200,10.85926416015625,-4.979915618896484,-12.839677810668945,1.6308250427246094
1695712576745816000,10.868816162109376,-3.9695587158203125,-12.287485122680664,2.004243850708008
1695712576755368200,10.8783681640625,-1.4700183868408203,-12.083856582641602,2.6861000061035156
1695712576764920000,10.887920166015626,1.7446174621582031,-11.709539413452148,3.698253631591797
1695712576774472200,10.89747216796875,4.706214904785156,-11.643060684204102,4.760416030883789
1695712576783993600,10.90699365234375,6.7532806396484375,-11.192981719970703,4.863428115844727
1695712576793545700,10.916545654296876,4.994588851928711,-9.242938995361328,2.877450942993164
1695712576803097600,10.92609765625,1.6326217651367188,-7.292896270751953,0.6641883850097656
1695712576812649700,10.935649658203126,-1.5056533813476562,-6.615232467651367,0.07815742492675781
1695712576822171100,10.945171142578126,-2.6088409423828125,-6.271759033203125,0.11139678955078125
1695712576831723000,10.954722900390625,-2.5540409088134766,-6.113048553466797,0.5614757537841797
1695712576841275100,10.964275146484376,-2.080005645751953,-5.96601676940918,1.25531005859375
1695712576850827000,10.973826904296875,-1.739227294921875,-5.91630744934082,1.9203968048095703
1695712576860379100,10.983379150390626,-1.2864532470703125,-5.913911819458008,2.3294506072998047
1695712576869900500,10.992900634765626,-0.7312660217285156,-5.8285675048828125,2.554340362548828
1695712576879452700,11.00245263671875,-0.2928657531738281,-5.6273345947265625,2.539966583251953
1695712576889004500,11.012004638671876,-0.08085250854492188,-5.205404281616211,2.3294506072998047
1695712576898556700,11.021556640625,0.014673233032226562,-4.63224983215332,2.0350875854492188
1695712576908078000,11.031078125,-0.049709320068359375,-4.077661514282227,1.7673759460449219
1695712576917630200,11.040630126953126,-0.2832832336425781,-3.494924545288086,1.449056625366211
1695712576927182000,11.05018212890625,-0.5360221862792969,-3.032867431640625,1.202606201171875
1695712576936734200,11.059734130859376,-0.9672355651855469,-2.6869983673095703,1.0660552978515625
1695712576946255600,11.069255615234376,-1.6487922668457031,-2.4758834838867188,0.9849033355712891
1695712576955807500,11.078807373046875,-1.9940624237060547,-2.4405479431152344,0.9944858551025391
1695712576965359600,11.088359619140626,-2.2420101165771484,-2.6914901733398438,1.1522979736328125
1695712576974911500,11.097911376953125,-2.492053985595703,-3.160734176635742,1.3508358001708984
1695712576984463600,11.107463623046876,-2.8448104858398438,-3.7910842895507812,1.4322872161865234
1695712576993985000,11.116985107421876,-3.3308238983154297,-4.771795272827148,1.449056625366211
1695712577003537200,11.126537109375,-4.181571960449219,-6.219654083251953,1.4658260345458984
1695712577013089000,11.136089111328126,-5.401546478271484,-8.08195686340332,1.5493736267089844
1695712577022641200,11.14564111328125,-7.174312591552734,-10.690797805786133,1.7886371612548828
1695712577032193000,11.155193115234376,-9.788244247436523,-14.704376220703125,1.8365497589111328
1695712577041745200,11.1647451171875,-11.160940170288086,-19.4432315826416,1.5661430358886719
1695712577051297000,11.174297119140626,-10.081409454345703,-22.836042404174805,2.2767467498779297
1695712577060849200,11.18384912109375,-9.133039474487305,-24.07308578491211,3.7985706329345703
1695712577070370600,11.19337060546875,-10.608148574829102,-22.352724075317383,4.9469757080078125
1695712577079922700,11.202922607421876,-10.681814193725586,-17.11408042907715,5.387172698974609
1695712577089474600,11.212474609375,-7.310264587402344,-10.223949432373047,4.9996795654296875
1695712577099026700,11.222026611328126,-3.685976028442383,-2.7627601623535156,3.1742095947265625
1695712577108548000,11.231548095703126,-2.7684497833251953,2.608541488647461,1.9419574737548828
1695712577118100000,11.241099853515625,-3.3023757934570312,4.795751571655273,1.7050895690917969
1695712577127652000,11.250652099609376,-3.1927757263183594,3.859659194946289,2.3294506072998047
1695712577137204000,11.260203857421875,-2.9735755920410156,0.17068862915039062,2.9612979888916016
1695712577146725600,11.2697255859375,-2.961597442626953,-4.767303466796875,2.8942203521728516
1695712577156277500,11.279277587890626,-6.747890472412109,-12.000907897949219,2.815164566040039
1695712577165829600,11.28882958984375,-13.110084533691406,-21.31721305847168,2.5423622131347656
1695712577175381500,11.298381591796876,-10.18621826171875,-28.882911682128906,3.796175003051758
1695712577184933600,11.30793359375,7.234502792358398,-26.662761688232422,6.796701431274414
1695712577194455000,11.317455078125,9.045299530029297,-20.381420135498047,7.375545501708984
1695712577204007200,11.327007080078126,-1.758392333984375,-10.223949432373047,0.8531436920166016
1695712577213559000,11.33655908203125,0.6578998565673828,-1.4855899810791016,-2.3815555572509766
1695712577223111200,11.346111083984376,6.826946258544922,2.795999526977539,-0.5129642486572266
1695712577232632600,11.355632568359376,5.313806533813477,2.985553741455078,2.2387161254882812
1695712577242184400,11.365184326171875,0.2338733673095703,0.2605247497558594,4.047416687011719
1695712577251736600,11.374736572265626,-3.4952239990234375,-4.634645462036133,2.982858657836914
1695712577261288400,11.384288330078125,-2.9639930725097656,-10.373077392578125,1.501760482788086
1695712577270810000,11.39381005859375,-0.5860309600830078,-14.851408004760742,0.17128753662109375
1695712577280362000,11.403362060546876,0.5411128997802734,-17.232664108276367,-1.0921077728271484
1695712577289914000,11.4129140625,1.2250652313232422,-17.20421600341797,-1.9533367156982422
1695712577299466000,11.422466064453126,2.0114307403564453,-14.770854949951172,-1.5751266479492188
1695712577309018000,11.43201806640625,1.7730655670166016,-11.676300048828125,0.24315643310546875
1695712577318570000,11.441570068359376,0.7818737030029297,-9.079437255859375,2.403715133666992
1695712577328122000,11.4511220703125,-0.47882652282714844,-7.390218734741211,3.473064422607422
1695712577337674000,11.460674072265626,-1.3960533142089844,-6.423282623291016,2.930154800415039
1695712577347226000,11.47022607421875,-1.4796009063720703,-6.323863983154297,2.0398788452148438
1695712577356747500,11.47974755859375,-0.2665138244628906,-7.065610885620117,1.1235504150390625
1695712577366299600,11.489299560546876,1.1798477172851562,-7.899589538574219,0.4967937469482422
1695712577375851500,11.4988515625,2.3638877868652344,-8.638641357421875,0.29106903076171875
1695712577385403600,11.508403564453126,2.716644287109375,-9.010862350463867,0.4057598114013672
1695712577394925000,11.517925048828126,2.087491989135742,-8.972831726074219,0.5447063446044922
1695712577404477000,11.527476806640625,0.3838996887207031,-8.645828247070312,0.6737709045410156
1695712577414029000,11.537029052734376,-0.83367919921875,-8.178979873657227,0.6019020080566406
1695712577423581000,11.546580810546875,-1.1888313293457031,-7.939716339111328,0.5279369354248047
1695712577433133000,11.556133056640626,-0.8788967132568359,-8.205331802368164,0.6066932678222656
1695712577442654500,11.565654541015626,-0.08085250854492188,-8.641036987304688,0.6593971252441406
1695712577452206600,11.57520654296875,1.1894302368164062,-8.866226196289062,0.7576179504394531
1695712577461758500,11.584758544921876,1.9802875518798828,-8.747642517089844,0.9777164459228516
1695712577471310600,11.594310546875,1.4370784759521484,-8.233480453491211,1.087615966796875
1695712577480832000,11.60383203125,0.5746517181396484,-7.752557754516602,1.1043853759765625
1695712577490384100,11.613384033203126,-0.044918060302734375,-7.7834014892578125,1.0160465240478516
1695712577499936000,11.62293603515625,-0.421630859375,-8.31193733215332,0.7264747619628906
1695712577509488000,11.632488037109376,-0.6312484741210938,-9.062967300415039,0.4249248504638672
1695712577519009500,11.642009521484376,-0.8836879730224609,-9.702600479125977,0.26711273193359375
1695712577528561400,11.6515615234375,-1.0912094116210938,-10.070030212402344,0.20722198486328125
1695712577538113500,11.661113525390626,-0.819305419921875,-10.159866333007812,0.27190399169921875
1695712577547665400,11.67066552734375,-0.10211372375488281,-9.934677124023438,0.5207500457763672
1695712577557187000,11.68018701171875,0.6222648620605469,-9.709787368774414,0.9154300689697266
1695712577566739000,11.689739013671876,0.9747219085693359,-9.622047424316406,1.2433319091796875
1695712577576291000,11.699291015625,0.6174736022949219,-9.847236633300781,1.449056625366211
1695712577585843000,11.708843017578126,0.014673233032226562,-10.276054382324219,1.5996818542480469
1695712577595395000,11.71839501953125,-0.34047889709472656,-10.726133346557617,1.6691551208496094
1695712577604947000,11.727947021484376,-0.17368316650390625,-11.003427505493164,1.6332206726074219
1695712577614499000,11.7374990234375,0.2266864776611328,-11.036666870117188,1.386770248413086
1695712577624051000,11.747051025390626,0.3123302459716797,-10.930061340332031,0.8603305816650391
1695712577633603000,11.75660302734375,0.26711273193359375,-11.024688720703125,0.3722209930419922
1695712577643124500,11.76612451171875,0.2218952178955078,-11.54124641418457,0.24794769287109375
1695712577652676600,11.775676513671876,-0.061687469482421875,-12.221305847167969,0.4249248504638672
1695712577662228500,11.785228515625,-0.5429096221923828,-12.749542236328125,0.5063762664794922
1695712577671780600,11.794780517578126,-0.7144966125488281,-13.003179550170898,0.11139678955078125
1695712577681302000,11.804302001953126,-0.5000877380371094,-13.36581802368164,-0.5968112945556641
1695712577690854000,11.81385400390625,-0.2593269348144531,-14.086004257202148,-1.2954368591308594
1695712577700406000,11.823406005859376,0.009881973266601562,-14.735219955444336,-1.6493911743164062
1695712577709958000,11.8329580078125,0.9271087646484375,-15.099954605102539,-1.6877212524414062
1695712577719479600,11.8424794921875,2.449831008911133,-15.273038864135742,-1.1421165466308594
1695712577729031400,11.852031494140626,3.212240219116211,-14.334850311279297,0.21440887451171875
1695712577738583600,11.86158349609375,2.6594486236572266,-12.159618377685547,1.7002983093261719
1695712577748135400,11.871135498046876,2.0806045532226562,-10.088895797729492,2.9421329498291016
1695712577757687600,11.8806875,1.756296157836914,-8.987205505371094,4.085746765136719
1695712577767209000,11.890208984375,1.1939220428466797,-9.368410110473633,4.9900970458984375
1695712577776761000,11.899760986328126,0.5102691650390625,-10.795007705688477,5.270086288452148
1695712577786313000,11.90931298828125,0.5554866790771484,-11.794883728027344,5.0571746826171875
1695712577795865000,11.918864990234376,1.1343307495117188,-12.707019805908203,4.868219375610352
1695712577805386500,11.928386474609376,1.5871047973632812,-13.498476028442383,4.571460723876953
1695712577814938400,11.9379384765625,0.8127174377441406,-13.92729377746582,4.224393844604492
1695712577824490500,11.947490478515626,-0.9076442718505859,-13.829971313476562,3.8464832305908203
1695712577834042400,11.95704248046875,-2.4231796264648438,-13.225973129272461,3.351186752319336
1695712577843564000,11.96656396484375,-3.0975494384765625,-12.361150741577148,2.9660892486572266
1695712577853116000,11.976115966796876,-2.8019886016845703,-11.920354843139648,3.1885833740234375
1695712577862668000,11.98566796875,-1.7964229583740234,-11.98204231262207,4.011482238769531
1695712577872220000,11.995219970703126,1.5062522888183594,-12.358755111694336,5.0907135009765625
1695712577881772000,12.00477197265625,3.2050533294677734,-12.927417755126953,5.332372665405273
1695712577891324000,12.014323974609376,4.5109710693359375,-11.263952255249023,3.2529659271240234
1695712577900876000,12.0238759765625,3.498218536376953,-9.131542205810547,1.068450927734375
1695712577910428000,12.033427978515626,0.94866943359375,-7.835506439208984,0.07576179504394531
1695712577919980000,12.04297998046875,-0.2617225646972656,-7.179103851318359,-0.07995414733886719
1695712577929501400,12.05250146484375,-0.5048789978027344,-6.871265411376953,0.23596954345703125
1695712577939053600,12.062053466796876,-0.31891822814941406,-6.726629257202148,0.7240791320800781
1695712577948605400,12.07160546875,-0.2808876037597656,-6.402021408081055,1.305318832397461
1695712577958157600,12.081157470703126,-0.35245704650878906,-5.98518180847168,1.8030109405517578
1695712577967679000,12.090678955078126,-0.3761138916015625,-5.577625274658203,2.1452865600585938
1695712577977230800,12.10023095703125,-0.2189006805419922,-4.999380111694336,2.2719554901123047
1695712577986783000,12.109782958984376,-0.16170501708984375,-4.414247512817383,2.2506942749023438
1695712577996334800,12.1193349609375,-0.2617225646972656,-3.8976898193359375,2.1620559692382812
1695712578005856500,12.1288564453125,-0.4952964782714844,-3.407184600830078,1.9491443634033203
1695712578015408400,12.138408447265626,-0.9289054870605469,-2.987649917602539,1.6236381530761719
1695712578024960500,12.14796044921875,-1.3508358001708984,-2.689393997192383,1.334066390991211
1695712578034512400,12.157512451171876,-1.5820140838623047,-2.4782791137695312,1.0543766021728516
1695712578044064500,12.167064453125,-1.8988361358642578,-2.3836517333984375,0.8938694000244141
1695712578053586000,12.1765859375,-2.1824188232421875,-2.4998397827148438,0.9130344390869141
1695712578063138000,12.186137939453126,-2.2324275970458984,-2.580392837524414,0.9896945953369141
