time,seconds_elapsed,z,y,x
1695713634153220600,0.261220703125,1.0446138381958008,-0.7960580587387085,-1.2394143342971802
1695713634172324600,0.28032470703125,-0.1652202606201172,-0.5541106462478638,-2.8488640785217285
1695713634191398000,0.29939794921875,-0.4833688735961914,-0.09981322288513184,-1.156702995300293
1695713634210502100,0.318502197265625,1.674668312072754,-1.189818263053894,-1.7273989915847778
1695713634229575400,0.337575439453125,2.557002067565918,-2.567488193511963,-1.534340739250183
1695713634248679400,0.356679443359375,2.3240671157836914,-1.6231205463409424,-1.304373860359192
1695713634267753000,0.3757529296875,3.7500247955322266,1.460949182510376,-3.2733964920043945
1695713634286887400,0.394887451171875,3.225174903869629,0.4085376262664795,-2.2030487060546875
1695713634305991400,0.413991455078125,-2.3081626892089844,-5.489039897918701,4.311184883117676
1695713634325065000,0.43306494140625,-1.3296070098876953,0.47170698642730713,-2.1019725799560547
1695713634344169000,0.4521689453125,-0.5600852966308594,-0.9247275590896606,0.19936609268188477
1695713634363242500,0.471242431640625,-2.09450626373291,-0.001410841941833496,-0.8226310014724731
1695713634382346500,0.490346435546875,-1.469003677368164,0.03832721710205078,-0.43945181369781494
1695713634401420000,0.509419921875,0.3873748779296875,-0.3318030834197998,0.08521521091461182
1695713634420524000,0.52852392578125,-0.02609729766845703,-0.5465099215507507,-0.15159869194030762
1695713634439628000,0.5476279296875,-0.5607118606567383,-0.4245185852050781,-0.07679808139801025
1695713634458701600,0.56670166015625,0.9512920379638672,-0.3568379282951355,0.33095574378967285
1695713634477805600,0.5858056640625,2.2818222045898438,-0.680183470249176,0.6322922706604004
1695713634496878800,0.60487890625,3.278564453125,-0.9116895198822021,1.0908071994781494
1695713634515982800,0.62398291015625,3.0907068252563477,-0.4718431234359741,0.5897421836853027
1695713634535056400,0.643056396484375,2.7848434448242188,1.0738998651504517,1.7629308700561523
1695713634554160400,0.662160400390625,3.1107683181762695,1.6929044723510742,1.7980475425720215
1695713634573295000,0.681295166015625,3.7628250122070312,2.581865072250366,2.4906067848205566
1695713634592368400,0.700368408203125,4.579445838928223,4.418816566467285,2.830209732055664
1695713634611472400,0.719472412109375,4.858124732971191,5.6755290031433105,2.530670166015625
1695713634630546000,0.7385458984375,4.11358642578125,6.305839538574219,2.710437297821045
1695713634649650000,0.75764990234375,1.9272313117980957,7.321393013000488,1.1944923400878906
1695713634668754000,0.77675390625,-0.6407060623168945,8.300077438354492,-1.9314765930175781
1695713634687827500,0.795827392578125,-1.5947036743164062,6.97175407409668,-5.449563503265381
1695713634706931500,0.814931396484375,-1.32904052734375,3.542473793029785,-7.871001243591309
1695713634726005000,0.8340048828125,-1.2583093643188477,0.08479511737823486,-9.505609512329102
1695713634745109000,0.85310888671875,-1.3418493270874023,-3.199089288711548,-9.857776641845703
1695713634764182500,0.8721826171875,-2.132051706314087,-2.9395670890808105,-9.437146186828613
1695713634783286500,0.89128662109375,-1.0872266292572021,-1.6710877418518066,-7.396745681762695
1695713634802390500,0.910390625,1.650515079498291,-1.357635736465454,-5.305746078491211
1695713634821463800,0.9294638671875,3.0477898120880127,-0.4803609848022461,-3.6411380767822266
1695713634840567800,0.94856787109375,5.116103172302246,0.5627739429473877,-2.008683204650879
1695713634859672000,0.967672119140625,9.756290435791016,2.6597957611083984,-0.1106719970703125
1695713634878776000,0.986776123046875,5.640656471252441,5.730052471160889,-0.5283050537109375
1695713634897849300,1.005849365234375,2.406043529510498,4.73398494720459,-1.2011785507202148
1695713634916953300,1.024953369140625,8.908514022827148,-1.4301214218139648,-1.0217504501342773
1695713634936057300,1.044057373046875,0.9591641426086426,0.9262011051177979,-1.8915729522705078
1695713634955131000,1.063130859375,-2.047260046005249,2.068057060241699,-2.043935775756836
1695713634974235000,1.08223486328125,-0.5471844673156738,0.42113351821899414,-2.3672542572021484
1695713634993308400,1.101308349609375,-0.365151047706604,-0.2809271812438965,-2.390021324157715
1695713635012443000,1.12044287109375,-0.3362407684326172,0.46006011962890625,-2.6404151916503906
1695713635031486000,1.13948583984375,1.8841897249221802,0.975830078125,-0.6922235488891602
1695713635050681300,1.158681396484375,5.115561485290527,0.30915212631225586,1.9920854568481445
1695713635069907500,1.177907470703125,0.689237117767334,1.1782808303833008,0.6101446151733398
1695713635089133600,1.197133544921875,0.06844878196716309,1.9963645935058594,0.4363393783569336
1695713635108359700,1.216359619140625,2.1205062866210938,1.52079439163208,0.3333311080932617
1695713635126914300,1.234914306640625,1.241586446762085,0.2597966194152832,0.027736663818359375
1695713635146048800,1.254048828125,3.1367669105529785,-0.7443819046020508,2.477078914642334
1695713635165183500,1.27318359375,-1.6165428161621094,-0.7446622848510742,3.2829537391662598
1695713635184257000,1.292257080078125,-1.4192402362823486,-1.9510250091552734,5.859577178955078
1695713635203361000,1.311361083984375,2.937251329421997,-1.3549308776855469,4.602762222290039
1695713635222434300,1.330434326171875,4.636275291442871,0.05193614959716797,0.330782413482666
1695713635241538300,1.349538330078125,3.0055601596832275,0.9128003120422363,-1.860595703125
1695713635260611800,1.36861181640625,0.6806652545928955,-1.6531577110290527,-1.3647103309631348
1695713635279715800,1.3877158203125,0.8814687728881836,-1.3009452819824219,-0.0960683822631836
1695713635298789400,1.406789306640625,1.8471858501434326,-1.915299415588379,0.5700087547302246
1695713635317893400,1.425893310546875,2.2925453186035156,-2.9364891052246094,1.4079375267028809
1695713635336997400,1.444997314453125,1.5930876731872559,-1.604684829711914,0.10811519622802734
1695713635356071000,1.46407080078125,2.474759578704834,-6.53426456451416,3.221026659011841
1695713635375175000,1.4831748046875,2.3586888313293457,-5.527669906616211,4.390294075012207
1695713635394248400,1.50224853515625,3.254672050476074,-1.1057100296020508,3.6739561557769775
1695713635413352400,1.5213525390625,3.5316483974456787,3.9402589797973633,2.0932440757751465
1695713635432456400,1.54045654296875,-1.4549930095672607,7.539828300476074,2.8870022296905518
1695713635451560400,1.559560546875,-2.9239237308502197,12.539947509765625,0.6079113483428955
1695713635470664400,1.57866455078125,0.30217480659484863,9.639406204223633,0.7440729141235352
1695713635489738000,1.597738037109375,1.7528026103973389,3.262674331665039,1.9686813354492188
1695713635508842000,1.616842041015625,1.1480672359466553,-3.6846179962158203,0.3817201852798462
1695713635527915300,1.635915283203125,-2.5716967582702637,-6.068567276000977,-0.9068568348884583
1695713635547019300,1.655019287109375,-2.3201546669006348,-7.548194885253906,-0.5804903507232666
1695713635566092800,1.6740927734375,-1.592513918876648,-6.9208269119262695,0.02065553516149521
1695713635585196800,1.69319677734375,1.6070277690887451,-7.351807594299316,0.1635751724243164
1695713635604270300,1.712270263671875,6.114823818206787,-5.853546142578125,1.1067372560501099
1695713635623374300,1.731374267578125,8.255640029907227,-4.357982635498047,1.7921234369277954
1695713635642478300,1.750478271484375,5.70575475692749,-4.38801383972168,0.3892591595649719
1695713635661551900,1.7695517578125,6.886923789978027,19.188798904418945,9.87796401977539
1695713635680656000,1.78865576171875,4.052919387817383,32.372657775878906,13.180469512939453
1695713635699759900,1.807759765625,3.8007736206054688,7.1731462478637695,2.910186290740967
1695713635718864000,1.82686376953125,-4.896348476409912,-3.813447952270508,-1.7333065271377563
1695713635737967900,1.8459677734375,-11.18192195892334,-4.883762359619141,-5.739227294921875
1695713635757041400,1.86504150390625,-7.614321708679199,-2.683298110961914,-9.367372512817383
1695713635776145400,1.8841455078125,-0.6356854438781738,-3.265094757080078,-3.5834732055664062
1695713635795218700,1.90321875,-0.37914299964904785,-3.7577409744262695,0.6677659749984741
1695713635814323000,1.922322998046875,-0.03139901161193848,-4.754594802856445,1.2385361194610596
1695713635833427000,1.941427001953125,0.629284143447876,-3.847161293029785,-0.6930328607559204
1695713635852500200,1.960500244140625,0.2942655086517334,-2.403618812561035,-0.5485187768936157
1695713635871604200,1.979604248046875,0.2000269889831543,-2.4981536865234375,0.07690012454986572
1695713635890677800,1.998677734375,-0.2633514404296875,-2.648244857788086,0.42899906635284424
1695713635909781800,2.01778173828125,0.0008497238159179688,-1.6638689041137695,0.2916826009750366
1695713635928855300,2.036855224609375,2.393914222717285,0.3132333755493164,0.11452627182006836
1695713635947989800,2.05598974609375,5.7868757247924805,3.6989641189575195,-0.6440238952636719
1695713635967063300,2.075063232421875,6.899406433105469,3.0056228637695312,-2.5023696422576904
1695713635986136800,2.09413671875,6.589168071746826,1.1602487564086914,-2.2273285388946533
1695713636005271300,2.113271240234375,1.2903435230255127,-1.851881980895996,-2.6490089893341064
1695713636024344800,2.1323447265625,-0.6270878314971924,-5.805505752563477,0.006635546684265137
1695713636043448800,2.15144873046875,1.8518531322479248,-3.0331268310546875,0.20350825786590576
1695713636062522400,2.1705224609375,4.488390922546387,4.959933280944824,-0.72245192527771
1695713636081626400,2.18962646484375,6.253021240234375,13.990779876708984,0.24601638317108154
1695713636100730400,2.20873046875,-7.248992919921875,10.675199508666992,-2.2096614837646484
1695713636119803600,2.2278037109375,-3.7482824325561523,-2.9333486557006836,-1.6375832557678223
1695713636138908000,2.246907958984375,-6.99290132522583,-12.879863739013672,-0.8232288956642151
1695713636157981200,2.265981201171875,-5.2849907875061035,-9.934890747070312,-4.7310333251953125
1695713636177085200,2.285085205078125,1.40939199924469,2.101320266723633,1.5310568809509277
1695713636196158700,2.30415869140625,0.0899510383605957,8.957401275634766,6.756402015686035
1695713636215262700,2.3232626953125,-5.090086460113525,4.509452819824219,4.4298415184021
1695713636234366700,2.34236669921875,-4.076487064361572,-1.9039297103881836,-0.9166128635406494
1695713636253440300,2.361440185546875,0.32921260595321655,-3.4194211959838867,-2.082943916320801
1695713636272544300,2.380544189453125,2.528282403945923,-2.0253677368164062,-0.3426540493965149
1695713636291648300,2.399648193359375,0.48625481128692627,-0.6697626113891602,1.508955717086792
1695713636310752300,2.418752197265625,-1.3139746189117432,-1.123826026916504,1.999035358428955
1695713636329825800,2.43782568359375,-1.0597940683364868,-1.5303583145141602,1.5271575450897217
1695713636348929800,2.4569296875,-0.23410290479660034,-1.2855157852172852,0.9200658202171326
1695713636368033800,2.47603369140625,0.4580204486846924,-0.8628578186035156,0.3605167865753174
1695713636387107300,2.495107421875,1.1670080423355103,-1.2210969924926758,-0.10337203741073608
1695713636406211300,2.51421142578125,1.802558422088623,-1.5028772354125977,0.18111521005630493
1695713636425284600,2.53328466796875,2.5610899925231934,-0.6622629165649414,0.8788339495658875
1695713636444388900,2.552388916015625,3.5784072875976562,0.13193225860595703,1.5968167781829834
1695713636463462100,2.571462158203125,2.469799280166626,0.5077304840087891,1.7267199754714966
1695713636482566100,2.590566162109375,1.5742928981781006,0.89056396484375,1.4241268634796143
1695713636501670100,2.609670166015625,2.9672129154205322,1.8099250793457031,0.9485306739807129
1695713636520743700,2.62874365234375,2.994812250137329,1.993351936340332,1.3520606756210327
1695713636539847700,2.64784765625,2.5408337116241455,2.0824661254882812,2.455094814300537
1695713636558921200,2.666921142578125,3.581437587738037,3.261028289794922,1.9161083698272705
1695713636578055700,2.6860556640625,4.140939712524414,3.7210073471069336,1.5639454126358032
1695713636597159700,2.70515966796875,3.116982936859131,3.803211212158203,2.5609078407287598
1695713636616233200,2.724233154296875,0.21783781051635742,5.558143615722656,3.9814774990081787
1695713636635337200,2.743337158203125,-1.3625664710998535,5.221490859985352,4.044212341308594
1695713636654410800,2.76241064453125,-2.1193084716796875,3.066638946533203,2.33790922164917
1695713636673514800,2.7815146484375,-2.5392098426818848,1.5275049209594727,-1.0462009906768799
1695713636692588300,2.80058837890625,-1.9595907926559448,1.9196395874023438,-3.3581113815307617
1695713636711692300,2.8196923828125,-1.806102991104126,2.4573450088500977,-3.604165554046631
1695713636730796300,2.83879638671875,2.0162179470062256,3.8857879638671875,-2.479372262954712
1695713636749869600,2.85786962890625,4.094744682312012,3.2969865798950195,-0.8635348081588745
1695713636768973800,2.876973876953125,-1.1316382884979248,2.695863723754883,-0.6064609289169312
1695713636788047000,2.896047119140625,-5.855629920959473,3.203526496887207,-2.9940834045410156
1695713636807151000,2.915151123046875,-6.8111395835876465,-0.40892887115478516,0.2665834426879883
1695713636826224600,2.934224609375,-3.8182427883148193,-2.679694175720215,2.091709613800049
1695713636845328600,2.95332861328125,-3.402841806411743,-3.7373762130737305,1.9181641340255737
1695713636864463000,2.972463134765625,-2.775106191635132,-5.116042137145996,1.0380172729492188
1695713636883536600,2.99153662109375,-2.3991315364837646,-5.2721967697143555,-0.27006030082702637
1695713636902640600,3.010640625,-2.7157373428344727,-5.020404815673828,-0.4795793294906616
1695713636921714200,3.029714111328125,-3.3584680557250977,-5.485706329345703,0.08988845348358154
1695713636940818200,3.048818115234375,-3.2342095375061035,-6.186119079589844,0.4751983880996704
1695713636959891700,3.0678916015625,-2.3521671295166016,-6.267887115478516,0.47126150131225586
1695713636978995700,3.08699560546875,-0.887575626373291,-5.583340644836426,0.3948770761489868
1695713636998099700,3.106099609375,1.467397689819336,-4.282169342041016,0.7269192934036255
1695713637017173200,3.12517333984375,4.119341850280762,-1.5686225891113281,0.3647773265838623
1695713637036277200,3.14427734375,5.996786117553711,5.366982460021973,0.15565621852874756
1695713637055350500,3.1633505859375,7.859847068786621,13.931663513183594,-2.6501729488372803
1695713637074454500,3.18245458984375,11.35000991821289,11.866076469421387,-6.139550685882568
1695713637093528000,3.201528076171875,1.522402286529541,-2.9592056274414062,-4.07646369934082
1695713637112632000,3.220632080078125,-3.4668009281158447,-10.194875717163086,-4.589371681213379
1695713637131736000,3.239736083984375,-1.9219987392425537,-3.195493698120117,-3.3014869689941406
1695713637150840000,3.258840087890625,6.529699325561523,10.471096992492676,-0.509074330329895
1695713637169944000,3.277944091796875,-6.3235626220703125,8.916335105895996,0.6195077896118164
1695713637189017600,3.297017578125,-2.975860595703125,-1.7788381576538086,3.965061664581299
1695713637208121600,3.31612158203125,-8.197052955627441,-8.151415824890137,2.262235403060913
1695713637227195100,3.335195068359375,-2.3110272884368896,-2.1572494506835938,2.2222914695739746
1695713637246299100,3.354299072265625,-2.5001096725463867,5.639527320861816,2.6902732849121094
1695713637265403100,3.373403076171875,-3.244157075881958,5.470966339111328,2.783820152282715
1695713637284476700,3.3924765625,-2.152773141860962,0.8682641983032227,0.44886505603790283
1695713637303580700,3.41158056640625,-1.2467843294143677,-2.26570987701416,-2.4178216457366943
1695713637322654200,3.430654296875,-0.623872697353363,-2.6653966903686523,-1.8337141275405884
1695713637341758200,3.44975830078125,-0.9724949598312378,-1.5367116928100586,0.23722118139266968
1695713637360862200,3.4688623046875,-1.7656753063201904,-0.20662689208984375,1.161078691482544
1695713637379935500,3.487935546875,-0.863661527633667,-1.0578060150146484,1.3021483421325684
1695713637399039500,3.50703955078125,-0.08665555715560913,-2.458293914794922,0.9105095863342285
1695713637418113000,3.526113037109375,0.07183760404586792,-2.273922920227051,0.5751940011978149
1695713637437247700,3.545247802734375,0.13889729976654053,-1.634317398071289,0.8204747438430786
1695713637456321000,3.564321044921875,0.8429063558578491,-1.4147615432739258,1.2101199626922607
1695713637475425000,3.583425048828125,1.6176857948303223,-1.3291864395141602,1.4778138399124146
1695713637494529000,3.602529052734375,2.3106985092163086,-1.2661895751953125,1.6263319253921509
1695713637513602600,3.6216025390625,2.658690929412842,-0.4436016082763672,1.353639841079712
1695713637532706600,3.64070654296875,3.126974105834961,0.6500988006591797,1.0241912603378296
1695713637551780000,3.659780029296875,3.20766282081604,1.5543146133422852,1.0915714502334595
1695713637570884000,3.678884033203125,2.825911283493042,2.193746566772461,1.341892957687378
1695713637589957600,3.69795751953125,1.985137701034546,1.8932685852050781,2.777313232421875
1695713637609061600,3.7170615234375,2.1360323429107666,2.099597930908203,3.2881436347961426
1695713637628165600,3.73616552734375,4.0242462158203125,3.949827194213867,2.1677918434143066
1695713637647239200,3.7552392578125,3.324585199356079,4.5932769775390625,2.7428221702575684
1695713637666343200,3.77434326171875,1.357245922088623,5.074414253234863,3.705883026123047
1695713637685416400,3.79341650390625,-1.690338373184204,4.238407135009766,3.685072898864746
1695713637704520400,3.8125205078125,-2.5841727256774902,3.330185890197754,1.827629566192627
1695713637723624400,3.83162451171875,-1.0833706855773926,2.371281623840332,-2.1452014446258545
1695713637742728700,3.850728759765625,-0.32689374685287476,2.9819564819335938,-4.164178371429443
1695713637761832700,3.869832763671875,-0.2120659053325653,4.249853134155273,-3.955563545227051
1695713637780906000,3.888906005859375,-0.08559480309486389,5.311347961425781,-2.6991777420043945
1695713637800010000,3.908010009765625,1.4611493349075317,4.021905899047852,-0.834119439125061
1695713637819083500,3.92708349609375,-1.9238442182540894,2.5217437744140625,-0.32377445697784424
1695713637838187500,3.9461875,-6.83333683013916,2.6456193923950195,-0.7630889415740967
1695713637857261000,3.965260986328125,-6.9238080978393555,0.02335071563720703,0.7941182851791382
1695713637876365000,3.984364990234375,-4.376587867736816,-2.757124900817871,2.253693103790283
1695713637895469000,4.003468994140625,-1.5377275943756104,-3.059131622314453,2.1041152477264404
1695713637914542600,4.02254248046875,-2.344287633895874,-3.25784969329834,1.0025436878204346
1695713637933646600,4.041646484375,-4.039608955383301,-3.7367124557495117,-0.1986238956451416
1695713637952720100,4.06072021484375,-4.099918365478516,-4.195041656494141,-0.8319175243377686
1695713637971824000,4.07982421875,-3.344109058380127,-4.480522155761719,-0.8474917411804199
1695713637990897400,4.0988974609375,-2.403353214263916,-5.106201171875,-0.05234241485595703
1695713638010032000,4.1180322265625,-1.8643088340759277,-5.37092399597168,0.40369486808776855
1695713638029136100,4.13713623046875,-1.1991772651672363,-5.537569046020508,0.30831050872802734
1695713638048209700,4.156209716796875,0.015595436096191406,-5.053250312805176,-0.17087483406066895
1695713638067313700,4.175313720703125,1.4686179161071777,-4.3226118087768555,-0.658489465713501
1695713638086387000,4.194386962890625,2.1378884315490723,-2.52811336517334,-0.9884308576583862
1695713638105491000,4.213490966796875,3.372537851333618,0.9074850082397461,-1.1597609519958496
1695713638124564500,4.232564453125,4.17673397064209,5.866942405700684,0.20077979564666748
1695713638143668500,4.25166845703125,7.483784198760986,10.10422420501709,0.30510807037353516
1695713638162772500,4.2707724609375,9.354156494140625,6.147404670715332,-0.8678827285766602
1695713638181846000,4.289845947265625,2.5083670616149902,-3.273183822631836,-3.112910747528076
1695713638200950000,4.308949951171875,-0.680182933807373,-5.8916015625,-4.926709175109863
1695713638220023600,4.3280234375,2.7118990421295166,2.246967315673828,-5.279990196228027
1695713638239127600,4.34712744140625,0.55753493309021,11.239096641540527,-4.125423431396484
1695713638258231600,4.3662314453125,-10.405525207519531,4.272136688232422,-2.146524429321289
1695713638277305000,4.38530517578125,-3.198949098587036,-7.028988838195801,2.1133103370666504
1695713638296439600,4.404439453125,-3.4645204544067383,-10.045794486999512,2.348996877670288
1695713638315513000,4.42351318359375,1.2839350700378418,-0.6539621353149414,3.9706554412841797
1695713638334617000,4.4426171875,-6.685981750488281,8.450221061706543,2.5546417236328125
1695713638353690400,4.4616904296875,-6.562654972076416,7.997384071350098,1.8753975629806519
1695713638372794600,4.480794677734375,-1.0414421558380127,0.4429779052734375,-0.5880013704299927
1695713638391898600,4.499898681640625,0.3215618133544922,-4.087682723999023,-2.3479652404785156
1695713638410972000,4.518971923828125,-0.4376634359359741,-4.218666076660156,-0.9707461595535278
1695713638430076000,4.538075927734375,0.04838603734970093,-1.8930292129516602,0.5997306704521179
1695713638449149400,4.5571494140625,-0.8242990970611572,-0.21486759185791016,1.6562086343765259
1695713638468253400,4.57625341796875,-1.9572844505310059,-0.4399833679199219,1.7081267833709717
1695713638487327000,4.595326904296875,-1.2898411750793457,-1.4728212356567383,0.9305206537246704
1695713638506431000,4.614430908203125,0.9368538856506348,-1.5374956130981445,-0.3885986804962158
1695713638525535000,4.633534912109375,1.9137814044952393,-1.788320541381836,-0.22241628170013428
1695713638544608500,4.6526083984375,1.419342279434204,-1.999281883239746,0.5748794078826904
1695713638563712500,4.67171240234375,0.9440398216247559,-1.4328184127807617,1.3965768814086914
1695713638582816500,4.69081640625,1.9595706462860107,-0.5224895477294922,2.2520358562469482
1695713638601920500,4.70992041015625,3.3002772331237793,0.525334358215332,2.349613666534424
1695713638620994000,4.728994140625,2.585904121398926,0.4502878189086914,1.4843783378601074
1695713638640098000,4.74809814453125,2.4373626708984375,1.055074691772461,1.039869785308838
1695713638659202000,4.7672021484375,3.216431140899658,2.114720344543457,1.2119622230529785
1695713638678275300,4.786275390625,2.8068697452545166,2.365346908569336,2.11732816696167
1695713638697379600,4.805379638671875,2.94069766998291,2.681820869445801,2.334273338317871
1695713638716452900,4.824452880859375,3.248765707015991,3.309774398803711,1.6265500783920288
1695713638735556900,4.843556884765625,2.793123960494995,3.951481819152832,2.1700823307037354
1695713638754630400,4.86263037109375,1.0102581977844238,5.456682205200195,3.90012264251709
1695713638773734400,4.881734375,-1.739522933959961,5.105581283569336,4.464980602264404
1695713638792838400,4.90083837890625,-3.2371039390563965,2.9042415618896484,2.452317237854004
1695713638811912000,4.919911865234375,-1.4121922254562378,1.1023550033569336,-3.14046049118042
1695713638831016000,4.939015869140625,-0.4207954406738281,2.4908342361450195,-5.883174419403076
1695713638850089500,4.95808935546875,-0.31459707021713257,4.210872650146484,-4.994996070861816
1695713638869224000,4.977223876953125,1.200265884399414,4.673371315002441,-2.2485623359680176
1695713638888297500,4.99629736328125,2.544955253601074,3.3555126190185547,0.5591616630554199
1695713638907401500,5.0154013671875,-2.0339279174804688,2.472036361694336,0.6902599334716797
1695713638926505500,5.03450537109375,-8.32707691192627,2.759126663208008,-0.3258340358734131
1695713638945579000,5.0535791015625,-8.036252975463867,0.28057098388671875,-0.031243205070495605
1695713638964683000,5.07268310546875,-4.247515678405762,-2.4001522064208984,1.3994596004486084
1695713638983756300,5.09175634765625,-1.6698474884033203,-2.695786476135254,1.5209866762161255
1695713639002860500,5.110860595703125,-1.8039748668670654,-2.957940101623535,0.7201429605484009
1695713639021964500,5.129964599609375,-3.054133653640747,-3.2461376190185547,0.012653827667236328
1695713639041037800,5.149037841796875,-3.9219093322753906,-4.209503173828125,-0.3919980525970459
1695713639060141800,5.168141845703125,-3.8570003509521484,-5.405915260314941,-0.4555630683898926
1695713639079215400,5.18721533203125,-3.073862075805664,-6.374031066894531,-0.27899599075317383
1695713639098319400,5.2063193359375,-2.12744140625,-6.702784538269043,0.19929218292236328
1695713639117393000,5.225392822265625,-0.6822977066040039,-6.124944686889648,0.28112030029296875
1695713639136497000,5.244496826171875,0.827146053314209,-4.999869346618652,0.03713560104370117
1695713639155631400,5.26363134765625,2.2303476333618164,-3.227296829223633,-0.5223324298858643
1695713639174705000,5.282704833984375,3.1313161849975586,0.09516525268554688,-1.17283034324646
1695713639193809000,5.301808837890625,4.68337345123291,5.8688859939575195,-0.7256276607513428
1695713639212882400,5.32088232421875,6.072116851806641,11.342623710632324,-2.0823545455932617
1695713639231986400,5.339986328125,8.383805274963379,8.219245910644531,-3.7103309631347656
1695713639251060000,5.35906005859375,3.7525830268859863,-4.173250198364258,-2.6133861541748047
1695713639270164000,5.3781640625,0.024916887283325195,-10.845221519470215,-3.3621068000793457
1695713639289268000,5.39726806640625,-2.9815917015075684,-8.939549446105957,-4.838923454284668
1695713639308341200,5.41634130859375,0.6324379444122314,1.9133481979370117,-3.2353672981262207
1695713639327445500,5.435445556640625,5.764671325683594,18.380992889404297,-0.36700987815856934
1695713639346518800,5.454518798828125,-4.677940368652344,14.707918167114258,2.9405245780944824
1695713639365622800,5.473622802734375,-8.614809036254883,-6.0982666015625,4.005710124969482
1695713639384696300,5.4926962890625,-9.164200782775879,-12.588531494140625,-0.8573271036148071
1695713639403800300,5.51180029296875,2.831077814102173,-2.653745651245117,1.2902686595916748
1695713639422904300,5.530904296875,-1.7208375930786133,6.488582611083984,2.1056325435638428
1695713639442008300,5.55000830078125,-3.176495313644409,7.243755340576172,2.0545923709869385
1695713639461112300,5.5691123046875,-2.5758633613586426,2.3023204803466797,0.10744380950927734
1695713639480185900,5.588185791015625,-1.3995410203933716,-1.8062114715576172,-2.2373762130737305
1695713639499289900,5.607289794921875,-1.3635797500610352,-4.078427314758301,-0.7516632080078125
1695713639518363400,5.62636328125,-2.3092048168182373,-3.4591684341430664,0.5943014025688171
1695713639537467400,5.64546728515625,-1.274156928062439,-1.2729158401489258,0.4562413692474365
1695713639556571400,5.6645712890625,-0.1399119794368744,-1.219710350036621,0.20768988132476807
1695713639575645000,5.68364501953125,0.5075689554214478,-1.9595794677734375,0.06339669227600098
1695713639594749000,5.7027490234375,0.14894890785217285,-1.8575525283813477,0.5740258097648621
1695713639613822200,5.721822265625,0.022703170776367188,-1.3186302185058594,1.1822662353515625
1695713639632926200,5.74092626953125,0.8113207817077637,-1.1764945983886719,1.5525431632995605
1695713639651999700,5.759999755859375,2.0941741466522217,-1.0957746505737305,1.5767138004302979
1695713639671103700,5.779103759765625,3.1154284477233887,-0.2837800979614258,1.4946666955947876
1695713639690207700,5.798207763671875,3.2773680686950684,0.6083126068115234,1.3412001132965088
1695713639709281300,5.81728125,2.8824732303619385,0.8027982711791992,1.283868670463562
1695713639728415700,5.836415771484375,2.3643412590026855,1.1456451416015625,1.5715752840042114
1695713639747489300,5.8554892578125,2.8242290019989014,2.067500114440918,1.587416172027588
1695713639766593300,5.87459326171875,2.999035358428955,2.560126304626465,1.5115463733673096
1695713639785666800,5.893666748046875,3.3443796634674072,2.670107841491699,1.4199861288070679
1695713639804770800,5.912770751953125,3.6466729640960693,2.902486801147461,0.9525265693664551
1695713639823874800,5.931874755859375,2.7929298877716064,3.0239200592041016,2.0643506050109863
1695713639842948400,5.9509482421875,1.403416395187378,5.017707824707031,4.232959270477295
1695713639862052400,5.97005224609375,-1.2415404319763184,4.868664741516113,5.126118183135986
1695713639881126000,5.9891259765625,-2.9423446655273438,2.66729736328125,3.69386887550354
1695713639900230000,6.00822998046875,-2.5532450675964355,1.5155277252197266,-0.5098410844802856
1695713639919334000,6.027333984375,-1.0012191534042358,2.7720413208007812,-3.457066774368286
1695713639938407200,6.0464072265625,-0.8235629796981812,3.507366180419922,-4.070486545562744
1695713639957511200,6.06551123046875,0.7694424986839294,4.091702461242676,-2.94063663482666
1695713639976584700,6.084584716796875,3.14933443069458,3.032853126525879,-0.5881192684173584
1695713639995688700,6.103688720703125,-0.27283215522766113,2.7916622161865234,-0.3981126546859741
1695713640014792700,6.122792724609375,-5.20539665222168,3.8514833450317383,-1.7776552438735962
1695713640033927400,6.141927490234375,-6.219944953918457,1.0469303131103516,0.7133007049560547
1695713640053000700,6.161000732421875,-4.228367328643799,-1.5192575454711914,2.4163126945495605
1695713640072074200,6.18007421875,-2.6683034896850586,-2.1986083984375,2.1715707778930664
1695713640091178200,6.19917822265625,-3.2065393924713135,-2.859647750854492,1.126564383506775
1695713640110251800,6.218251708984375,-3.642683982849121,-4.009027481079102,0.020325303077697754
1695713640129355800,6.237355712890625,-3.3818392753601074,-4.798891067504883,-0.66621994972229
1695713640148429300,6.25642919921875,-3.4694900512695312,-5.171805381774902,-0.5569441318511963
1695713640167533300,6.275533203125,-3.5405030250549316,-5.984081268310547,-0.21300697326660156
1695713640186637300,6.29463720703125,-2.5953283309936523,-6.521252632141113,-0.014087677001953125
1695713640205710800,6.3137109375,-1.0055460929870605,-6.379031181335449,0.19979333877563477
1695713640224814800,6.33281494140625,0.43230509757995605,-5.306870460510254,0.36452364921569824
1695713640243888000,6.35188818359375,1.8250732421875,-3.2460412979125977,0.3469815254211426
1695713640262992100,6.3709921875,3.8480286598205566,0.6468086242675781,-0.15953600406646729
1695713640282065700,6.390065673828125,5.8227434158325195,7.368928909301758,-0.5974118709564209
1695713640301200400,6.409200439453125,6.30722713470459,11.564019203186035,-2.6786694526672363
1695713640320304400,6.428304443359375,9.066579818725586,6.777000427246094,-3.386314868927002
1695713640339377700,6.447377685546875,2.0464894771575928,-4.8666534423828125,-2.779226064682007
1695713640358481700,6.466481689453125,-2.262467384338379,-9.680046081542969,-3.6225690841674805
1695713640377555200,6.48555517578125,0.4069681167602539,-2.6141481399536133,-3.086189031600952
1695713640396659200,6.5046591796875,6.165421485900879,11.406455039978027,-2.1190378665924072
1695713640415732700,6.523732666015625,-9.589816093444824,13.395011901855469,-0.6793750524520874
1695713640434836700,6.542836669921875,-1.2286431789398193,-0.3707151412963867,2.814033031463623
1695713640453940700,6.561940673828125,-6.351213455200195,-11.219569206237793,2.941250801086426
1695713640473014300,6.58101416015625,-1.2276217937469482,-8.619373321533203,1.8755345344543457
1695713640492118300,6.6001181640625,-1.3143062591552734,3.8328771591186523,3.077204465866089
1695713640511191800,6.61919189453125,-5.156208038330078,8.772161483764648,2.1364972591400146
1695713640530295800,6.6382958984375,-4.825971603393555,5.202329635620117,0.9213781356811523
1695713640549369000,6.657369140625,-1.520354986190796,-1.2779054641723633,-2.073171615600586
1695713640568473000,6.67647314453125,-0.21282947063446045,-3.5214920043945312,-2.170431137084961
1695713640587607800,6.69560791015625,0.5956037044525146,-2.464801788330078,-0.16137027740478516
1695713640606681300,6.714681396484375,0.1379084289073944,-0.3781166076660156,0.6308723092079163
1695713640625785300,6.733785400390625,-1.1187505722045898,-0.12334251403808594,0.47347187995910645
1695713640644858600,6.752858642578125,-0.7702938318252563,-2.237460136413574,0.3822978138923645
1695713640663962600,6.771962646484375,-1.1561253070831299,-2.6819610595703125,-0.0577048659324646
1695713640683066600,6.791066650390625,-0.8600026965141296,-2.192734718322754,0.008561968803405762
1695713640702140200,6.81014013671875,0.3073617219924927,-1.9662113189697266,0.39307427406311035
1695713640721244200,6.829244140625,1.430827021598816,-1.5196990966796875,0.9499688148498535
1695713640740317700,6.848317626953125,2.0774030685424805,-0.7422866821289062,1.2518786191940308
1695713640759421700,6.867421630859375,2.645124912261963,-0.12200260162353516,1.362640380859375
1695713640778495200,6.8864951171875,3.2930634021759033,0.4096355438232422,1.086434006690979
1695713640797599200,6.90559912109375,2.930915117263794,1.0351486206054688,0.656903862953186
1695713640816703200,6.924703125,1.7998907566070557,1.85040283203125,0.6626569032669067
1695713640835776800,6.94377685546875,1.7037839889526367,2.0534000396728516,1.7268246412277222
1695713640854880800,6.962880859375,2.6326241493225098,2.3206377029418945,2.834240674972534
1695713640873984800,6.98198486328125,3.652007579803467,2.827326774597168,2.479625701904297
1695713640893088800,7.0010888671875,3.4354193210601807,3.3068313598632812,2.103977680206299
1695713640912162000,7.020162109375,1.8250501155853271,4.447127342224121,2.796314239501953
1695713640931266300,7.039266357421875,0.6709370613098145,4.448529243469238,3.5662026405334473
1695713640950370300,7.058370361328125,-2.068467140197754,3.2366533279418945,3.164123058319092
1695713640969474300,7.077474365234375,-1.7043663263320923,1.2817630767822266,-0.4906656742095947
1695713640988547600,7.096547607421875,-0.5313360691070557,2.0883312225341797,-4.283737659454346
1695713641007621000,7.11562109375,0.4354607164859772,5.111845970153809,-4.502257347106934
1695713641026725000,7.13472509765625,1.2335822582244873,6.407596588134766,-2.866917371749878
1695713641045798700,7.153798583984375,1.6052180528640747,4.799614906311035,-0.8361489772796631
1695713641064902700,7.172902587890625,-0.8911306858062744,2.7709455490112305,0.21850693225860596
1695713641084006700,7.192006591796875,-7.467222213745117,3.474562644958496,-0.7181941270828247
1695713641103080200,7.211080078125,-7.4383039474487305,1.2892932891845703,-0.3063545227050781
1695713641122184200,7.23018408203125,-5.060092449188232,-2.095767021179199,1.1535089015960693
1695713641141257700,7.2492578125,-1.642669916152954,-3.4278221130371094,1.3455556631088257
1695713641160392200,7.26839208984375,-1.448624849319458,-3.5395584106445312,0.9252729415893555
1695713641179465700,7.2874658203125,-2.3999927043914795,-3.8183937072753906,0.08196055889129639
1695713641198569700,7.30656982421875,-3.484621524810791,-4.677613258361816,-0.2749214172363281
1695713641217673700,7.325673828125,-3.9454922676086426,-4.927295684814453,-0.5998266935348511
1695713641236747000,7.3447470703125,-4.000686168670654,-5.233986854553223,-0.5764814615249634
1695713641255851300,7.363851318359375,-3.3771657943725586,-5.409875869750977,-0.43830299377441406
1695713641274924500,7.382924560546875,-2.1086645126342773,-5.698087692260742,-0.2654627561569214
1695713641294028500,7.402028564453125,-0.6691243648529053,-5.505925178527832,-0.3553318977355957
1695713641313102000,7.42110205078125,1.1407532691955566,-4.280726432800293,-0.3138314485549927
1695713641332206000,7.4402060546875,2.5290732383728027,-1.799215316772461,-0.6645969152450562
1695713641351310000,7.45931005859375,5.259108543395996,3.374462127685547,-0.6484519243240356
1695713641370383600,7.478383544921875,6.795506000518799,9.247832298278809,-0.8678197860717773
1695713641389487600,7.497487548828125,8.674429893493652,10.534162521362305,-2.6590864658355713
1695713641408561200,7.51656103515625,7.970197677612305,2.7130746841430664,-2.6719932556152344
1695713641427665200,7.5356650390625,-0.6436476707458496,-6.885241508483887,-2.8676705360412598
1695713641446769200,7.55476904296875,-2.4539546966552734,-7.328566551208496,-3.2994189262390137
1695713641465873200,7.573873046875,1.9262349605560303,1.4234771728515625,-2.8979477882385254
1695713641484977200,7.59297705078125,2.4100725650787354,11.017409324645996,-1.6293563842773438
1695713641504050700,7.61205078125,-8.892297744750977,8.095795631408691,-1.7370871305465698
1695713641523154700,7.63115478515625,-2.070737838745117,-4.388282775878906,2.8902316093444824
1695713641542228000,7.65022802734375,-5.818077087402344,-9.578314781188965,1.6271607875823975
1695713641561332200,7.669332275390625,-0.6811113357543945,-2.5419673919677734,2.7700204849243164
1695713641580436200,7.688436279296875,-4.592504501342773,5.8128767013549805,2.940253973007202
1695713641599509500,7.707509521484375,-5.992555141448975,6.98886775970459,2.020942211151123
1695713641618613500,7.726613525390625,-2.695734977722168,2.28334903717041,-0.698982298374176
1695713641637687000,7.74568701171875,-0.4771949052810669,-2.2926130294799805,-2.711670398712158
1695713641656791000,7.764791015625,0.9697805643081665,-3.318230628967285,-1.3314629793167114
1695713641675864600,7.783864501953125,0.0541415810585022,-2.113462448120117,0.4655332565307617
1695713641694968600,7.802968505859375,-1.0817033052444458,-0.5557384490966797,0.8745859265327454
1695713641714072600,7.822072509765625,-0.9895896315574646,-1.2156810760498047,0.6230623722076416
1695713641733176600,7.841176513671875,-0.6113570928573608,-2.681447982788086,0.3887353539466858
1695713641752280600,7.860280517578125,-0.8504042625427246,-2.1413822174072266,0.42435938119888306
1695713641771354000,7.87935400390625,-0.24189001321792603,-1.4832448959350586,0.8977417945861816
1695713641790458000,7.8984580078125,0.8217120170593262,-1.4076519012451172,1.1672759056091309
1695713641809531600,7.91753173828125,1.7289538383483887,-1.1426076889038086,1.5421966314315796
1695713641828635600,7.9366357421875,2.798656940460205,-0.33929443359375,1.6722244024276733
1695713641847739600,7.95573974609375,3.286508083343506,0.41366004943847656,1.3288151025772095
1695713641866813000,7.97481298828125,2.9622302055358887,0.6365909576416016,0.4312129020690918
1695713641885917200,7.993917236328125,2.3803625106811523,1.2753190994262695,0.23791146278381348
1695713641905021200,8.013021240234375,2.0546445846557617,2.3051958084106445,0.9559228420257568
1695713641924094500,8.032094482421876,2.11309814453125,2.5875492095947266,2.332632541656494
1695713641943168000,8.05116796875,2.9348702430725098,2.6988277435302734,2.721271514892578
1695713641962272000,8.07027197265625,3.9239251613616943,2.9960107803344727,2.3242087364196777
1695713641981376000,8.0893759765625,2.7994911670684814,3.8452444076538086,2.758335828781128
1695713642000449500,8.108449462890626,0.9557892084121704,4.970635414123535,3.600698232650757
1695713642019584000,8.127583984375,-0.619031548500061,4.1006975173950195,3.629706382751465
1695713642038657500,8.146657470703126,-2.2397584915161133,1.696746826171875,1.8503127098083496
1695713642057761500,8.165761474609376,-1.83457612991333,-0.17191791534423828,-2.554417133331299
1695713642076835000,8.1848349609375,-0.2963908314704895,3.3261194229125977,-4.217191696166992
1695713642095939000,8.20393896484375,1.0408207178115845,6.0550642013549805,-3.4756481647491455
1695713642115043000,8.22304296875,1.8079237937927246,5.529802322387695,-1.7788151502609253
1695713642134116600,8.24211669921875,1.5321277379989624,3.0319652557373047,0.3899775743484497
1695713642153220600,8.261220703125,-4.599535942077637,2.979541778564453,0.31825459003448486
1695713642172294000,8.2802939453125,-7.98497200012207,2.7460031509399414,0.02371680736541748
1695713642191398000,8.29939794921875,-5.287644386291504,-0.2979297637939453,1.1116663217544556
1695713642210471400,8.318471435546876,-2.4885618686676025,-2.452866554260254,1.6679257154464722
1695713642229575400,8.337575439453126,-1.9045140743255615,-2.9694395065307617,1.2429713010787964
1695713642248679400,8.356679443359376,-2.796375274658203,-3.202859878540039,0.1474764347076416
1695713642267753000,8.3757529296875,-3.7079315185546875,-4.118040084838867,-0.5619179010391235
1695713642286857000,8.39485693359375,-3.969353199005127,-4.528589248657227,-0.9508044719696045
1695713642305961000,8.4139609375,-3.984686851501465,-4.8306169509887695,-0.5837883949279785
1695713642325065000,8.43306494140625,-3.5285191535949707,-5.339765548706055,-0.19582748413085938
1695713642344169000,8.4521689453125,-2.6461734771728516,-5.743902206420898,-0.1841585636138916
1695713642363242500,8.471242431640626,-1.5174546241760254,-5.847846984863281,-0.288551926612854
1695713642382346500,8.490346435546876,-0.4234886169433594,-5.123443603515625,-0.4868452548980713
1695713642401420000,8.509419921875,0.8633913993835449,-3.540846824645996,-0.5069040060043335
1695713642420524000,8.52852392578125,3.0840771198272705,-0.2691526412963867,-0.5938911437988281
1695713642439597600,8.54759765625,7.699409484863281,5.462008476257324,0.3228343725204468
1695713642458701600,8.56670166015625,6.262629508972168,9.314316749572754,-0.7585245370864868
1695713642477805600,8.5858056640625,9.739635467529297,7.917064666748047,-2.820323944091797
1695713642496878800,8.60487890625,5.833627700805664,-0.25598716735839844,-2.906954765319824
1695713642515982800,8.62398291015625,-1.3338801860809326,-6.849287033081055,-3.995290756225586
1695713642535056400,8.643056396484376,-2.29526686668396,-3.6407299041748047,-4.739645481109619
1695713642554160400,8.662160400390626,3.941774368286133,6.896358489990234,-4.982996940612793
1695713642573234000,8.68123388671875,-2.27388334274292,12.735441207885742,-1.294669270515442
1695713642592368400,8.700368408203126,-4.063244819641113,2.5364017486572266,0.9584845304489136
1695713642611472400,8.719472412109376,-2.7674520015716553,-9.378008842468262,4.5065178871154785
1695713642630546000,8.7385458984375,-6.838708877563477,-11.327269554138184,2.68265438079834
1695713642649650000,8.75764990234375,-3.3181819915771484,1.0199308395385742,2.469390392303467
1695713642668723500,8.776723388671876,-5.03272819519043,8.635492324829102,1.910878300666809
1695713642687827500,8.795827392578126,-4.493436813354492,7.389715194702148,1.1873985528945923
1695713642706901000,8.81490087890625,-0.8590195178985596,0.031174659729003906,-1.017818808555603
1695713642726005000,8.8340048828125,-0.24222183227539062,-3.3388729095458984,-2.4313907623291016
1695713642745109000,8.85310888671875,0.02903604507446289,-3.155816078186035,-0.5734554529190063
1695713642764182500,8.8721826171875,-0.42867907881736755,-1.2156267166137695,0.7941299080848694
1695713642783269600,8.89126953125,-0.6304910778999329,-0.2467041015625,1.2657406330108643
1695713642802343200,8.91034326171875,-0.5366106033325195,-1.3407630920410156,1.0105581283569336
1695713642821447200,8.929447265625,-0.5599009990692139,-2.2768163681030273,0.37408900260925293
1695713642840551200,8.94855126953125,-0.6907758116722107,-1.764801025390625,0.34712642431259155
1695713642859655200,8.9676552734375,0.11211740970611572,-1.5056257247924805,0.5457386374473572
1695713642878759200,8.98675927734375,1.5281684398651123,-1.4066152572631836,0.9908294081687927
1695713642897832400,9.00583251953125,2.449704170227051,-0.6133909225463867,1.6990511417388916
1695713642916936400,9.0249365234375,3.1045851707458496,0.1712961196899414,2.1591968536376953
1695713642936010000,9.044010009765625,2.591428756713867,0.018204689025878906,1.6728065013885498
1695713642955114000,9.063114013671875,2.084803819656372,0.28780555725097656,0.4906052350997925
1695713642974187500,9.0821875,3.2530250549316406,1.7441596984863281,0.10573065280914307
1695713642993291500,9.10129150390625,2.2718048095703125,2.5334911346435547,1.2550177574157715
1695713643012426000,9.120426025390625,1.6658294200897217,2.5649032592773438,2.5431599617004395
1695713643031469000,9.139468994140625,3.289154291152954,2.664640426635742,2.2251133918762207
1695713643050573000,9.158572998046875,4.03550910949707,2.621816635131836,1.593339204788208
1695713643069646600,9.177646484375,2.1884865760803223,3.4054765701293945,2.249469518661499
1695713643088750600,9.19675048828125,0.46745848655700684,4.526883125305176,3.657660961151123
1695713643107854600,9.2158544921875,-1.7151962518692017,3.762685775756836,4.115200996398926
1695713643126928100,9.23492822265625,-2.5504374504089355,1.6280088424682617,2.4185791015625
1695713643146032000,9.2540322265625,-1.6917178630828857,0.7418022155761719,-2.1882271766662598
1695713643165136100,9.27313623046875,-0.6244299411773682,2.522395133972168,-4.299790382385254
1695713643184240000,9.292240234375,-0.3077643811702728,3.8967580795288086,-4.255561828613281
1695713643203313400,9.3113134765625,1.550232172012329,4.055973052978516,-2.19521164894104
1695713643222417400,9.33041748046875,2.612107276916504,2.7405624389648438,-0.012045145034790039
1695713643241521400,9.349521484375,-2.0189266204833984,3.206465721130371,-0.9596532583236694
1695713643260595000,9.368594970703125,-6.276622772216797,3.453857421875,-1.0839823484420776
1695713643279699000,9.387698974609375,-6.116745948791504,0.16834735870361328,1.3304603099822998
1695713643298772500,9.4067724609375,-3.158989191055298,-1.7855710983276367,1.6775901317596436
1695713643317876500,9.42587646484375,-2.493598699569702,-2.84622859954834,1.1014748811721802
1695713643336950000,9.444949951171875,-2.779545307159424,-3.5085363388061523,0.17266178131103516
1695713643356054000,9.464053955078125,-3.478567600250244,-4.5532121658325195,-0.4960697889328003
1695713643375158000,9.483157958984375,-3.4973931312561035,-4.781486511230469,-0.9705508947372437
1695713643394231600,9.5022314453125,-3.615239143371582,-4.729008674621582,-0.7951022386550903
1695713643413335600,9.52133544921875,-3.4110708236694336,-4.966158866882324,-0.49710726737976074
1695713643432439600,9.540439453125,-2.1337695121765137,-5.245694160461426,-0.3467203378677368
1695713643451543600,9.55954345703125,-0.9108495712280273,-5.097715377807617,-0.2965494394302368
1695713643470617000,9.5786171875,0.27838873863220215,-4.337996482849121,-0.17674100399017334
1695713643489721000,9.59772119140625,1.599924087524414,-2.572751045227051,0.03890824317932129
1695713643508825000,9.6168251953125,4.8068742752075195,1.4623651504516602,0.04567575454711914
1695713643527898400,9.6358984375,7.349681377410889,7.009455680847168,-0.0389101505279541
1695713643547002400,9.65500244140625,7.256493091583252,9.169670104980469,-2.0725691318511963
1695713643566076000,9.674075927734375,9.224186897277832,4.556557655334473,-3.383024215698242
1695713643585180000,9.693179931640625,2.262096643447876,-4.875941276550293,-2.79254150390625
1695713643604253400,9.71225341796875,-3.3037126064300537,-9.506531715393066,-3.5297751426696777
1695713643623357400,9.731357421875,-2.4260618686676025,-4.975688934326172,-4.125749111175537
1695713643642461400,9.75046142578125,2.3273098468780518,6.423316955566406,-4.931461334228516
1695713643661535000,9.769534912109375,-3.4734363555908203,15.690164566040039,-3.1419529914855957
1695713643680639000,9.788638916015625,0.8688130378723145,8.812854766845703,1.2383525371551514
1695713643699712500,9.80771240234375,-1.8153388500213623,-7.06890869140625,5.044224739074707
1695713643718816500,9.82681640625,-8.424844741821289,-12.375513076782227,2.2624640464782715
1695713643737920500,9.84592041015625,-4.36139440536499,-3.1015844345092773,2.1466641426086426
1695713643757024500,9.8650244140625,-3.983987331390381,5.532077789306641,2.605526924133301
1695713643776128500,9.88412841796875,-2.773566246032715,7.2942047119140625,2.0871286392211914
1695713643795202000,9.9032021484375,-0.9902605414390564,1.572962760925293,0.36713123321533203
1695713643814306000,9.92230615234375,-0.18912476301193237,-2.1347904205322266,-2.0006563663482666
1695713643833379300,9.94137939453125,0.46327298879623413,-3.374208450317383,-1.2696902751922607
1695713643852483300,9.9604833984375,-0.006701200734823942,-2.735093116760254,0.6326677799224854
1695713643871556900,9.979556884765625,-0.56111079454422,-1.3922100067138672,1.4485549926757812
1695713643890660900,9.998660888671875,-0.6479390859603882,-0.9139680862426758,1.260345458984375
1695713643909764900,10.017764892578125,-1.6739481687545776,-1.1601743698120117,1.0600388050079346
1695713643928838400,10.03683837890625,-1.0647557973861694,-1.0232000350952148,0.6096370220184326
1695713643947972900,10.055972900390625,0.8942714929580688,-1.1890573501586914,0.5931390523910522
1695713643967016000,10.075015869140625,2.06585693359375,-0.9120864868164062,0.8656649589538574
1695713643986120000,10.094119873046875,3.0901074409484863,-0.32642269134521484,1.194095492362976
1695713644005224000,10.113223876953125,3.4328978061676025,0.18803882598876953,1.160172462463379
1695713644024328000,10.132327880859375,2.7890982627868652,0.21012592315673828,0.9245630502700806
1695713644043432000,10.151431884765625,2.867492198944092,0.9221181869506836,0.820044755935669
1695713644062505500,10.17050537109375,2.9243524074554443,2.145451545715332,0.7358139753341675
1695713644081609500,10.189609375,2.1510977745056152,2.5041589736938477,1.1339423656463623
1695713644100683000,10.20868310546875,2.4216294288635254,2.0439109802246094,1.677983045578003
1695713644119787000,10.227787109375,3.53741455078125,1.9296588897705078,1.8166313171386719
1695713644138891000,10.24689111328125,2.8044471740722656,3.206766128540039,2.4039835929870605
1695713644157964300,10.26596435546875,1.031119704246521,5.969709396362305,3.552474021911621
1695713644177068300,10.285068359375,-1.0952484607696533,4.532260894775391,4.318676948547363
1695713644196141800,10.304141845703125,-3.094546318054199,1.918996810913086,3.130891799926758
1695713644215245800,10.323245849609375,-2.89540433883667,0.7447595596313477,-1.0083614587783813
1695713644234319400,10.3423193359375,-1.5973601341247559,2.832347869873047,-3.421748161315918
1695713644253423400,10.36142333984375,0.1296086311340332,4.740940093994141,-2.9570088386535645
1695713644272527400,10.38052734375,2.1938419342041016,4.860466003417969,-1.556916356086731
1695713644291631400,10.39963134765625,0.5874608755111694,3.291074752807617,-0.8067370653152466
1695713644310735400,10.4187353515625,-5.094693183898926,3.7286415100097656,-2.049408197402954
1695713644329809000,10.437808837890625,-6.013913631439209,0.6565685272216797,-0.06841468811035156
1695713644348913000,10.456912841796875,-5.472760200500488,-1.9418611526489258,1.311428189277649
1695713644367986400,10.475986328125,-3.152850866317749,-2.8727645874023438,1.718700647354126
1695713644387090400,10.49509033203125,-1.6788444519042969,-2.918468475341797,1.186390995979309
1695713644406194400,10.5141943359375,-2.452005624771118,-3.534457206726074,-0.029439687728881836
1695713644425268000,10.53326806640625,-3.015395402908325,-5.065826416015625,-1.1094591617584229
1695713644444372000,10.5523720703125,-3.230205774307251,-5.679932594299316,-1.2961093187332153
1695713644463445200,10.5714453125,-3.248711347579956,-6.0238800048828125,-0.7829153537750244
1695713644482549200,10.59054931640625,-2.7011449337005615,-6.058036804199219,-0.4154292345046997
1695713644501622800,10.609622802734375,-1.4410252571105957,-5.414399147033691,-0.2407757043838501
1695713644520726800,10.628726806640625,0.43118906021118164,-4.0468902587890625,-0.15132200717926025
1695713644539830800,10.647830810546875,2.4014532566070557,-1.5578680038452148,-0.34135663509368896
1695713644558904300,10.666904296875,4.813778877258301,2.701997756958008,-0.4937673807144165
1695713644578008300,10.68600830078125,6.543157577514648,8.858092308044434,0.11683344841003418
1695713644597112300,10.7051123046875,7.325244426727295,11.513257026672363,-1.7913364171981812
1695713644616216300,10.72421630859375,8.24099063873291,4.481490135192871,-1.2891699075698853
1695713644635289900,10.743289794921875,-0.23747849464416504,-8.564397811889648,-1.417988657951355
1695713644654393900,10.762393798828125,-2.6419272422790527,-11.985881805419922,-0.798244833946228
1695713644673497900,10.781497802734375,0.8486611843109131,-0.44255828857421875,-1.7601207494735718
1695713644692571400,10.8005712890625,4.362136363983154,14.663263320922852,-3.3391618728637695
1695713644711675400,10.81967529296875,-6.785289764404297,12.080856323242188,-4.103792190551758
1695713644730749000,10.8387490234375,-2.87373685836792,-3.2754201889038086,0.9719512462615967
1695713644749853000,10.85785302734375,-7.074605941772461,-10.832666397094727,0.06910371780395508
1695713644768926200,10.87692626953125,-0.4772810935974121,-4.657021522521973,2.303487777709961
1695713644788030200,10.8960302734375,-4.682747840881348,4.505694389343262,3.931180477142334
1695713644807134200,10.91513427734375,-6.023992538452148,6.104657173156738,3.1779682636260986
1695713644826207700,10.934207763671875,-4.648005485534668,3.2444639205932617,0.05857580900192261
1695713644845311700,10.953311767578125,-1.1059999465942383,-0.8226823806762695,-2.4220967292785645
1695713644864415700,10.972415771484375,1.0231131315231323,-2.0221824645996094,-1.3790745735168457
1695713644883519700,10.991519775390625,1.1586239337921143,-1.722386360168457,0.14761823415756226
1695713644902623700,11.010623779296875,-0.13716357946395874,-1.2782011032104492,1.0587356090545654
1695713644921697300,11.029697265625,-0.4519171714782715,-1.306218147277832,1.170936942100525
1695713644940801300,11.04880126953125,-1.332118034362793,-1.7966394424438477,1.0582047700881958
1695713644959874800,11.067874755859375,-1.6641291379928589,-1.977010726928711,1.0504610538482666
1695713644978978800,11.086978759765625,-0.5862235426902771,-1.5861377716064453,1.183995008468628
1695713644998052400,11.10605224609375,1.134605884552002,-1.3734626770019531,1.3537986278533936
1695713645017156400,11.12515625,1.7696077823638916,-0.6423940658569336,1.4283576011657715
1695713645036260400,11.14426025390625,2.3962907791137695,0.12380218505859375,1.608707070350647
1695713645055334000,11.163333984375,3.672823667526245,0.5203266143798828,1.5875262022018433
1695713645074438000,11.18243798828125,3.292402744293213,0.3670682907104492,1.192922830581665
1695713645093511200,11.20151123046875,2.371002674102783,0.8838024139404297,0.6577364206314087
1695713645112615200,11.220615234375,1.8120839595794678,1.6179752349853516,1.0069446563720703
1695713645131688700,11.239688720703125,1.121671438217163,2.0617446899414062,2.777785062789917
1695713645150823200,11.2588232421875,2.4201877117156982,2.4105567932128906,3.277462959289551
1695713645169927200,11.27792724609375,3.1226792335510254,2.9935035705566406,2.457217216491699
1695713645189000700,11.297000732421875,1.6126179695129395,4.0141191482543945,1.558556079864502
1695713645208104700,11.316104736328125,0.7584258317947388,3.8320140838623047,1.3275996446609497
1695713645227178200,11.33517822265625,-0.5133434534072876,2.508047103881836,1.9187679290771484
1695713645246282200,11.3542822265625,-1.656176209449768,0.10411262512207031,0.28246021270751953
1695713645265355800,11.373355712890625,-1.8903495073318481,0.016429901123046875,-3.025527238845825
1695713645284459800,11.392459716796875,0.19147557020187378,3.3943910598754883,-4.0742716789245605
1695713645303563800,11.411563720703125,0.6198543310165405,4.618035316467285,-3.5539417266845703
1695713645322637300,11.43063720703125,0.5366009473800659,3.8226099014282227,-2.414700984954834
1695713645341741300,11.4497412109375,-0.8534080982208252,2.773427963256836,-1.2094502449035645
1695713645360814800,11.46881494140625,-5.5496392250061035,3.503786087036133,-0.3931303024291992
1695713645379918800,11.4879189453125,-6.222236633300781,1.3664379119873047,0.8747348785400391
1695713645398992100,11.5069921875,-3.2040278911590576,-1.3098268508911133,1.4927704334259033
1695713645418096000,11.52609619140625,-2.0858302116394043,-2.334427833557129,1.329939842224121
1695713645437200100,11.5452001953125,-0.26764869689941406,-2.86820125579834,0.7019404172897339
1695713645456304000,11.56430419921875,-4.538381576538086,-3.4779539108276367,-0.681427001953125
1695713645475408100,11.583408203125,-2.5814990997314453,-4.163474082946777,-1.4196816682815552
1695713645494481700,11.602481689453125,-2.884852886199951,-4.160761833190918,-1.2986783981323242
1695713645513585700,11.621585693359375,-3.1988186836242676,-5.072027206420898,-0.6786593198776245
1695713645532659200,11.6406591796875,-2.547064781188965,-5.97175407409668,-0.10996496677398682
1695713645551763200,11.65976318359375,-1.2803072929382324,-5.600933074951172,0.1275160312652588
1695713645570867200,11.6788671875,-0.8512132167816162,-3.256816864013672,0.19851279258728027
1695713645589940700,11.697940673828125,2.083648681640625,0.2167034149169922,0.21538841724395752
1695713645609044700,11.717044677734375,6.539237022399902,5.6957197189331055,0.5959069728851318
1695713645628118300,11.7361181640625,5.024072647094727,9.699522018432617,-0.7073590755462646
1695713645647222300,11.75522216796875,5.8035712242126465,6.405345916748047,-2.0280990600585938
1695713645666326300,11.774326171875,4.943539619445801,-1.257608413696289,-2.157113552093506
1695713645685399800,11.79339990234375,-2.108948230743408,-6.961056709289551,-1.9829941987991333
1695713645704503800,11.81250390625,-3.47737717628479,-5.885796546936035,-1.0762449502944946
1695713645723607800,11.83160791015625,-0.06230044364929199,-0.027441978454589844,-0.3323255777359009
1695713645742711800,11.8507119140625,5.234303951263428,6.354519844055176,-0.3083953857421875
1695713645761785000,11.86978515625,0.18407225608825684,7.268680572509766,-1.615902066230774
1695713645780889000,11.88888916015625,0.8909666538238525,1.0391387939453125,0.37229180335998535
1695713645799993000,11.9079931640625,-5.806587219238281,-7.195211410522461,0.5923554301261902
1695713645819066600,11.927066650390625,-8.337899208068848,-8.008679389953613,-0.3871884346008301
1695713645838170600,11.946170654296875,-2.269111394882202,-0.16134357452392578,2.089991569519043
1695713645857244200,11.965244140625,-1.4621639251708984,4.647602081298828,2.274824380874634
1695713645876348200,11.98434814453125,-3.013876438140869,3.3664302825927734,-0.2181386947631836
1695713645895421700,12.003421630859375,-0.017570137977600098,-0.07045459747314453,-2.8434338569641113
1695713645914525700,12.022525634765625,2.66052508354187,-1.4700851440429688,-1.7233152389526367
1695713645933599200,12.04159912109375,1.0329087972640991,-0.6146574020385742,1.192389726638794
1695713645952703200,12.060703125,-2.5219297409057617,1.4624691009521484,1.876342535018921
1695713645971807200,12.07980712890625,-5.0461859703063965,3.712739944458008,1.492580533027649
1695713645990880800,12.098880859375,-3.2723073959350586,2.1106882095336914,1.9299474954605103
1695713646009984800,12.11798486328125,-1.1180428266525269,-0.060280799865722656,2.0220260620117188
1695713646029088800,12.1370888671875,0.12481367588043213,-2.2883729934692383,0.9685925245285034
1695713646048192800,12.15619287109375,2.421968460083008,-6.564209938049316,-0.8662145137786865
1695713646067296800,12.175296875,4.4016571044921875,-11.620235443115234,0.2644503116607666
1695713646086370000,12.1943701171875,4.65061092376709,-16.249038696289062,2.7214548587799072
1695713646105474000,12.21347412109375,1.3011293411254883,-17.764068603515625,4.994710445404053
1695713646124547600,12.232547607421875,-2.972231864929199,-16.741008758544922,7.605865001678467
1695713646143651600,12.251651611328125,-6.234533309936523,-15.097859382629395,6.526862144470215
1695713646162725000,12.27072509765625,-6.534419059753418,-15.696433067321777,4.022643089294434
1695713646181829000,12.2898291015625,-1.4638409614562988,-8.495344161987305,-0.4319591224193573
1695713646200933000,12.30893310546875,1.079253911972046,-0.5472536087036133,-3.5431673526763916
1695713646220006700,12.328006591796875,1.566625952720642,4.514398574829102,-8.789398193359375
1695713646239110700,12.347110595703125,-10.315664291381836,28.86841583251953,-8.992841720581055
1695713646258184200,12.36618408203125,-25.649131774902344,17.327476501464844,-10.79294490814209
1695713646277288200,12.3852880859375,-9.441581726074219,-6.100063323974609,-8.340206146240234
1695713646296392200,12.40439208984375,6.3783464431762695,2.619687080383301,0.6292558312416077
1695713646315496200,12.42349609375,-2.4855494499206543,8.33261489868164,-1.3762372732162476
1695713646334600200,12.44260009765625,-9.539554595947266,6.794981002807617,-1.5605928897857666
1695713646353673700,12.461673828125,-6.596999168395996,4.0489349365234375,0.6806350350379944
1695713646372777700,12.48077783203125,2.814373016357422,6.636691093444824,2.474266529083252
1695713646391851000,12.49985107421875,2.8085670471191406,7.304526329040527,1.7712656259536743
1695713646410955000,12.518955078125,-4.183638095855713,4.233274459838867,-2.836589813232422
1695713646430028500,12.538028564453125,-3.720154285430908,4.438736915588379,-2.213301658630371
1695713646449132500,12.557132568359375,1.44890296459198,8.647785186767578,0.29728490114212036
1695713646468236500,12.576236572265625,8.38904094696045,18.50021743774414,4.388208389282227
1695713646487310000,12.59531005859375,-2.9185705184936523,9.960148811340332,-6.438076972961426
1695713646506414000,12.6144140625,-5.611396789550781,-4.3481903076171875,-1.4103760719299316
1695713646525487600,12.633487548828125,-1.6232142448425293,-2.9077558517456055,4.0372209548950195
1695713646544591600,12.652591552734375,3.083739995956421,-2.888779640197754,7.009495735168457
1695713646563665200,12.6716650390625,3.779773712158203,-2.1780261993408203,5.826296329498291
1695713646582799600,12.690799560546875,-1.0590498447418213,-0.19853687286376953,0.33726435899734497
1695713646601903600,12.709903564453125,0.08358144760131836,2.261551856994629,-2.812042474746704
1695713646620977200,12.72897705078125,1.1953012943267822,1.1861915588378906,-3.21248722076416
1695713646640081200,12.7480810546875,0.7071330547332764,-2.004939079284668,-0.047922708094120026
1695713646659154700,12.76715478515625,0.0663306713104248,-2.1032772064208984,2.7260446548461914
1695713646678258700,12.7862587890625,-0.17501354217529297,-0.17632007598876953,2.043036699295044
1695713646697362700,12.80536279296875,0.0619206428527832,0.9153280258178711,0.26274222135543823
1695713646716436000,12.82443603515625,0.29475903511047363,1.291900634765625,-0.585893988609314
1695713646735540000,12.8435400390625,0.5204300880432129,0.8844308853149414,-0.46023908257484436
1695713646754613500,12.862613525390625,-0.311997652053833,0.4087095260620117,-0.7901648283004761
1695713646773717500,12.881717529296875,-1.6775033473968506,-1.0147018432617188,-1.353661060333252
1695713646792791000,12.900791015625,-2.1788737773895264,-0.13138198852539062,-1.0066202878952026
1695713646811895000,12.91989501953125,3.9997313022613525,-1.2538108825683594,3.099158763885498
1695713646830999000,12.9389990234375,3.587482452392578,0.02778148651123047,1.1434967517852783
1695713646850072600,12.958072509765625,-0.2600736618041992,0.4214801788330078,-0.3281513750553131
1695713646869176600,12.977176513671875,-0.437652587890625,-0.3458089828491211,-0.6682813167572021
1695713646888280600,12.996280517578125,-1.2628929615020752,-0.09979820251464844,-1.2115682363510132
1695713646907384600,13.015384521484375,0.12374603748321533,-0.20112228393554688,-0.341501921415329
1695713646926488600,13.034488525390625,1.1880643367767334,-0.3092327117919922,0.32825979590415955
1695713646945562000,13.05356201171875,0.6609195470809937,-0.14070415496826172,0.6951791644096375
1695713646964666000,13.072666015625,-0.2981916666030884,0.03406047821044922,0.5425607562065125
1695713646983739600,13.09173974609375,-0.03971660137176514,0.17332077026367188,0.33754903078079224
1695713647002843600,13.11084375,0.22522807121276855,-0.02256298065185547,0.4025893807411194
1695713647021917000,13.1299169921875,-0.1563115119934082,-0.2874031066894531,0.30633196234703064
1695713647041021000,13.14902099609375,-0.2950019836425781,-0.3471508026123047,0.2075931429862976
1695713647060094500,13.168094482421875,-0.05477917194366455,-0.08952140808105469,0.1728183925151825
1695713647079198500,13.187198486328125,0.12569475173950195,0.08788108825683594,0.08560796082019806
1695713647098302500,13.206302490234375,-0.04128706455230713,0.02116680145263672,0.1038016527891159
1695713647117376000,13.2253759765625,-0.03420722484588623,-0.08462715148925781,0.20948204398155212
1695713647136480000,13.24447998046875,0.14326918125152588,-0.1168375015258789,0.18949756026268005
1695713647155584000,13.263583984375,0.057900071144104004,-0.0778951644897461,0.15371835231781006
1695713647174688000,13.28268798828125,0.09630131721496582,-0.0838766098022461,0.036219462752342224
1695713647193761500,13.301761474609375,0.2448880672454834,-0.10533523559570312,0.1399790197610855
1695713647212865500,13.320865478515625,0.4203352928161621,-0.04861164093017578,0.3132981061935425
1695713647231969500,13.339969482421875,0.11917698383331299,0.04427623748779297,0.2754724621772766
1695713647251043000,13.35904296875,-0.2549787759780884,-0.0011348724365234375,-0.011672288179397583
1695713647270147000,13.37814697265625,-0.40563106536865234,0.01931285858154297,-0.14242114126682281
1695713647289220600,13.397220703125,-0.32160377502441406,-0.00328826904296875,-0.06490175426006317
1695713647308324600,13.41632470703125,-0.17370569705963135,0.05069446563720703,-0.022239118814468384
1695713647327398000,13.43539794921875,-0.30761826038360596,-0.03473854064941406,0.14647842943668365
1695713647346502000,13.454501953125,-0.2639796733856201,-0.13139057159423828,0.29232507944107056
1695713647365606000,13.47360595703125,-0.16832780838012695,-0.1338481903076172,0.17527373135089874
1695713647384679400,13.492679443359375,0.023384451866149902,-0.1656026840209961,0.28138190507888794
1695713647403783400,13.511783447265625,-0.10840892791748047,-0.12970638275146484,0.2053629457950592
1695713647422857000,13.53085693359375,-0.42212432622909546,-0.05213642120361328,-0.024502098560333252
1695713647441991400,13.549991455078125,-0.578342854976654,-0.07359504699707031,-0.19754809141159058
1695713647461095400,13.569095458984375,-0.17981183528900146,0.06066322326660156,0.05367410182952881
1695713647480169000,13.5881689453125,0.11207711696624756,0.18589019775390625,0.5567916035652161
1695713647499273000,13.60727294921875,-1.1269917488098145,0.17490863800048828,0.08830256760120392
1695713647518346500,13.626346435546875,-0.9574453830718994,0.2298870086669922,0.17910370230674744
1695713647537450500,13.645450439453125,-0.513697624206543,0.05903148651123047,-0.20024418830871582
1695713647556524000,13.66452392578125,-0.34640705585479736,0.10112476348876953,-0.325567364692688
1695713647575628000,13.6836279296875,0.06047534942626953,0.05589771270751953,-0.0007232986390590668
1695713647594732000,13.70273193359375,0.159723162651062,0.05996131896972656,0.4915928244590759
1695713647613805600,13.7218056640625,-0.11926007270812988,0.1193227767944336,0.20989681780338287
1695713647632909600,13.74090966796875,-0.1809554100036621,0.013935089111328125,-0.23301388323307037
1695713647651982800,13.75998291015625,0.1254262924194336,-0.16347122192382812,-0.30643534660339355
1695713647671086800,13.7790869140625,0.5900460481643677,-0.014672279357910156,-0.15357668697834015
1695713647690160400,13.798160400390625,0.45090651512145996,-0.07151031494140625,0.18262530863285065
1695713647709264400,13.817264404296875,-0.01567363739013672,-0.10091495513916016,0.1034030020236969
1695713647728368400,13.836368408203125,-0.20941531658172607,-0.045261383056640625,-0.06694582104682922
1695713647747472400,13.855472412109375,0.0022406578063964844,0.03895282745361328,-0.046581581234931946
1695713647766576400,13.874576416015625,0.208235502243042,0.06360435485839844,0.17075735330581665
1695713647785650000,13.89364990234375,0.14647328853607178,0.08078861236572266,0.2633174955844879
1695713647804754000,13.91275390625,0.035224080085754395,-0.01603221893310547,0.21218283474445343
1695713647823827500,13.931827392578125,0.09409260749816895,0.07654285430908203,0.3401727080345154
1695713647842931500,13.950931396484375,0.2424638271331787,0.03294944763183594,0.5797907114028931
1695713647862035500,13.970035400390625,0.15699505805969238,0.045787811279296875,0.43226179480552673
1695713647881109000,13.98910888671875,0.3534064292907715,-0.03728675842285156,0.5658314228057861
1695713647900213000,14.008212890625,0.2852882146835327,-0.11624526977539062,0.4903757572174072
1695713647919286500,14.02728662109375,0.222070574760437,-0.14098358154296875,0.5603708028793335
1695713647938390500,14.046390625,0.024643898010253906,-0.058536529541015625,0.2618293762207031
1695713647957463800,14.0654638671875,0.12931346893310547,-0.15969562530517578,0.2085045725107193
1695713647976567800,14.08456787109375,0.20449578762054443,-0.20284461975097656,0.17413392663002014
1695713647995671800,14.103671875,0.23794353008270264,-0.1216745376586914,0.41166016459465027
1695713648014775800,14.12277587890625,-0.06953346729278564,-0.022069931030273438,0.2659720480442047
1695713648033910500,14.14191064453125,-0.21672427654266357,0.066741943359375,0.1991933137178421
1695713648052953300,14.160953369140625,-0.19106554985046387,0.03506183624267578,0.22176417708396912
1695713648072057300,14.180057373046875,-0.14646542072296143,-0.004864692687988281,0.29741746187210083
1695713648091131000,14.199130859375,-0.35440361499786377,-0.0019817352294921875,0.18406642973423004
1695713648110235000,14.21823486328125,-0.26035940647125244,0.06416511535644531,0.10938316583633423
1695713648129339000,14.2373388671875,-0.017688870429992676,0.06183338165283203,0.29998454451560974
1695713648148412400,14.256412353515625,-0.09805101156234741,0.0038938522338867188,0.36251577734947205
1695713648167516400,14.275516357421875,-0.2776734232902527,-0.036347389221191406,0.1670226752758026
1695713648186590000,14.29458984375,-0.18786406517028809,0.020951271057128906,-0.008979350328445435
1695713648205694000,14.31369384765625,0.030351459980010986,0.06656551361083984,0.051134079694747925
1695713648224767500,14.332767578125,0.4062660336494446,0.054218292236328125,0.20547154545783997
1695713648243871500,14.35187158203125,-0.3259211778640747,-0.0533905029296875,0.04406923055648804
1695713648262975500,14.3709755859375,-0.04713863134384155,0.05603313446044922,0.318558007478714
1695713648282048800,14.390048828125,0.028762638568878174,-0.06432151794433594,0.17966806888580322
1695713648301183500,14.40918359375,0.06138813495635986,-0.05324363708496094,0.3209526240825653
1695713648320256800,14.4282568359375,-0.09281051158905029,-0.020833969116210938,0.27508366107940674
1695713648339360800,14.44736083984375,-0.11062002182006836,-0.022851943969726562,0.11556154489517212
1695713648358434300,14.466434326171875,-0.058956682682037354,-0.06617546081542969,-0.01411929726600647
1695713648377538300,14.485538330078125,-0.11665725708007812,-0.027599334716796875,-0.18829816579818726
1695713648396642300,14.504642333984375,-0.13703811168670654,-0.03742218017578125,-0.17241650819778442
1695713648415715800,14.5237158203125,-0.25401198863983154,-0.02217578887939453,-0.08811962604522705
1695713648434819800,14.54281982421875,-0.09349769353866577,0.027706146240234375,-0.06386962532997131
1695713648453893400,14.561893310546875,0.014376044273376465,-0.012358665466308594,0.00022619962692260742
1695713648472997400,14.580997314453125,0.045848727226257324,-0.015842437744140625,0.10959029197692871
1695713648492101400,14.600101318359375,0.07228958606719971,-0.02537059783935547,0.09577980637550354
1695713648511175000,14.6191748046875,0.07348769903182983,-0.04449748992919922,-0.015589922666549683
1695713648530279000,14.63827880859375,0.1040269136428833,-0.05187702178955078,-0.09725365042686462
1695713648549352400,14.6573525390625,0.1294606328010559,-0.040457725524902344,-0.05008372664451599
1695713648568456400,14.67645654296875,0.08503836393356323,-0.018552780151367188,-0.005558669567108154
1695713648587560400,14.695560546875,0.052076756954193115,-0.012164115905761719,0.02739700675010681
1695713648606664400,14.71466455078125,-0.08866316080093384,-0.036522865295410156,-0.0011618435382843018
1695713648625768400,14.7337685546875,-0.17689770460128784,0.01854419708251953,-0.052795469760894775
1695713648644841700,14.752841796875,-0.09960901737213135,0.01685333251953125,-0.030969470739364624
1695713648663945700,14.77194580078125,-0.20656323432922363,-0.010903358459472656,0.11044007539749146
1695713648683019300,14.791019287109375,-0.3248673677444458,0.0183258056640625,0.06900760531425476
1695713648702123300,14.810123291015625,-0.266615092754364,0.06441211700439453,-0.15295398235321045
1695713648721196800,14.82919677734375,-0.23827481269836426,-0.0006589889526367188,-0.10847726464271545
1695713648740300800,14.84830078125,-0.06351536512374878,-0.001552581787109375,-0.029268622398376465
1695713648759404800,14.86740478515625,-0.09639346599578857,-0.007157325744628906,-0.005842745304107666
1695713648778478300,14.886478271484375,-0.08220332860946655,0.005143165588378906,0.02479502558708191
1695713648797582300,14.905582275390625,0.04822307825088501,0.017528533935546875,0.04184487462043762
1695713648816656000,14.92465576171875,0.24822580814361572,-0.02685260772705078,0.22238847613334656
1695713648835759900,14.943759765625,0.08766502141952515,-0.00876617431640625,0.2413930892944336
1695713648854833400,14.96283349609375,0.03507727384567261,0.0045261383056640625,0.25228816270828247
1695713648873967900,14.9819677734375,0.030392885208129883,-0.009550094604492188,0.2629300057888031
1695713648893072000,15.00107177734375,0.05581480264663696,-0.015485763549804688,0.24195349216461182
1695713648912145400,15.0201455078125,0.10307508707046509,-0.040526390075683594,0.25804734230041504
1695713648931249400,15.03924951171875,0.045755088329315186,-0.014720916748046875,0.2208068072795868
1695713648950322700,15.05832275390625,0.049233317375183105,0.006285667419433594,0.22900325059890747
1695713648969457400,15.07745751953125,0.0064733028411865234,-0.009564399719238281,0.25068002939224243
1695713648988500200,15.096500244140625,-0.012659728527069092,-0.02665996551513672,0.21110936999320984
1695713649007604200,15.115604248046875,0.029653072357177734,-0.04382610321044922,0.23905426263809204
1695713649026708200,15.134708251953125,0.017641007900238037,-0.023082733154296875,0.19203948974609375
1695713649045781800,15.15378173828125,0.06129097938537598,-0.017798423767089844,0.2234022617340088
1695713649064885800,15.1728857421875,-0.006096065044403076,-0.02090167999267578,0.17626464366912842
1695713649083959300,15.191959228515625,-0.06025010347366333,-0.0015230178833007812,0.059414029121398926
1695713649103063300,15.211063232421875,-0.07308834791183472,-0.01761150360107422,0.08075270056724548
1695713649122136800,15.23013671875,0.011324584484100342,-0.018265724182128906,0.11750435829162598
1695713649141240800,15.24924072265625,-0.057422757148742676,-0.04740715026855469,0.1199583113193512
1695713649160375300,15.268375244140625,-0.14729386568069458,-0.013701438903808594,0.03614616394042969
1695713649179448800,15.28744873046875,-0.07254374027252197,-0.02016735076904297,-0.0029859542846679688
1695713649198552800,15.306552734375,-0.05668586492538452,-0.03607654571533203,-0.019819557666778564
1695713649217626400,15.32562646484375,-0.007481634616851807,-0.012903213500976562,0.005897998809814453
1695713649236730400,15.34473046875,-0.08441239595413208,0.012614250183105469,0.04421234130859375
1695713649255834400,15.36383447265625,-0.19633233547210693,0.028667449951171875,-0.03749766945838928
1695713649274907600,15.38290771484375,-0.07751387357711792,0.022484779357910156,-0.07171866297721863
1695713649294011600,15.40201171875,-0.08321601152420044,0.04713249206542969,0.016267716884613037
1695713649313085200,15.421085205078125,-0.22353649139404297,0.05872821807861328,0.10680031776428223
1695713649332189200,15.440189208984375,-0.3274540901184082,0.1023416519165039,0.23960533738136292
1695713649351262700,15.4592626953125,-0.21144431829452515,0.03010272979736328,0.3245197832584381
1695713649370366700,15.47836669921875,-0.6001953482627869,0.01982402801513672,-0.1265905797481537
1695713649389470700,15.497470703125,0.0402451753616333,0.02500152587890625,-0.11305047571659088
1695713649408544300,15.516544189453125,0.2177126407623291,-0.045365333557128906,-0.0004830360412597656
1695713649427648300,15.535648193359375,0.03327459096908569,-0.060225486755371094,0.1596304029226303
1695713649446752300,15.554752197265625,0.13883280754089355,-0.0893096923828125,0.1059969961643219
1695713649465856300,15.573856201171875,0.14657145738601685,0.1172637939453125,-0.25776416063308716
1695713649484929800,15.5929296875,-0.41590267419815063,0.37049198150634766,0.2200116366147995
1695713649504033800,15.61203369140625,0.010446012020111084,0.10219764709472656,0.48695218563079834
1695713649523137800,15.6311376953125,-0.021288573741912842,-0.6475019454956055,0.3148208260536194
1695713649542211300,15.65021142578125,-0.14767062664031982,-0.3544797897338867,0.12086431682109833
1695713649561315300,15.6693154296875,0.2399558424949646,0.19115066528320312,0.01906570792198181
1695713649580388600,15.688388671875,0.11270749568939209,-0.04201316833496094,-0.013183057308197021
1695713649599492600,15.70749267578125,-0.08541584014892578,0.0222320556640625,-0.11009225249290466
1695713649618566100,15.726566162109375,0.119259774684906,0.06374168395996094,-0.08421699702739716
1695713649637670100,15.745670166015625,0.08186715841293335,-0.026244163513183594,0.06735453009605408
1695713649656774100,15.764774169921875,0.03174090385437012,-0.04891681671142578,0.23433013260364532
1695713649675847700,15.78384765625,-0.10383957624435425,-0.08711433410644531,0.2926010191440582
1695713649694951700,15.80295166015625,-0.20414471626281738,0.0014886856079101562,0.03027188777923584
1695713649714025200,15.822025146484375,-0.005774438381195068,0.014392852783203125,-0.12306392192840576
1695713649733159700,15.84115966796875,0.05247753858566284,-0.03066539764404297,-0.01101694256067276
1695713649752233200,15.860233154296875,-0.1194111704826355,0.2949485778808594,-0.1246844232082367
1695713649771337200,15.879337158203125,-0.2659425139427185,-0.001537322998046875,0.2110106647014618
1695713649790441200,15.898441162109375,-0.35640597343444824,-0.5355911254882812,0.6091824173927307
1695713649809514800,15.9175146484375,-0.2630651593208313,0.4102602005004883,-0.08508985489606857
1695713649828618800,15.93661865234375,0.030681610107421875,-0.06587982177734375,0.10903016477823257
1695713649847692300,15.9556923828125,0.033556342124938965,-0.10687732696533203,0.06900835037231445
1695713649866796300,15.97479638671875,-0.0877886414527893,0.0925588607788086,0.10508031398057938
1695713649885869600,15.99386962890625,-0.008744418621063232,-0.005401611328125,0.3854902684688568
1695713649905004300,16.01300439453125,-0.04467582702636719,0.00313568115234375,0.5981156826019287
1695713649924077600,16.03207763671875,-0.21101796627044678,-0.108154296875,0.634178638458252
1695713649943151000,16.051151123046875,-0.3437734842300415,-0.09007930755615234,0.1828901469707489
1695713649962255000,16.070255126953125,-0.06153762340545654,-0.08963680267333984,-0.07565020769834518
1695713649981328600,16.08932861328125,0.1493048071861267,-0.05581378936767578,-0.2981714606285095
1695713650000432600,16.1084326171875,0.18807286024093628,-0.04350757598876953,-0.20504426956176758
1695713650019536600,16.12753662109375,0.1386757493019104,-0.04680442810058594,0.08646664768457413
1695713650038640600,16.146640625,-0.012361109256744385,-0.02660655975341797,0.2221817672252655
1695713650057744600,16.16574462890625,-0.03561735153198242,-0.046713829040527344,0.22932188212871552
1695713650076818200,16.184818115234375,0.09299445152282715,-0.04554557800292969,0.1617211550474167
1695713650095922200,16.203922119140625,0.1320541501045227,0.03255176544189453,0.08334630727767944
1695713650114995700,16.22299560546875,0.04246973991394043,-0.040027618408203125,0.24947431683540344
1695713650134099700,16.242099609375,-0.15280288457870483,-0.0036525726318359375,0.23147299885749817
1695713650153173200,16.26117333984375,-0.25842487812042236,0.05304527282714844,0.1985597312450409
1695713650172277200,16.28027734375,-0.4424319267272949,0.0316619873046875,0.08638690412044525
1695713650191381200,16.29938134765625,-0.3713783621788025,0.0022993087768554688,-0.0890507698059082
1695713650210454500,16.31845458984375,-0.05251038074493408,-0.02210235595703125,-0.09721618890762329
1695713650229558500,16.33755859375,0.033417701721191406,-0.07736015319824219,-0.077066570520401
1695713650248632000,16.356632080078125,0.0033038854598999023,-0.10651397705078125,0.07973016798496246
1695713650267736000,16.375736083984375,0.02820897102355957,-0.03497123718261719,0.2786533832550049
1695713650286840000,16.394840087890625,-0.08899509906768799,-0.0050945281982421875,0.3672991693019867
1695713650305944000,16.413944091796875,-0.12769776582717896,0.03414630889892578,0.23499131202697754
1695713650325048000,16.433048095703125,-0.08209341764450073,0.02486705780029297,0.12539955973625183
1695713650344121600,16.45212158203125,-0.08588355779647827,0.02498912811279297,0.10409009456634521
1695713650363225600,16.4712255859375,-0.10084962844848633,-0.02576446533203125,0.08607268333435059
1695713650382299100,16.490299072265625,-0.071128249168396,-0.026704788208007812,0.037672314792871475
1695713650401403100,16.509403076171875,-0.08764183521270752,0.017348289489746094,0.027344584465026855
1695713650420507100,16.528507080078125,-0.189988911151886,0.04717731475830078,-0.006139103323221207
1695713650439580700,16.54758056640625,-0.20579057931900024,0.03440093994140625,-0.07652302831411362
1695713650458684700,16.5666845703125,-0.015624821186065674,-0.019727706909179688,-0.11541107296943665
1695713650477758200,16.58575830078125,0.09412705898284912,-0.09156322479248047,-0.01003069058060646
1695713650496862200,16.6048623046875,0.04753011465072632,-0.08066844940185547,0.2291722297668457
1695713650515935500,16.623935546875,-0.14091408252716064,0.011730194091796875,0.2754341959953308
1695713650535039500,16.64303955078125,-0.25243812799453735,0.053168296813964844,0.1405729502439499
1695713650554143500,16.6621435546875,-0.06491589546203613,0.042662620544433594,-0.05191972479224205
1695713650573217000,16.681217041015625,-0.1092347502708435,0.014479637145996094,0.0190749391913414
1695713650592351500,16.7003515625,-0.15630829334259033,0.04912567138671875,0.07763957232236862
1695713650611425000,16.719425048828125,-0.2168409824371338,0.01864910125732422,0.040720343589782715
1695713650630529000,16.738529052734375,-0.13457059860229492,-0.0022449493408203125,0.16709525883197784
1695713650649602600,16.7576025390625,-0.0707550048828125,-0.0027875900268554688,0.17739549279212952
1695713650668706600,16.77670654296875,-0.07152020931243896,0.014444351196289062,0.11896166205406189
1695713650687810600,16.795810546875,0.06882274150848389,-0.023896217346191406,0.17299523949623108
1695713650706884000,16.814884033203125,-0.03964334726333618,-0.031592369079589844,0.15657907724380493
1695713650725988000,16.833988037109375,-0.014977455139160156,-0.012122154235839844,0.11208390444517136
1695713650745061600,16.8530615234375,-0.09091979265213013,-0.030615806579589844,0.07358971238136292
1695713650764165600,16.87216552734375,-0.024055838584899902,0.01725006103515625,0.12001600116491318
1695713650783239200,16.8912392578125,-0.029752135276794434,-0.013212203979492188,0.14026769995689392
1695713650802343200,16.91034326171875,-0.03684592247009277,-0.014162063598632812,0.18902789056301117
1695713650821447200,16.929447265625,-0.12444400787353516,-0.045955657958984375,0.16624818742275238
1695713650840551200,16.94855126953125,-0.12322437763214111,-0.020700454711914062,0.15907040238380432
1695713650859624400,16.96762451171875,-0.15012919902801514,-0.029732704162597656,0.11765173077583313
1695713650878728400,16.986728515625,-0.08728015422821045,-0.026838302612304688,0.13096530735492706
1695713650897832400,17.00583251953125,-0.08407163619995117,-0.03933429718017578,0.13261917233467102
1695713650916906000,17.024906005859375,-0.1534266471862793,-0.054203033447265625,0.1023181602358818
1695713650936010000,17.044010009765625,-0.06145775318145752,-0.03583717346191406,0.13970839977264404
1695713650955114000,17.063114013671875,-0.012971162796020508,-0.016326904296875,0.12488534301519394
1695713650974187500,17.0821875,0.02048802375793457,-0.03716468811035156,0.14516909420490265
1695713650993291500,17.10129150390625,0.06962728500366211,-0.02839946746826172,0.15388235449790955
1695713651012365000,17.120364990234375,0.13373994827270508,-0.013772964477539062,0.2548035681247711
1695713651031469000,17.139468994140625,0.07034730911254883,0.011255264282226562,0.2545763850212097
1695713651050542600,17.15854248046875,0.1681346893310547,0.010074615478515625,0.2847902774810791
1695713651069646600,17.177646484375,0.24656128883361816,0.02038860321044922,0.3305651545524597
1695713651088750600,17.19675048828125,0.30735981464385986,-0.3393268585205078,-0.3339674770832062
1695713651107824000,17.21582421875,0.11735367774963379,-0.4291267395019531,0.0711856484413147
1695713651126928100,17.23492822265625,-1.1016820669174194,0.8069038391113281,0.12832285463809967
1695713651146001400,17.25400146484375,-0.27084076404571533,0.2697572708129883,-0.29486972093582153
1695713651165136100,17.27313623046875,0.5285636186599731,-0.0261077880859375,0.40976059436798096
1695713651184240000,17.292240234375,0.42622804641723633,-0.23935317993164062,0.23975667357444763
1695713651203313400,17.3113134765625,-0.19391900300979614,-0.1545419692993164,-0.35627639293670654
1695713651222417400,17.33041748046875,-0.5125409960746765,-0.17320919036865234,-0.5209282636642456
1695713651241491000,17.349490966796875,-0.4007532000541687,-0.277923583984375,0.3461475074291229
1695713651260595000,17.368594970703125,-0.33606743812561035,-0.10154914855957031,0.4738677740097046
1695713651279668500,17.38766845703125,-0.14147859811782837,-0.0007495880126953125,0.06922206282615662
1695713651298772500,17.4067724609375,0.4311332106590271,0.0043182373046875,-0.20358718931674957
1695713651317876500,17.42587646484375,0.12454366683959961,0.10378265380859375,-0.18825171887874603
1695713651336950000,17.444949951171875,-0.12355935573577881,0.11055946350097656,-0.0324532613158226
1695713651356054000,17.464053955078125,-0.1868939995765686,0.03085613250732422,-0.0058318451046943665
1695713651375127600,17.48312744140625,-0.27497565746307373,-0.04759788513183594,0.15753887593746185
1695713651394231600,17.5022314453125,-0.30096572637557983,-0.06302070617675781,0.28013160824775696
1695713651413305000,17.52130517578125,0.0073618292808532715,-0.10657119750976562,0.2656020224094391
1695713651432409000,17.5404091796875,0.09234338998794556,-0.10977649688720703,0.14504358172416687
1695713651451543600,17.55954345703125,0.17353880405426025,-0.08701705932617188,0.0828031599521637
1695713651470617000,17.5786171875,0.07273316383361816,-0.020538330078125,0.15423034131526947
1695713651489721000,17.59772119140625,-0.13440263271331787,0.04349994659423828,0.08502822369337082
1695713651508794400,17.61679443359375,0.05028414726257324,0.0031919479370117188,0.10077450424432755
1695713651527898400,17.6358984375,0.35220032930374146,0.025472640991210938,0.2516087293624878
1695713651546972000,17.654971923828125,0.175306499004364,-0.059332847595214844,0.24124900996685028
1695713651566076000,17.674075927734375,-0.03741347789764404,-0.049559593200683594,0.24803027510643005
1695713651585180000,17.693179931640625,-0.1970178484916687,0.01703357696533203,0.16392800211906433
1695713651604253400,17.71225341796875,-0.09931755065917969,-0.060730934143066406,-0.41406863927841187
1695713651623357400,17.731357421875,0.35551613569259644,-0.4738426208496094,-0.272826611995697
1695713651642431000,17.750430908203125,-1.224752426147461,0.29807567596435547,0.2760613262653351
1695713651661535000,17.769534912109375,-0.4777957797050476,0.4179811477661133,-0.30995988845825195
1695713651680608500,17.7886083984375,0.49376893043518066,0.2363748550415039,0.0726751983165741
1695713651699712500,17.80771240234375,-0.28253430128097534,0.21681499481201172,0.12711837887763977
1695713651718816500,17.82681640625,-0.2384142279624939,-0.17590999603271484,-0.3384301960468292
1695713651737920500,17.84592041015625,0.0003426074981689453,-0.33440113067626953,-0.0729600340127945
1695713651757024500,17.8650244140625,-0.1960010528564453,-0.23334789276123047,0.5022405982017517
1695713651776098000,17.88409814453125,-0.5058019161224365,-0.008922576904296875,0.4166859984397888
1695713651795202000,17.9032021484375,-0.17697441577911377,0.044005393981933594,0.18608002364635468
1695713651814275300,17.922275390625,0.33208149671554565,0.09599781036376953,-0.290267676115036
1695713651833379300,17.94137939453125,0.38394641876220703,0.1203317642211914,-0.3031845986843109
1695713651852483300,17.9604833984375,0.10440784692764282,0.06845569610595703,-0.030863523483276367
1695713651871556900,17.979556884765625,-0.2908706068992615,0.04105091094970703,0.2209865301847458
1695713651890660900,17.998660888671875,-0.21436691284179688,-0.040737152099609375,0.43744927644729614
1695713651909734400,18.017734375,-0.17961668968200684,-0.09985065460205078,0.2174888551235199
1695713651928838400,18.03683837890625,0.11814862489700317,-0.07570934295654297,0.006748795509338379
1695713651947912000,18.055911865234375,0.15173965692520142,-0.052761077880859375,-0.04611942172050476
1695713651967016000,18.075015869140625,0.092448890209198,0.015103340148925781,0.021954625844955444
1695713651986120000,18.094119873046875,0.18966901302337646,0.005793571472167969,0.14230318367481232
1695713652005193500,18.113193359375,0.055819928646087646,-0.042876243591308594,0.12646952271461487
1695713652024328000,18.132327880859375,-0.13936132192611694,-0.04802131652832031,-0.01245950162410736
1695713652043401500,18.1514013671875,-0.12370842695236206,-0.03524303436279297,-0.13424211740493774
1695713652062505500,18.17050537109375,-0.059831082820892334,-0.019928932189941406,-0.21846313774585724
1695713652081609500,18.189609375,-0.0007007122039794922,0.019209861755371094,-0.10070829093456268
1695713652100683000,18.20868310546875,-0.0505901575088501,0.06415176391601562,0.07452738285064697
1695713652119787000,18.227787109375,-0.11773258447647095,0.016631126403808594,0.16127049922943115
1695713652138860300,18.2468603515625,-0.08285361528396606,-0.013112068176269531,0.09915773570537567
1695713652157964300,18.26596435546875,-0.027214348316192627,-0.015511512756347656,0.041721031069755554
1695713652177037800,18.285037841796875,-0.010090947151184082,-0.030938148498535156,-0.032550156116485596
1695713652196141800,18.304141845703125,-0.01701509952545166,-0.0072574615478515625,-0.04249367117881775
1695713652215245800,18.323245849609375,-0.021195828914642334,-0.03572273254394531,0.0963388979434967
1695713652234319400,18.3423193359375,-0.060754239559173584,-0.023977279663085938,0.14275966584682465
1695713652253423400,18.36142333984375,-0.0406879186630249,-0.00275421142578125,0.09020425379276276
1695713652272497000,18.380496826171875,-0.04243505001068115,-0.012255668640136719,0.10997501015663147
1695713652291601000,18.399600830078125,0.02545464038848877,-0.0004901885986328125,0.17592120170593262
1695713652310705000,18.418704833984375,0.0023972392082214355,0.019515037536621094,0.17069196701049805
1695713652329809000,18.437808837890625,-0.08554583787918091,-0.005568504333496094,0.10550180077552795
1695713652348913000,18.456912841796875,-0.022378623485565186,-0.022325515747070312,0.04480746388435364
1695713652367986400,18.475986328125,0.01702284812927246,-0.034366607666015625,0.06561768054962158
1695713652387090400,18.49509033203125,-0.008009791374206543,-0.04639244079589844,0.1280508041381836
1695713652406164000,18.5141640625,-0.029738664627075195,-0.008749008178710938,0.16325479745864868
1695713652425268000,18.53326806640625,-0.08789515495300293,-0.030366897583007812,0.12146243453025818
1695713652444341200,18.55234130859375,-0.04911494255065918,-0.018711090087890625,0.06452548503875732
1695713652463445200,18.5714453125,-0.10552364587783813,-0.022480010986328125,0.038624733686447144
1695713652482549200,18.59054931640625,-0.1327933669090271,-0.0036725997924804688,-0.015053868293762207
1695713652501622800,18.609622802734375,-0.08424872159957886,0.0009374618530273438,0.020913422107696533
1695713652520726800,18.628726806640625,-0.07638514041900635,-0.02878284454345703,0.04368680715560913
1695713652539800300,18.64780029296875,-0.10420072078704834,0.0031995773315429688,0.03905811905860901
1695713652558904300,18.666904296875,-0.123859703540802,0.015046119689941406,0.03639501333236694
1695713652577977900,18.685977783203125,-0.10101217031478882,0.02100372314453125,0.027529001235961914
1695713652597112300,18.7051123046875,-0.020077526569366455,0.013965606689453125,0.0005858540534973145
1695713652616216300,18.72421630859375,-0.016109347343444824,-0.04527568817138672,-0.007506012916564941
1695713652635289900,18.743289794921875,-0.021705985069274902,-0.036980628967285156,-0.0017955601215362549
1695713652654393900,18.762393798828125,-0.0373801589012146,-0.022741317749023438,0.013829588890075684
1695713652673467400,18.78146728515625,-0.10060876607894897,-0.0013990402221679688,-0.03875693678855896
1695713652692571400,18.8005712890625,-0.05354487895965576,-0.026247024536132812,-0.012964993715286255
1695713652711645000,18.81964501953125,-0.06306028366088867,-0.013132095336914062,-0.04360070824623108
1695713652730749000,18.8387490234375,-0.08925473690032959,-0.004772186279296875,-0.04834866523742676
1695713652749853000,18.85785302734375,-0.042418718338012695,-0.009367942810058594,-0.045183926820755005
1695713652768926200,18.87692626953125,-0.04109233617782593,-0.015152931213378906,-0.047614485025405884
1695713652788053000,18.896052978515623,-0.06612253189086914,0.01459503173828125,-0.022005975246429443
1695713652807126500,18.91512646484375,0.015784740447998047,0.008818626403808594,0.005521863698959351
1695713652826230500,18.93423046875,-0.036042749881744385,-0.00653839111328125,-0.008069872856140137
1695713652845304000,18.953303955078123,0.0044359564781188965,-0.0265655517578125,0.026232272386550903
1695713652864408000,18.972407958984373,-0.05307120084762573,-0.005217552185058594,0.015735000371932983
1695713652883542500,18.99154248046875,0.007291436195373535,-0.02060413360595703,0.0027253925800323486
1695713652902616000,19.010615966796873,-0.017385661602020264,-0.005122184753417969,0.010114580392837524
1695713652921720000,19.029719970703123,-0.03786599636077881,0.001995086669921875,0.0530690997838974
1695713652940793600,19.048793701171874,-0.033116698265075684,0.0019750595092773438,0.06701904535293579
1695713652959897600,19.067897705078124,-0.04147988557815552,-0.021734237670898438,0.027126044034957886
1695713652978971100,19.08697119140625,-0.02068150043487549,-0.01587963104248047,0.0265941321849823
1695713652998075100,19.1060751953125,0.05908608436584473,-0.014707565307617188,0.08135776221752167
1695713653017179100,19.12517919921875,-0.06746524572372437,0.01720428466796875,0.08179420232772827
1695713653036252400,19.14425244140625,0.06411612033843994,-0.012471199035644531,0.05671676993370056
1695713653055356400,19.1633564453125,0.09870350360870361,-0.004291534423828125,0.10828070342540741
1695713653074430000,19.182429931640623,-0.15034496784210205,-0.033061981201171875,0.04378816485404968
1695713653093534000,19.201533935546873,-0.05528759956359863,-0.026269912719726562,0.014096826314926147
1695713653112638000,19.220637939453123,0.038093626499176025,-0.031284332275390625,0.014345139265060425
1695713653131711500,19.23971142578125,0.028222501277923584,-0.05409717559814453,0.04422549903392792
1695713653150815500,19.2588154296875,-0.008299171924591064,-0.010645866394042969,0.10322064161300659
1695713653169919500,19.27791943359375,-0.12414723634719849,0.0055103302001953125,0.06633374094963074
1695713653189023500,19.2970234375,-0.12307924032211304,-0.0066623687744140625,0.031309306621551514
1695713653208097000,19.316096923828123,-0.10844111442565918,-0.01992511749267578,0.020238637924194336
1695713653227201000,19.335200927734373,-0.11219972372055054,-0.01656818389892578,0.026964157819747925
1695713653246305000,19.354304931640623,-0.1167299747467041,0.011740684509277344,0.04683259129524231
1695713653265378600,19.373378662109374,-0.14665430784225464,-0.007313728332519531,0.06399241089820862
1695713653284482600,19.392482666015624,-0.1520630121231079,0.006869316101074219,0.03220008313655853
1695713653303556000,19.41155615234375,-0.11210846900939941,0.016417503356933594,0.000588536262512207
1695713653322660000,19.43066015625,-0.07255709171295166,0.0000743865966796875,-0.009236253798007965
1695713653341733400,19.4497333984375,-0.08862775564193726,-0.01631450653076172,0.021401219069957733
1695713653360837400,19.46883740234375,-0.051924049854278564,0.014765739440917969,0.027999863028526306
1695713653379941400,19.48794140625,-0.023873746395111084,-0.0038881301879882812,0.05239797383546829
1695713653399015000,19.507014892578123,-0.006557345390319824,0.009459495544433594,-0.01909380406141281
1695713653418119000,19.526118896484373,0.1342446208000183,-0.023342132568359375,0.012161076068878174
1695713653437192400,19.5451923828125,0.02771216630935669,0.005419731140136719,0.058072395622730255
1695713653456327000,19.564326904296873,0.02425938844680786,0.0021467208862304688,0.18565630912780762
1695713653475400400,19.583400390625,-0.045518338680267334,0.03675270080566406,0.2805403470993042
1695713653494504400,19.60250439453125,-0.08438211679458618,0.03562164306640625,0.3334553837776184
1695713653513608400,19.6216083984375,-0.009021520614624023,-0.048424720764160156,0.25708359479904175
1695713653532682000,19.640681884765623,-0.16064518690109253,-0.014055252075195312,0.024967454373836517
1695713653551786000,19.659785888671873,-0.11006605625152588,-0.018642425537109375,-0.010209016501903534
1695713653570859500,19.678859619140624,-0.09700596332550049,-0.010026931762695312,0.05681456997990608
1695713653589963500,19.697963623046874,-0.05673646926879883,-0.053610801696777344,0.2590661346912384
1695713653609037000,19.717037109375,-0.02171260118484497,-0.03556060791015625,0.1772681325674057
1695713653628141000,19.73614111328125,0.02819293737411499,-0.04596424102783203,0.14906740188598633
1695713653647245000,19.7552451171875,0.0962938666343689,-0.0883932113647461,0.09631972014904022
1695713653666318300,19.774318359375,0.03728461265563965,-0.050423622131347656,-0.0294414684176445
1695713653685422300,19.79342236328125,0.029745817184448242,-0.06577491760253906,-0.03426706790924072
1695713653704495900,19.812495849609373,0.01994103193283081,-0.013734817504882812,-0.045346736907958984
1695713653723600000,19.831599853515623,0.043894827365875244,0.0027284622192382812,-0.012116070836782455
1695713653742703900,19.850703857421873,-0.02681136131286621,-0.030510902404785156,0.05589810013771057
1695713653761808000,19.869807861328123,-0.1609681248664856,0.007233619689941406,-0.009185552597045898
1695713653780911900,19.888911865234373,-0.02700144052505493,0.0036468505859375,-0.07435117661952972
1695713653799985400,19.9079853515625,-0.18462246656417847,-0.008305549621582031,-0.11046847701072693
1695713653819089400,19.92708935546875,0.009853005409240723,-0.023616790771484375,0.06143546104431152
1695713653838163000,19.946162841796873,-0.1160387396812439,-0.018917083740234375,0.03488000109791756
1695713653857267000,19.965266845703123,-0.14580929279327393,-0.009454727172851562,-0.025703612715005875
1695713653876340500,19.984340576171874,-0.019592761993408203,0.0025129318237304688,0.012222621589899063
1695713653895444500,20.003444580078124,-0.04411959648132324,-0.0032501220703125,0.09666649997234344
1695713653914548500,20.022548583984374,-0.1424662470817566,0.0146942138671875,0.05146855115890503
1695713653933622000,20.0416220703125,-0.10889273881912231,-0.0003833770751953125,-0.02323136478662491
1695713653952726000,20.06072607421875,-0.0862274169921875,0.0224609375,-0.009104643017053604
1695713653971799300,20.07979931640625,0.04463726282119751,-0.012598991394042969,0.12464654445648193
1695713653990903300,20.0989033203125,-0.00458759069442749,-0.015773773193359375,0.1464693695306778
1695713654009976800,20.117976806640623,-0.1122199296951294,-0.007222175598144531,0.04997539520263672
1695713654029111300,20.137111328125,0.03923678398132324,-0.010426521301269531,-0.0023426301777362823
1695713654048215300,20.15621533203125,0.09742480516433716,-0.052715301513671875,0.0679159164428711
1695713654067288800,20.175288818359373,-0.04166489839553833,-0.053687095642089844,0.10638926923274994
1695713654086392800,20.194392822265623,-0.008697748184204102,-0.02274322509765625,0.039319057017564774
1695713654105466400,20.21346630859375,0.0730181336402893,-0.04270458221435547,0.05977317690849304
1695713654124570400,20.2325703125,-0.0012181401252746582,-0.04032325744628906,0.1151537299156189
1695713654143674400,20.25167431640625,-0.00002086162567138672,-0.033199310302734375,0.1214522272348404
1695713654162748000,20.270747802734373,-0.08495491743087769,0.0058078765869140625,0.049022041261196136
1695713654181852000,20.289851806640623,0.03399384021759033,-0.030904769897460938,0.047566480934619904
1695713654200925400,20.308925537109374,-0.01128309965133667,-0.04039573669433594,0.10706831514835358
1695713654220029400,20.328029541015624,-0.03338390588760376,-0.01792621612548828,0.05213364586234093
1695713654239103000,20.34710302734375,-0.06720477342605591,0.002140045166015625,0.0448007807135582
1695713654258207000,20.36620703125,-0.041585683822631836,-0.03583717346191406,0.04025919735431671
1695713654277311000,20.38531103515625,0.044458210468292236,-0.03822803497314453,0.06446842104196548
1695713654296384300,20.40438427734375,-0.01506263017654419,-0.05374336242675781,0.05648822709918022
1695713654315519000,20.42351904296875,-0.03296142816543579,-0.017145156860351562,0.0682862401008606
1695713654334592300,20.44259228515625,-0.11066430807113647,-0.011298179626464844,0.02502051368355751
1695713654353696300,20.4616962890625,-0.08060026168823242,-0.011335372924804688,-0.028957344591617584
1695713654372769800,20.480769775390623,-0.027304887771606445,-0.012475967407226562,-0.030288342386484146
1695713654391873800,20.499873779296873,-0.08198577165603638,-0.013658523559570312,0.013488974422216415
1695713654410977800,20.518977783203123,-0.1132277250289917,-0.02429676055908203,0.054667528718709946
1695713654430051300,20.53805126953125,-0.15401172637939453,-0.011239051818847656,0.029478561133146286
1695713654449155300,20.5571552734375,-0.1969202756881714,-0.01822948455810547,-0.05957240238785744
1695713654468228900,20.576228759765623,-0.17616868019104004,0.05906963348388672,-0.1035725548863411
1695713654487332900,20.595332763671873,0.01818627119064331,0.04187488555908203,-0.027263712137937546
1695713654506406400,20.614406494140624,-0.03976207971572876,-0.0025653839111328125,0.00567471981048584
1695713654525510400,20.633510498046874,-0.010457932949066162,-0.014962196350097656,0.09329229593276978
1695713654544614400,20.652614501953124,-0.017985939979553223,0.011743545532226562,0.03467172384262085
1695713654563688000,20.67168798828125,-0.029470086097717285,-0.010183334350585938,-0.0032538697123527527
1695713654582792000,20.6907919921875,0.08067023754119873,-0.012001991271972656,0.03450038284063339
1695713654601896000,20.70989599609375,0.1492171287536621,-0.011448860168457031,0.08793710172176361
1695713654621000000,20.729,0.08952724933624268,-0.046601295471191406,0.09002428501844406
1695713654640073200,20.7480732421875,0.05109083652496338,-0.03566932678222656,0.11389334499835968
1695713654659177200,20.76717724609375,0.047355055809020996,-0.05209636688232422,0.16406042873859406
1695713654678281200,20.78628125,-0.020464062690734863,-0.04854774475097656,0.0617126040160656
1695713654697354800,20.805354736328123,0.015781283378601074,-0.03320121765136719,0.06402784585952759
1695713654716458800,20.824458740234373,0.00973653793334961,-0.0250091552734375,0.0691656619310379
1695713654735532300,20.8435322265625,-0.016806721687316895,-0.026406288146972656,0.11051183938980103
1695713654754636300,20.86263623046875,-0.07145631313323975,-0.027727127075195312,0.09632028639316559
1695713654773709800,20.881709716796873,-0.18082654476165771,-0.018387794494628906,0.07552461326122284
1695713654792813800,20.900813720703123,-0.02787303924560547,-0.004197120666503906,0.08593624830245972
1695713654811917800,20.919917724609373,-0.04898476600646973,-0.005390167236328125,0.023993350565433502
1695713654830991400,20.938991455078124,-0.015823841094970703,-0.016037940979003906,-0.0065969862043857574
1695713654850095400,20.958095458984374,0.026158928871154785,-0.01117706298828125,0.037988726049661636
1695713654869168600,20.977168701171873,0.03736317157745361,-0.046629905700683594,0.10971669107675552
1695713654888303400,20.996303466796874,-0.00033462047576904297,-0.0016431808471679688,0.09177525341510773
1695713654907377000,21.015376953125,-0.029645919799804688,0.0135955810546875,0.05869508534669876
1695713654926511400,21.034511474609374,0.04103875160217285,-0.03630828857421875,0.07591859996318817
1695713654945585000,21.0535849609375,0.01307976245880127,-0.03409385681152344,-0.00006964057683944702
1695713654964658200,21.072658203125,-0.018526554107666016,-0.012930870056152344,-0.037980951368808746
1695713654983762200,21.09176220703125,-0.011836767196655273,-0.03441810607910156,-0.0019298270344734192
1695713655002835700,21.110835693359373,0.016396284103393555,-0.029854774475097656,0.07788290083408356
1695713655021939700,21.129939697265623,-0.002959012985229492,0.0031147003173828125,0.08581966906785965
1695713655041043700,21.149043701171873,0.05465281009674072,-0.014776229858398438,0.09213975071907043
1695713655060117200,21.1681171875,0.04665076732635498,-0.028049468994140625,0.14894422888755798
1695713655079221200,21.18722119140625,-0.04840046167373657,-0.01537322998046875,0.09421839565038681
1695713655098294800,21.206294677734373,-0.11584627628326416,-0.00035381317138671875,-0.001426704227924347
1695713655117398800,21.225398681640623,-0.0900687575340271,-0.037339210510253906,-0.027040906250476837
1695713655136472300,21.244472412109374,-0.024628162384033203,-0.04818534851074219,0.011083714663982391
1695713655155576300,21.263576416015624,-0.05415773391723633,-0.014049530029296875,0.027823545038700104
1695713655174710800,21.282710693359373,-0.00031322240829467773,0.015364646911621094,0.04595640301704407
1695713655193784300,21.301784423828124,-0.06284075975418091,-0.0014677047729492188,0.0325850248336792
1695713655212888300,21.320888427734374,0.0315929651260376,0.008980751037597656,0.016454622149467468
1695713655231961900,21.3399619140625,-0.014151930809020996,-0.0066814422607421875,-0.028236374258995056
1695713655251065900,21.35906591796875,-0.08096951246261597,-0.061492919921875,-0.04324789345264435
1695713655270139100,21.37813916015625,-0.001361846923828125,-0.015463829040527344,-0.02957722544670105
1695713655289243100,21.3972431640625,-0.06746190786361694,-0.040497779846191406,-0.09429062902927399
1695713655308347100,21.41634716796875,-0.024203777313232422,-0.021654129028320312,0.001185297966003418
1695713655327420700,21.435420654296873,-0.07377475500106812,-0.01004791259765625,0.01529046893119812
1695713655346524700,21.454524658203123,-0.06455725431442261,-0.0031147003173828125,0.0659056156873703
1695713655365598200,21.47359814453125,-0.06418800354003906,-0.00086212158203125,0.067405104637146
1695713655384702200,21.4927021484375,-0.13100558519363403,-0.011582374572753906,0.006462559103965759
1695713655403775700,21.511775634765623,-0.14111357927322388,0.008642196655273438,-0.071078360080719
1695713655422879700,21.530879638671873,-0.00019991397857666016,-0.002948760986328125,-0.03590597212314606
1695713655441983700,21.549983642578123,0.03583085536956787,-0.01808929443359375,0.06047384440898895
1695713655461087700,21.569087646484373,0.027419090270996094,-0.022663116455078125,0.17695866525173187
1695713655480191700,21.588191650390623,-0.1465497612953186,0.004627227783203125,0.07014241814613342
1695713655499265300,21.607265380859374,-0.08094549179077148,0.02124309539794922,-0.013816148042678833
1695713655518369300,21.626369384765624,0.03267979621887207,-0.018793106079101562,0.018445953726768494
1695713655537442800,21.64544287109375,-0.004461944103240967,-0.017442703247070312,0.030040159821510315
1695713655556546800,21.664546875,-0.04566985368728638,-0.010228157043457031,0.0319998562335968
1695713655575650800,21.68365087890625,-0.024197936058044434,-0.010207176208496094,0.0999656468629837
1695713655594724000,21.70272412109375,-0.004193305969238281,-0.016065597534179688,0.10070373117923737
1695713655613828000,21.721828125,-0.07909631729125977,-0.021965980529785156,-0.021786034107208252
1695713655632901600,21.740901611328123,0.052974700927734375,-0.027701377868652344,-0.0035889148712158203
1695713655652005600,21.760005615234373,-0.017080187797546387,-0.016900062561035156,-0.04572145640850067
1695713655671079200,21.7790791015625,0.013408660888671875,-0.025119781494140625,-0.004624217748641968
1695713655690183200,21.79818310546875,-0.06365656852722168,0.013972282409667969,-0.0023550838232040405
1695713655709287200,21.817287109375,-0.043735384941101074,0.007984161376953125,-0.0552181750535965
1695713655728360700,21.836360595703123,0.03755253553390503,-0.035874366760253906,-0.025400832295417786
1695713655747495200,21.8554951171875,0.014212369918823242,-0.06078338623046875,-0.004449397325515747
1695713655766568700,21.874568603515623,-0.010623693466186523,-0.006289482116699219,-0.014851689338684082
1695713655785672700,21.893672607421873,-0.029493093490600586,-0.005138397216796875,-0.013837158679962158
1695713655804746200,21.912746337890624,-0.02455693483352661,0.0007457733154296875,-0.08654727041721344
1695713655823850200,21.931850341796874,0.00793546438217163,-0.026558876037597656,-0.09933838248252869
1695713655842954200,21.950954345703124,0.030264616012573242,-0.061043739318847656,-0.00048638880252838135
1695713655862058200,21.970058349609374,0.008764326572418213,-0.051700592041015625,0.081062912940979
1695713655881131800,21.9891318359375,-0.0371861457824707,0.02987194061279297,0.1460244059562683
1695713655900205000,22.008205078125,-0.06279903650283813,0.012995719909667969,0.21202422678470612
1695713655919309000,22.02730908203125,-0.11073201894760132,0.018607139587402344,0.11599981784820557
1695713655938382600,22.046382568359373,-0.032595813274383545,-0.012359619140625,-0.039314672350883484
1695713655957486600,22.065486572265623,-0.04628485441207886,-0.02318572998046875,-0.14735548198223114
1695713655976590600,22.084590576171873,0.11866652965545654,-0.048104286193847656,-0.13391247391700745
1695713655995664100,22.1036640625,0.03486233949661255,-0.05650138854980469,-0.06191366910934448
1695713656014768000,22.12276806640625,-0.09376668930053711,-0.04005718231201172,0.019845813512802124
1695713656033872100,22.1418720703125,-0.008353352546691895,0.022597312927246094,0.04050871729850769
1695713656052976000,22.16097607421875,-0.11504679918289185,0.006991386413574219,-0.057504698634147644
1695713656072080100,22.180080078125,-0.06675100326538086,-0.020349502563476562,-0.0645485371351242
1695713656091153700,22.199153564453123,0.020884454250335693,-0.04048633575439453,0.02874976396560669
1695713656110257700,22.218257568359373,-0.1448577642440796,-0.01802825927734375,0.06916119158267975
1695713656129331200,22.237331298828124,-0.09067034721374512,0.017553329467773438,0.0709456205368042
1695713656148435200,22.256435302734374,-0.0459936261177063,-0.01666736602783203,0.018907293677330017
1695713656167508700,22.2755087890625,-0.107516348361969,0.01548004150390625,-0.09117625653743744
1695713656186612700,22.29461279296875,-0.11262035369873047,0.0026559829711914062,-0.1774096041917801
1695713656205686000,22.31368603515625,-0.02357161045074463,-0.026630401611328125,-0.15297861397266388
1695713656224790000,22.3327900390625,-0.02089017629623413,-0.059416770935058594,-0.06871300935745239
1695713656243894000,22.35189404296875,0.016583383083343506,-0.04132270812988281,-0.07650868594646454
1695713656262967600,22.370967529296873,0.18715709447860718,-0.045696258544921875,0.053268104791641235
1695713656282071600,22.390071533203123,0.170660138130188,-0.04187965393066406,0.18099156022071838
1695713656301145000,22.40914501953125,0.08629024028778076,0.022096633911132812,0.20727090537548065
1695713656320279600,22.428279541015623,0.03632599115371704,-0.006529808044433594,0.24748115241527557
1695713656339383600,22.447383544921873,-0.0766724944114685,-0.009209632873535156,0.1461278200149536
1695713656358457000,22.46645703125,-0.06691354513168335,-0.0012187957763671875,0.011783450841903687
1695713656377561000,22.48556103515625,0.008017003536224365,-0.0038499832153320312,-0.07402569055557251
1695713656396634600,22.504634521484373,-0.057443976402282715,-0.02191925048828125,-0.08303673565387726
1695713656415738600,22.523738525390623,-0.08871579170227051,0.022851943969726562,-0.04434995353221893
1695713656434812200,22.542812255859374,-0.10684049129486084,0.040358543395996094,-0.0005753636360168457
1695713656453916200,22.561916259765624,-0.012712836265563965,-0.21216106414794922,0.07114779949188232
1695713656473020200,22.581020263671874,-0.04341608285903931,0.05917644500732422,0.09243622422218323
1695713656492093700,22.60009375,0.00033599138259887695,0.01759815216064453,0.12460240721702576
1695713656511197700,22.61919775390625,-0.04136955738067627,0.015092849731445312,0.189266175031662
1695713656530271000,22.63827099609375,-0.09690231084823608,0.023201942443847656,0.17806851863861084
1695713656549375000,22.657375,-0.1870834231376648,-0.000644683837890625,-0.014635376632213593
1695713656568448500,22.676448486328123,0.03212785720825195,-0.02791881561279297,-0.11957971006631851
1695713656587552500,22.695552490234373,0.05249851942062378,-0.019641876220703125,-0.14951413869857788
1695713656606687000,22.71468701171875,0.12375152111053467,-0.04215431213378906,0.013829365372657776
1695713656625760500,22.733760498046873,-0.03358954191207886,-0.06714439392089844,0.07807295769453049
1695713656644864500,22.752864501953123,-0.014414608478546143,-0.03175640106201172,0.06348715722560883
1695713656663938000,22.77193798828125,-0.08564180135726929,-0.07089900970458984,0.16394658386707306
1695713656683042000,22.7910419921875,0.0782056450843811,0.06659126281738281,0.10759516060352325
1695713656702115600,22.810115478515623,-0.04339224100112915,-0.046065330505371094,0.0934411957859993
1695713656721219600,22.829219482421873,-0.6877575516700745,-0.2932100296020508,0.41301730275154114
1695713656740323600,22.848323486328123,0.37113702297210693,0.43050193786621094,-0.3407999277114868
1695713656759397000,22.867397216796874,-0.15228807926177979,-0.005397796630859375,-0.4075068235397339
1695713656778501000,22.886501220703124,0.602234423160553,-0.1689596176147461,0.3443434238433838
1695713656797605000,22.905605224609374,-0.3618987202644348,0.03340721130371094,-0.08926167339086533
1695713656816678700,22.9246787109375,0.06624436378479004,0.05420207977294922,0.02334313839673996
1695713656835752000,22.943751953125,-0.20284098386764526,-0.13419151306152344,-0.07307340204715729
1695713656854856000,22.96285595703125,0.147841215133667,-0.005198478698730469,0.0382731556892395
1695713656873960000,22.9819599609375,-0.0811418890953064,-0.06798744201660156,0.017036430537700653
1695713656893064000,23.00106396484375,0.029811501502990723,-0.000591278076171875,0.001963965594768524
1695713656912168000,23.02016796875,-0.06484931707382202,-0.059891700744628906,0.04113863408565521
1695713656931241500,23.039241455078123,0.056337833404541016,0.14959144592285156,0.14855614304542542
1695713656950345500,23.058345458984373,-0.3164486289024353,0.0037622451782226562,0.034547775983810425
1695713656969480000,23.07747998046875,-0.04732006788253784,-0.4006767272949219,0.04462462663650513
1695713656988523000,23.09652294921875,0.1256980299949646,0.26804637908935547,0.05783456563949585
1695713657007627000,23.115626953125,-0.19283634424209595,-0.13518524169921875,0.06653673201799393
1695713657026700500,23.134700439453123,-0.06984686851501465,0.14700984954833984,-0.14417526125907898
1695713657045804500,23.153804443359373,0.010206639766693115,-0.012834548950195312,-0.05182435363531113
1695713657064878000,23.172878173828124,-0.007227897644042969,-0.04711437225341797,-0.0548408105969429
1695713657083982000,23.191982177734374,-0.0450785756111145,-0.0055713653564453125,-0.022076569497585297
1695713657103086000,23.211086181640624,-0.03689783811569214,-0.02441692352294922,-0.008821859955787659
1695713657122159600,23.23015966796875,-0.03333747386932373,0.012425422668457031,0.06711211800575256
1695713657141263600,23.249263671875,-0.37537670135498047,-0.032235145568847656,0.09641636908054352
1695713657160337000,23.2683369140625,0.2286882996559143,-0.0029592514038085938,-0.10911820828914642
1695713657179471600,23.2874716796875,0.09713947772979736,0.007989883422851562,-0.004626177251338959
1695713657198545000,23.306544921875,-0.05742067098617554,-0.06893157958984375,0.00833149254322052
1695713657217649000,23.32564892578125,-0.024943172931671143,-0.027396202087402344,0.05852019786834717
1695713657236753000,23.3447529296875,-0.13105779886245728,0.02971649169921875,-0.04962104558944702
1695713657255826400,23.363826416015623,0.18053603172302246,-0.14545440673828125,-0.03721056878566742
1695713657274930400,23.382930419921873,0.05344843864440918,0.013601303100585938,0.09727653115987778
1695713657294004000,23.40200390625,-0.1166311502456665,-0.06817817687988281,0.15216338634490967
1695713657313108000,23.42110791015625,-0.025155186653137207,0.049256324768066406,0.09202012419700623
1695713657332181500,23.440181396484373,0.0759548544883728,0.029134750366210938,0.07601535320281982
1695713657351285500,23.459285400390623,0.04127997159957886,-0.044411659240722656,-0.07468076795339584
1695713657370389500,23.478389404296873,0.15435504913330078,-0.10626411437988281,0.01551063358783722
1695713657389463000,23.497463134765624,0.005464732646942139,-0.06303024291992188,-0.004526995122432709
1695713657408567000,23.516567138671874,-0.11478394269943237,-0.039943695068359375,0.06663516908884048
1695713657427640300,23.535640380859373,-0.017587363719940186,0.005728721618652344,-0.016137786209583282
1695713657446744600,23.55474462890625,-0.05494457483291626,-0.09919357299804688,-0.014234624803066254
1695713657465848600,23.5738486328125,-0.14091646671295166,-0.007221221923828125,-0.07755409926176071
1695713657484952600,23.59295263671875,-0.03643113374710083,-0.044356346130371094,-0.02126789093017578
1695713657504056600,23.612056640625,-0.16415691375732422,0.00045490264892578125,0.013360537588596344
1695713657523129900,23.6311298828125,-0.12784922122955322,0.02186107635498047,-0.09770788252353668
1695713657542233900,23.65023388671875,0.18393325805664062,-0.10981941223144531,0.016554921865463257
1695713657561307400,23.669307373046873,0.2200380563735962,0.0651712417602539,-0.24673345685005188
1695713657580411400,23.688411376953123,-0.11867630481719971,0.1211099624633789,-0.18387378752231598
1695713657599485000,23.70748486328125,-0.41328346729278564,-0.3534355163574219,0.38312628865242004
1695713657618589000,23.7265888671875,-0.28280001878738403,-0.1611804962158203,0.08402936905622482
1695713657637693000,23.74569287109375,-0.12834221124649048,-0.15378761291503906,0.1214166134595871
1695713657656766500,23.764766357421873,-0.16054904460906982,0.017580032348632812,-0.10477818548679352
1695713657675870500,23.783870361328123,0.100064218044281,0.1404428482055664,-0.22905749082565308
1695713657694944000,23.802944091796874,0.2523094415664673,0.21562576293945312,-0.15921099483966827
1695713657714048000,23.822048095703124,0.15337419509887695,0.2039937973022461,-0.05068732798099518
1695713657733152000,23.841152099609374,0.1741793155670166,0.08403301239013672,0.03918495774269104
1695713657752256000,23.860256103515624,0.11840444803237915,0.057300567626953125,0.04140663146972656
