time,seconds_elapsed,z,y,x
1695713777510471700,0.1744716796875,0.33905029296875,0.371246337890625,1.33880615234375
1695713777519993300,0.183993408203125,0.140533447265625,0.2215576171875,1.37298583984375
1695713777529545200,0.193545166015625,-0.0848388671875,-0.0164794921875,1.450653076171875
1695713777539097300,0.203097412109375,-0.171661376953125,-0.229644775390625,1.389923095703125
1695713777548649200,0.212649169921875,-0.35003662109375,-0.4925537109375,1.050872802734375
1695713777558170600,0.222170654296875,-0.635833740234375,-0.572357177734375,0.645751953125
1695713777567722800,0.23172265625,-0.40679931640625,-0.3839111328125,0.18218994140625
1695713777577274600,0.241274658203125,0.2996826171875,-0.12237548828125,-0.357818603515625
1695713777586826800,0.25082666015625,0.519866943359375,0.054168701171875,-0.89141845703125
1695713777596378600,0.260378662109375,0.58135986328125,0.029144287109375,-1.314544677734375
1695713777605900300,0.269900390625,0.753021240234375,-0.118408203125,-1.54449462890625
1695713777615452200,0.2794521484375,0.819854736328125,-0.282135009765625,-1.57257080078125
1695713777625004300,0.28900439453125,0.820465087890625,-0.35980224609375,-1.439056396484375
1695713777634556200,0.29855615234375,0.825653076171875,-0.42327880859375,-1.16790771484375
1695713777644138800,0.308138671875,0.68603515625,-0.5072021484375,-0.77972412109375
1695713777653660200,0.31766015625,0.507659912109375,-0.602874755859375,-0.336456298828125
1695713777663212300,0.32721240234375,0.463104248046875,-0.71380615234375,0.110015869140625
1695713777672764200,0.33676416015625,0.449066162109375,-0.83221435546875,0.51788330078125
1695713777682316300,0.34631640625,0.438079833984375,-1.013031005859375,0.839996337890625
1695713777691868200,0.3558681640625,0.428314208984375,-1.13922119140625,1.068572998046875
1695713777701389800,0.365389892578125,0.2667236328125,-1.390838623046875,1.01654052734375
1695713777710941700,0.374941650390625,-0.0677490234375,-1.642913818359375,0.474090576171875
1695713777720493800,0.384493896484375,-0.316619873046875,-1.711883544921875,-0.20599365234375
1695713777730045700,0.394045654296875,-0.251617431640625,-1.674652099609375,-0.659332275390625
1695713777739567000,0.403567138671875,0.064544677734375,-1.588134765625,-0.88470458984375
1695713777749119200,0.413119140625,0.422821044921875,-1.561279296875,-0.988311767578125
1695713777758671000,0.422671142578125,0.71441650390625,-1.642608642578125,-0.978851318359375
1695713777768223200,0.43222314453125,0.91278076171875,-1.5814208984375,-0.85357666015625
1695713777777775000,0.441775146484375,0.889129638671875,-1.295318603515625,-0.670318603515625
1695713777787296800,0.451296875,0.6158447265625,-1.15203857421875,-0.5462646484375
1695713777796848600,0.4608486328125,0.470428466796875,-1.284027099609375,-0.39642333984375
1695713777806400800,0.47040087890625,0.54443359375,-1.646270751953125,-0.223541259765625
1695713777815952600,0.47995263671875,0.699462890625,-2.121124267578125,-0.1007080078125
1695713777825504800,0.4895048828125,0.94970703125,-2.52838134765625,0.038604736328125
1695713777835026200,0.499026123046875,1.156463623046875,-2.803192138671875,0.26031494140625
1695713777844578300,0.508578369140625,1.105499267578125,-2.776947021484375,0.480194091796875
1695713777854130200,0.518130126953125,0.852203369140625,-2.465362548828125,0.56549072265625
1695713777863682300,0.527682373046875,0.57891845703125,-2.19879150390625,0.54931640625
1695713777873203700,0.53720361328125,0.495758056640625,-2.17376708984375,0.52215576171875
1695713777882755600,0.546755615234375,0.535125732421875,-2.308349609375,0.56427001953125
1695713777892307700,0.5563076171875,0.467987060546875,-2.1966552734375,0.691680908203125
1695713777901859600,0.565859619140625,0.442352294921875,-2.036590576171875,0.687408447265625
1695713777911411700,0.57541162109375,0.531463623046875,-1.5972900390625,0.5426025390625
1695713777920963600,0.584963623046875,0.751800537109375,-1.034088134765625,0.2703857421875
1695713777930515700,0.594515625,1.03973388671875,-0.51666259765625,-0.078125
1695713777940067600,0.604067626953125,1.26373291015625,-0.06500244140625,-0.51025390625
1695713777949619700,0.61361962890625,1.3470458984375,0.29876708984375,-0.86669921875
1695713777959171600,0.623171630859375,1.30096435546875,0.471038818359375,-1.039581298828125
1695713777968693200,0.632693359375,1.195831298828125,0.394134521484375,-1.029205322265625
1695713777978245000,0.6422451171875,1.137847900390625,0.1715087890625,-0.86090087890625
1695713777987797200,0.65179736328125,1.092681884765625,-0.0726318359375,-0.589752197265625
1695713777997349000,0.66134912109375,1.01348876953125,-0.194549560546875,-0.308685302734375
1695713778006901200,0.6709013671875,0.963134765625,-0.239715576171875,-0.09796142578125
1695713778016422700,0.680422607421875,1.00372314453125,-0.316009521484375,-0.007171630859375
1695713778025974800,0.689974853515625,1.109771728515625,-0.430908203125,-0.030364990234375
1695713778035526700,0.699526611328125,1.218414306640625,-0.531463623046875,-0.025787353515625
1695713778045078800,0.709078857421875,1.32720947265625,-0.655059814453125,0.115814208984375
1695713778054600200,0.71860009765625,1.485137939453125,-0.8685302734375,0.395965576171875
1695713778064152000,0.728152099609375,1.7315673828125,-1.1474609375,0.752105712890625
1695713778073704200,0.7377041015625,2.09686279296875,-1.421356201171875,1.164398193359375
1695713778083256000,0.747256103515625,2.537078857421875,-1.59149169921875,1.66534423828125
1695713778092808200,0.75680810546875,2.953338623046875,-1.46820068359375,2.188568115234375
1695713778102329600,0.76632958984375,3.257598876953125,-1.21856689453125,2.543792724609375
1695713778111881700,0.7758818359375,3.51226806640625,-0.983734130859375,2.633209228515625
1695713778121433600,0.78543359375,3.85162353515625,-0.985565185546875,2.547149658203125
1695713778130985700,0.79498583984375,3.802490234375,-0.949554443359375,2.480316162109375
1695713778140537600,0.80453759765625,3.50677490234375,-0.76171875,2.41668701171875
1695713778150059300,0.814059326171875,3.22418212890625,-0.650482177734375,2.29766845703125
1695713778159611100,0.823611083984375,3.022308349609375,-0.605010986328125,2.178192138671875
1695713778169163300,0.833163330078125,2.887725830078125,-0.524749755859375,2.066650390625
1695713778178715100,0.842715087890625,2.7691650390625,-0.39642333984375,1.94915771484375
1695713778188236500,0.852236572265625,2.636566162109375,-0.323944091796875,1.853485107421875
1695713778197788700,0.86178857421875,2.447509765625,-0.35400390625,1.851043701171875
1695713778207371300,0.871371337890625,2.226104736328125,-0.348968505859375,1.93817138671875
1695713778216923100,0.880923095703125,2.0184326171875,-0.254669189453125,2.03216552734375
1695713778226475300,0.890475341796875,1.874847412109375,-0.232391357421875,2.03887939453125
1695713778235996700,0.89999658203125,1.830291748046875,-0.349884033203125,1.910552978515625
1695713778245548500,0.909548583984375,1.75201416015625,-0.576324462890625,1.715087890625
1695713778255100700,0.9191005859375,1.6259765625,-0.81756591796875,1.501007080078125
1695713778264652500,0.928652587890625,1.509246826171875,-1.015777587890625,1.3140869140625
1695713778274204700,0.93820458984375,1.4093017578125,-1.08978271484375,1.2164306640625
1695713778283726000,0.94772607421875,1.34796142578125,-1.083984375,1.2640380859375
1695713778293278200,0.9572783203125,1.3348388671875,-1.060943603515625,1.450347900390625
1695713778302830000,0.966830078125,1.42669677734375,-1.10382080078125,1.72210693359375
1695713778312382200,0.97638232421875,1.477203369140625,-1.11175537109375,2.000732421875
1695713778321903600,0.985903564453125,1.34765625,-1.064300537109375,2.222747802734375
1695713778331455700,0.995455810546875,1.120758056640625,-1.07452392578125,2.37762451171875
1695713778341007600,1.005007568359375,0.877227783203125,-1.19659423828125,2.493743896484375
1695713778350559700,1.014559814453125,0.6915283203125,-1.425323486328125,2.610015869140625
1695713778360111600,1.024111572265625,0.5816650390625,-1.741180419921875,2.75543212890625
1695713778369633000,1.033633056640625,0.527191162109375,-2.004852294921875,2.857513427734375
1695713778379185200,1.04318505859375,0.518646240234375,-2.17010498046875,2.858428955078125
1695713778388737000,1.052737060546875,0.528717041015625,-2.1978759765625,2.7398681640625
1695713778398289200,1.0622890625,0.5712890625,-2.065277099609375,2.536163330078125
1695713778407841000,1.071841064453125,0.58868408203125,-1.79443359375,2.29644775390625
1695713778417362700,1.08136279296875,0.494537353515625,-1.4703369140625,2.109832763671875
1695713778426914600,1.09091455078125,0.384063720703125,-1.277313232421875,2.012939453125
1695713778436466700,1.100466796875,0.435943603515625,-1.270904541015625,1.9549560546875
1695713778446018600,1.1100185546875,0.490264892578125,-1.4532470703125,1.923065185546875
1695713778455570700,1.11957080078125,0.534515380859375,-1.615447998046875,1.848297119140625
1695713778465092000,1.129092041015625,0.475616455078125,-1.92626953125,1.490020751953125
1695713778474644200,1.138644287109375,0.55450439453125,-1.60400390625,1.2872314453125
1695713778484196000,1.148196044921875,0.783538818359375,-0.8551025390625,1.36962890625
1695713778493748200,1.157748291015625,0.94146728515625,-0.339508056640625,1.544952392578125
1695713778503300000,1.167300048828125,1.078948974609375,-0.14404296875,1.6497802734375
1695713778512852200,1.176852294921875,1.201324462890625,-0.223846435546875,1.595458984375
1695713778522404000,1.186404052734375,1.31744384765625,-0.598297119140625,1.522979736328125
1695713778531956200,1.195956298828125,1.490631103515625,-0.978546142578125,1.445465087890625
1695713778541508000,1.205508056640625,1.6998291015625,-1.375274658203125,1.420440673828125
1695713778551029500,1.215029541015625,1.881866455078125,-1.756134033203125,1.37725830078125
1695713778560581600,1.22458154296875,1.98883056640625,-2.117462158203125,1.30157470703125
1695713778570133500,1.234133544921875,2.025146484375,-2.2882080078125,1.24786376953125
1695713778579685600,1.243685546875,2.00653076171875,-2.467803955078125,1.28570556640625
1695713778589237500,1.253237548828125,1.920928955078125,-2.63427734375,1.392364501953125
1695713778598759200,1.26275927734375,1.834564208984375,-2.62481689453125,1.474761962890625
1695713778608311000,1.27231103515625,1.77520751953125,-2.5433349609375,1.532440185546875
1695713778617863200,1.28186328125,1.7529296875,-2.493133544921875,1.56646728515625
1695713778627415000,1.2914150390625,1.812896728515625,-2.421417236328125,1.59820556640625
1695713778636936700,1.300936767578125,1.968231201171875,-2.15911865234375,1.64337158203125
1695713778646488600,1.310488525390625,2.210540771484375,-2.045135498046875,1.64337158203125
1695713778656040700,1.320040771484375,2.366943359375,-2.487030029296875,1.28387451171875
1695713778665592600,1.329592529296875,2.4169921875,-2.9864501953125,0.416107177734375
1695713778675144700,1.339144775390625,2.535247802734375,-2.470855712890625,-0.5224609375
1695713778684666000,1.348666015625,2.82806396484375,-1.160888671875,-1.22833251953125
1695713778694218000,1.358218017578125,3.293609619140625,0.3515625,-1.674346923828125
1695713778703770000,1.36777001953125,3.292388916015625,0.5755615234375,-1.65069580078125
1695713778713322000,1.377322021484375,3.165283203125,0.198974609375,-1.397247314453125
1695713778722874000,1.3868740234375,3.23516845703125,0.042877197265625,-1.20086669921875
1695713778732395500,1.3963955078125,3.4429931640625,0.123138427734375,-1.096649169921875
1695713778741947600,1.40594775390625,3.693389892578125,0.374908447265625,-1.073150634765625
1695713778751499500,1.41549951171875,3.868408203125,0.475311279296875,-1.038360595703125
1695713778761051600,1.4250517578125,4.029998779296875,0.18402099609375,-0.960540771484375
1695713778770573000,1.434572998046875,4.14794921875,-0.37811279296875,-0.8154296875
1695713778780155600,1.44415576171875,4.30694580078125,-0.80322265625,-0.606536865234375
1695713778789707500,1.45370751953125,4.55230712890625,-1.034393310546875,-0.327301025390625
1695713778799259600,1.463259765625,4.841156005859375,-1.0858154296875,0.034942626953125
1695713778808811500,1.4728115234375,5.171966552734375,-0.86761474609375,0.465545654296875
1695713778818333200,1.482333251953125,5.513763427734375,-0.4241943359375,0.785369873046875
1695713778827885000,1.491885009765625,5.70465087890625,-0.191802978515625,0.819854736328125
1695713778837437200,1.501437255859375,5.409088134765625,-0.435791015625,0.473480224609375
1695713778846989000,1.510989013671875,4.51202392578125,-0.7220458984375,-0.06103515625
1695713778856541200,1.520541259765625,3.256988525390625,-0.666656494140625,-0.477294921875
1695713778866062600,1.5300625,2.243804931640625,-0.178985595703125,-0.604400634765625
1695713778875614500,1.539614501953125,1.594085693359375,0.473175048828125,-0.4754638671875
1695713778885166600,1.54916650390625,1.118011474609375,0.791778564453125,-0.264739990234375
1695713778894718500,1.558718505859375,0.826263427734375,0.823211669921875,-0.1458740234375
1695713778904270600,1.5682705078125,0.67596435546875,0.742645263671875,-0.16632080078125
1695713778913792000,1.5777919921875,0.6146240234375,0.67962646484375,-0.270843505859375
1695713778923344100,1.58734423828125,0.6488037109375,0.6634521484375,-0.361785888671875
1695713778932896000,1.59689599609375,0.767669677734375,0.6781005859375,-0.345001220703125
1695713778942448000,1.6064482421875,0.905303955078125,0.655517578125,-0.22705078125
1695713778951969500,1.615969482421875,1.0235595703125,0.58258056640625,-0.1068115234375
1695713778961521700,1.625521728515625,1.0723876953125,0.539703369140625,-0.035858154296875
1695713778971073500,1.635073486328125,1.04583740234375,0.528717041015625,0.001983642578125
1695713778980625700,1.644625732421875,0.96343994140625,0.533905029296875,0.018463134765625
1695713778990177500,1.654177490234375,0.854034423828125,0.553741455078125,-0.001678466796875
1695713778999699000,1.663698974609375,0.729217529296875,0.58929443359375,-0.1019287109375
1695713779009251000,1.6732509765625,0.63262939453125,0.64208984375,-0.283050537109375
1695713779018803000,1.682802978515625,0.5712890625,0.71044921875,-0.4913330078125
1695713779028355000,1.69235498046875,0.5462646484375,0.782012939453125,-0.674285888671875
1695713779037907000,1.701906982421875,0.544586181640625,0.846405029296875,-0.80291748046875
1695713779047428600,1.7114287109375,0.5712890625,0.9588623046875,-0.83038330078125
1695713779056980500,1.72098046875,0.66314697265625,1.110992431640625,-0.688629150390625
1695713779066563000,1.73056298828125,0.90087890625,1.219329833984375,-0.45013427734375
1695713779076115000,1.740114990234375,1.194915771484375,1.34796142578125,-0.196533203125
1695713779085636600,1.74963671875,1.130828857421875,1.798095703125,0.062713623046875
1695713779095188500,1.7591884765625,0.776214599609375,2.37274169921875,0.1739501953125
1695713779104740600,1.76874072265625,0.406341552734375,2.933197021484375,-0.021820068359375
1695713779114292500,1.77829248046875,0.140228271484375,3.18817138671875,-0.4534912109375
1695713779123844600,1.7878447265625,0.022735595703125,3.0670166015625,-0.95123291015625
1695713779133366000,1.797365966796875,0.123443603515625,2.610015869140625,-1.29547119140625
1695713779142918100,1.806918212890625,0.25634765625,0.881195068359375,-0.674591064453125
1695713779152470000,1.816469970703125,0.490570068359375,0.30426025390625,-0.034637451171875
1695713779162022100,1.826022216796875,0.61187744140625,0.823516845703125,-0.014190673828125
1695713779171574000,1.835573974609375,0.6396484375,0.9747314453125,-0.13671875
1695713779181095400,1.845095458984375,0.740203857421875,0.28533935546875,-0.260162353515625
1695713779190647600,1.8546474609375,0.97991943359375,-0.650482177734375,-0.17608642578125
1695713779200199400,1.864199462890625,1.2725830078125,-0.830078125,-0.09735107421875
1695713779209751600,1.87375146484375,1.497039794921875,-0.4083251953125,0.084381103515625
1695713779219273000,1.88327294921875,1.544342041015625,0.167999267578125,0.294036865234375
1695713779228825000,1.8928251953125,1.3665771484375,0.471954345703125,0.356903076171875
1695713779238377000,1.902376953125,1.01409912109375,0.21087646484375,0.12359619140625
1695713779247929000,1.91192919921875,0.62774658203125,-0.41748046875,-0.16998291015625
1695713779257481000,1.92148095703125,0.438079833984375,-1.146240234375,-0.255584716796875
1695713779267002600,1.931002685546875,0.5706787109375,-1.89849853515625,-0.111083984375
1695713779276554500,1.940554443359375,1.151580810546875,-2.16552734375,-0.010833740234375
1695713779286106600,1.950106689453125,1.839447021484375,-2.012786865234375,0.11474609375
1695713779295658500,1.959658447265625,2.5152587890625,-1.635589599609375,0.24078369140625
1695713779305210600,1.969210693359375,2.904510498046875,-1.14044189453125,0.353851318359375
1695713779314732000,1.97873193359375,3.047943115234375,-0.7122802734375,0.47698974609375
1695713779324284000,1.988283935546875,3.004302978515625,-0.70098876953125,0.650482177734375
1695713779333836000,1.9978359375,2.8497314453125,-1.016082763671875,0.760650634765625
1695713779343388000,2.007387939453125,2.4822998046875,-1.80023193359375,0.48095703125
1695713779352940000,2.01693994140625,2.215423583984375,-1.78802490234375,0.213623046875
1695713779362492000,2.026491943359375,2.1282958984375,-1.13739013671875,0.16204833984375
1695713779372044000,2.0360439453125,2.06085205078125,-0.586395263671875,0.105438232421875
1695713779381596000,2.045595947265625,2.00408935546875,-0.48736572265625,-0.000762939453125
1695713779391148000,2.05514794921875,2.0318603515625,-0.637664794921875,0.24444580078125
1695713779400669400,2.06466943359375,2.108154296875,-0.849609375,0.83526611328125
1695713779410221600,2.0742216796875,2.185211181640625,-1.009063720703125,1.538238525390625
1695713779419773400,2.0837734375,2.251434326171875,-1.177978515625,1.97418212890625
1695713779429325600,2.09332568359375,1.866302490234375,-1.52191162109375,1.493682861328125
1695713779438877400,2.10287744140625,0.410919189453125,-2.433319091796875,1.085052490234375
1695713779448399000,2.112399169921875,-0.916595458984375,-3.106231689453125,1.483001708984375
1695713779457951000,2.121950927734375,-1.250152587890625,-2.137451171875,2.117156982421875
1695713779467503000,2.131503173828125,-1.124267578125,-0.34088134765625,2.487335205078125
1695713779477055000,2.141054931640625,-0.972442626953125,0.97442626953125,2.873687744140625
1695713779486607000,2.150607177734375,-1.19659423828125,1.613922119140625,3.206939697265625
1695713779496128500,2.16012841796875,-2.398529052734375,1.223907470703125,2.6397705078125
1695713779505680400,2.169680419921875,-3.95538330078125,0.21820068359375,1.5850830078125
1695713779515232500,2.179232421875,-4.381103515625,-0.7073974609375,0.691070556640625
1695713779524784400,2.188784423828125,-3.552093505859375,0.178985595703125,0.966796875
1695713779534306000,2.19830615234375,-2.339935302734375,0.792083740234375,1.051788330078125
1695713779543858000,2.20785791015625,-1.312103271484375,0.58135986328125,0.810394287109375
1695713779553410000,2.21741015625,-0.619354248046875,0.008087158203125,0.60760498046875
1695713779562962000,2.2269619140625,-0.3387451171875,-0.515289306640625,0.442352294921875
1695713779572514000,2.23651416015625,-0.3533935546875,-0.828857421875,0.2301025390625
1695713779582035500,2.246035400390625,-0.460205078125,-0.984039306640625,-0.026092529296875
1695713779591587600,2.255587646484375,-0.551910400390625,-1.129150390625,-0.256195068359375
1695713779601139500,2.265139404296875,-0.572052001953125,-1.344451904296875,-0.42572021484375
1695713779610691600,2.274691650390625,-0.5120849609375,-1.568603515625,-0.5584716796875
1695713779620243500,2.284243408203125,-0.4498291015625,-1.77581787109375,-0.685882568359375
1695713779629764900,2.293764892578125,-0.48797607421875,-2.054901123046875,-0.977935791015625
1695713779639347500,2.303347412109375,-0.40130615234375,-1.78955078125,-1.130523681640625
1695713779648899600,2.312899658203125,-0.195465087890625,-1.08612060546875,-1.044158935546875
1695713779658451500,2.322451416015625,0.006561279296875,-0.34515380859375,-0.8782958984375
1695713779668003600,2.332003662109375,0.146331787109375,0.1995849609375,-0.82550048828125
1695713779677525000,2.34152490234375,0.2105712890625,0.434722900390625,-0.986480712890625
1695713779687076900,2.351076904296875,0.23223876953125,0.33966064453125,-1.410064697265625
1695713779696629000,2.36062890625,0.23406982421875,0.037078857421875,-2.0159912109375
1695713779706180900,2.370180908203125,0.2325439453125,-0.34698486328125,-2.66632080078125
1695713779715702500,2.37970263671875,0.2410888671875,-0.7025146484375,-3.214874267578125
1695713779725254400,2.38925439453125,0.20294189453125,-0.87738037109375,-3.613739013671875
1695713779734806500,2.398806640625,0.098114013671875,-0.928802490234375,-3.853302001953125
1695713779744358400,2.4083583984375,-0.0360107421875,-1.005096435546875,-3.975372314453125
1695713779753910500,2.41791064453125,-0.182342529296875,-0.941314697265625,-3.962860107421875
1695713779763432000,2.427431884765625,-0.3546142578125,-0.641021728515625,-3.77166748046875
1695713779772984000,2.436984130859375,-0.519256591796875,-0.218048095703125,-3.427734375
1695713779782536000,2.446535888671875,-0.561370849609375,0.21759033203125,-2.904510498046875
1695713779792088000,2.456088134765625,-0.51055908203125,0.464630126953125,-2.34649658203125
1695713779801640000,2.465639892578125,-0.48065185546875,0.464935302734375,-1.92962646484375
1695713779811161300,2.475161376953125,-0.487060546875,0.347900390625,-1.66473388671875
1695713779820713500,2.48471337890625,-0.37445068359375,0.21392822265625,-1.419219970703125
1695713779830265300,2.494265380859375,-0.11260986328125,0.2362060546875,-1.278076171875
1695713779839817500,2.5038173828125,0.148773193359375,0.513153076171875,-1.371002197265625
1695713779849339000,2.5133388671875,0.181884765625,0.99639892578125,-1.66595458984375
1695713779858891000,2.52289111328125,0.086822509765625,1.175384521484375,-2.121124267578125
1695713779868443000,2.53244287109375,-0.0244140625,0.97991943359375,-2.526092529296875
1695713779877995000,2.5419951171875,-0.09063720703125,0.70587158203125,-2.74383544921875
1695713779887547000,2.551546875,-0.072021484375,0.502471923828125,-2.72552490234375
1695713779897068500,2.561068603515625,0.005340576171875,0.440521240234375,-2.500152587890625
1695713779906620400,2.570620361328125,0.118560791015625,0.474090576171875,-2.127227783203125
1695713779916172500,2.580172607421875,0.23529052734375,0.528106689453125,-1.721343994140625
1695713779925755000,2.5897548828125,0.33111572265625,0.556640625,-1.385040283203125
1695713779935307000,2.59930712890625,0.420684814453125,0.594482421875,-1.13983154296875
1695713779944828400,2.608828369140625,0.507354736328125,0.6964111328125,-0.969390869140625
1695713779954380500,2.618380615234375,0.57159423828125,0.829315185546875,-0.86273193359375
1695713779963932400,2.627932373046875,0.59783935546875,0.98052978515625,-0.79742431640625
1695713779973484500,2.637484619140625,0.60089111328125,1.104278564453125,-0.744781494140625
1695713779983006000,2.647005859375,0.5877685546875,1.149444580078125,-0.670928955078125
1695713779992557800,2.656557861328125,0.560302734375,1.103668212890625,-0.55877685546875
1695713780002110000,2.66610986328125,0.519866943359375,0.9552001953125,-0.400238037109375
1695713780011661800,2.675661865234375,0.467071533203125,0.733489990234375,-0.19287109375
1695713780021214000,2.6852138671875,0.413360595703125,0.507659912109375,0.059356689453125
1695713780030735400,2.6947353515625,0.371856689453125,0.3314208984375,0.341949462890625
1695713780040287500,2.70428759765625,0.35430908203125,0.2203369140625,0.64300537109375
1695713780049839400,2.71383935546875,0.368499755859375,0.155792236328125,0.94146728515625
1695713780059391500,2.7233916015625,0.392303466796875,0.136871337890625,1.2139892578125
1695713780068943400,2.732943359375,0.410003662109375,0.156707763671875,1.421966552734375
1695713780078465000,2.742465087890625,0.426483154296875,0.2166748046875,1.533966064453125
1695713780088017000,2.752016845703125,0.437774658203125,0.3125,1.502227783203125
1695713780097569000,2.761569091796875,0.432891845703125,0.455474853515625,1.2908935546875
1695713780107121000,2.771120849609375,0.416107177734375,0.6561279296875,0.958251953125
1695713780116673000,2.780673095703125,0.402374267578125,0.91888427734375,0.5950927734375
1695713780126194400,2.7901943359375,0.389251708984375,1.190643310546875,0.1861572265625
1695713780135746300,2.799746337890625,0.373382568359375,1.32476806640625,-0.312652587890625
1695713780145298400,2.80929833984375,0.29632568359375,1.172332763671875,-0.7806396484375
1695713780154850300,2.818850341796875,0.157623291015625,0.63201904296875,-1.024932861328125
1695713780164372000,2.8283720703125,0.062713623046875,-0.232696533203125,-1.016998291015625
1695713780173923800,2.837923828125,0.078277587890625,-0.838623046875,-0.94818115234375
1695713780183476000,2.84747607421875,0.103607177734375,-0.76019287109375,-0.88287353515625
1695713780193027800,2.85702783203125,0.035247802734375,-0.307464599609375,-0.735931396484375
1695713780202580000,2.866580078125,-0.0177001953125,0.144805908203125,-0.51513671875
1695713780212131800,2.8761318359375,0.039215087890625,0.512237548828125,-0.264739990234375
1695713780221684000,2.88568408203125,0.154876708984375,0.958251953125,0.002899169921875
1695713780231235800,2.89523583984375,0.135955810546875,1.42669677734375,0.454559326171875
1695713780240788000,2.9047880859375,0.024566650390625,1.484222412109375,1.417083740234375
1695713780250339800,2.91433984375,-0.174407958984375,0.141754150390625,2.41729736328125
1695713780259861500,2.923861572265625,-0.150146484375,-2.363739013671875,1.889190673828125
1695713780269413400,2.933413330078125,0.101165771484375,-3.034820556640625,-0.130615234375
1695713780278965500,2.942965576171875,0.416107177734375,-0.80718994140625,-1.379547119140625
1695713780288517400,2.952517333984375,0.933837890625,0.23681640625,-0.21087646484375
1695713780298069500,2.962069580078125,1.26922607421875,-1.06170654296875,1.6650390625
1695713780307591000,2.9715908203125,1.0784912109375,-1.727447509765625,2.3297119140625
1695713780317142800,2.981142822265625,0.520782470703125,-1.358184814453125,1.7132568359375
1695713780326695000,2.99069482421875,-0.268096923828125,-0.391845703125,0.394134521484375
1695713780336246800,3.000246826171875,-0.937347412109375,-0.241241455078125,0.080108642578125
1695713780345768400,3.0097685546875,-1.1724853515625,-0.69488525390625,0.774078369140625
1695713780355320300,3.0193203125,-0.955963134765625,-1.2347412109375,1.721649169921875
1695713780364872400,3.02887255859375,-0.38299560546875,-1.652679443359375,2.4114990234375
1695713780374424300,3.03842431640625,0.2740478515625,-1.82037353515625,2.560272216796875
1695713780383976400,3.0479765625,0.64300537109375,-1.721343994140625,2.27508544921875
1695713780393497900,3.057497802734375,0.6866455078125,-1.620941162109375,1.875457763671875
1695713780403050000,3.067050048828125,0.60211181640625,-1.51641845703125,1.59393310546875
1695713780412601900,3.076601806640625,0.438690185546875,-1.371307373046875,1.545867919921875
1695713780422154000,3.086154052734375,0.22186279296875,-1.254425048828125,1.69525146484375
1695713780431705900,3.095705810546875,0.028533935546875,-1.199951171875,1.896514892578125
1695713780441227300,3.105227294921875,-0.08544921875,-1.10748291015625,2.0166015625
1695713780450779400,3.114779296875,-0.0946044921875,-0.916900634765625,2.01263427734375
1695713780460331300,3.124331298828125,-0.01312255859375,-0.592193603515625,1.889801025390625
1695713780469883400,3.13388330078125,0.061798095703125,-0.3521728515625,1.6839599609375
1695713780479404800,3.14340478515625,0.046539306640625,-0.308380126953125,1.446990966796875
1695713780488957000,3.15295703125,-0.01220703125,-0.33233642578125,1.265869140625
1695713780498539300,3.162539306640625,-0.05340576171875,-0.47271728515625,1.178131103515625
1695713780508091400,3.17209130859375,-0.08636474609375,-0.666351318359375,1.158599853515625
1695713780517643300,3.181643310546875,-0.1043701171875,-0.83038330078125,1.182861328125
1695713780527165000,3.1911650390625,-0.1373291015625,-0.971832275390625,1.18865966796875
1695713780536716800,3.200716796875,-0.15106201171875,-1.032562255859375,1.175689697265625
1695713780546269000,3.21026904296875,-0.1416015625,-1.029510498046875,1.176605224609375
1695713780555820800,3.21982080078125,-0.13031005859375,-1.014556884765625,1.1859130859375
1695713780565373000,3.229373046875,-0.1409912109375,-0.989227294921875,1.166534423828125
1695713780574894300,3.238894287109375,-0.169525146484375,-0.948333740234375,1.126861572265625
1695713780584446500,3.248446533203125,-0.209808349609375,-0.925750732421875,1.093597412109375
1695713780593998300,3.257998291015625,-0.270233154296875,-0.903167724609375,1.080780029296875
1695713780603550500,3.267550537109375,-0.34210205078125,-0.874481201171875,1.087493896484375
1695713780613072000,3.27707177734375,-0.4150390625,-0.84075927734375,1.103668212890625
1695713780622623700,3.286623779296875,-0.4644775390625,-0.8258056640625,1.110687255859375
1695713780632175900,3.29617578125,-0.48126220703125,-0.81756591796875,1.111297607421875
1695713780641727700,3.305727783203125,-0.47637939453125,-0.7568359375,1.102142333984375
1695713780651280000,3.31527978515625,-0.48126220703125,-0.640411376953125,1.092987060546875
1695713780660801300,3.32480126953125,-0.50048828125,-0.5084228515625,1.055755615234375
1695713780670353400,3.334353515625,-0.51025390625,-0.4559326171875,0.9527587890625
1695713780679905300,3.3439052734375,-0.522613525390625,-0.4766845703125,0.802459716796875
1695713780689457400,3.35345751953125,-0.542755126953125,-0.554351806640625,0.64422607421875
1695713780699009300,3.36300927734375,-0.554351806640625,-0.680999755859375,0.5126953125
1695713780708531000,3.372531005859375,-0.544586181640625,-0.80078125,0.431671142578125
1695713780718082800,3.382082763671875,-0.50811767578125,-0.887908935546875,0.395355224609375
1695713780727635000,3.391635009765625,-0.433349609375,-0.955352783203125,0.381317138671875
1695713780737186800,3.401186767578125,-0.3582763671875,-0.993804931640625,0.381317138671875
1695713780746708200,3.410708251953125,-0.334930419921875,-0.989532470703125,0.389556884765625
1695713780756260400,3.42026025390625,-0.367431640625,-0.949249267578125,0.385589599609375
1695713780765812200,3.429812255859375,-0.4241943359375,-0.900115966796875,0.360260009765625
1695713780775364400,3.4393642578125,-0.48797607421875,-0.86669921875,0.312957763671875
1695713780784947000,3.448947021484375,-0.546112060546875,-0.8392333984375,0.25146484375
1695713780794468400,3.45846826171875,-0.591583251953125,-0.78765869140625,0.179443359375
1695713780804020200,3.468020263671875,-0.612335205078125,-0.71380615234375,0.086517333984375
1695713780813572400,3.477572265625,-0.572052001953125,-0.583953857421875,-0.0634765625
1695713780823124200,3.487124267578125,-0.440673828125,-0.36590576171875,-0.316314697265625
1695713780832676400,3.49667626953125,-0.231475830078125,-0.04302978515625,-0.675201416015625
1695713780842197800,3.50619775390625,-0.0048828125,0.374603271484375,-1.024322509765625
1695713780851750000,3.51575,0.211181640625,0.803375244140625,-1.2493896484375
1695713780861301800,3.5253017578125,0.376434326171875,1.230010986328125,-1.396636962890625
1695713780870854000,3.53485400390625,0.475006103515625,1.6748046875,-1.6253662109375
1695713780880405800,3.54440576171875,0.60089111328125,1.77276611328125,-1.96197509765625
1695713780889927400,3.553927490234375,0.6671142578125,1.452484130859375,-2.31475830078125
1695713780899479300,3.563479248046875,0.62164306640625,1.0662841796875,-2.59765625
1695713780909031400,3.573031494140625,0.53985595703125,0.71380615234375,-2.779998779296875
1695713780918583300,3.582583251953125,0.418243408203125,0.3289794921875,-2.836456298828125
1695713780928104700,3.592104736328125,0.2557373046875,-0.140380859375,-2.779693603515625
1695713780937656800,3.60165673828125,0.099029541015625,-0.587005615234375,-2.69744873046875
1695713780947208700,3.611208740234375,0.20233154296875,-0.966644287109375,-2.6708984375
1695713780956760800,3.6207607421875,0.483551025390625,-1.251373291015625,-2.7166748046875
1695713780966312700,3.630312744140625,0.493927001953125,-1.392059326171875,-2.7398681640625
1695713780975834400,3.63983447265625,0.33935546875,-1.57379150390625,-2.71392822265625
1695713780985386200,3.64938623046875,0.30029296875,-1.7822265625,-2.62603759765625
1695713780994938400,3.6589384765625,0.347900390625,-1.646270751953125,-2.37548828125
1695713781004490200,3.668490234375,0.417022705078125,-0.928192138671875,-1.95526123046875
1695713781014042400,3.67804248046875,0.471343994140625,0.056915283203125,-1.62322998046875
1695713781023563800,3.687563720703125,0.476531982421875,1.115264892578125,-1.522216796875
1695713781033116000,3.697115966796875,0.400543212890625,2.09716796875,-1.714935302734375
1695713781042667800,3.706667724609375,0.21728515625,2.50823974609375,-2.162933349609375
1695713781052220000,3.716219970703125,0.028228759765625,2.295074462890625,-2.545318603515625
1695713781061741300,3.7257412109375,-0.05645751953125,1.69921875,-2.759552001953125
1695713781071324000,3.735323974609375,-0.08148193359375,1.03790283203125,-2.781829833984375
1695713781080875800,3.744875732421875,-0.0689697265625,0.682373046875,-2.61474609375
1695713781090428000,3.754427978515625,0.027008056640625,0.735931396484375,-2.32177734375
1695713781099979800,3.763979736328125,0.139923095703125,0.992431640625,-2.017822265625
1695713781109501200,3.773501220703125,0.208740234375,1.133880615234375,-1.764068603515625
1695713781119053300,3.78305322265625,0.2496337890625,1.165008544921875,-1.56036376953125
1695713781128605200,3.792605224609375,0.2850341796875,1.196441650390625,-1.385345458984375
1695713781138157300,3.8021572265625,0.32135009765625,1.244659423828125,-1.21917724609375
1695713781147709200,3.811709228515625,0.3564453125,1.3037109375,-1.049652099609375
1695713781157230800,3.82123095703125,0.393829345703125,1.32598876953125,-0.869140625
1695713781166782700,3.83078271484375,0.416107177734375,1.247711181640625,-0.679473876953125
1695713781176334800,3.8403349609375,0.429534912109375,1.064453125,-0.47637939453125
1695713781185886700,3.84988671875,0.422821044921875,0.818634033203125,-0.242156982421875
1695713781195408400,3.859408447265625,0.406646728515625,0.543365478515625,0.030670166015625
1695713781204960300,3.868960205078125,0.384674072265625,0.28533935546875,0.336761474609375
1695713781214512400,3.878512451171875,0.380096435546875,0.102691650390625,0.653839111328125
1695713781224064300,3.888064208984375,0.398406982421875,-0.01007080078125,0.97076416015625
1695713781233616400,3.897616455078125,0.425567626953125,-0.069580078125,1.273193359375
1695713781243137800,3.9071376953125,0.450897216796875,-0.0714111328125,1.544189453125
1695713781252689700,3.916689697265625,0.472259521484375,-0.03204345703125,1.762847900390625
1695713781262241800,3.92624169921875,0.482635498046875,0.052642822265625,1.890716552734375
1695713781271793700,3.935793701171875,0.481109619140625,0.22308349609375,1.850128173828125
1695713781281345800,3.945345703125,0.462188720703125,0.448150634765625,1.58233642578125
1695713781290867200,3.9548671875,0.417022705078125,0.63934326171875,1.138458251953125
1695713781300419300,3.96441943359375,0.372161865234375,0.861663818359375,0.56365966796875
1695713781309971200,3.97397119140625,0.34576416015625,1.184844970703125,-0.16845703125
1695713781319523300,3.9835234375,0.3466796875,1.4166259765625,-0.966033935546875
1695713781329075200,3.9930751953125,0.412139892578125,1.195831298828125,-1.392059326171875
1695713781338596900,4.002596923828125,0.534820556640625,0.449981689453125,-1.3006591796875
1695713781348148700,4.012148681640625,0.63751220703125,-0.39642333984375,-1.020050048828125
1695713781357731300,4.0217314453125,0.62957763671875,-0.7867431640625,-0.809326171875
1695713781367283200,4.031283203125,0.428924560546875,-0.655670166015625,-0.600738525390625
1695713781376804900,4.040804931640625,0.184783935546875,-0.243377685546875,-0.364837646484375
1695713781386356700,4.050356689453125,0.067596435546875,0.2545166015625,-0.1519775390625
1695713781395908900,4.059908935546875,0.100250244140625,0.753326416015625,0.060577392578125
1695713781405460700,4.069460693359375,0.074920654296875,1.2982177734375,0.383453369140625
1695713781415012900,4.079012939453125,-0.093994140625,1.7919921875,0.9228515625
1695713781424534300,4.0885341796875,-0.287933349609375,1.63848876953125,1.927490234375
1695713781434086100,4.098086181640625,-0.45196533203125,-0.269317626953125,2.77740478515625
1695713781443638300,4.10763818359375,-0.35888671875,-3.163299560546875,2.07122802734375
1695713781453190100,4.117190185546875,-0.10406494140625,-3.424224853515625,-0.393218994140625
1695713781462742300,4.1267421875,0.24261474609375,-0.549774169921875,-1.787567138671875
1695713781472263700,4.136263671875,0.737457275390625,0.777740478515625,-0.1605224609375
1695713781481815800,4.14581591796875,0.924072265625,-0.250701904296875,1.754608154296875
1695713781491367700,4.15536767578125,0.6353759765625,-0.950775146484375,2.445526123046875
1695713781500919800,4.164919921875,0.103302001953125,-0.84564208984375,1.877899169921875
1695713781510441200,4.174441162109375,-0.40130615234375,-0.186309814453125,0.753631591796875
1695713781519993300,4.183993408203125,-0.7989501953125,-0.314788818359375,0.680999755859375
1695713781529545200,4.193545166015625,-0.982818603515625,-0.82611083984375,1.455841064453125
1695713781539097300,4.203097412109375,-0.8636474609375,-1.4874267578125,2.32208251953125
1695713781548649200,4.212649169921875,-0.4248046875,-2.119598388671875,2.845306396484375
1695713781558170600,4.222170654296875,0.155487060546875,-2.2210693359375,2.75726318359375
1695713781567722800,4.23172265625,0.5841064453125,-1.4935302734375,2.128753662109375
1695713781577274600,4.241274658203125,0.731353759765625,-0.7647705078125,1.543121337890625
1695713781586826800,4.25082666015625,0.6689453125,-0.489501953125,1.258544921875
1695713781596378600,4.260378662109375,0.457611083984375,-0.44708251953125,1.23260498046875
1695713781605900300,4.269900390625,0.176239013671875,-0.584869384765625,1.393890380859375
1695713781615452200,4.2794521484375,-0.07598876953125,-0.86700439453125,1.61102294921875
1695713781625004300,4.28900439453125,-0.257720947265625,-1.18011474609375,1.773529052734375
1695713781634556200,4.29855615234375,-0.323944091796875,-1.291961669921875,1.837310791015625
1695713781644138800,4.308138671875,-0.267791748046875,-1.082763671875,1.792144775390625
1695713781653660200,4.31766015625,-0.1507568359375,-0.7171630859375,1.67022705078125
1695713781663212300,4.32721240234375,-0.08270263671875,-0.4998779296875,1.541748046875
1695713781672764200,4.33676416015625,-0.09429931640625,-0.510101318359375,1.423492431640625
1695713781682316300,4.34631640625,-0.15899658203125,-0.643463134765625,1.3262939453125
1695713781691837700,4.355837646484375,-0.231170654296875,-0.7611083984375,1.259765625
1695713781701389800,4.365389892578125,-0.267486572265625,-0.81512451171875,1.22283935546875
1695713781710941700,4.374941650390625,-0.282440185546875,-0.8013916015625,1.23199462890625
1695713781720493800,4.384493896484375,-0.286407470703125,-0.736083984375,1.23992919921875
1695713781730045700,4.394045654296875,-0.287628173828125,-0.636138916015625,1.22650146484375
1695713781739567000,4.403567138671875,-0.297698974609375,-0.550689697265625,1.212158203125
1695713781749119200,4.413119140625,-0.328826904296875,-0.46661376953125,1.2017822265625
1695713781758671000,4.422671142578125,-0.372314453125,-0.40802001953125,1.20697021484375
1695713781768223200,4.43222314453125,-0.42633056640625,-0.4022216796875,1.2322998046875
1695713781777775000,4.441775146484375,-0.4681396484375,-0.42724609375,1.25518798828125
1695713781787296800,4.451296875,-0.49560546875,-0.4931640625,1.26495361328125
1695713781796848600,4.4608486328125,-0.51666259765625,-0.553436279296875,1.24786376953125
1695713781806400800,4.47040087890625,-0.529022216796875,-0.593414306640625,1.184844970703125
1695713781815952600,4.47995263671875,-0.534210205078125,-0.630645751953125,1.078948974609375
1695713781825474300,4.489474365234375,-0.542449951171875,-0.646514892578125,0.9429931640625
1695713781835026200,4.499026123046875,-0.548858642578125,-0.681915283203125,0.791778564453125
1695713781844578300,4.508578369140625,-0.536041259765625,-0.73822021484375,0.6353759765625
1695713781854130200,4.518130126953125,-0.49560546875,-0.7562255859375,0.48797607421875
1695713781863682300,4.527682373046875,-0.4327392578125,-0.7159423828125,0.352020263671875
1695713781873203700,4.53720361328125,-0.372314453125,-0.626678466796875,0.24261474609375
1695713781882755600,4.546755615234375,-0.34637451171875,-0.556488037109375,0.16510009765625
1695713781892307700,4.5563076171875,-0.36224365234375,-0.553436279296875,0.105133056640625
1695713781901859600,4.565859619140625,-0.38909912109375,-0.575714111328125,0.028839111328125
1695713781911411700,4.57541162109375,-0.4022216796875,-0.513153076171875,-0.089111328125
1695713781920933000,4.58493310546875,-0.3680419921875,-0.309906005859375,-0.2337646484375
1695713781930515700,4.594515625,-0.281829833984375,-0.0457763671875,-0.374298095703125
1695713781940067600,4.604067626953125,-0.1617431640625,0.167999267578125,-0.5023193359375
1695713781949619700,4.61361962890625,-0.0152587890625,0.25054931640625,-0.630950927734375
1695713781959171600,4.623171630859375,0.141754150390625,0.200347900390625,-0.79986572265625
1695713781968693200,4.632693359375,0.21881103515625,0.164947509765625,-1.029205322265625
1695713781978245000,4.6422451171875,0.2301025390625,0.28228759765625,-1.328582763671875
1695713781987797200,4.65179736328125,0.26092529296875,0.476531982421875,-1.692657470703125
1695713781997349000,4.66134912109375,0.323486328125,0.59783935546875,-2.060089111328125
1695713782006870800,4.670870849609375,0.367279052734375,0.62255859375,-2.371826171875
1695713782016422700,4.680422607421875,0.399932861328125,0.564117431640625,-2.6611328125
1695713782025974800,4.689974853515625,0.424957275390625,0.408172607421875,-2.9595947265625
1695713782035526700,4.699526611328125,0.433197021484375,0.084381103515625,-3.172149658203125
1695713782045078800,4.709078857421875,0.393829345703125,-0.38116455078125,-3.212127685546875
1695713782054600200,4.71860009765625,0.30059814453125,-0.82672119140625,-3.150482177734375
1695713782064152000,4.728152099609375,0.194091796875,-0.953521728515625,-3.109130859375
1695713782073704200,4.7377041015625,0.147552490234375,-0.75347900390625,-3.0810546875
1695713782083256000,4.747256103515625,0.19317626953125,-0.596466064453125,-3.001708984375
1695713782092808200,4.75680810546875,0.187225341796875,-0.732421875,-2.896575927734375
1695713782102329600,4.76632958984375,0.093841552734375,-0.960235595703125,-2.7471923828125
1695713782111881700,4.7758818359375,-0.01129150390625,-0.886688232421875,-2.447967529296875
1695713782121433600,4.78543359375,-0.064697265625,-0.46356201171875,-2.075042724609375
1695713782130985700,4.79498583984375,0.032196044921875,0.134124755859375,-1.788177490234375
1695713782140507100,4.804507080078125,0.155487060546875,0.841522216796875,-1.734771728515625
1695713782150059300,4.814059326171875,0.168914794921875,1.39862060546875,-1.9873046875
1695713782159611100,4.823611083984375,0.080108642578125,1.538848876953125,-2.32330322265625
1695713782169163300,4.833163330078125,-0.0006103515625,1.45355224609375,-2.531585693359375
1695713782178715100,4.842715087890625,0.038909912109375,1.225738525390625,-2.559661865234375
1695713782188236500,4.852236572265625,0.19378662109375,0.96466064453125,-2.428436279296875
1695713782197788700,4.86178857421875,0.250244140625,1.195220947265625,-2.2991943359375
1695713782207340500,4.871340576171875,0.360260009765625,1.216888427734375,-2.075958251953125
1695713782216923100,4.880923095703125,0.490570068359375,1.168670654296875,-1.825714111328125
1695713782226475300,4.890475341796875,0.6048583984375,1.124725341796875,-1.57928466796875
1695713782235996700,4.89999658203125,0.689697265625,1.08367919921875,-1.372833251953125
1695713782245548500,4.909548583984375,0.760955810546875,1.08612060546875,-1.18499755859375
1695713782255100700,4.9191005859375,0.813751220703125,1.151580810546875,-1.008453369140625
1695713782264652500,4.928652587890625,0.840911865234375,1.226348876953125,-0.8367919921875
1695713782274174200,4.93817431640625,0.834197998046875,1.276092529296875,-0.651702880859375
1695713782283726000,4.94772607421875,0.792999267578125,1.260223388671875,-0.443115234375
1695713782293278200,4.9572783203125,0.735321044921875,1.185150146484375,-0.20355224609375
1695713782302830000,4.966830078125,0.67108154296875,1.04736328125,0.066070556640625
1695713782312382200,4.97638232421875,0.61614990234375,0.902252197265625,0.359344482421875
1695713782321903600,4.985903564453125,0.57830810546875,0.762176513671875,0.667572021484375
1695713782331455700,4.995455810546875,0.56915283203125,0.64605712890625,0.9918212890625
1695713782341007600,5.005007568359375,0.56732177734375,0.564422607421875,1.33697509765625
1695713782350559700,5.014559814453125,0.567626953125,0.490570068359375,1.68182373046875
1695713782360111600,5.024111572265625,0.5841064453125,0.417938232421875,1.99981689453125
1695713782369633000,5.033633056640625,0.5975341796875,0.399017333984375,2.243194580078125
1695713782379185200,5.04318505859375,0.58685302734375,0.533905029296875,2.2955322265625
1695713782388737000,5.052737060546875,0.560302734375,0.808868408203125,2.066650390625
1695713782398289200,5.0622890625,0.519256591796875,1.0723876953125,1.61102294921875
1695713782407810600,5.071810546875,0.442352294921875,1.3140869140625,0.94024658203125
1695713782417362700,5.08136279296875,0.30181884765625,1.548309326171875,-0.11077880859375
1695713782426914600,5.09091455078125,0.164947509765625,1.590118408203125,-1.29180908203125
1695713782436466700,5.100466796875,0.123138427734375,0.93292236328125,-1.627197265625
1695713782446018600,5.1100185546875,0.23284912109375,-0.196075439453125,-1.16485595703125
1695713782455540200,5.119540283203125,0.378875732421875,-1.09466552734375,-0.751190185546875
1695713782465092000,5.129092041015625,0.3515625,-1.18988037109375,-0.616912841796875
1695713782474644200,5.138644287109375,0.174407958984375,-0.640106201171875,-0.616607666015625
1695713782484196000,5.148196044921875,0.048675537109375,0.110931396484375,-0.618438720703125
1695713782493748200,5.157748291015625,-0.048828125,0.923309326171875,-0.404815673828125
1695713782503300000,5.167300048828125,-0.249481201171875,1.65802001953125,0.18890380859375
1695713782512852200,5.176852294921875,-0.5010986328125,1.8035888671875,1.2091064453125
1695713782522404000,5.186404052734375,-0.69915771484375,0.463104248046875,2.216949462890625
1695713782531956200,5.195956298828125,-0.667572021484375,-2.22625732421875,2.110137939453125
1695713782541508000,5.205508056640625,-0.45074462890625,-3.359375,0.2362060546875
1695713782551029500,5.215029541015625,-0.196380615234375,-0.959625244140625,-1.4996337890625
1695713782560581600,5.22458154296875,0.31341552734375,0.22705078125,-0.52947998046875
1695713782570133500,5.234133544921875,0.72052001953125,-0.71136474609375,1.270751953125
1695713782579685600,5.243685546875,0.821380615234375,-0.85693359375,2.210845947265625
1695713782589207000,5.25320703125,0.502166748046875,-0.0958251953125,1.9769287109375
1695713782598759200,5.26275927734375,0.051422119140625,0.421905517578125,1.125335693359375
1695713782608311000,5.27231103515625,-0.37628173828125,-0.09429931640625,1.059417724609375
1695713782617863200,5.28186328125,-0.636749267578125,-0.7305908203125,1.63848876953125
1695713782627415000,5.2914150390625,-0.608978271484375,-1.265106201171875,2.144317626953125
1695713782636936700,5.300936767578125,-0.322723388671875,-1.48834228515625,2.288818359375
1695713782646488600,5.310488525390625,0.055694580078125,-1.14898681640625,2.07672119140625
1695713782656040700,5.320040771484375,0.372467041015625,-0.4034423828125,1.61224365234375
1695713782665592600,5.329592529296875,0.509796142578125,0.131072998046875,1.20880126953125
1695713782675144700,5.339144775390625,0.482025146484375,0.33233642578125,1.034393310546875
1695713782684666000,5.348666015625,0.338134765625,0.36285400390625,1.110687255859375
1695713782694218000,5.358218017578125,0.171051025390625,0.2276611328125,1.36444091796875
1695713782703770000,5.36777001953125,0.010833740234375,-0.08941650390625,1.6552734375
1695713782713322000,5.377322021484375,-0.09063720703125,-0.438232421875,1.832122802734375
1695713782722874000,5.3868740234375,-0.10467529296875,-0.643768310546875,1.858673095703125
1695713782732395500,5.3963955078125,-0.0482177734375,-0.580596923828125,1.773223876953125
1695713782741947600,5.40594775390625,0.011749267578125,-0.35125732421875,1.61590576171875
1695713782751499500,5.41549951171875,0.012054443359375,-0.153350830078125,1.472015380859375
1695713782761051600,5.4250517578125,-0.0396728515625,-0.06805419921875,1.399383544921875
1695713782770573000,5.434572998046875,-0.128173828125,-0.0958251953125,1.34979248046875
1695713782780125200,5.444125244140625,-0.233917236328125,-0.231475830078125,1.2994384765625
1695713782789707500,5.45370751953125,-0.312347412109375,-0.36041259765625,1.27288818359375
1695713782799259600,5.463259765625,-0.34393310546875,-0.41229248046875,1.27960205078125
1695713782808811500,5.4728115234375,-0.334014892578125,-0.35919189453125,1.29119873046875
1695713782818333200,5.482333251953125,-0.308685302734375,-0.240631103515625,1.29364013671875
1695713782827885000,5.491885009765625,-0.294647216796875,-0.12054443359375,1.2890625
1695713782837437200,5.501437255859375,-0.308685302734375,0.00396728515625,1.29058837890625
1695713782846989000,5.510989013671875,-0.34881591796875,0.102996826171875,1.31103515625
1695713782856541200,5.520541259765625,-0.3851318359375,0.131683349609375,1.3482666015625
1695713782866062600,5.5300625,-0.4010009765625,0.051116943359375,1.384735107421875
1695713782875625200,5.539625244140625,-0.39947509765625,-0.10650634765625,1.397552490234375
1695713782885177300,5.54917724609375,-0.379638671875,-0.285797119140625,1.365814208984375
1695713782894729200,5.558729248046875,-0.35675048828125,-0.44525146484375,1.2811279296875
1695713782904251000,5.5682509765625,-0.350341796875,-0.567474365234375,1.137847900390625
1695713782913802800,5.577802734375,-0.369873046875,-0.646820068359375,0.95733642578125
1695713782923355000,5.58735498046875,-0.41259765625,-0.697021484375,0.781707763671875
1695713782932906800,5.59690673828125,-0.47149658203125,-0.70770263671875,0.6201171875
1695713782942459000,5.606458984375,-0.49102783203125,-0.687255859375,0.462493896484375
1695713782951980300,5.615980224609375,-0.45166015625,-0.622100830078125,0.336151123046875
1695713782961532200,5.6255322265625,-0.3961181640625,-0.49957275390625,0.2630615234375
1695713782971084300,5.635084228515625,-0.36834716796875,-0.3997802734375,0.2191162109375
1695713782980636200,5.64463623046875,-0.3778076171875,-0.3729248046875,0.16937255859375
1695713782990188300,5.654188232421875,-0.3948974609375,-0.34454345703125,0.091400146484375
1695713782999709700,5.663709716796875,-0.38909912109375,-0.242462158203125,0.014190673828125
1695713783009261800,5.67326171875,-0.3564453125,-0.12176513671875,-0.029754638671875
1695713783018813700,5.682813720703125,-0.304107666015625,-0.0714111328125,-0.0958251953125
1695713783028365800,5.69236572265625,-0.231781005859375,-0.01373291015625,-0.260162353515625
1695713783037887200,5.70188720703125,-0.1226806640625,0.100555419921875,-0.48614501953125
1695713783047439400,5.711439453125,-0.00579833984375,0.260009765625,-0.678253173828125
1695713783056991200,5.7209912109375,0.071868896484375,0.483245849609375,-0.843505859375
1695713783066543400,5.73054345703125,0.113983154296875,0.751190185546875,-1.075286865234375
1695713783076125700,5.740125732421875,0.128631591796875,1.0028076171875,-1.392059326171875
1695713783085647400,5.7496474609375,0.147247314453125,1.117401123046875,-1.748199462890625
1695713783095199200,5.75919921875,0.1910400390625,1.05865478515625,-2.094268798828125
1695713783104751400,5.76875146484375,0.26824951171875,0.888214111328125,-2.408599853515625
1695713783114303200,5.77830322265625,0.3399658203125,0.64300537109375,-2.71697998046875
1695713783123855400,5.78785546875,0.3570556640625,0.367431640625,-3.00750732421875
1695713783133376800,5.797376708984375,0.35736083984375,0.095062255859375,-3.174285888671875
1695713783142928600,5.8069287109375,0.3619384765625,-0.255889892578125,-3.202362060546875
1695713783152480800,5.816480712890625,0.36651611328125,-0.538482666015625,-3.122711181640625
1695713783162032600,5.82603271484375,0.371246337890625,-0.597686767578125,-3.0364990234375
1695713783171584800,5.835584716796875,0.367889404296875,-0.47393798828125,-2.99957275390625
1695713783181106200,5.845106201171875,0.34210205078125,-0.4754638671875,-2.9827880859375
1695713783190658300,5.854658203125,0.283203125,-0.7269287109375,-2.94097900390625
1695713783200210200,5.864210205078125,0.23406982421875,-0.936431884765625,-2.806854248046875
1695713783209762300,5.87376220703125,0.158233642578125,-0.697021484375,-2.430267333984375
1695713783219283700,5.88328369140625,0.163116455078125,0.110931396484375,-1.88751220703125
1695713783228835800,5.8928359375,0.27130126953125,0.95062255859375,-1.54876708984375
1695713783238387700,5.9023876953125,0.345458984375,1.603851318359375,-1.5667724609375
1695713783247939800,5.91193994140625,0.366363525390625,1.845245361328125,-1.9427490234375
1695713783257491700,5.92149169921875,0.277099609375,1.68243408203125,-2.28515625
1695713783267013000,5.93101318359375,0.166168212890625,1.45111083984375,-2.432708740234375
1695713783276565200,5.940565185546875,0.120086669921875,1.341552734375,-2.445220947265625
1695713783286117000,5.9501171875,0.164642333984375,1.36505126953125,-2.342529296875
1695713783295669200,5.959669189453125,0.26275634765625,1.4404296875,-2.165985107421875
1695713783305221000,5.96922119140625,0.387420654296875,1.476287841796875,-1.96136474609375
1695713783314742800,5.97874267578125,0.492401123046875,1.42852783203125,-1.746673583984375
1695713783324294700,5.988294677734375,0.5609130859375,1.334228515625,-1.53564453125
1695713783333846800,5.9978466796875,0.63934326171875,1.3287353515625,-1.3079833984375
1695713783343398700,6.007398681640625,0.7196044921875,1.39312744140625,-1.073150634765625
1695713783352920300,6.01692041015625,0.783233642578125,1.475067138671875,-0.8514404296875
1695713783362502700,6.026502685546875,0.811004638671875,1.531829833984375,-0.665435791015625
1695713783372054800,6.0360546875,0.795135498046875,1.511688232421875,-0.51605224609375
1695713783381606700,6.045606689453125,0.754241943359375,1.416015625,-0.377044677734375
1695713783391158800,6.05515869140625,0.7025146484375,1.253204345703125,-0.216064453125
1695713783400680200,6.06468017578125,0.66253662109375,1.06658935546875,-0.000457763671875
1695713783410232300,6.074232421875,0.62347412109375,0.849456787109375,0.269775390625
1695713783419784200,6.0837841796875,0.6048583984375,0.62164306640625,0.5865478515625
1695713783429336300,6.09333642578125,0.61248779296875,0.422210693359375,0.9405517578125
1695713783438888200,6.10288818359375,0.625,0.277099609375,1.32537841796875
1695713783448409600,6.11240966796875,0.638427734375,0.20782470703125,1.7022705078125
1695713783457961700,6.121961669921875,0.6646728515625,0.22613525390625,2.03277587890625
1695713783467513600,6.131513671875,0.677490234375,0.350341796875,2.239227294921875
1695713783477065700,6.141065673828125,0.667724609375,0.6005859375,2.165679931640625
1695713783486617600,6.15061767578125,0.65826416015625,0.833892822265625,1.774444580078125
1695713783496139300,6.16013916015625,0.6182861328125,0.98114013671875,1.147308349609375
1695713783505691100,6.169691162109375,0.485687255859375,1.175079345703125,0.213623046875
1695713783515243300,6.1792431640625,0.255126953125,1.487884521484375,-1.067047119140625
1695713783524795100,6.188795166015625,0.074310302734375,1.37359619140625,-1.91436767578125
1695713783534316800,6.19831689453125,0.156097412109375,0.416717529296875,-1.769561767578125
1695713783543868700,6.20786865234375,0.405426025390625,-0.645294189453125,-1.16546630859375
1695713783553420800,6.2174208984375,0.522308349609375,-1.15264892578125,-0.700225830078125
1695713783562972700,6.22697265625,0.371246337890625,-0.929107666015625,-0.484619140625
1695713783572524800,6.23652490234375,0.175018310546875,-0.329437255859375,-0.423583984375
1695713783582046200,6.246046142578125,0.071563720703125,0.452423095703125,-0.352020263671875
1695713783591598000,6.25559814453125,-0.10498046875,1.3531494140625,-0.05462646484375
1695713783601150200,6.265150146484375,-0.40924072265625,1.931610107421875,0.51239013671875
1695713783610702000,6.2747021484375,-0.71258544921875,1.549835205078125,1.393280029296875
1695713783620254200,6.284254150390625,-0.828857421875,-0.37811279296875,2.01568603515625
1695713783629775600,6.293775634765625,-0.509033203125,-2.683868408203125,1.34735107421875
1695713783639327700,6.30332763671875,-0.0732421875,-2.59429931640625,-0.58380126953125
1695713783648910000,6.31291015625,0.32958984375,-0.51055908203125,-1.55609130859375
1695713783658462200,6.322462158203125,0.746307373046875,0.32501220703125,-0.1800537109375
1695713783667983600,6.331983642578125,0.97381591796875,-0.532073974609375,1.63330078125
1695713783677535700,6.34153564453125,0.804290771484375,-1.13525390625,2.38677978515625
1695713783687087600,6.351087646484375,0.30029296875,-0.849609375,1.865692138671875
1695713783696639700,6.3606396484375,-0.300750732421875,-0.204315185546875,1.034393310546875
1695713783706191600,6.370191650390625,-0.6988525390625,-0.262603759765625,1.157073974609375
1695713783715713300,6.37971337890625,-0.77301025390625,-0.556488037109375,1.70440673828125
1695713783725265200,6.38926513671875,-0.51055908203125,-1.13800048828125,2.212677001953125
1695713783734817300,6.3988173828125,-0.02532958984375,-1.695404052734375,2.464752197265625
1695713783744369200,6.408369140625,0.414886474609375,-1.50054931640625,2.30682373046875
1695713783753921300,6.41792138671875,0.71441650390625,-0.585784912109375,1.797332763671875
1695713783763442700,6.427442626953125,0.797576904296875,0.020904541015625,1.37054443359375
1695713783772994600,6.43699462890625,0.66680908203125,0.160980224609375,1.22833251953125
1695713783782546700,6.446546630859375,0.448455810546875,0.2191162109375,1.27105712890625
1695713783792098600,6.4560986328125,0.24200439453125,0.107269287109375,1.465911865234375
1695713783801620200,6.4656201171875,0.072784423828125,-0.232391357421875,1.745147705078125
1695713783811172000,6.475172119140625,-0.029296875,-0.607757568359375,1.96380615234375
1695713783820724200,6.48472412109375,-0.02716064453125,-0.80413818359375,2.0440673828125
1695713783830276000,6.494276123046875,0.069122314453125,-0.71502685546875,1.98974609375
1695713783839828200,6.503828125,0.148162841796875,-0.43365478515625,1.842498779296875
1695713783849349600,6.513349609375,0.113067626953125,-0.216522216796875,1.6705322265625
1695713783858901800,6.52290185546875,0.014190673828125,-0.199432373046875,1.517486572265625
1695713783868453600,6.53245361328125,-0.103759765625,-0.317840576171875,1.401519775390625
1695713783878005800,6.542005859375,-0.230865478515625,-0.496978759765625,1.3116455078125
1695713783887557600,6.5515576171875,-0.315399169921875,-0.540618896484375,1.2847900390625
1695713783897079000,6.5610791015625,-0.340423583984375,-0.44036865234375,1.3189697265625
1695713783906631200,6.570631103515625,-0.3424072265625,-0.313873291015625,1.366424560546875
1695713783916183000,6.58018310546875,-0.328826904296875,-0.228729248046875,1.382904052734375
1695713783925735200,6.589735107421875,-0.315704345703125,-0.225677490234375,1.3519287109375
1695713783935287000,6.599287109375,-0.325775146484375,-0.255279541015625,1.3153076171875
1695713783944839200,6.608839111328125,-0.360107421875,-0.296173095703125,1.317138671875
1695713783954391000,6.61839111328125,-0.39947509765625,-0.35980224609375,1.35406494140625
1695713783963943200,6.627943115234375,-0.44403076171875,-0.42724609375,1.403350830078125
1695713783973495000,6.6374951171875,-0.48370361328125,-0.47027587890625,1.423187255859375
1695713783983016700,6.6470166015625,-0.50933837890625,-0.503387451171875,1.382598876953125
1695713783992568600,6.656568603515625,-0.521240234375,-0.534515380859375,1.27288818359375
1695713784002120700,6.66612060546875,-0.518798828125,-0.571746826171875,1.117401123046875
1695713784011672600,6.675672607421875,-0.51239013671875,-0.655364990234375,0.95703125
1695713784021224700,6.685224609375,-0.49285888671875,-0.75653076171875,0.811920166015625
1695713784030746000,6.69474609375,-0.460205078125,-0.78857421875,0.675201416015625
1695713784040298200,6.70429833984375,-0.401611328125,-0.74371337890625,0.52734375
1695713784049850000,6.71385009765625,-0.336456298828125,-0.639495849609375,0.395355224609375
1695713784059402200,6.72340234375,-0.292205810546875,-0.504913330078125,0.303192138671875
1695713784068954000,6.7329541015625,-0.285797119140625,-0.42999267578125,0.244140625
1695713784078475500,6.7424755859375,-0.297393798828125,-0.4638671875,0.1800537109375
1695713784088027600,6.752027587890625,-0.306243896484375,-0.547027587890625,0.085601806640625
1695713784097579500,6.76157958984375,-0.304107666015625,-0.601348876953125,-0.016326904296875
1695713784107131600,6.771131591796875,-0.288543701171875,-0.612945556640625,-0.10833740234375
1695713784116653000,6.780653076171875,-0.246734619140625,-0.572052001953125,-0.19744873046875
1695713784126205200,6.790205078125,-0.160675048828125,-0.4766845703125,-0.338897705078125
1695713784135757000,6.799757080078125,-0.02105712890625,-0.33966064453125,-0.570068359375
1695713784145309200,6.80930908203125,0.136260986328125,-0.222015380859375,-0.85235595703125
1695713784154861000,6.818861083984375,0.267333984375,-0.09857177734375,-1.129913330078125
1695713784164382700,6.8283828125,0.36376953125,0.061492919921875,-1.392669677734375
1695713784173934600,6.8379345703125,0.433197021484375,0.3375244140625,-1.686859130859375
1695713784183486700,6.84748681640625,0.452423095703125,0.69427490234375,-2.005615234375
1695713784193038600,6.85703857421875,0.482330322265625,0.94146728515625,-2.3028564453125
1695713784202590700,6.8665908203125,0.518035888671875,0.921630859375,-2.5933837890625
1695713784212142600,6.876142578125,0.485382080078125,0.7373046875,-2.919769287109375
1695713784221694700,6.88569482421875,0.418548583984375,0.429229736328125,-3.173675537109375
1695713784231246600,6.89524658203125,0.371856689453125,0.01708984375,-3.285675048828125
1695713784240798700,6.904798828125,0.3387451171875,-0.41961669921875,-3.314208984375
1695713784250350600,6.9143505859375,0.29754638671875,-0.7470703125,-3.3123779296875
1695713784259872000,6.9238720703125,0.27557373046875,-0.911407470703125,-3.274078369140625
1695713784269424000,6.933424072265625,0.2545166015625,-1.11328125,-3.188323974609375
1695713784278976000,6.94297607421875,0.183563232421875,-1.41754150390625,-3.05938720703125
1695713784288528100,6.952528076171875,0.110626220703125,-1.48345947265625,-2.818145751953125
1695713784298049500,6.962049560546875,0.106048583984375,-0.910186767578125,-2.3419189453125
1695713784307601700,6.9716015625,0.2069091796875,0.028533935546875,-1.836700439453125
1695713784317153500,6.981153564453125,0.3411865234375,0.916595458984375,-1.5447998046875
1695713784326705700,6.99070556640625,0.427093505859375,1.477508544921875,-1.62872314453125
1695713784336257500,7.000257568359375,0.393524169921875,1.595306396484375,-2.02056884765625
1695713784345779200,7.009779296875,0.26947021484375,1.566619873046875,-2.3175048828125
1695713784355331000,7.0193310546875,0.164337158203125,1.585540771484375,-2.442779541015625
1695713784364883200,7.02888330078125,0.111846923828125,1.502838134765625,-2.465057373046875
1695713784374435000,7.03843505859375,0.114288330078125,1.283721923828125,-2.410736083984375
1695713784383987200,7.0479873046875,0.160675048828125,1.114959716796875,-2.264404296875
1695713784393508600,7.057508544921875,0.23712158203125,1.05926513671875,-2.047271728515625
1695713784403060500,7.067060546875,0.32440185546875,1.03363037109375,-1.802825927734375
1695713784412612600,7.076612548828125,0.423736572265625,1.01776123046875,-1.55853271484375
1695713784422164500,7.08616455078125,0.508575439453125,1.00311279296875,-1.324005126953125
1695713784431686100,7.09568603515625,0.56427001953125,1.0247802734375,-1.098785400390625
1695713784441238000,7.105238037109375,0.58074951171875,1.06414794921875,-0.89935302734375
1695713784450790100,7.1147900390625,0.56488037109375,1.09375,-0.732574462890625
1695713784460342000,7.124342041015625,0.514373779296875,1.08184814453125,-0.58197021484375
1695713784469894100,7.13389404296875,0.438385009765625,1.0235595703125,-0.42144775390625
1695713784479415600,7.14341552734375,0.360107421875,0.9332275390625,-0.2203369140625
1695713784488967700,7.1529677734375,0.281982421875,0.807037353515625,0.031890869140625
1695713784498550000,7.162550048828125,0.22369384765625,0.65216064453125,0.328216552734375
1695713784508102100,7.17210205078125,0.20172119140625,0.500335693359375,0.63690185546875
1695713784517654000,7.181654052734375,0.2191162109375,0.384979248046875,0.9503173828125
1695713784527175700,7.19117578125,0.2496337890625,0.296630859375,1.27838134765625
1695713784536727600,7.2007275390625,0.28900146484375,0.2508544921875,1.60919189453125
1695713784546279700,7.21027978515625,0.372161865234375,0.25177001953125,1.915283203125
1695713784555831600,7.21983154296875,0.490570068359375,0.3076171875,2.149810791015625
1695713784565353000,7.22935302734375,0.59600830078125,0.446014404296875,2.177276611328125
1695713784574905000,7.238905029296875,0.67413330078125,0.62103271484375,1.886444091796875
1695713784584457000,7.24845703125,0.71075439453125,0.72357177734375,1.32049560546875
1695713784594009000,7.258009033203125,0.64117431640625,0.829620361328125,0.57647705078125
1695713784603561000,7.26756103515625,0.430450439453125,1.02569580078125,-0.395660400390625
1695713784613082600,7.27708251953125,0.24810791015625,0.999755859375,-1.25823974609375
1695713784622634500,7.286634521484375,0.3216552734375,0.3009033203125,-1.417083740234375
1695713784632186600,7.2961865234375,0.543975830078125,-0.71014404296875,-1.026153564453125
1695713784641738500,7.305738525390625,0.6744384765625,-1.345367431640625,-0.665130615234375
1695713784651290600,7.31529052734375,0.522613525390625,-1.177978515625,-0.5340576171875
1695713784660812000,7.32481201171875,0.2325439453125,-0.45440673828125,-0.5035400390625
1695713784670364200,7.3343642578125,0.048370361328125,0.36285400390625,-0.47698974609375
1695713784679916000,7.343916015625,-0.09246826171875,1.168365478515625,-0.269012451171875
1695713784689468200,7.35346826171875,-0.35430908203125,1.831512451171875,0.12298583984375
1695713784699020000,7.36302001953125,-0.638275146484375,1.7431640625,0.713348388671875
1695713784708541400,7.37254150390625,-0.76812744140625,0.3448486328125,1.387786865234375
1695713784718093600,7.382093505859375,-0.552520751953125,-1.8072509765625,1.1981201171875
1695713784727645400,7.3916455078125,-0.06561279296875,-2.829132080078125,0.032501220703125
1695713784737197600,7.401197509765625,0.157012939453125,-1.689300537109375,-0.9271240234375
1695713784746719000,7.410718994140625,0.31707763671875,-0.297698974609375,-0.44036865234375
1695713784756271000,7.42027099609375,0.416412353515625,-0.610809326171875,1.046295166015625
1695713784765823000,7.429822998046875,0.373077392578125,-1.014862060546875,2.02911376953125
1695713784775375000,7.439375,0.051727294921875,-0.637969970703125,1.90643310546875
1695713784784927000,7.448927001953125,-0.305023193359375,-0.07537841796875,1.3299560546875
1695713784794479000,7.45847900390625,-0.612030029296875,-0.3228759765625,1.572265625
1695713784804031000,7.468031005859375,-0.683746337890625,-0.83648681640625,2.2808837890625
1695713784813583000,7.4775830078125,-0.3411865234375,-1.615447998046875,2.7349853515625
1695713784823135000,7.487135009765625,0.145111083984375,-2.1954345703125,2.610931396484375
1695713784832687000,7.49668701171875,0.497283935546875,-1.624298095703125,2.00531005859375
1695713784842208500,7.50620849609375,0.65216064453125,-0.665435791015625,1.472930908203125
1695713784851760600,7.5157607421875,0.66864013671875,-0.39520263671875,1.351318359375
1695713784861312500,7.5253125,0.6182861328125,-0.572662353515625,1.425628662109375
1695713784870864600,7.53486474609375,0.460052490234375,-0.76812744140625,1.59423828125
1695713784880386000,7.544385986328125,0.22064208984375,-0.968475341796875,1.797943115234375
1695713784889938000,7.55393798828125,-0.03265380859375,-1.21795654296875,1.9342041015625
1695713784899490000,7.563489990234375,-0.233917236328125,-1.50238037109375,1.9720458984375
1695713784909042000,7.5730419921875,-0.330963134765625,-1.680145263671875,1.94488525390625
1695713784918594000,7.582593994140625,-0.321197509765625,-1.660003662109375,1.890411376953125
1695713784928115500,7.592115478515625,-0.253753662109375,-1.42120361328125,1.820526123046875
1695713784937667600,7.60166748046875,-0.197296142578125,-1.12945556640625,1.72119140625
1695713784947219500,7.611219482421875,-0.174407958984375,-0.959320068359375,1.5972900390625
1695713784956771600,7.620771484375,-0.177764892578125,-0.898590087890625,1.476898193359375
1695713784966323500,7.630323486328125,-0.205230712890625,-0.893402099609375,1.386566162109375
1695713784975845000,7.63984521484375,-0.250396728515625,-0.915374755859375,1.331787109375
1695713784985397000,7.64939697265625,-0.283050537109375,-0.899505615234375,1.31988525390625
1695713784994949000,7.65894921875,-0.297393798828125,-0.84228515625,1.343994140625
1695713785004501000,7.6685009765625,-0.309600830078125,-0.8001708984375,1.35955810546875
1695713785014053000,7.67805322265625,-0.332794189453125,-0.8453369140625,1.369476318359375
1695713785023574500,7.687574462890625,-0.34637451171875,-0.859375,1.403961181640625
1695713785033126400,7.69712646484375,-0.36041259765625,-0.855712890625,1.443328857421875
1695713785042678500,7.706678466796875,-0.3863525390625,-0.811767578125,1.476898193359375
1695713785052230400,7.71623046875,-0.42694091796875,-0.74554443359375,1.484832763671875
1695713785061752000,7.725751953125,-0.47943115234375,-0.70281982421875,1.455841064453125
1695713785071334400,7.73533447265625,-0.525665283203125,-0.699462890625,1.408538818359375
1695713785080886500,7.744886474609375,-0.548858642578125,-0.7464599609375,1.34246826171875
1695713785090438400,7.7544384765625,-0.554656982421875,-0.79803466796875,1.24359130859375
1695713785099990500,7.763990478515625,-0.555572509765625,-0.809326171875,1.107025146484375
1695713785109512000,7.773511962890625,-0.569305419921875,-0.78460693359375,0.93780517578125
1695713785119064000,7.78306396484375,-0.596466064453125,-0.7989501953125,0.760955810546875
1695713785128616000,7.792615966796875,-0.619049072265625,-0.874176025390625,0.5926513671875
1695713785138168000,7.80216796875,-0.607452392578125,-0.876617431640625,0.433807373046875
1695713785147720000,7.811719970703125,-0.540008544921875,-0.81268310546875,0.295562744140625
1695713785157241600,7.82124169921875,-0.45867919921875,-0.70526123046875,0.20172119140625
1695713785166793500,7.83079345703125,-0.40618896484375,-0.583343505859375,0.13885498046875
1695713785176345600,7.840345703125,-0.4046630859375,-0.543060302734375,0.077667236328125
1695713785185897500,7.8498974609375,-0.42572021484375,-0.612030029296875,0.005645751953125
1695713785195419000,7.8594189453125,-0.44647216796875,-0.667266845703125,-0.07476806640625
1695713785204971000,7.868970947265625,-0.45013427734375,-0.602569580078125,-0.16845703125
1695713785214523000,7.87852294921875,-0.4364013671875,-0.46356201171875,-0.294952392578125
1695713785224075000,7.888074951171875,-0.3985595703125,-0.319061279296875,-0.47149658203125
1695713785233627000,7.897626953125,-0.301971435546875,-0.198516845703125,-0.709381103515625
1695713785243148500,7.9071484375,-0.14923095703125,-0.13946533203125,-1.008148193359375
1695713785252700400,7.916700439453125,0.015716552734375,-0.054931640625,-1.341705322265625
1695713785262252500,7.92625244140625,0.147247314453125,0.180816650390625,-1.64398193359375
1695713785271804400,7.935804443359375,0.28076171875,0.5804443359375,-1.92779541015625
1695713785281356500,7.9453564453125,0.434112548828125,0.98968505859375,-2.2320556640625
1695713785290878000,7.9548779296875,0.5694580078125,1.195831298828125,-2.500762939453125
1695713785300430000,7.96443017578125,0.6829833984375,1.131439208984375,-2.68463134765625
1695713785309982000,7.97398193359375,0.738067626953125,0.9326171875,-2.832183837890625
1695713785319534000,7.9835341796875,0.71929931640625,0.6097412109375,-2.967529296875
1695713785329086000,7.9930859375,0.6011962890625,0.167388916015625,-3.04718017578125
1695713785338607400,8.002607421875,0.390472412109375,-0.217742919921875,-3.07952880859375
1695713785348159500,8.012159423828125,0.181732177734375,-0.3802490234375,-3.10394287109375
1695713785357711400,8.02171142578125,0.120086669921875,-0.36041259765625,-3.144073486328125
1695713785367294000,8.0312939453125,0.2008056640625,-0.386962890625,-3.144989013671875
1695713785376815400,8.0408154296875,0.230712890625,-0.576934814453125,-3.03192138671875
1695713785386367500,8.050367431640625,0.18402099609375,-0.79010009765625,-2.771148681640625
1695713785395919400,8.05991943359375,0.196533203125,-0.642852783203125,-2.37701416015625
1695713785405471500,8.069471435546875,0.27130126953125,-0.172882080078125,-1.99676513671875
1695713785415023400,8.0790234375,0.432586669921875,0.423736572265625,-1.703643798828125
1695713785424545000,8.088544921875,0.5718994140625,0.892486572265625,-1.6070556640625
1695713785434097000,8.098096923828125,0.5853271484375,1.251373291015625,-1.769256591796875
1695713785443649000,8.10764892578125,0.522613525390625,1.509857177734375,-2.0355224609375
1695713785453201000,8.117200927734375,0.415802001953125,1.756591796875,-2.204132080078125
1695713785462753000,8.1267529296875,0.3253173828125,1.858062744140625,-2.29949951171875
1695713785472274400,8.1362744140625,0.30975341796875,1.71844482421875,-2.3358154296875
1695713785481826600,8.14582666015625,0.369110107421875,1.577911376953125,-2.28546142578125
1695713785491378400,8.15537841796875,0.455780029296875,1.538238525390625,-2.154693603515625
1695713785500930600,8.1649306640625,0.543975830078125,1.546478271484375,-1.9586181640625
1695713785510452000,8.174451904296875,0.6353759765625,1.540679931640625,-1.725311279296875
1695713785520003800,8.18400390625,0.736541748046875,1.478729248046875,-1.473846435546875
1695713785529556000,8.193555908203125,0.832061767578125,1.4007568359375,-1.209716796875
1695713785539107800,8.20310791015625,0.884552001953125,1.39556884765625,-0.956573486328125
1695713785548660000,8.212659912109375,0.890045166015625,1.45172119140625,-0.743255615234375
1695713785558181400,8.222181396484375,0.843963623046875,1.503753662109375,-0.572509765625
1695713785567733500,8.2317333984375,0.785369873046875,1.487579345703125,-0.42205810546875
1695713785577285400,8.241285400390625,0.728302001953125,1.38427734375,-0.249786376953125
1695713785586837500,8.25083740234375,0.66192626953125,1.188201904296875,-0.036468505859375
1695713785596389400,8.260389404296875,0.60760498046875,0.95672607421875,0.205078125
1695713785605911000,8.2699111328125,0.5853271484375,0.751190185546875,0.46661376953125
1695713785615463000,8.279462890625,0.55877685546875,0.56243896484375,0.754852294921875
1695713785625015000,8.28901513671875,0.55755615234375,0.439605712890625,1.070709228515625
1695713785634567000,8.29856689453125,0.57525634765625,0.406036376953125,1.397857666015625
1695713785644119000,8.308119140625,0.58563232421875,0.473175048828125,1.70440673828125
1695713785653671000,8.3176708984375,0.57769775390625,0.59814453125,1.953125
1695713785663223000,8.32722314453125,0.5731201171875,0.771331787109375,2.05841064453125
1695713785672775000,8.33677490234375,0.59722900390625,0.9320068359375,1.9439697265625
1695713785682327000,8.3463271484375,0.6500244140625,1.01348876953125,1.602783203125
1695713785691848400,8.355848388671875,0.704345703125,1.0711669921875,1.042022705078125
1695713785701400300,8.365400390625,0.655517578125,1.2750244140625,0.2667236328125
1695713785710952400,8.374952392578125,0.447845458984375,1.486663818359375,-0.727081298828125
1695713785720504300,8.38450439453125,0.30670166015625,1.0418701171875,-1.431732177734375
1695713785730056400,8.394056396484375,0.476226806640625,0.077667236328125,-1.493377685546875
1695713785739577900,8.403577880859375,0.7012939453125,-0.7147216796875,-1.13983154296875
1695713785749130000,8.4131298828125,0.68115234375,-0.83526611328125,-0.736846923828125
1695713785758681900,8.422681884765625,0.440826416015625,-0.275726318359375,-0.44921875
1695713785768234000,8.43223388671875,0.19622802734375,0.531463623046875,-0.276336669921875
1695713785777785900,8.441785888671875,0.078582763671875,1.27838134765625,-0.1043701171875
1695713785787307500,8.4513076171875,-0.03936767578125,1.847076416015625,0.2099609375
1695713785796859400,8.460859375,-0.316619873046875,2.01873779296875,0.745697021484375
1695713785806411500,8.47041162109375,-0.654449462890625,1.095733642578125,1.6009521484375
1695713785815963400,8.47996337890625,-0.890655517578125,-1.291046142578125,2.170867919921875
1695713785825484800,8.48948486328125,-0.8135986328125,-3.68255615234375,1.379241943359375
1695713785835037000,8.499036865234375,-0.36834716796875,-3.093109130859375,-1.021881103515625
1695713785844588800,8.5085888671875,0.2825927734375,-0.4473876953125,-1.539306640625
1695713785854141000,8.518140869140625,0.774383544921875,0.027313232421875,0.441741943359375
1695713785863692800,8.52769287109375,0.94757080078125,-0.775146484375,2.005615234375
1695713785873214500,8.53721435546875,0.750885009765625,-0.7708740234375,2.469940185546875
1695713785882766300,8.546766357421875,0.30059814453125,0.005035400390625,1.819000244140625
1695713785892318500,8.556318359375,-0.142822265625,0.080108642578125,0.9857177734375
1695713785901870300,8.565870361328125,-0.605621337890625,-0.994415283203125,1.23382568359375
1695713785911422500,8.57542236328125,-0.975799560546875,-1.92840576171875,2.0062255859375
1695713785920943900,8.58494384765625,-0.929107666015625,-2.54852294921875,2.556915283203125
1695713785930526500,8.5945263671875,-0.4351806640625,-2.710723876953125,2.577972412109375
1695713785940078300,8.604078369140625,0.103607177734375,-1.86614990234375,2.117156982421875
1695713785949630500,8.61363037109375,0.402984619140625,-0.548248291015625,1.509552001953125
1695713785959151900,8.62315185546875,0.498199462890625,0.078582763671875,1.147613525390625
1695713785968704000,8.6327041015625,0.428924560546875,0.022735595703125,1.054534912109375
1695713785978256000,8.642255859375,0.24169921875,-0.3448486328125,1.1932373046875
1695713785987808000,8.65180810546875,0.028533935546875,-0.882110595703125,1.479034423828125
1695713785997359900,8.66135986328125,-0.1580810546875,-1.399688720703125,1.730194091796875
1695713786006881300,8.67088134765625,-0.240020751953125,-1.660919189453125,1.811065673828125
1695713786016433400,8.680433349609375,-0.212249755859375,-1.625213623046875,1.760406494140625
1695713786025985300,8.6899853515625,-0.12939453125,-1.327667236328125,1.671142578125
1695713786035537400,8.699537353515625,-0.04608154296875,-0.943145751953125,1.62384033203125
1695713786045089300,8.70908935546875,-0.03387451171875,-0.683135986328125,1.5911865234375
1695713786054611000,8.71861083984375,-0.07659912109375,-0.541839599609375,1.519927978515625
1695713786064162800,8.728162841796875,-0.159759521484375,-0.567169189453125,1.366424560546875
1695713786073715000,8.73771484375,-0.252227783203125,-0.639190673828125,1.2103271484375
1695713786083266800,8.747266845703125,-0.303802490234375,-0.559234619140625,1.153411865234375
1695713786092819000,8.75681884765625,-0.318756103515625,-0.447998046875,1.174468994140625
1695713786102340400,8.76634033203125,-0.300750732421875,-0.4119873046875,1.20941162109375
1695713786111892500,8.775892578125,-0.279998779296875,-0.43060302734375,1.2347412109375
1695713786121444400,8.7854443359375,-0.267181396484375,-0.45806884765625,1.2646484375
1695713786130996500,8.79499658203125,-0.269927978515625,-0.47210693359375,1.2811279296875
1695713786140518000,8.804517822265625,-0.304107666015625,-0.5035400390625,1.285400390625
1695713786150069800,8.81406982421875,-0.357666015625,-0.527801513671875,1.28265380859375
1695713786159622000,8.823621826171875,-0.41290283203125,-0.529327392578125,1.290283203125
1695713786169173800,8.833173828125,-0.44677734375,-0.559844970703125,1.290283203125
1695713786178726000,8.842725830078125,-0.445556640625,-0.621490478515625,1.27685546875
1695713786188247300,8.852247314453125,-0.4254150390625,-0.673675537109375,1.25335693359375
1695713786197799400,8.86179931640625,-0.40191650390625,-0.687103271484375,1.187744140625
1695713786207351300,8.871351318359375,-0.3924560546875,-0.677337646484375,1.072845458984375
1695713786216903400,8.8809033203125,-0.4132080078125,-0.670623779296875,0.9344482421875
1695713786226486000,8.890486083984374,-0.45928955078125,-0.683746337890625,0.791168212890625
1695713786236007400,8.90000732421875,-0.5023193359375,-0.74981689453125,0.654144287109375
1695713786245559300,8.909559326171875,-0.513916015625,-0.83404541015625,0.521240234375
1695713786255111400,8.919111328125,-0.4888916015625,-0.85906982421875,0.401153564453125
1695713786264663300,8.928663330078125,-0.45135498046875,-0.81787109375,0.320587158203125
1695713786274185000,8.93818505859375,-0.4107666015625,-0.75714111328125,0.28076171875
1695713786283736800,8.94773681640625,-0.38238525390625,-0.71136474609375,0.26275634765625
1695713786293289000,8.9572890625,-0.3680419921875,-0.71136474609375,0.230712890625
1695713786302840800,8.9668408203125,-0.35430908203125,-0.73333740234375,0.16082763671875
1695713786312393000,8.97639306640625,-0.332794189453125,-0.71197509765625,0.061187744140625
1695713786321914400,8.985914306640625,-0.308990478515625,-0.631561279296875,-0.0579833984375
1695713786331466200,8.99546630859375,-0.278472900390625,-0.5126953125,-0.19561767578125
1695713786341018400,9.005018310546875,-0.223846435546875,-0.36529541015625,-0.382537841796875
1695713786350570200,9.0145703125,-0.13702392578125,-0.247344970703125,-0.661468505859375
1695713786360122400,9.024122314453125,0.006561279296875,-0.203399658203125,-1.026763916015625
1695713786369643800,9.033643798828125,0.21240234375,-0.10040283203125,-1.363067626953125
1695713786379196000,9.04319580078125,0.451812744140625,0.21881103515625,-1.5863037109375
1695713786388747800,9.052747802734375,0.65521240234375,0.780792236328125,-1.771392822265625
1695713786398300000,9.0622998046875,0.754852294921875,1.224822998046875,-1.9561767578125
1695713786407851800,9.071851806640625,0.815887451171875,1.211700439453125,-2.134857177734375
1695713786417373400,9.08137353515625,0.757598876953125,1.070556640625,-2.36114501953125
1695713786426925300,9.09092529296875,0.59295654296875,0.95428466796875,-2.65716552734375
1695713786436477400,9.1004775390625,0.418243408203125,0.66619873046875,-2.916717529296875
1695713786446029300,9.110029296875,0.27984619140625,0.165557861328125,-3.0511474609375
1695713786455550700,9.11955078125,0.21575927734375,-0.3436279296875,-3.116302490234375
1695713786465102800,9.129102783203125,0.21636962890625,-0.671234130859375,-3.160858154296875
1695713786474654700,9.13865478515625,0.223388671875,-0.77301025390625,-3.154144287109375
1695713786484206800,9.148206787109375,0.20599365234375,-0.930023193359375,-3.1072998046875
1695713786493758700,9.1577587890625,0.18798828125,-1.14776611328125,-2.9852294921875
1695713786503310800,9.167310791015625,0.178375244140625,-1.075439453125,-2.7056884765625
1695713786512862700,9.17686279296875,0.20782470703125,-0.45989990234375,-2.2625732421875
1695713786522414800,9.186414794921875,0.260009765625,0.234375,-1.9390869140625
1695713786531966700,9.195966796875,0.355224609375,0.903167724609375,-1.743316650390625
1695713786541518800,9.205518798828125,0.469207763671875,1.461029052734375,-1.696929931640625
1695713786551040300,9.215040283203125,0.499420166015625,1.842498779296875,-1.88232421875
1695713786560592400,9.22459228515625,0.424652099609375,1.98272705078125,-2.171478271484375
1695713786570144300,9.234144287109375,0.27740478515625,1.947174072265625,-2.36328125
1695713786579696400,9.2436962890625,0.155181884765625,1.7938232421875,-2.467193603515625
1695713786589217800,9.2532177734375,0.145111083984375,1.583099365234375,-2.471466064453125
1695713786598770000,9.26277001953125,0.23284912109375,1.45233154296875,-2.3883056640625
1695713786608321800,9.27232177734375,0.369415283203125,1.44439697265625,-2.23358154296875
1695713786617874000,9.2818740234375,0.503997802734375,1.486663818359375,-2.025146484375
1695713786627425800,9.29142578125,0.609130859375,1.467132568359375,-1.801910400390625
1695713786636947200,9.300947265625,0.72174072265625,1.4324951171875,-1.56341552734375
1695713786646499300,9.310499267578125,0.799102783203125,1.461639404296875,-1.324005126953125
1695713786656051200,9.32005126953125,0.814666748046875,1.523284912109375,-1.093292236328125
1695713786665603300,9.329603271484375,0.784454345703125,1.590728759765625,-0.8941650390625
1695713786675155200,9.3391552734375,0.735015869140625,1.613616943359375,-0.728607177734375
1695713786684676900,9.3486767578125,0.6781005859375,1.517486572265625,-0.565185546875
1695713786694228700,9.358228759765625,0.6170654296875,1.31744384765625,-0.385894775390625
1695713786703780900,9.36778076171875,0.5621337890625,1.07025146484375,-0.16876220703125
1695713786713332700,9.377332763671875,0.513763427734375,0.807952880859375,0.079193115234375
1695713786722854400,9.3868544921875,0.477142333984375,0.570068359375,0.352020263671875
1695713786732406300,9.39640625,0.457305908203125,0.373077392578125,0.63751220703125
1695713786741958400,9.40595849609375,0.445709228515625,0.205078125,0.92620849609375
1695713786751510300,9.41551025390625,0.431060791015625,0.074310302734375,1.2188720703125
1695713786761062400,9.4250625,0.422210693359375,-0.0030517578125,1.495513916015625
1695713786770583800,9.434583740234375,0.417938232421875,-0.009765625,1.71600341796875
1695713786780135700,9.4441357421875,0.391082763671875,0.073089599609375,1.811676025390625
1695713786789718300,9.45371826171875,0.3533935546875,0.28228759765625,1.72027587890625
1695713786799270400,9.4632705078125,0.32684326171875,0.523223876953125,1.488800048828125
1695713786808822300,9.472822265625,0.34149169921875,0.751800537109375,1.146087646484375
1695713786818343700,9.48234375,0.35369873046875,1.03240966796875,0.6097412109375
1695713786827895800,9.491895751953125,0.3070068359375,1.4300537109375,-0.247039794921875
1695713786837447700,9.50144775390625,0.2545166015625,1.551666259765625,-1.071929931640625
1695713786846999800,9.510999755859375,0.3326416015625,0.92681884765625,-1.333160400390625
1695713786856551700,9.5205517578125,0.498809814453125,-0.227203369140625,-1.106109619140625
1695713786866073300,9.5300732421875,0.538482666015625,-1.046905517578125,-0.754241943359375
1695713786875625200,9.539625244140625,0.380401611328125,-1.042938232421875,-0.45166015625
1695713786885177300,9.54917724609375,0.156402587890625,-0.40252685546875,-0.23406982421875
1695713786894729200,9.558729248046875,0.029144287109375,0.478363037109375,-0.09033203125
1695713786904251000,9.5682509765625,0.042572021484375,1.30828857421875,0.073394775390625
1695713786913802800,9.577802734375,0.059356689453125,1.925201416015625,0.371246337890625
1695713786923355000,9.58735498046875,-0.025634765625,2.173614501953125,0.8807373046875
1695713786932906800,9.59690673828125,-0.12847900390625,1.280517578125,1.69921875
1695713786942459000,9.606458984375,-0.277557373046875,-1.625213623046875,2.173309326171875
1695713786951980300,9.615980224609375,-0.35888671875,-4.513397216796875,1.472320556640625
1695713786961532200,9.6255322265625,-0.249481201171875,-3.177642822265625,-0.636444091796875
1695713786971084300,9.635084228515625,0.3558349609375,0.2593994140625,-1.23748779296875
1695713786980636200,9.64463623046875,0.869293212890625,0.29937744140625,0.25360107421875
1695713786990188300,9.654188232421875,1.04248046875,-0.787353515625,1.534881591796875
1695713786999709700,9.663709716796875,0.93048095703125,-0.43701171875,1.874847412109375
1695713787009261800,9.67326171875,0.483856201171875,0.9539794921875,1.087799072265625
1695713787018813700,9.682813720703125,-0.12481689453125,0.509490966796875,0.334930419921875
1695713787028365800,9.69236572265625,-0.701141357421875,-1.06719970703125,0.89019775390625
1695713787037887200,9.70188720703125,-1.017913818359375,-2.022857666015625,1.9140625
1695713787047439400,9.711439453125,-0.936737060546875,-2.52197265625,2.609710693359375
1695713787056991200,9.7209912109375,-0.525970458984375,-2.51373291015625,2.70355224609375
1695713787066543400,9.73054345703125,0.0006103515625,-1.5728759765625,2.261810302734375
1695713787076095200,9.74009521484375,0.428619384765625,-0.304718017578125,1.6217041015625
1695713787085647400,9.7496474609375,0.6158447265625,0.30548095703125,1.2115478515625
1695713787095199200,9.75919921875,0.61553955078125,0.27801513671875,1.093597412109375
1695713787104751400,9.76875146484375,0.472869873046875,-0.01983642578125,1.19873046875
1695713787114303200,9.77830322265625,0.28472900390625,-0.367431640625,1.425323486328125
1695713787123855400,9.78785546875,0.085906982421875,-0.7293701171875,1.673583984375
1695713787133376800,9.797376708984375,-0.07781982421875,-0.939483642578125,1.825408935546875
1695713787142928600,9.8069287109375,-0.158538818359375,-0.879669189453125,1.847686767578125
1695713787152480800,9.816480712890625,-0.161895751953125,-0.633087158203125,1.803741455078125
1695713787162032600,9.82603271484375,-0.10650634765625,-0.38330078125,1.753997802734375
1695713787171584800,9.835584716796875,-0.0604248046875,-0.33447265625,1.69525146484375
1695713787181106200,9.845106201171875,-0.06072998046875,-0.4840087890625,1.629638671875
1695713787190658300,9.854658203125,-0.0933837890625,-0.73638916015625,1.519622802734375
1695713787200210200,9.864210205078125,-0.13824462890625,-0.912322998046875,1.403045654296875
1695713787209762300,9.87376220703125,-0.192413330078125,-0.885162353515625,1.31744384765625
1695713787219283700,9.88328369140625,-0.253448486328125,-0.78826904296875,1.263427734375
1695713787228835800,9.8928359375,-0.298004150390625,-0.71136474609375,1.2481689453125
1695713787238387700,9.9023876953125,-0.316925048828125,-0.614776611328125,1.2628173828125
1695713787247939800,9.91193994140625,-0.326690673828125,-0.49530029296875,1.26983642578125
1695713787257491700,9.92149169921875,-0.343017578125,-0.41290283203125,1.2310791015625
1695713787267013000,9.93101318359375,-0.37689208984375,-0.3851318359375,1.179962158203125
1695713787276565200,9.940565185546875,-0.41290283203125,-0.408935546875,1.174163818359375
1695713787286117000,9.9501171875,-0.435791015625,-0.478515625,1.221923828125
1695713787295669200,9.959669189453125,-0.4443359375,-0.562591552734375,1.29547119140625
1695713787305221000,9.96922119140625,-0.44708251953125,-0.660552978515625,1.3250732421875
1695713787314742800,9.97874267578125,-0.443115234375,-0.71990966796875,1.275634765625
1695713787324294700,9.988294677734375,-0.43792724609375,-0.73150634765625,1.147613525390625
1695713787333846800,9.9978466796875,-0.44769287109375,-0.72784423828125,0.992431640625
1695713787343398700,10.007398681640625,-0.48553466796875,-0.73883056640625,0.845947265625
1695713787352920300,10.01692041015625,-0.533599853515625,-0.76507568359375,0.708770751953125
1695713787362502700,10.026502685546875,-0.565032958984375,-0.78033447265625,0.56121826171875
1695713787372054800,10.0360546875,-0.555572509765625,-0.76812744140625,0.417327880859375
1695713787381606700,10.045606689453125,-0.51300048828125,-0.7427978515625,0.315399169921875
1695713787391158800,10.05515869140625,-0.457763671875,-0.6976318359375,0.27130126953125
1695713787400680200,10.06468017578125,-0.404052734375,-0.635223388671875,0.26458740234375
1695713787410232300,10.074232421875,-0.372314453125,-0.597686767578125,0.24383544921875
1695713787419784200,10.0837841796875,-0.3509521484375,-0.591583251953125,0.1800537109375
1695713787429336300,10.09333642578125,-0.332489013671875,-0.586700439453125,0.086212158203125
1695713787438888200,10.10288818359375,-0.325164794921875,-0.579071044921875,-0.009613037109375
1695713787448409600,10.11240966796875,-0.329132080078125,-0.595550537109375,-0.09063720703125
1695713787457961700,10.121961669921875,-0.332794189453125,-0.640106201171875,-0.184326171875
1695713787467513600,10.131513671875,-0.332489013671875,-0.634307861328125,-0.338897705078125
1695713787477065700,10.141065673828125,-0.318145751953125,-0.49896240234375,-0.5828857421875
1695713787486587100,10.150587158203125,-0.256805419921875,-0.264434814453125,-0.921630859375
1695713787496139300,10.16013916015625,-0.13580322265625,-0.01220703125,-1.29180908203125
1695713787505691100,10.169691162109375,0.036468505859375,0.29022216796875,-1.61468505859375
1695713787515243300,10.1792431640625,0.2294921875,0.660400390625,-1.88507080078125
1695713787524795100,10.188795166015625,0.388031005859375,1.0797119140625,-2.146453857421875
1695713787534316800,10.19831689453125,0.497589111328125,1.33087158203125,-2.38555908203125
1695713787543868700,10.20786865234375,0.58990478515625,1.28814697265625,-2.586669921875
1695713787553420800,10.2174208984375,0.6170654296875,1.127471923828125,-2.781219482421875
1695713787562972700,10.22697265625,0.6005859375,0.893096923828125,-2.96051025390625
1695713787572524800,10.23652490234375,0.55572509765625,0.513763427734375,-3.08624267578125
1695713787582046200,10.246046142578125,0.473785400390625,0.052337646484375,-3.131256103515625
1695713787591598000,10.25559814453125,0.384368896484375,-0.33416748046875,-3.140716552734375
1695713787601150200,10.265150146484375,0.3173828125,-0.581207275390625,-3.143768310546875
1695713787610702000,10.2747021484375,0.2838134765625,-0.8465576171875,-3.117523193359375
1695713787620254200,10.284254150390625,0.2606201171875,-1.2225341796875,-3.0340576171875
1695713787629775600,10.293775634765625,0.21087646484375,-1.444091796875,-2.803497314453125
1695713787639327700,10.30332763671875,0.21575927734375,-1.024627685546875,-2.30133056640625
1695713787648879600,10.312879638671875,0.306396484375,-0.189971923828125,-1.821441650390625
1695713787658462200,10.322462158203125,0.421295166015625,0.788726806640625,-1.5655517578125
1695713787667983600,10.331983642578125,0.54473876953125,1.594696044921875,-1.55914306640625
1695713787677535700,10.34153564453125,0.6121826171875,1.906585693359375,-1.808929443359375
1695713787687087600,10.351087646484375,0.570068359375,1.920013427734375,-2.102813720703125
1695713787696639700,10.3606396484375,0.444488525390625,2.061767578125,-2.22686767578125
1695713787706191600,10.370191650390625,0.32440185546875,2.212677001953125,-2.27020263671875
1695713787715713300,10.37971337890625,0.25238037109375,2.1051025390625,-2.28759765625
1695713787725265200,10.38926513671875,0.2728271484375,1.826324462890625,-2.213134765625
1695713787734817300,10.3988173828125,0.389556884765625,1.599578857421875,-2.059478759765625
1695713787744369200,10.408369140625,0.478668212890625,1.4312744140625,-1.883544921875
1695713787753921300,10.41792138671875,0.528717041015625,1.2872314453125,-1.696929931640625
1695713787763442700,10.427442626953125,0.60150146484375,1.219024658203125,-1.475677490234375
1695713787772994600,10.43699462890625,0.66009521484375,1.251373291015625,-1.22955322265625
1695713787782546700,10.446546630859375,0.6561279296875,1.29241943359375,-0.996856689453125
1695713787792098600,10.4560986328125,0.60577392578125,1.29730224609375,-0.8038330078125
1695713787801650700,10.465650634765625,0.54718017578125,1.2738037109375,-0.651092529296875
1695713787811172000,10.475172119140625,0.486297607421875,1.196136474609375,-0.5157470703125
1695713787820724200,10.48472412109375,0.432891845703125,1.04034423828125,-0.363616943359375
1695713787830276000,10.494276123046875,0.384368896484375,0.800933837890625,-0.15533447265625
1695713787839828200,10.503828125,0.33935546875,0.511932373046875,0.11444091796875
1695713787849349600,10.513349609375,0.30609130859375,0.2392578125,0.425872802734375
1695713787858901800,10.52290185546875,0.277099609375,0.010833740234375,0.753326416015625
1695713787868453600,10.53245361328125,0.25390625,-0.167999267578125,1.085357666015625
1695713787878005800,10.542005859375,0.23345947265625,-0.297393798828125,1.425323486328125
1695713787887557600,10.5515576171875,0.23651123046875,-0.3656005859375,1.742095947265625
1695713787897079000,10.5610791015625,0.26397705078125,-0.382080078125,2.00408935546875
1695713787906631200,10.570631103515625,0.3009033203125,-0.32928466796875,2.149200439453125
1695713787916183000,10.58018310546875,0.343017578125,-0.205230712890625,2.113494873046875
1695713787925735200,10.589735107421875,0.36041259765625,-0.02899169921875,1.9122314453125
1695713787935287000,10.599287109375,0.333251953125,0.21148681640625,1.541900634765625
1695713787944839200,10.608839111328125,0.2783203125,0.59326171875,0.880126953125
1695713787954391000,10.61839111328125,0.205078125,1.04095458984375,-0.1715087890625
1695713787963943200,10.627943115234375,0.18585205078125,0.99456787109375,-1.18743896484375
1695713787973495000,10.6374951171875,0.29266357421875,0.18707275390625,-1.50146484375
1695713787983016700,10.6470166015625,0.473480224609375,-0.79559326171875,-1.25152587890625
1695713787992568600,10.656568603515625,0.506134033203125,-1.18255615234375,-0.953216552734375
1695713788002120700,10.66612060546875,0.33660888671875,-0.8270263671875,-0.718841552734375
1695713788011672600,10.675672607421875,0.19500732421875,-0.02410888671875,-0.546875
1695713788021224700,10.685224609375,0.1934814453125,0.845184326171875,-0.349884033203125
1695713788030746000,10.69474609375,0.22674560546875,1.66656494140625,0.057830810546875
1695713788040298200,10.70429833984375,0.21636962890625,2.298126220703125,0.731048583984375
1695713788049850000,10.71385009765625,0.102691650390625,2.227325439453125,1.689453125
1695713788059402200,10.72340234375,-0.09429931640625,0.5462646484375,2.64984130859375
1695713788068954000,10.7329541015625,-0.13824462890625,-2.8533935546875,2.679443359375
1695713788078475500,10.7424755859375,-0.05157470703125,-4.917449951171875,1.124420166015625
1695713788088027600,10.752027587890625,0.152435302734375,-2.467803955078125,-1.829376220703125
1695713788097579500,10.76157958984375,0.70465087890625,0.93414306640625,-2.074737548828125
1695713788107131600,10.771131591796875,1.07452392578125,1.244049072265625,0.080108642578125
1695713788116653000,10.780653076171875,1.136932373046875,-0.0103759765625,1.96868896484375
1695713788126205200,10.790205078125,0.947265625,-0.76568603515625,2.463836669921875
1695713788135757000,10.799757080078125,0.479583740234375,-0.324554443359375,1.62628173828125
1695713788145309200,10.80930908203125,-0.1507568359375,-0.174102783203125,0.742645263671875
1695713788154861000,10.818861083984375,-0.71197509765625,-0.954132080078125,1.018524169921875
1695713788164382700,10.8283828125,-1.06170654296875,-1.704559326171875,1.791229248046875
1695713788173934600,10.8379345703125,-0.998077392578125,-2.397918701171875,2.36236572265625
1695713788183486700,10.84748681640625,-0.527801513671875,-2.60040283203125,2.487945556640625
1695713788193038600,10.85703857421875,0.030059814453125,-1.5545654296875,2.163848876953125
1695713788202590700,10.8665908203125,0.367889404296875,-0.06256103515625,1.651611328125
1695713788212112100,10.876112060546875,0.441741943359375,0.458831787109375,1.2774658203125
1695713788221694700,10.88569482421875,0.3289794921875,0.20263671875,1.118011474609375
1695713788231246600,10.89524658203125,0.149383544921875,-0.256500244140625,1.18560791015625
1695713788240798700,10.904798828125,0.015106201171875,-0.7403564453125,1.431732177734375
1695713788250350600,10.9143505859375,-0.0738525390625,-1.11419677734375,1.7083740234375
1695713788259872000,10.9238720703125,-0.10101318359375,-1.284637451171875,1.884307861328125
1695713788269424000,10.933424072265625,-0.04364013671875,-1.1016845703125,1.91864013671875
1695713788278976000,10.94297607421875,0.030364990234375,-0.77484130859375,1.820220947265625
1695713788288528100,10.952528076171875,0.010223388671875,-0.644378662109375,1.6455078125
1695713788298049500,10.962049560546875,-0.08758544921875,-0.653228759765625,1.437225341796875
1695713788307601700,10.9716015625,-0.215301513671875,-0.695037841796875,1.23504638671875
1695713788317153500,10.981153564453125,-0.267181396484375,-0.632476806640625,1.121063232421875
1695713788326705700,10.99070556640625,-0.287628173828125,-0.513763427734375,1.114654541015625
1695713788336257500,11.000257568359375,-0.325164794921875,-0.416259765625,1.114959716796875
1695713788345779200,11.009779296875,-0.37445068359375,-0.37384033203125,1.084747314453125
1695713788355331000,11.0193310546875,-0.41259765625,-0.39093017578125,1.053009033203125
1695713788364883200,11.02888330078125,-0.4351806640625,-0.50140380859375,1.026153564453125
1695713788374435000,11.03843505859375,-0.4425048828125,-0.615692138671875,1.027069091796875
1695713788383987200,11.0479873046875,-0.4412841796875,-0.684356689453125,1.065216064453125
1695713788393508600,11.057508544921875,-0.4364013671875,-0.69976806640625,1.107025146484375
1695713788403060500,11.067060546875,-0.450439453125,-0.661773681640625,1.118011474609375
1695713788412612600,11.076612548828125,-0.48797607421875,-0.620880126953125,1.105499267578125
1695713788422164500,11.08616455078125,-0.546112060546875,-0.611724853515625,1.095733642578125
1695713788431686100,11.09568603515625,-0.590667724609375,-0.641021728515625,1.089324951171875
1695713788441238000,11.105238037109375,-0.601654052734375,-0.71014404296875,1.081695556640625
1695713788450790100,11.1147900390625,-0.585479736328125,-0.76446533203125,1.070404052734375
1695713788460342000,11.124342041015625,-0.559234619140625,-0.7781982421875,1.047821044921875
1695713788469894100,11.13389404296875,-0.547637939453125,-0.7672119140625,1.007080078125
1695713788479415600,11.14341552734375,-0.570526123046875,-0.743408203125,0.94390869140625
1695713788488967700,11.1529677734375,-0.612030029296875,-0.72784423828125,0.84716796875
1695713788498519600,11.16251953125,-0.637359619140625,-0.690155029296875,0.718231201171875
1695713788508071700,11.17207177734375,-0.629425048828125,-0.584869384765625,0.60150146484375
1695713788517654000,11.181654052734375,-0.596466064453125,-0.4693603515625,0.53009033203125
1695713788527175700,11.19117578125,-0.568084716796875,-0.40374755859375,0.479736328125
1695713788536727600,11.2007275390625,-0.522918701171875,-0.43731689453125,0.427703857421875
1695713788546279700,11.21027978515625,-0.46661376953125,-0.530548095703125,0.371856689453125
1695713788555831600,11.21983154296875,-0.41534423828125,-0.576324462890625,0.311737060546875
1695713788565383700,11.2293837890625,-0.3826904296875,-0.541534423828125,0.25787353515625
1695713788574905000,11.238905029296875,-0.36041259765625,-0.48675537109375,0.1788330078125
1695713788584457000,11.24845703125,-0.305633544921875,-0.521392822265625,0.037384033203125
1695713788594009000,11.258009033203125,-0.184783935546875,-0.567779541015625,-0.1641845703125
1695713788603561000,11.26756103515625,-0.05615234375,-0.44281005859375,-0.388336181640625
1695713788613113000,11.277113037109375,0.029449462890625,-0.10467529296875,-0.652923583984375
1695713788622695700,11.28669580078125,0.076751708984375,0.31158447265625,-0.970306396484375
1695713788632308700,11.296308837890624,0.134124755859375,0.70343017578125,-1.3043212890625
1695713788641891000,11.30589111328125,0.2410888671875,1.00677490234375,-1.62384033203125
1695713788651504000,11.315504150390625,0.404510498046875,1.197357177734375,-1.91986083984375
1695713788661086700,11.325086669921875,0.60211181640625,1.112213134765625,-2.135162353515625
1695713788670699800,11.33469970703125,0.727386474609375,0.793914794921875,-2.3004150390625
1695713788680282400,11.344282470703124,0.773773193359375,0.444183349609375,-2.465667724609375
1695713788698989600,11.362989501953125,0.735321044921875,-0.275421142578125,-2.803802490234375
1695713788718063000,11.38206298828125,0.519256591796875,-0.7208251953125,-2.9632568359375
1695713788727645400,11.3916455078125,0.424041748046875,-0.71258544921875,-2.95318603515625
1695713788737197600,11.401197509765625,0.386199951171875,-0.7379150390625,-2.909393310546875
1695713788746719000,11.410718994140625,0.376129150390625,-1.000213623046875,-2.862091064453125
1695713788756271000,11.42027099609375,0.352783203125,-1.297454833984375,-2.734375
1695713788765823000,11.429822998046875,0.345458984375,-1.09283447265625,-2.416534423828125
1695713788775375000,11.439375,0.415496826171875,-0.326995849609375,-1.981201171875
1695713788784927000,11.448927001953125,0.487823486328125,0.531158447265625,-1.728668212890625
1695713788794479000,11.45847900390625,0.528106689453125,1.38427734375,-1.627197265625
1695713788804031000,11.468031005859375,0.532379150390625,1.933746337890625,-1.769866943359375
1695713788813583000,11.4775830078125,0.420074462890625,2.11212158203125,-2.085113525390625
1695713788823135000,11.487135009765625,0.2392578125,2.03369140625,-2.3321533203125
1695713788832687000,11.49668701171875,0.100250244140625,1.860809326171875,-2.463226318359375
1695713788842208500,11.50620849609375,0.057830810546875,1.542816162109375,-2.516021728515625
1695713788851760600,11.5157607421875,0.088043212890625,1.216888427734375,-2.463836669921875
1695713788861312500,11.5253125,0.168609619140625,1.100311279296875,-2.30316162109375
1695713788870864600,11.53486474609375,0.2960205078125,1.190338134765625,-2.085418701171875
1695713788880386000,11.544385986328125,0.430450439453125,1.32904052734375,-1.86737060546875
1695713788889938000,11.55393798828125,0.511932373046875,1.36474609375,-1.696319580078125
1695713788899490000,11.563489990234375,0.5828857421875,1.329345703125,-1.53411865234375
1695713788909042000,11.5730419921875,0.6640625,1.36138916015625,-1.354217529296875
1695713788918594000,11.582593994140625,0.6982421875,1.43402099609375,-1.1700439453125
1695713788928115500,11.592115478515625,0.6805419921875,1.464691162109375,-0.990447998046875
1695713788937667600,11.60166748046875,0.63873291015625,1.4056396484375,-0.83709716796875
1695713788947219500,11.611219482421875,0.58624267578125,1.258697509765625,-0.688323974609375
1695713788956771600,11.620771484375,0.506439208984375,1.03851318359375,-0.506591796875
1695713788966323500,11.630323486328125,0.401763916015625,0.784149169921875,-0.280303955078125
1695713788975845000,11.63984521484375,0.28839111328125,0.549774169921875,-0.029449462890625
1695713788985397000,11.64939697265625,0.19195556640625,0.381317138671875,0.234375
1695713788994949000,11.65894921875,0.135345458984375,0.25482177734375,0.50628662109375
1695713789004501000,11.6685009765625,0.131988525390625,0.155792236328125,0.789947509765625
1695713789014053000,11.67805322265625,0.155792236328125,0.099945068359375,1.071929931640625
1695713789023574500,11.687574462890625,0.170440673828125,0.053558349609375,1.32598876953125
1695713789033126400,11.69712646484375,0.159759521484375,0.048370361328125,1.504364013671875
1695713789042678500,11.706678466796875,0.117340087890625,0.072174072265625,1.55059814453125
1695713789052230400,11.71623046875,0.048675537109375,0.129241943359375,1.438751220703125
1695713789061752000,11.725751953125,-0.03326416015625,0.23529052734375,1.20635986328125
1695713789071304000,11.735303955078125,-0.081787109375,0.394134521484375,0.865478515625
1695713789080886500,11.744886474609375,-0.0537109375,0.611572265625,0.365447998046875
1695713789090438400,11.7544384765625,0.033721923828125,0.859832763671875,-0.312042236328125
1695713789099990500,11.763990478515625,0.113067626953125,0.94573974609375,-0.960540771484375
1695713789109512000,11.773511962890625,0.158843994140625,0.6854248046875,-1.29669189453125
1695713789119064000,11.78306396484375,0.183563232421875,0.053558349609375,-1.27044677734375
1695713789128616000,11.792615966796875,0.175323486328125,-0.594329833984375,-0.991363525390625
1695713789138168000,11.80216796875,0.178985595703125,-0.775146484375,-0.659027099609375
1695713789147720000,11.811719970703125,0.2093505859375,-0.50201416015625,-0.42510986328125
1695713789157241600,11.82124169921875,0.224609375,0.008087158203125,-0.293426513671875
1695713789166793500,11.83079345703125,0.1971435546875,0.57037353515625,-0.19989013671875
1695713789176345600,11.840345703125,0.161895751953125,1.04156494140625,-0.0958251953125
1695713789185897500,11.8498974609375,0.162811279296875,1.204986572265625,0.088958740234375
1695713789195419000,11.8594189453125,0.22613525390625,1.0626220703125,0.381622314453125
1695713789204971000,11.868970947265625,0.30487060546875,0.806427001953125,0.85479736328125
1695713789214523000,11.87852294921875,0.33538818359375,0.070037841796875,1.392364501953125
1695713789224075000,11.888074951171875,0.23040771484375,-1.48529052734375,1.339111328125
1695713789233627000,11.897626953125,0.083770751953125,-2.354583740234375,0.6353759765625
1695713789243148500,11.9071484375,-0.03814697265625,-1.11846923828125,-0.7952880859375
1695713789252700400,11.916700439453125,0.2362060546875,0.756683349609375,-1.6534423828125
1695713789262252500,11.92625244140625,0.509796142578125,-0.015869140625,-0.746307373046875
1695713789271804400,11.935804443359375,0.540008544921875,-1.1822509765625,0.601806640625
1695713789281356500,11.9453564453125,0.30670166015625,-1.19049072265625,1.34368896484375
1695713789290878000,11.9548779296875,-0.1519775390625,-0.223236083984375,0.98480224609375
1695713789300430000,11.96443017578125,-0.615081787109375,0.861053466796875,0.1715087890625
1695713789309982000,11.97398193359375,-0.885162353515625,0.97747802734375,0.20751953125
1695713789319534000,11.9835341796875,-0.7623291015625,0.522918701171875,1.1920166015625
1695713789329086000,11.9930859375,-0.41351318359375,-0.7818603515625,2.4053955078125
1695713789338607400,12.002607421875,-0.009765625,-2.336883544921875,3.166656494140625
1695713789348159500,12.012159423828125,0.499725341796875,-3.01910400390625,3.12347412109375
1695713789357711400,12.02171142578125,0.9100341796875,-2.331695556640625,2.35107421875
1695713789367294000,12.0312939453125,1.051025390625,-1.004791259765625,1.508941650390625
1695713789376815400,12.0408154296875,0.98876953125,-0.04486083984375,1.147308349609375
1695713789386367500,12.050367431640625,0.753021240234375,0.28228759765625,1.19842529296875
1695713789395919400,12.05991943359375,0.429534912109375,0.2532958984375,1.33331298828125
1695713789405471500,12.069471435546875,0.105438232421875,0.055389404296875,1.394500732421875
1695713789415023400,12.0790234375,-0.164031982421875,-0.252227783203125,1.3604736328125
1695713789424545000,12.088544921875,-0.33203125,-0.551300048828125,1.29425048828125
1695713789434097000,12.098096923828125,-0.413818359375,-0.75775146484375,1.27777099609375
1695713789443649000,12.10764892578125,-0.421142578125,-0.881500244140625,1.32049560546875
1695713789453201000,12.117200927734375,-0.3839111328125,-0.986785888671875,1.387786865234375
1695713789462753000,12.1267529296875,-0.317535400390625,-1.05621337890625,1.435394287109375
1695713789472274400,12.1362744140625,-0.265045166015625,-1.07330322265625,1.418609619140625
1695713789481826600,12.14582666015625,-0.265960693359375,-0.963897705078125,1.31378173828125
1695713789491378400,12.15537841796875,-0.311737060546875,-0.641632080078125,1.121673583984375
1695713789500930600,12.1649306640625,-0.41290283203125,-0.169219970703125,0.83892822265625
1695713789510452000,12.174451904296875,-0.525054931640625,-0.4248046875,0.61309814453125
1695713789520003800,12.18400390625,-0.548858642578125,-1.342315673828125,0.537109375
1695713789529556000,12.193555908203125,-0.47882080078125,-1.9171142578125,0.52642822265625
1695713789539107800,12.20310791015625,-0.343170166015625,-1.622467041015625,0.49346923828125
1695713789548660000,12.212659912109375,-0.260467529296875,-0.605926513671875,0.423431396484375
1695713789558181400,12.222181396484375,-0.312042236328125,0.411224365234375,0.297698974609375
1695713789567733500,12.2317333984375,-0.45867919921875,0.514984130859375,0.186767578125
1695713789577285400,12.241285400390625,-0.604705810546875,0.107574462890625,0.099334716796875
1695713789586837500,12.25083740234375,-0.679168701171875,-0.157318115234375,0.046844482421875
1695713789596389400,12.260389404296875,-0.677032470703125,-0.201873779296875,0.002593994140625
1695713789605911000,12.2699111328125,-0.612640380859375,-0.334014892578125,-0.081787109375
1695713789615463000,12.279462890625,-0.49591064453125,-0.558624267578125,-0.280914306640625
1695713789625015000,12.28901513671875,-0.325164794921875,-0.78887939453125,-0.666351318359375
1695713789634567000,12.29856689453125,-0.176544189453125,-0.932159423828125,-1.23809814453125
1695713789644088300,12.30808837890625,-0.11962890625,-1.015472412109375,-2.051849365234375
1695713789653671000,12.3176708984375,-0.209197998046875,-1.14288330078125,-3.07037353515625
1695713789663223000,12.32722314453125,-0.41259765625,-1.306304931640625,-3.935089111328125
1695713789672775000,12.33677490234375,-0.579681396484375,-1.342010498046875,-4.45037841796875
1695713789682327000,12.3463271484375,-0.587615966796875,-1.43096923828125,-4.575653076171875
1695713789691848400,12.355848388671875,-0.3900146484375,-1.4923095703125,-4.340667724609375
1695713789701400300,12.365400390625,-0.0042724609375,-1.1187744140625,-3.6688232421875
1695713789710952400,12.374952392578125,0.442047119140625,-0.657196044921875,-2.7337646484375
1695713789720504300,12.38450439453125,0.851593017578125,-0.534515380859375,-1.725006103515625
1695713789730056400,12.394056396484375,1.255035400390625,-0.635528564453125,-0.619659423828125
1695713789739577900,12.403577880859375,1.622467041015625,-0.7427978515625,0.363006591796875
1695713789749130000,12.4131298828125,1.69830322265625,-0.87158203125,1.078033447265625
1695713789758681900,12.422681884765625,1.37603759765625,-1.1541748046875,1.56036376953125
1695713789768234000,12.43223388671875,0.93414306640625,-1.099853515625,1.800689697265625
1695713789777785900,12.441785888671875,0.631103515625,-0.536041259765625,1.9610595703125
1695713789787307500,12.4513076171875,0.55328369140625,0.042266845703125,2.30499267578125
1695713789796859400,12.460859375,0.68145751953125,1.446533203125,2.65350341796875
1695713789806411500,12.47041162109375,0.71807861328125,3.767852783203125,2.559356689453125
1695713789815963400,12.47996337890625,0.485382080078125,3.08807373046875,2.902984619140625
1695713789825484800,12.48948486328125,0.175933837890625,0.795135498046875,3.237152099609375
1695713789835037000,12.499036865234375,-0.190582275390625,-0.811767578125,3.09906005859375
1695713789844588800,12.5085888671875,-0.4644775390625,-2.327423095703125,2.956390380859375
1695713789854141000,12.518140869140625,-0.569000244140625,-3.567962646484375,2.833709716796875
1695713789863692800,12.52769287109375,-0.605926513671875,-3.397674560546875,2.6348876953125
1695713789873214500,12.53721435546875,-0.673065185546875,-2.048797607421875,2.30438232421875
1695713789882766300,12.546766357421875,-0.38604736328125,-0.565338134765625,1.36322021484375
1695713789892318500,12.556318359375,0.22918701171875,-0.664215087890625,-0.238494873046875
1695713789901870300,12.565870361328125,0.871734619140625,-2.393951416015625,-1.29150390625
1695713789911422500,12.57542236328125,2.08587646484375,-3.3245849609375,-1.448822021484375
1695713789920943900,12.58494384765625,3.0804443359375,0.19439697265625,-2.136383056640625
1695713789930496000,12.59449609375,2.71942138671875,3.773956298828125,-2.504425048828125
1695713789940078300,12.604078369140625,1.088714599609375,2.100830078125,-1.423492431640625
1695713789949630500,12.61363037109375,-0.592498779296875,0.818328857421875,-0.724945068359375
1695713789959151900,12.62315185546875,-1.53076171875,-0.298004150390625,-0.57220458984375
1695713789968704000,12.6327041015625,-1.5765380859375,-1.44287109375,-0.54962158203125
1695713789978256000,12.642255859375,-0.625457763671875,-1.970062255859375,-0.91766357421875
1695713789987808000,12.65180810546875,0.21209716796875,-1.12548828125,-1.27197265625
1695713789997359900,12.66135986328125,0.27069091796875,0.3125,-1.015167236328125
1695713790006881300,12.67088134765625,0.131683349609375,1.596221923828125,-0.388641357421875
1695713790016433400,12.680433349609375,0.158843994140625,2.41790771484375,0.23468017578125
1695713790025985300,12.6899853515625,0.079803466796875,1.981353759765625,0.58563232421875
1695713790035537400,12.699537353515625,-0.05645751953125,0.528106689453125,0.5047607421875
1695713790045089300,12.70908935546875,0.096282958984375,-0.84320068359375,0.446319580078125
1695713790054611000,12.71861083984375,0.31219482421875,-1.19720458984375,0.625
1695713790064162800,12.728162841796875,0.403289794921875,-0.615081787109375,0.8697509765625
1695713790073715000,12.73771484375,0.381927490234375,1.08856201171875,0.579833984375
1695713790083266800,12.747266845703125,-0.106201171875,3.028717041015625,-0.068359375
1695713790092819000,12.75681884765625,-1.732940673828125,0.3179931640625,0.336761474609375
1695713790102340400,12.76634033203125,-2.161865234375,-1.48468017578125,0.12725830078125
1695713790111892500,12.775892578125,-0.37139892578125,-1.20941162109375,-0.642242431640625
1695713790121444400,12.7854443359375,0.662841796875,-1.1224365234375,-0.762481689453125
1695713790130996500,12.79499658203125,0.417938232421875,0.062408447265625,-0.55877685546875
1695713790140518000,12.804517822265625,-0.113525390625,0.20965576171875,-0.85205078125
1695713790150069800,12.81406982421875,-0.298309326171875,-0.650482177734375,-1.405181884765625
1695713790159622000,12.823621826171875,-0.237579345703125,-0.580902099609375,-0.93505859375
1695713790169173800,12.833173828125,-0.276336669921875,-0.04791259765625,0.25970458984375
1695713790178726000,12.842725830078125,-0.250701904296875,-0.276336669921875,0.8984375
1695713790188247300,12.852247314453125,-0.07354736328125,-0.952911376953125,0.662689208984375
1695713790197799400,12.86179931640625,-0.07476806640625,-1.1651611328125,0.2813720703125
1695713790207351300,12.871351318359375,-0.0921630859375,-0.566558837890625,0.2490234375
1695713790216903400,12.8809033203125,-0.09368896484375,0.28533935546875,0.412139892578125
1695713790226486000,12.890486083984374,-0.06561279296875,0.738983154296875,0.439300537109375
1695713790236007400,12.90000732421875,0.012054443359375,0.68023681640625,0.309906005859375
1695713790245559300,12.909559326171875,0.120697021484375,0.440216064453125,0.289764404296875
1695713790255111400,12.919111328125,0.23345947265625,0.1971435546875,0.394744873046875
1695713790264663300,12.928663330078125,0.32501220703125,0.067596435546875,0.445709228515625
1695713790274185000,12.93818505859375,0.413055419921875,0.122528076171875,0.24871826171875
1695713790283736800,12.94773681640625,0.381317138671875,-0.0299072265625,-0.040435791015625
1695713790293289000,12.9572890625,0.110321044921875,-0.406494140625,-0.106201171875
1695713790302840800,12.9668408203125,-0.190582275390625,-0.72998046875,-0.093994140625
1695713790312393000,12.97639306640625,-0.224456787109375,-0.518951416015625,-0.22796630859375
1695713790321914400,12.985914306640625,-0.11016845703125,0.00274658203125,-0.317840576171875
