time,seconds_elapsed,z,y,x
1696083226909930000,0.315929931640625,-0.18814650177955627,-0.09834930300712585,-0.09040805697441101
1696083226919930000,0.32593017578125,-0.23945917189121246,-0.09285151958465576,-0.045204028487205505
1696083226929930000,0.335929931640625,-0.32131510972976685,-0.8191702961921692,0.014049900695681572
1696083226939930000,0.34593017578125,-0.3292563557624817,-1.0977247953414917,0.07452555745840073
1696083226949930000,0.355929931640625,-0.3323107063770294,-1.6920967102050781,0.24984388053417206
1696083226959930000,0.36593017578125,-0.3066543638706207,-2.4440717697143555,0.4703662395477295
1696083226969930000,0.375929931640625,-0.24678955972194672,-3.2571334838867188,0.6872233748435974
1696083226979930000,0.38593017578125,-0.15760323405265808,-3.5943310260772705,0.8155050873756409
1696083226989930000,0.395929931640625,-0.0708603709936142,-3.5320229530334473,0.7605272531509399
1696083226999930000,0.40593017578125,-0.03420845419168472,-3.436116933822632,0.5283984541893005
1696083227009930000,0.415929931640625,-0.12950342893600464,-3.492316722869873,0.2730567753314972
1696083227019930000,0.42593017578125,-0.20891591906547546,-3.4739906787872314,-0.17470745742321014
1696083227029930000,0.435929931640625,-0.14844025671482086,-3.9156463146209717,-0.5644394755363464
1696083227039930000,0.44593017578125,0.012217304669320583,-4.55705451965332,-0.7293730974197388
1696083227049930000,0.455929931640625,0.10812314599752426,-5.0933942794799805,-0.788627028465271
1696083227059930000,0.46593017578125,0.09651670604944229,-5.552764892578125,-0.826500654220581
1696083227069930000,0.475929931640625,0.003054326167330146,-6.03046178817749,-0.8869763612747192
1696083227079930000,0.48593017578125,-0.08552113175392151,-6.550919055938721,-0.96883225440979
1696083227089930000,0.495929931640625,-0.13377949595451355,-6.932709693908691,-1.0848966836929321
1696083227099930000,0.50593017578125,-0.09285151958465576,-7.246694564819336,-1.264491081237793
1696083227109930000,0.515929931640625,-0.01038470957428217,-7.575950622558594,-1.463022232055664
1696083227119930000,0.52593017578125,0.11789698898792267,-7.9241437911987305,-1.5925257205963135
1696083227129930000,0.535929931640625,0.2217440903186798,-8.2057523727417,-1.7024813890457153
1696083227139930000,0.54593017578125,0.22968533635139465,-8.373129844665527,-1.8558086156845093
1696083227149930000,0.555929931640625,0.10384709388017654,-6.608340263366699,-1.6114624738693237
1696083227159930000,0.56593017578125,-0.02932153269648552,-4.76841402053833,-0.7452555894851685
1696083227169930000,0.575929931640625,0.08002334833145142,-3.8423423767089844,-0.2938261926174164
1696083227179929600,0.5859296875,0.3170390725135803,-2.284025192260742,-0.016493361443281174
1696083227189929700,0.5959296875,0.5595525503158569,-0.4917465150356293,0.27122417092323303
1696083227199929600,0.6059296875,0.7971791625022888,0.7318165898323059,0.28038713335990906
1696083227209929700,0.6159296875,0.8998045325279236,0.6517932415008545,-0.22540926933288574
1696083227219929600,0.6259296875,0.9547823667526245,0.35063666105270386,-0.9101892113685608
1696083227229929700,0.6359296875,1.081842303276062,0.2816088795661926,-1.5778648853302002
1696083227239929600,0.6459296875,1.2724323272705078,0.475253164768219,-2.0971004962921143
1696083227249929700,0.6559296875,1.4691308736801147,0.7654141783714294,-2.4190263748168945
1696083227259929600,0.6659296875,1.6114624738693237,1.091616153717041,-2.5002715587615967
1696083227269929700,0.6759296875,1.718363881111145,1.4508049488067627,-2.3664920330047607
1696083227279928800,0.6859287109375,1.8820757865905762,1.570534586906433,-2.2149972915649414
1696083227289928700,0.6959287109375,2.1068742275238037,1.2852604389190674,-2.1093177795410156
1696083227299928800,0.7059287109375,2.529592990875244,0.8985827565193176,-2.2907447814941406
1696083227309928700,0.7159287109375,3.0421090126037598,0.5803219676017761,-2.632218360900879
1696083227319928800,0.7259287109375,3.5161404609680176,0.2889392673969269,-2.877786159515381
1696083227329928700,0.7359287109375,3.877161741256714,-0.03420845419168472,-2.99812650680542
1696083227339928800,0.7459287109375,4.0408735275268555,-0.26939156651496887,-3.0757064819335938
1696083227349929000,0.755928955078125,4.07080602645874,-0.3995058834552765,-3.160616874694824
1696083227359928800,0.7659287109375,4.004832744598389,-0.7715228199958801,-3.233309745788574
1696083227369929000,0.775928955078125,3.832568645477295,-1.606575608253479,-3.2064316272735596
1696083227379928600,0.785928466796875,3.543018341064453,-2.6090054512023926,-3.0085113048553467
1696083227389928400,0.795928466796875,3.1526756286621094,-3.3658676147460938,-2.6780333518981934
1696083227399928300,0.80592822265625,2.7458393573760986,-3.6279287338256836,-2.3512203693389893
1696083227409928400,0.815928466796875,2.339003086090088,-3.6102135181427,-2.140471935272217
1696083227419928300,0.82592822265625,1.9706512689590454,-3.5662312507629395,-1.9755382537841797
1696083227429928400,0.835928466796875,1.613295078277588,-3.6169331073760986,-1.7971655130386353
1696083227439928300,0.84592822265625,1.094059705734253,-3.685349941253662,-1.513113260269165
1696083227449928400,0.855928466796875,0.5143485069274902,-3.681684732437134,-1.2394455671310425
1696083227459928300,0.86592822265625,-0.025045474991202354,-3.4654386043548584,-1.1020009517669678
1696083227469928400,0.875928466796875,-0.42149701714515686,-3.8618900775909424,-0.8619308471679688
1696083227479928300,0.88592822265625,-0.5204572081565857,-4.636466979980469,-0.48685958981513977
1696083227489928400,0.895928466796875,-0.7202101349830627,-4.701219081878662,-0.394008070230484
1696083227499928300,0.90592822265625,-0.7562511563301086,-5.490457057952881,0.22113321721553802
1696083227509928400,0.915928466796875,-0.6059783101081848,-5.106833457946777,1.1954632997512817
1696083227519928300,0.92592822265625,-1.3017538785934448,-5.875301837921143,0.6829473376274109
1696083227529930200,0.93593017578125,-1.5344934463500977,-5.527719497680664,0.1411098688840866
1696083227539930400,0.945930419921875,-1.5668693780899048,-4.856378555297852,-0.2278527319431305
1696083227549930200,0.95593017578125,-1.6756033897399902,-3.99505877494812,-0.3683517575263977
1696083227559930400,0.965930419921875,-1.8069393634796143,-3.0671544075012207,-0.4612032473087311
1696083227569930200,0.97593017578125,-1.8295414447784424,-2.112982988357544,-0.5864306092262268
1696083227579930600,0.9859306640625,-1.7458528280258179,-1.36955988407135,-0.7812966704368591
1696083227589930800,0.9959306640625,-1.5564846992492676,-0.9291260242462158,-0.970054030418396
1696083227599930600,1.0059306640625,-1.2113457918167114,-0.665232241153717,-1.1129964590072632
1696083227609930800,1.0159306640625,-0.7104362845420837,-0.5607742667198181,-1.1826350688934326
1696083227619930600,1.0259306640625,-0.11301007121801376,-0.5852088928222656,-1.1856894493103027
1696083227629930200,1.03593017578125,0.4355469346046448,-0.6261368989944458,-1.1056660413742065
1696083227639930400,1.045930419921875,0.9437867999076843,-0.665232241153717,-1.0152580738067627
1696083227649930200,1.05593017578125,1.361007809638977,-0.2687807083129883,-0.9053022861480713
1696083227659930400,1.065930419921875,1.6120734214782715,0.24862214922904968,-0.7538077235221863
1696083227669930200,1.07593017578125,1.7373007535934448,0.8191702961921692,-0.5968153476715088
1696083227679930600,1.0859306640625,1.7440202236175537,1.2760975360870361,-0.5357288122177124
1696083227689930800,1.0959306640625,1.6969836950302124,1.5143349170684814,-0.6163630485534668
1696083227699930600,1.1059306640625,1.673770785331726,1.6438384056091309,-0.8405506014823914
1696083227709930800,1.1159306640625,1.654223084449768,1.7812830209732056,-1.1734721660614014
1696083227719930600,1.1259306640625,1.6114624738693237,1.843591332435608,-1.4398094415664673
1696083227729930800,1.1359306640625,1.540602207183838,1.7818939685821533,-1.5442672967910767
1696083227739930600,1.1459306640625,1.3445143699645996,1.6224581003189087,-1.511891484260559
1696083227749930800,1.1559306640625,1.004873275756836,1.4575244188308716,-1.4618005752563477
1696083227759931000,1.165930908203125,0.6481280326843262,1.3652838468551636,-1.5680910348892212
1696083227769930800,1.1759306640625,0.3634648323059082,1.2962560653686523,-1.8197675943374634
1696083227779931100,1.18593115234375,0.18448130786418915,1.2626584768295288,-2.1007654666900635
1696083227789930800,1.1959306640625,-0.045204028487205505,1.2046263217926025,-2.084882974624634
1696083227799931000,1.205930908203125,-0.6383541822433472,1.3494013547897339,-1.5729780197143555
1696083227809930800,1.2159306640625,-1.3842206001281738,1.730581283569336,-1.034194827079773
1696083227819931000,1.225930908203125,-1.9620991945266724,1.8008307218551636,-0.7800748944282532
1696083227829929000,1.235928955078125,-2.1960606575012207,1.4202617406845093,-0.7666358947753906
1696083227839928800,1.2459287109375,-2.2650883197784424,0.5827654600143433,-0.7391469478607178
1696083227849929000,1.255928955078125,-2.2571470737457275,-0.1875356286764145,-0.6316346526145935
1696083227859928800,1.2659287109375,-2.2394320964813232,-0.2993239760398865,-0.6236934065818787
1696083227869929000,1.275928955078125,-2.2174408435821533,-0.001832595793530345,-0.6316346526145935
1696083227879929300,1.285929443359375,-2.1288654804229736,0.3933972120285034,-0.8155050873756409
1696083227889931500,1.295931640625,-1.9022343158721924,0.5833762884140015,-0.979827880859375
1696083227899931600,1.305931640625,-1.5522085428237915,0.5381723046302795,-0.8759807348251343
1696083227909931500,1.315931640625,-1.0824532508850098,0.35674530267715454,-0.6249151229858398
1696083227919931600,1.325931640625,-0.5558874011039734,-0.03481931984424591,-0.3549126982688904
1696083227929932000,1.33593212890625,-0.06536258012056351,-0.39584067463874817,-0.12278391420841217
1696083227939932000,1.345931884765625,0.2217440903186798,-0.39767327904701233,0.12461651116609573
1696083227949932000,1.35593212890625,0.3225368559360504,-0.0959058403968811,0.3280346393585205
1696083227959932000,1.365931884765625,0.3903428912162781,0.17592918872833252,0.4502076804637909
1696083227969932000,1.37593212890625,0.665232241153717,0.2987131178379059,0.38179078698158264
1696083227979932000,1.385931884765625,2.0085248947143555,0.13866640627384186,0.46364670991897583
1696083227989932000,1.39593212890625,2.9443705081939697,0.045204028487205505,0.4337143301963806
1696083227999932000,1.405931884765625,2.065335512161255,0.9138544201850891,0.413555771112442
1696083228009931800,1.415931884765625,0.33169981837272644,2.249816656112671,0.34513887763023376
1696083228019932000,1.425931884765625,-0.2883284091949463,2.5106561183929443,-0.4795292317867279
1696083228029931800,1.435931884765625,-0.10567969083786011,1.949881911277771,-1.2400563955307007
1696083228039932000,1.445931884765625,0.2583959996700287,1.2785409688949585,-1.6273449659347534
1696083228049932000,1.45593212890625,0.48319441080093384,1.1007791757583618,-1.797776460647583
1696083228059932000,1.465931884765625,0.2926044464111328,1.2687671184539795,-1.709811806678772
1696083228069932000,1.47593212890625,-0.2272418737411499,1.493565559387207,-1.6010777950286865
1696083228079932000,1.485931884765625,-0.797789990901947,1.6022995710372925,-1.519832730293274
1696083228089932500,1.4959326171875,-1.2638801336288452,1.356731653213501,-1.416596531867981
1696083228099932400,1.505932373046875,-1.4550809860229492,0.8967501521110535,-1.2541064023971558
1696083228109932500,1.5159326171875,-1.2492194175720215,0.423329621553421,-1.1184942722320557
1696083228119932400,1.525932373046875,-0.7825183868408203,0.22846360504627228,-1.0005972385406494
1696083228133623800,1.539623779296875,-0.16493362188339233,1.1246029138565063,-0.911410927772522
1696083228143624000,1.5496240234375,0.5845980644226074,2.9272663593292236,-1.1533136367797852
1696083228153623800,1.559623779296875,1.024420976638794,4.65173864364624,-1.3341296911239624
1696083228163624200,1.569624267578125,1.748907208442688,5.411655426025391,-1.4282029867172241
1696083228173624300,1.579624267578125,2.5473079681396484,4.935791015625,-1.4605787992477417
1696083228183624200,1.589624267578125,3.313333034515381,4.016438961029053,-1.2357803583145142
1696083228193622000,1.5996220703125,3.983452320098877,1.7727309465408325,-1.2822061777114868
1696083228203622000,1.609621826171875,4.329813003540039,-0.43249258399009705,-1.4324790239334106
1696083228213622000,1.6196220703125,4.265061378479004,-2.2125539779663086,-1.0140362977981567
1696083228223622000,1.629621826171875,4.182594299316406,-2.5228734016418457,-0.45814892649650574
1696083228233622000,1.6396220703125,4.170988082885742,-2.3713788986206055,-0.16310101747512817
1696083228243622400,1.649622314453125,4.2699480056762695,-2.216830015182495,-0.22846360504627228
1696083228253622300,1.659622314453125,4.577824115753174,-1.130711555480957,-0.39095374941825867
1696083228263622400,1.669622314453125,5.493511199951172,0.1667662113904953,-0.4691445231437683
1696083228273622300,1.679622314453125,6.557638168334961,1.4080443382263184,-0.4404338300228119
1696083228283622400,1.689622314453125,7.515475273132324,2.392759084701538,-0.12278391420841217
1696083228293622300,1.699622314453125,8.514239311218262,3.3005049228668213,-0.2626720666885376
1696083228303622400,1.709622314453125,8.881369590759277,2.9602530002593994,-0.799011766910553
1696083228313622300,1.719622314453125,7.525859832763672,1.2693779468536377,-1.930334210395813
1696083228323622400,1.729622314453125,5.097670555114746,-2.004248857498169,-3.1691689491271973
1696083228333622300,1.739622314453125,4.38967752456665,-3.3371567726135254,-2.8845057487487793
1696083228343622100,1.7496220703125,4.523457050323486,-3.517362117767334,-1.7873916625976562
1696083228353622300,1.759622314453125,4.946786880493164,-2.7849347591400146,-1.056796908378601
1696083228363622100,1.7696220703125,5.2497758865356445,-1.131933331489563,-0.8460483551025391
1696083228373622300,1.779622314453125,5.462357044219971,0.26939156651496887,-0.9492846131324768
1696083228383622100,1.7896220703125,5.563149929046631,1.1832460165023804,-1.112385630607605
1696083228393622300,1.799622314453125,5.5289411544799805,1.9211711883544922,-1.3298536539077759
1696083228403622100,1.8096220703125,5.409822463989258,2.595566511154175,-1.635897159576416
1696083228413622000,1.8196220703125,5.202739238739014,3.160005807876587,-1.9321668148040771
1696083228423622100,1.8296220703125,4.9449543952941895,3.5503487586975098,-2.1484131813049316
1696083228433622000,1.8396220703125,4.634634494781494,3.7360517978668213,-2.1697933673858643
1696083228443622100,1.8496220703125,4.269337177276611,3.732997417449951,-2.0610592365264893
1696083228453622000,1.8596220703125,3.869220495223999,3.587611675262451,-1.8503108024597168
1696083228463621600,1.86962158203125,3.3762521743774414,3.34204363822937,-1.463022232055664
1696083228473621800,1.879621826171875,2.746450185775757,3.279735565185547,-0.8625417351722717
1696083228483622000,1.889621826171875,1.8136589527130127,3.5387423038482666,0.09773843735456467
1696083228493621800,1.899621826171875,0.7250970602035522,3.221703290939331,1.5167783498764038
1696083228503622000,1.909621826171875,-0.192422553896904,2.085494041442871,2.6004533767700195
1696083228513621800,1.919621826171875,-0.8631525635719299,0.2376265823841095,3.1422908306121826
1696083228523622000,1.929621826171875,-1.2748757600784302,-1.3836097717285156,2.9914071559906006
1696083228533621800,1.939621826171875,-1.423926830291748,-2.442239284515381,2.2937989234924316
1696083228543621400,1.949621337890625,-1.4178181886672974,-2.9101619720458984,1.4422528743743896
1696083228553621500,1.95962158203125,-1.4123204946517944,-2.423302412033081,-0.5473352670669556
1696083228563621400,1.969621337890625,-1.4593570232391357,-1.361007809638977,-2.328007459640503
1696083228573621500,1.97962158203125,-1.4379768371582031,-0.37201693654060364,-3.148399591445923
1696083228583621400,1.989621337890625,-1.3170254230499268,0.6811147332191467,-3.221703290939331
1696083228593621500,1.99962158203125,-1.0317513942718506,1.6090190410614014,-2.5833492279052734
1696083228603621400,2.009621337890625,-0.588263213634491,2.0195205211639404,-1.3530665636062622
1696083228613621200,2.019621337890625,-0.09834930300712585,1.6316211223602295,-0.0024434609804302454
1696083228623621400,2.029621337890625,0.23273965716362,0.6805039048194885,1.0476338863372803
1696083228633621200,2.039621337890625,0.3378084897994995,-0.2541199326515198,1.5644259452819824
1696083228643621400,2.049621337890625,0.3219259977340698,-0.8546004891395569,1.5473216772079468
1696083228653621200,2.059621337890625,0.29504790902137756,-1.2052371501922607,1.1759155988693237
1696083228663621400,2.069621337890625,0.25473082065582275,-1.3628404140472412,0.6768386960029602
1696083228673621200,2.079621337890625,0.16493362188339233,-1.4184291362762451,0.24678955972194672
1696083228683621400,2.089621337890625,0.08246681094169617,-1.387274980545044,-0.006719517521560192
1696083228693621200,2.099621337890625,0.039095375686883926,-1.2779301404953003,-0.09468411654233932
1696083228703621400,2.109621337890625,0.033597588539123535,-1.1233811378479004,-0.07513642311096191
1696083228713621200,2.119621337890625,0.04459316283464432,-0.8998045325279236,-0.021380282938480377
1696083228723621400,2.129621337890625,0.07941248267889023,-0.6310238242149353,-0.005497787147760391
1696083228733621200,2.139621337890625,0.13439035415649414,-0.36590829491615295,-0.06841690838336945
1696083228743621400,2.149621337890625,0.17837265133857727,-0.1160643994808197,-0.18448130786418915
1696083228753621200,2.159621337890625,0.19303341209888458,0.08674286305904388,-0.2791654169559479
1696083228763621400,2.169621337890625,0.17287486791610718,0.2070833146572113,-0.2919935882091522
1696083228773621200,2.179621337890625,0.11911872029304504,0.23884831368923187,-0.23457226157188416
1696083228783621400,2.189621337890625,0.0659734457731247,0.20830504596233368,-0.15271630883216858
1696083228793621200,2.199621337890625,0.02626720629632473,0.12522737681865692,-0.09957103431224823
1696083228803621600,2.20962158203125,-0.012217304669320583,-0.01466076634824276,-0.10323622822761536
1696083228813621500,2.21962158203125,-0.05192354694008827,-0.1722639948129654,-0.16065755486488342
1696083228823621600,2.22962158203125,-0.08124507963657379,-0.27550023794174194,-0.23273965716362
1696083228833621500,2.23962158203125,-0.0910189226269722,-0.2791654169559479,-0.2730567753314972
1696083228843621600,2.24962158203125,-0.08002334833145142,-0.20097467303276062,-0.2736676335334778
1696083228853621500,2.25962158203125,-0.06475171446800232,-0.09957103431224823,-0.24984388053417206
1696083228863621600,2.26962158203125,-0.056810468435287476,-0.029932396486401558,-0.21441370248794556
1696083228873621500,2.27962158203125,-0.05375614017248154,-0.02015855349600315,-0.17470745742321014
1696083228883621600,2.28962158203125,-0.04703662544488907,-0.05253441259264946,-0.1362229436635971
1696083228893621500,2.29962158203125,-0.03481931984424591,-0.09040805697441101,-0.10873401165008545
1696083228903621600,2.30962158203125,-0.02015855349600315,-0.10018189996480942,-0.1014036312699318
1696083228913621800,2.319621826171875,0,-0.07147123664617538,-0.11484266817569733
1696083228923621600,2.32962158203125,0.03420845419168472,-0.02076941914856434,-0.13561208546161652
1696083228933621800,2.339621826171875,0.07452555745840073,0.02932153269648552,-0.14844025671482086
1696083228943621600,2.34962158203125,0.11484266817569733,0.05192354694008827,-0.14355333149433136
1696083228953621800,2.359621826171875,0.15027284622192383,0.04948008432984352,-0.1215621829032898
1696083228963621600,2.36962158203125,0.17348572611808777,0.021991148591041565,-0.09224065393209457
1696083228973621800,2.379621826171875,0.192422553896904,-0.014049900695681572,-0.0659734457731247
1696083228983621600,2.38962158203125,0.20952677726745605,-0.036651913076639175,-0.04459316283464432
1696083228993621800,2.399621826171875,0.2223549485206604,-0.02626720629632473,-0.04214970022439957
1696083229003621600,2.40962158203125,0.22296582162380219,0.01771509274840355,-0.0507018156349659
1696083229013621800,2.419621826171875,0.19853121042251587,0.09407325088977814,-0.06658431142568588
1696083229023621600,2.42962158203125,0.15332718193531036,0.15760323405265808,-0.0806342139840126
1696083229033621800,2.439621826171875,0.10690141469240189,0.17348572611808777,-0.08491026610136032
1696083229043621600,2.44962158203125,0.05864306539297104,0.11850785464048386,-0.08979719132184982
1696083229053621800,2.459621826171875,-0.010995574295520782,0.03787364438176155,-0.10751228034496307
1696083229063621600,2.46962158203125,-0.09285151958465576,-0.07941248267889023,-0.13805554807186127
1696083229073621800,2.479621826171875,-0.17348572611808777,-0.2480112910270691,-0.1765400618314743
1696083229083621600,2.48962158203125,-0.2370157092809677,-0.44165557622909546,-0.22296582162380219
1696083229093621800,2.499621826171875,-0.2718350291252136,-0.6261368989944458,-0.2571742534637451
1696083229103621400,2.509621337890625,-0.2730567753314972,-0.759916365146637,-0.26511552929878235
1696083229113621500,2.51962158203125,-0.2382374405860901,-0.816726803779602,-0.24434609711170197
1696083229123621400,2.529621337890625,-0.1814269721508026,-0.807563841342926,-0.20952677726745605
1696083229133621500,2.53962158203125,-0.10995574295520782,-0.7483099102973938,-0.18814650177955627
1696083229143621400,2.549621337890625,-0.029932396486401558,-0.6194173693656921,-0.18875735998153687
1696083229153621800,2.559621826171875,0.04764748737215996,-0.5070181488990784,-0.1875356286764145
1696083229163622000,2.569621826171875,0.12278391420841217,-0.4434881806373596,-0.19303341209888458
1696083229173621800,2.579621826171875,0.19364428520202637,-0.4489859640598297,-0.22479841113090515
1696083229183622000,2.589621826171875,0.2541199326515198,-0.50335294008255,-0.28527405858039856
1696083229193621800,2.599621826171875,0.29626965522766113,-0.5277875661849976,-0.35552358627319336
1696083229203622000,2.609621826171875,0.32498031854629517,-0.49357911944389343,-0.40194934606552124
1696083229213621800,2.619621826171875,0.3323107063770294,-0.46181413531303406,-0.41111230850219727
1696083229223621600,2.62962158203125,0.342695415019989,-0.41722095012664795,-0.39217549562454224
1696083229233621800,2.639621826171875,0.3378084897994995,-0.2981022298336029,-0.3732386529445648
1696083229243621600,2.64962158203125,0.29138273000717163,-0.20097467303276062,-0.35246923565864563
1696083229253621800,2.659621826171875,0.192422553896904,-0.12950342893600464,-0.3488040566444397
1696083229263621600,2.66962158203125,0.06902777403593063,-0.13316862285137177,-0.37568211555480957
1696083229273621800,2.679621826171875,-0.021380282938480377,-0.21441370248794556,-0.4331034719944
1696083229283622000,2.689621826171875,-0.06963863968849182,-0.33475416898727417,-0.48319441080093384
1696083229293621800,2.699621826171875,-0.09040805697441101,-0.4544837474822998,-0.5161811113357544
1696083229303622000,2.709621826171875,-0.0910189226269722,-0.5522221922874451,-0.5400048494338989
1696083229313621800,2.719621826171875,-0.06780604273080826,-0.6194173693656921,-0.5632177591323853
1696083229323622000,2.729621826171875,-0.02382374368607998,-0.6548475623130798,-0.5864306092262268
1696083229333621800,2.739621826171875,0.02932153269648552,-0.656680166721344,-0.6017022728919983
1696083229343622000,2.749621826171875,0.08491026610136032,-0.6340781450271606,-0.607810914516449
1696083229353621200,2.759621337890625,0.1411098688840866,-0.5852088928222656,-0.6047565937042236
1696083229363621400,2.769621337890625,0.1918116807937622,-0.513126790523529,-0.6102544069290161
1696083229373621200,2.779621337890625,0.24434609711170197,-0.4404338300228119,-0.6163630485534668
1696083229383621400,2.789621337890625,0.30543261766433716,-0.4251621961593628,-0.6017022728919983
1696083229393621200,2.799621337890625,0.3805690407752991,-0.5363397002220154,-0.5357288122177124
1696083229403621400,2.809621337890625,0.4697553813457489,-0.797789990901947,-0.42149701714515686
1696083229413621200,2.819621337890625,0.543059229850769,-1.1343767642974854,-0.2736676335334778
1696083229423621400,2.829621337890625,0.5937610268592834,-1.4104878902435303,-0.11239920556545258
1696083229433621200,2.839621337890625,0.6163630485534668,-1.5137240886688232,0.03481931984424591
1696083229443621400,2.849621337890625,0.6047565937042236,-1.405600905418396,0.13255776464939117
1696083229453621000,2.85962109375,0.5558874011039734,-1.1636983156204224,0.14844025671482086
1696083229463620900,2.869620849609375,0.484416127204895,-0.9065240025520325,0.08857546001672745
1696083229473621000,2.87962109375,0.39645153284072876,-0.7018841505050659,0.015882495790719986
1696083229483620900,2.889620849609375,0.29626965522766113,-0.5259549617767334,0.027488935738801956
1696083229493621000,2.89962109375,0.19120082259178162,-0.39217549562454224,0.17043140530586243
1696083229503620900,2.909620849609375,0.10995574295520782,-0.31459560990333557,0.43615779280662537
1696083229513621000,2.91962109375,0.054367005825042725,-0.2382374405860901,0.7678576111793518
1696083229523620900,2.929620849609375,-0.0024434609804302454,-0.0659734457731247,1.0977247953414917
1696083229533621000,2.93962109375,-0.07391469180583954,0.242513507604599,1.3842206001281738
1696083229543620900,2.949620849609375,-0.15760323405265808,0.6524040699005127,1.615127682685852
1696083229553621000,2.95962109375,-0.24678955972194672,1.086118459701538,1.8234328031539917
1696083229563620900,2.969620849609375,-0.3549126982688904,1.3939944505691528,2.0280725955963135
1696083229573621000,2.97962109375,-0.5216789245605469,1.36955988407135,2.238821029663086
1696083229583620900,2.989620849609375,-0.7226535677909851,0.8820894360542297,2.4935519695281982
1696083229593621000,2.99962109375,-0.9028588533401489,0.17837265133857727,2.7256808280944824
1696083229603620900,3.009620849609375,-1.0427470207214355,-0.5345070958137512,2.9107728004455566
1696083229613621000,3.01962109375,-1.1343767642974854,-1.1539244651794434,3.0133981704711914
1696083229623620900,3.029620849609375,-1.188132882118225,-1.7287486791610718,2.995683193206787
1696083229633621000,3.03962109375,-1.2162326574325562,-2.0622811317443848,2.7733283042907715
1696083229643620900,3.049620849609375,-1.2211196422576904,-2.084882974624634,2.392759084701538
1696083229653621200,3.059621337890625,-1.1716395616531372,-1.9920315742492676,1.9920315742492676
1696083229663621400,3.069621337890625,-1.1050552129745483,-1.947438359260559,1.7024813890457153
1696083229673621500,3.07962158203125,-1.0787880420684814,-1.8313740491867065,1.5338826179504395
1696083229683621400,3.089621337890625,-1.073290228843689,-1.5363260507583618,1.4410310983657837
1696083229693621500,3.09962158203125,-1.0836749076843262,-1.0836749076843262,1.3683381080627441
1696083229703621400,3.109621337890625,-1.1197160482406616,-0.6737843751907349,1.350012183189392
1696083229713621500,3.11962158203125,-1.1838568449020386,-0.3842342495918274,1.441641926765442
1696083229723621400,3.129621337890625,-1.2498302459716797,-0.17898350954055786,1.6022995710372925
1696083229733621500,3.13962158203125,-1.2950342893600464,-0.024434609338641167,1.6957619190216064
1696083229743621400,3.149621337890625,-1.3274102210998535,0.09651670604944229,1.6371188163757324
1696083229753621500,3.15962158203125,-1.3365731239318848,0.1569923609495163,1.4831807613372803
1696083229763621400,3.169621337890625,-1.338405728340149,0.09834930300712585,1.3261884450912476
1696083229773621500,3.17962158203125,-1.3530665636062622,0.042760565876960754,1.207680583000183
1696083229783621400,3.189621337890625,-1.3658946752548218,0.05253441259264946,1.1362093687057495
1696083229793621500,3.19962158203125,-1.356731653213501,0.06169738993048668,1.1087204217910767
1696083229803621400,3.209621337890625,-1.318858027458191,0.05925392732024193,1.0781772136688232
1696083229813621500,3.21962158203125,-1.2541064023971558,0.11056660860776901,1.027475357055664
1696083229823621400,3.229621337890625,-1.1270463466644287,0.31031954288482666,0.9944885969161987
1696083229833621500,3.23962158203125,-0.9468411207199097,0.5351179838180542,0.9572258591651917
1696083229843621400,3.249621337890625,-0.749531626701355,0.7385360598564148,0.8930850028991699
1696083229853621500,3.25962158203125,-0.5656611919403076,0.9040805697441101,0.808174729347229
1696083229863621400,3.269621337890625,-0.41172316670417786,1.0482447147369385,0.7153232097625732
1696083229873621500,3.27962158203125,-0.27061331272125244,1.1551461219787598,0.6151412725448608
1696083229883621400,3.289621337890625,-0.1313360333442688,1.1734721660614014,0.5002986192703247
1696083229893621500,3.29962158203125,-0.009162978269159794,1.0781772136688232,0.3640756905078888
1696083229903621400,3.309621337890625,0.09651670604944229,0.9291260242462158,0.2168571650981903
1696083229913621500,3.31962158203125,0.182648703455925,0.7831292152404785,0.05314527451992035
1696083229923621400,3.329621337890625,0.24007004499435425,0.6627888083457947,-0.11178833991289139
1696083229933621500,3.33962158203125,0.3139847218990326,0.5516113042831421,-0.28527405858039856
1696083229943621400,3.349621337890625,0.43127086758613586,0.42271876335144043,-0.4746423065662384
1696083229953621500,3.35962158203125,0.5705481171607971,0.26572638750076294,-0.6969972252845764
1696083229963621400,3.369621337890625,0.7159340381622314,0.1111774742603302,-0.970054030418396
1696083229973621500,3.37962158203125,0.8063421249389648,0.05925392732024193,-1.2675453424453735
1696083229983621400,3.389621337890625,0.8234463334083557,0.16493362188339233,-1.5057828426361084
1696083229993621500,3.39962158203125,0.8148942589759827,0.4386012554168701,-1.613295078277588
1696083230003621400,3.409621337890625,0.7867944240570068,0.8900306820869446,-1.605353832244873
1696083230013621500,3.41962158203125,0.6609562039375305,1.4330898523330688,-1.4593570232391357
1696083230023621400,3.429621337890625,0.4184426963329315,1.8087719678878784,-1.254717230796814
1696083230033621500,3.43962158203125,0.07513642311096191,1.5998560190200806,-0.9944885969161987
1696083230043621400,3.449621337890625,-0.33597588539123535,0.49235737323760986,-0.6414085030555725
1696083230053621200,3.459621337890625,-0.6579018831253052,-1.0329731702804565,-0.21807889640331268
1696083230063621400,3.469621337890625,-0.7073819637298584,-2.1587977409362793,0.11850785464048386
1696083230073621200,3.479621337890625,-0.5534439086914062,-2.4239132404327393,0.24068090319633484
1696083230083621400,3.489621337890625,-0.34147366881370544,-1.930334210395813,0.11728613078594208
1696083230093621500,3.49962158203125,-0.13927727937698364,-1.1704177856445312,-0.21624629199504852
1696083230103621400,3.509621337890625,-0.029932396486401558,-0.8014551997184753,-0.5338962078094482
1696083230113621500,3.51962158203125,0.010995574295520782,-0.8998045325279236,-0.720820963382721
1696083230123621400,3.529621337890625,0.10323622822761536,-1.141707181930542,-0.816726803779602
1696083230133621500,3.53962158203125,0.2480112910270691,-1.4306464195251465,-0.8118399381637573
1696083230143621400,3.549621337890625,0.3591887652873993,-1.6181820631027222,-0.637132465839386
1696083230153621500,3.55962158203125,0.3952298164367676,-1.2308934926986694,-0.30054569244384766
1696083230163621400,3.569621337890625,0.43676865100860596,-0.27000242471694946,0.08124507963657379
1696083230173621500,3.57962158203125,0.5192354321479797,0.5216789245605469,0.10506882518529892
1696083230183621400,3.589621337890625,0.6359107494354248,0.7116580009460449,-0.03726277872920036
1696083230193621500,3.59962158203125,0.7373143434524536,0.3604104816913605,-0.1563815027475357
1696083230203621400,3.609621337890625,0.7904596328735352,-0.2785545587539673,-0.31154128909111023
1696083230213621200,3.619621337890625,0.8350527882575989,-0.9053022861480713,-0.5644394755363464
1696083230223621400,3.629621337890625,0.8796459436416626,-1.264491081237793,-0.8472700715065002
1696083230233621200,3.639621337890625,0.9749409556388855,-1.292590856552124,-1.0458012819290161
1696083230243621400,3.649621337890625,0.9853256344795227,-1.0653489828109741,-1.1154398918151855
1696083230253621200,3.659621337890625,0.8778133392333984,-0.6395758986473083,-1.1478158235549927
1696083230263621400,3.669621337890625,0.7837401032447815,-0.1869247704744339,-1.166752576828003
1696083230273621500,3.67962158203125,0.788016140460968,0.1771509200334549,-1.1465940475463867
1696083230283621400,3.689621337890625,0.856433093547821,0.4300491213798523,-1.0848966836929321
1696083230293621500,3.69962158203125,0.9205739498138428,0.5467243790626526,-1.0433578491210938
1696083230303621400,3.709621337890625,0.9663888216018677,0.5064072608947754,-1.0958921909332275
1696083230313621500,3.71962158203125,0.9706648588180542,0.3481931984424591,-1.2406673431396484
1696083230323621400,3.729621337890625,0.9101892113685608,0.0659734457731247,-1.4092661142349243
1696083230333621500,3.73962158203125,0.7855727076530457,-0.28527405858039856,-1.5143349170684814
1696083230343621400,3.749621337890625,0.618195652961731,-0.5027421116828918,-1.4844025373458862
1696083230353621500,3.75962158203125,0.44104471802711487,-0.5002986192703247,-1.318858027458191
1696083230363621600,3.76962158203125,0.30115658044815063,-0.40622538328170776,-1.0873401165008545
1696083230373621500,3.77962158203125,0.23884831368923187,-0.26939156651496887,-0.8484918475151062
1696083230383621600,3.78962158203125,0.22602014243602753,-0.2168571650981903,-0.6646214127540588
1696083230393621500,3.79962158203125,0.21991148591041565,-0.3121521472930908,-0.5644394755363464
1696083230403621400,3.809621337890625,0.20402899384498596,-0.4202753007411957,-0.5308418869972229
1696083230413621500,3.81962158203125,0.20097467303276062,-0.45631635189056396,-0.5418374538421631
1696083230423621400,3.829621337890625,0.22663100063800812,-0.3744603991508484,-0.5510004758834839
1696083230433621500,3.83962158203125,0.2773328125476837,-0.23884831368923187,-0.5406157374382019
1696083230443621400,3.849621337890625,0.37690386176109314,-0.23945917189121246,-0.5296201705932617
1696083230453621500,3.85962158203125,0.49357911944389343,-0.35735616087913513,-0.5491678714752197
1696083230463621400,3.869621337890625,0.5821545720100403,-0.4807509481906891,-0.5925393104553223
1696083230473621500,3.87962158203125,0.6139195561408997,-0.5821545720100403,-0.6316346526145935
1696083230483621400,3.889621337890625,0.5839871764183044,-0.6230825781822205,-0.6389650702476501
1696083230493621500,3.89962158203125,0.5442809462547302,-0.5662720799446106,-0.637132465839386
1696083230503621400,3.909621337890625,0.5253441333770752,-0.46303585171699524,-0.6591235995292664
1696083230513621500,3.91962158203125,0.5198463201522827,-0.3744603991508484,-0.7073819637298584
1696083230523621400,3.929621337890625,0.5112941861152649,-0.28649580478668213,-0.7605272531509399
1696083230533621500,3.93962158203125,0.4966334402561188,-0.1368338167667389,-0.7922922372817993
1696083230543621400,3.949621337890625,0.475253164768219,0.06230825558304787,-0.808174729347229
1696083230553621500,3.95962158203125,0.47219884395599365,0.21502456068992615,-0.8326093554496765
1696083230563621400,3.969621337890625,0.5015203952789307,0.30115658044815063,-0.8857545852661133
1696083230573621500,3.97962158203125,0.5247332453727722,0.3243694305419922,-0.9285151958465576
1696083230583621400,3.989621337890625,0.5699372887611389,0.3433062732219696,-1.0348057746887207
1696083230593621500,3.99962158203125,0.6041457056999207,0.31031954288482666,-1.1398745775222778
1696083230603621400,4.009621337890625,0.6316346526145935,0.24190263450145721,-1.1814134120941162
1696083230613621500,4.01962158203125,0.6817256212234497,0.16493362188339233,-1.1087204217910767
1696083230623621400,4.029621337890625,0.7556403279304504,0.06780604273080826,-0.9285151958465576
1696083230633621500,4.03962158203125,0.8381071090698242,-0.06658431142568588,-0.6914994716644287
1696083230643621400,4.049621337890625,0.8967501521110535,-0.21380282938480377,-0.4288274049758911
1696083230653621200,4.059621337890625,0.9162978529930115,-0.2938261926174164,-0.16310101747512817
1696083230663621400,4.069621337890625,0.901637077331543,-0.2431243658065796,0.060475658625364304
1696083230673621500,4.07962158203125,0.8570439219474792,-0.12217304855585098,0.1667662113904953
1696083230683621400,4.089621337890625,0.7751879692077637,0,0.13316862285137177
1696083230693621500,4.09962158203125,0.6340781450271606,0.13927727937698364,0.015882495790719986
1696083230703621400,4.109621337890625,0.40683624148368835,0.35246923565864563,-0.06475171446800232
1696083230713621500,4.11962158203125,0.1007927656173706,0.6102544069290161,-0.02321287989616394
1696083230723621400,4.129621337890625,-0.23640485107898712,0.8509352803230286,0.17409659922122955
1696083230733621500,4.13962158203125,-0.5736024379730225,1.045190453529358,0.5100724697113037
1696083230743621400,4.149621337890625,-0.9083566069602966,1.0879509449005127,0.8857545852661133
1696083230753621500,4.15962158203125,-1.243721604347229,0.8967501521110535,1.178359031677246
1696083230763621400,4.169621337890625,-1.5503759384155273,0.5400048494338989,1.3781119585037231
1696083230773621500,4.17962158203125,-1.822821855545044,0.23518311977386475,1.570534586906433
1696083230783621400,4.189621337890625,-2.0726656913757324,0.030543262138962746,1.872912883758545
1696083230793621500,4.19962158203125,-2.266309976577759,-0.1765400618314743,2.2883012294769287
1696083230803621400,4.209621337890625,-2.364659309387207,-0.5479460954666138,2.7366762161254883
1696083230813621500,4.21962158203125,-2.3151793479919434,-1.0989465713500977,3.070819616317749
1696083230823621400,4.229621337890625,-2.138028383255005,-1.7617353200912476,3.1923818588256836
1696083230833621500,4.23962158203125,-1.9272798299789429,-2.2876904010772705,3.1257975101470947
1696083230843621400,4.249621337890625,-1.718363881111145,-2.225382089614868,2.833193063735962
1696083230853621500,4.25962158203125,-1.4746286869049072,-1.585806131362915,2.4471261501312256
1696083230863621400,4.269621337890625,-1.2046263217926025,-0.759305477142334,2.110539436340332
1696083230873621500,4.27962158203125,-0.9169087409973145,-0.025656340643763542,1.8057177066802979
1696083230883621400,4.289621337890625,-0.6878342628479004,0.5210680365562439,1.5351043939590454
1696083230893621500,4.29962158203125,-0.543059229850769,0.8161159753799438,1.3445143699645996
1696083230903621400,4.309621337890625,-0.503963828086853,0.637132465839386,1.3335188627243042
1696083230913621500,4.31962158203125,-0.6041457056999207,0.22907446324825287,1.5015068054199219
1696083230923621400,4.329621337890625,-0.7819074988365173,-0.03176499158143997,1.665218710899353
1696083230933621500,4.33962158203125,-0.9572258591651917,-0.14844025671482086,1.6969836950302124
1696083230943621400,4.349621337890625,-1.0946705341339111,-0.20097467303276062,1.5974125862121582
1696083230953621500,4.35962158203125,-1.189354658126831,-0.3243694305419922,1.4618005752563477
1696083230963621400,4.369621337890625,-1.2541064023971558,-0.4856378734111786,1.3469579219818115
1696083230973621500,4.37962158203125,-1.2974777221679688,-0.6444628238677979,1.2565498352050781
1696083230983621400,4.389621337890625,-1.3115277290344238,-0.7312057018280029,1.1856894493103027
1696083230993621500,4.39962158203125,-1.2834278345108032,-0.6352998614311218,1.140485405921936
1696083231003621400,4.409621337890625,-1.2162326574325562,-0.41172316670417786,1.1148290634155273
1696083231013621500,4.41962158203125,-1.1136072874069214,-0.09712757170200348,1.092837929725647
1696083231023621400,4.429621337890625,-0.9999864101409912,0.16432274878025055,1.0195341110229492
1696083231033621500,4.43962158203125,-0.8790351152420044,0.3695734739303589,0.9059131741523743
1696083231043621400,4.449621337890625,-0.7507534027099609,0.5687155723571777,0.7874053120613098
1696083231053621200,4.459621337890625,-0.6310238242149353,0.7104362845420837,0.6743952035903931
1696083231063621400,4.469621337890625,-0.5186246037483215,0.7916813492774963,0.5546656250953674
1696083231073621200,4.479621337890625,-0.4184426963329315,0.8283332586288452,0.4202753007411957
1696083231083621400,4.489621337890625,-0.3176499307155609,0.8387179970741272,0.2840523421764374
1696083231093621500,4.49962158203125,-0.19547687470912933,0.8356636762619019,0.14966198801994324
1696083231103621400,4.509621337890625,-0.04642575979232788,0.8301658630371094,0.00427605677396059
1696083231113621500,4.51962158203125,0.13561208546161652,0.8087855577468872,-0.16249015927314758
1696083231123621400,4.529621337890625,0.33536502718925476,0.7544185519218445,-0.3439171314239502
1696083231133621500,4.53962158203125,0.5418374538421631,0.6346889734268188,-0.5528330206871033
1696083231143621400,4.549621337890625,0.7525860071182251,0.48258355259895325,-0.7922922372817993
1696083231153621000,4.55962109375,0.9437867999076843,0.3891211748123169,-1.0793988704681396
1696083231163620900,4.569620849609375,1.0690141916275024,0.403781920671463,-1.4043792486190796
1696083231173621000,4.57962109375,1.0946705341339111,0.5760459303855896,-1.7037031650543213
1696083231183620900,4.589620849609375,1.0329731702804565,0.8790351152420044,-1.7544050216674805
1696083231193621000,4.59962109375,0.8741481900215149,1.3982704877853394,-1.4660766124725342
1696083231203620900,4.609620849609375,0.6200281977653503,2.1392500400543213,-1.0464121103286743
1696083231213621000,4.61962109375,0.2736676335334778,2.4086415767669678,-0.9053022861480713
1696083231223620900,4.629620849609375,-0.0708603709936142,1.7843374013900757,-0.9523389339447021
1696083231233621000,4.63962109375,-0.37690386176109314,0.03481931984424591,-0.7293730974197388
1696083231243620900,4.649620849609375,-0.5791002511978149,-1.9675970077514648,-0.2974913716316223
1696083231253621000,4.65962109375,-0.5919284224510193,-3.2510247230529785,0.039095375686883926
1696083231263620900,4.669620849609375,-0.46853363513946533,-3.665191411972046,0.13561208546161652
1696083231273621000,4.67962109375,-0.32559117674827576,-3.3298263549804688,0.013439035043120384
1696083231283620900,4.689620849609375,-0.16493362188339233,-2.4605650901794434,-0.2779437005519867
1696083231293621000,4.69962109375,0.08796459436416626,-1.386053204536438,-0.5931501388549805
1696083231303620900,4.709620849609375,0.38667771220207214,-0.675616979598999,-0.779464066028595
1696083231313621000,4.71962109375,0.6163630485534668,-0.40256020426750183,-0.8203920125961304
1696083231323621000,4.72962109375,0.788627028465271,-0.2822197377681732,-0.6053674817085266
1696083231333621000,4.73962109375,0.8356636762619019,-0.11178833991289139,-0.16554448008537292
1696083231343621000,4.74962109375,0.7538077235221863,0.10201449692249298,0.251676470041275
1696083231353621000,4.75962109375,0.6896668672561646,0.2919935882091522,0.4098905920982361
1696083231363621000,4.76962109375,0.7043276429176331,0.7452555894851685,0.16493362188339233
1696083231373621000,4.77962109375,0.7312057018280029,0.8546004891395569,-0.4251621961593628
1696083231383621000,4.78962109375,0.7751879692077637,0.17531833052635193,-0.7141014933586121
1696083231393621000,4.79962109375,0.8344419002532959,-0.8228355050086975,-0.7287622094154358
1696083231403621000,4.80962109375,0.8735373020172119,-1.6865988969802856,-0.6670648455619812
1696083231413621000,4.81962109375,0.9590584635734558,-2.196671485900879,-0.645684540271759
1696083231423621000,4.82962109375,1.1117748022079468,-2.2040019035339355,-0.6188064813613892
1696083231433621000,4.83962109375,1.2657127380371094,-1.7873916625976562,-0.6023131608963013
1696083231443621000,4.84962109375,1.3341296911239624,-0.9718865752220154,-0.769079327583313
1696083231453621500,4.85962158203125,1.246165156364441,0.13805554807186127,-1.0128145217895508
1696083231463621400,4.869621337890625,1.171028733253479,1.2162326574325562,-1.064738154411316
1696083231473621500,4.87962158203125,1.1172724962234497,2.049452781677246,-0.9340129494667053
1696083231483621400,4.889621337890625,1.054964303970337,2.6248879432678223,-0.7709119319915771
1696083231493621500,4.89962158203125,0.9999864101409912,2.8955013751983643,-0.8002334833145142
1696083231503621400,4.909621337890625,1.0073168277740479,2.676811456680298,-1.3054190874099731
1696083231513621500,4.91962158203125,0.9425650835037231,1.7928894758224487,-2.029905319213867
1696083231523621400,4.929621337890625,0.7037167549133301,0.4349360466003418,-2.448347806930542
1696083231533621500,4.93962158203125,0.38117989897727966,-0.8210029006004333,-2.3383922576904297
1696083231543621400,4.949621337890625,0.09407325088977814,-1.5619823932647705,-1.813048005104065
1696083231553621500,4.95962158203125,-0.10873401165008545,-1.6206254959106445,-1.1056660413742065
1696083231563621400,4.969621337890625,-0.23396138846874237,-1.1734721660614014,-0.4502076804637909
1696083231573621500,4.97962158203125,-0.2571742534637451,-0.48258355259895325,-0.02321287989616394
1696083231583621400,4.989621337890625,-0.16493362188339233,0.1319468915462494,0.13500121235847473
1696083231593621500,4.99962158203125,-0.04886921867728233,0.5375614166259766,0.14233160018920898
1696083231603621400,5.009621337890625,0.05375614017248154,0.9175195693969727,0.0708603709936142
1696083231613621500,5.01962158203125,0.16493362188339233,1.160033106803894,-0.09957103431224823
1696083231623621400,5.029621337890625,0.2926044464111328,1.0109820365905762,-0.40194934606552124
1696083231633621500,5.03962158203125,0.4282165467739105,0.5619960427284241,-0.7562511563301086
1696083231643621400,5.049621337890625,0.5180137157440186,0.02382374368607998,-1.0366383790969849
1696083231653621200,5.059621337890625,0.5070181488990784,-0.36713001132011414,-1.1624765396118164
1696083231663621400,5.069621337890625,0.4086688458919525,-0.523511528968811,-1.1789699792861938
1696083231673621200,5.079621337890625,0.3530801236629486,-0.4612032473087311,-1.1508700847625732
1696083231683621400,5.089621337890625,0.3982841372489929,-0.28955012559890747,-1.112385630607605
1696083231693621200,5.099621337890625,0.4948008358478546,-0.05925392732024193,-1.0561859607696533
1696083231703621400,5.109621337890625,0.5968153476715088,0.12828169763088226,-0.9657779335975647
1696083231713621200,5.119621337890625,0.6633996367454529,0.1973094791173935,-0.8759807348251343
1696083231723621400,5.129621337890625,0.6994407176971436,0.17776179313659668,-0.8381071090698242
1696083231733621200,5.139621337890625,0.7159340381622314,0.14844025671482086,-0.8649851679801941
1696083231743621400,5.149621337890625,0.7293730974197388,0.13255776464939117,-0.9480628371238708
1696083231753621500,5.15962158203125,0.7489207983016968,0.07147123664617538,-1.0610729455947876
1696083231763621400,5.169621337890625,0.7812966704368591,-0.042760565876960754,-1.1398745775222778
1696083231773621200,5.179621337890625,0.817948579788208,-0.20402899384498596,-1.0873401165008545
1696083231783621400,5.189621337890625,0.8344419002532959,-0.4282165467739105,-0.8600982427597046
1696083231793621200,5.199621337890625,0.8295549750328064,-0.7519751191139221,-0.5051855444908142
1696083231803621400,5.209621337890625,0.8228355050086975,-1.0775662660598755,-0.1062905490398407
1696083231813621200,5.219621337890625,0.8356636762619019,-1.2131783962249756,0.24862214922904968
1696083231823621400,5.229621337890625,0.8833111524581909,-1.0971139669418335,0.4856378734111786
1696083231833621200,5.239621337890625,0.9456194043159485,-0.827722430229187,0.5601634383201599
1696083231843621400,5.249621337890625,0.9706648588180542,-0.5265658497810364,0.44593164324760437
1696083231853621500,5.25962158203125,0.8906415104866028,-0.22418753802776337,0.1667662113904953
1696083231863621400,5.269621337890625,0.6597344875335693,0.06108652427792549,-0.1411098688840866
1696083231873621500,5.27962158203125,0.29993483424186707,0.2577851414680481,-0.29993483424186707
1696083231883621400,5.289621337890625,-0.0959058403968811,0.33169981837272644,-0.16737708449363708
1696083231893621500,5.29962158203125,-0.45326200127601624,0.3066543638706207,0.24862214922904968
1696083231903621400,5.309621337890625,-0.7568620443344116,0.27488934993743896,0.7574729323387146
1696083231913621500,5.31962158203125,-0.9969320893287659,0.2669481039047241,1.1820242404937744
1696083231923621400,5.329621337890625,-1.1423180103302002,0.29016098380088806,1.472796082496643
1696083231933621500,5.33962158203125,-1.197906732559204,0.35613444447517395,1.7122552394866943
1696083231943621400,5.349621337890625,-1.2278391122817993,0.5546656250953674,2.0115792751312256
1696083231953621800,5.359621826171875,-1.33168625831604,0.9034696817398071,2.3860397338867188
1696083231963621600,5.36962158203125,-1.5888605117797852,1.1966849565505981,2.7342329025268555
1696083231973621500,5.37962158203125,-1.9364428520202637,1.2040153741836548,2.9290988445281982
1696083231983621600,5.38962158203125,-2.27852725982666,0.8924741148948669,2.9608638286590576
1696083231993621500,5.39962158203125,-2.5815165042877197,0.3390302062034607,2.8826730251312256
1696083232003621600,5.40962158203125,-2.7336220741271973,-0.3677408695220947,2.7763824462890625
1696083232013621500,5.41962158203125,-2.646268129348755,-1.2455542087554932,2.721404552459717
1696083232023621600,5.42962158203125,-2.3652701377868652,-2.149634838104248,2.6316075325012207
1696083232033621500,5.43962158203125,-1.984701156616211,-2.741563320159912,2.3744332790374756
1696083232043621600,5.44962158203125,-1.6224581003189087,-2.7965409755706787,1.9150625467300415
1696083232053621500,5.45962158203125,-1.3530665636062622,-1.95965576171875,1.3469579219818115
1696083232063621600,5.46962158203125,-1.1398745775222778,-0.827111542224884,0.9810495972633362
1696083232073621500,5.47962158203125,-1.024420976638794,-0.03237585723400116,1.0317513942718506
1696083232083621600,5.48962158203125,-1.006095051765442,0.38606682419776917,1.3194689750671387
1696083232093621500,5.49962158203125,-0.9822713136672974,0.5094616413116455,1.5613715648651123
1696083232103621600,5.50962158203125,-0.9248499870300293,0.5027421116828918,1.598023533821106
1696083232113621800,5.519621826171875,-0.8961393237113953,0.48380526900291443,1.4715744256973267
1696083232123621600,5.52962158203125,-0.911410927772522,0.41111230850219727,1.2889256477355957
1696083232133621800,5.539621826171875,-0.9810495972633362,0.21319197118282318,1.1343767642974854
1696083232143621600,5.54962158203125,-1.0934487581253052,-0.08429940044879913,1.045190453529358
1696083232153621200,5.559621337890625,-1.2247848510742188,-0.2785545587539673,1.0005972385406494
1696083232163621400,5.569621337890625,-1.3048081398010254,-0.2125810980796814,1.0238101482391357
1696083232173621200,5.579621337890625,-1.2962560653686523,0.007941247895359993,1.0867292881011963
1696083232183621400,5.589621337890625,-1.2455542087554932,0.19853121042251587,1.102611780166626
1696083232193621200,5.599621337890625,-1.1691961288452148,0.3274237811565399,1.0415252447128296
1696083232203621400,5.609621337890625,-1.06657075881958,0.5057964324951172,0.9144652485847473
1696083232213621200,5.619621337890625,-0.9382890462875366,0.6994407176971436,0.759305477142334
1696083232223621400,5.629621337890625,-0.7922922372817993,0.9327912330627441,0.6029239892959595
1696083232233621200,5.639621337890625,-0.6359107494354248,1.1746938228607178,0.4715879559516907
1696083232243621400,5.649621337890625,-0.4789183437824249,1.3622294664382935,0.37140607833862305
1696083232253621000,5.65962109375,-0.32620203495025635,1.4074335098266602,0.2742784917354584
1696083232263621000,5.66962109375,-0.17104226350784302,1.321912407875061,0.16554448008537292
1696083232273621000,5.67962109375,-0.02382374368607998,1.1826350688934326,0.02687807008624077
1696083232283621000,5.68962109375,0.1111774742603302,1.0305296182632446,-0.15821409225463867
1696083232293621000,5.69962109375,0.23884831368923187,0.8967501521110535,-0.3836233615875244
1696083232303621000,5.70962109375,0.3836233615875244,0.7666358947753906,-0.6285803318023682
1696083232313621000,5.71962109375,0.5674937963485718,0.588263213634491,-0.8796459436416626
1696083232323621000,5.72962109375,0.7733554244041443,0.3732386529445648,-1.1276572942733765
1696083232333621000,5.73962109375,0.959669291973114,0.16065755486488342,-1.3927727937698364
1696083232343621000,5.74962109375,1.0586295127868652,0.012828170321881771,-1.6847662925720215
1696083232353621200,5.759621337890625,1.0525208711624146,-0.03298672288656235,-1.9462167024612427
1696083232363621000,5.76962109375,0.9480628371238708,-0.013439035043120384,-2.0836613178253174
1696083232373621200,5.779621337890625,0.759916365146637,0.039095375686883926,-1.99447500705719
1696083232383621000,5.78962109375,0.48685958981513977,0.20586158335208893,-1.6010777950286865
1696083232393621200,5.799621337890625,0.152105450630188,0.38728857040405273,-1.1435397863388062
1696083232403621000,5.80962109375,-0.16554448008537292,0.2480112910270691,-0.911410927772522
1696083232413621000,5.81962109375,-0.38240164518356323,-0.33047810196876526,-0.6444628238677979
1696083232423621000,5.82962109375,-0.48685958981513977,-0.9224064946174622,-0.21319197118282318
1696083232433621000,5.83962109375,-0.4813618063926697,-1.2583824396133423,0.17104226350784302
1696083232443621000,5.84962109375,-0.3854559659957886,-1.4025466442108154,0.40683624148368835
1696083232453621500,5.85962158203125,-0.3017674386501312,-1.3744467496871948,0.37568211555480957
1696083232463621400,5.869621337890625,-0.1569923609495163,-1.1410962343215942,0.10934487730264664
1696083232473621500,5.87962158203125,0.09162978827953339,-0.9340129494667053,-0.2223549485206604
1696083232483621400,5.889621337890625,0.30970868468284607,-1.1337659358978271,-0.5149593949317932
1696083232493621500,5.89962158203125,0.48747047781944275,-1.6236798763275146,-0.8356636762619019
1696083232503621400,5.909621337890625,0.6090326309204102,-2.087937355041504,-0.9669997096061707
1696083232513621000,5.91962109375,0.543059229850769,-2.1587977409362793,-0.6872233748435974
1696083232523621000,5.92962109375,0.3897320330142975,-1.6365079879760742,-0.17592918872833252
1696083232533621200,5.939621337890625,0.34758231043815613,-0.2370157092809677,0.2076941877603531
1696083232543621000,5.94962109375,0.5186246037483215,0.9388998746871948,0.019547687843441963
1696083232553621200,5.959621337890625,0.7293730974197388,1.1203268766403198,-0.10995574295520782
1696083232563621000,5.96962109375,0.79840087890625,0.7617489695549011,-0.10567969083786011
1696083232573621000,5.97962109375,0.8662069439888,-0.013439035043120384,-0.17287486791610718
1696083232583621000,5.98962109375,0.9663888216018677,-0.8973610401153564,-0.4141666293144226
1696083232593621200,5.999621337890625,1.0910053253173828,-1.4214833974838257,-0.7086036801338196
1696083232603621000,6.00962109375,1.2107349634170532,-1.5534303188323975,-0.9101892113685608
1696083232613621000,6.01962109375,1.3066407442092896,-1.3274102210998535,-1.0329731702804565
1696083232623621000,6.02962109375,1.2498302459716797,-0.6414085030555725,-1.2791517972946167
1696083232633621000,6.03962109375,1.10139000415802,0.39217549562454224,-1.5913039445877075
1696083232643621000,6.04962109375,1.0195341110229492,1.2767083644866943,-1.6041321754455566
1696083232653621000,6.05962109375,1.0103710889816284,1.8270978927612305,-1.3463469743728638
1696083232663621000,6.06962109375,1.014647126197815,2.0696115493774414,-1.0293079614639282
1696083232673621000,6.07962109375,1.0305296182632446,2.015244483947754,-0.9150761365890503
1696083232683621000,6.08962109375,1.0702359676361084,1.6413949728012085,-1.147204875946045
1696083232693621000,6.09962109375,1.0311405658721924,0.9254608750343323,-1.5522085428237915
1696083232703621000,6.10962109375,0.8326093554496765,0.014049900695681572,-1.8014415502548218
1696083232713621000,6.11962109375,0.5204572081565857,-0.7562511563301086,-1.7073683738708496
1696083232723621000,6.12962109375,0.2376265823841095,-1.1801916360855103,-1.3213015794754028
1696083232733621000,6.13962109375,0.08124507963657379,-1.2669345140457153,-0.8136724829673767
1696083232743621000,6.14962109375,0.08674286305904388,-1.0183123350143433,-0.33536502718925476
1696083232753621000,6.15962109375,0.17898350954055786,-0.6212499737739563,-0.025045474991202354
1696083232763621000,6.16962109375,0.25534167885780334,-0.29138273000717163,0.04459316283464432
1696083232773621000,6.17962109375,0.2987131178379059,-0.12095131725072861,-0.005497787147760391
1696083232783621000,6.18962109375,0.33658674359321594,0.01160643994808197,-0.06902777403593063
1696083232793621000,6.19962109375,0.4190535545349121,0.1362229436635971,-0.1618792861700058
1696083232803621000,6.20962109375,0.49296826124191284,0.16310101747512817,-0.35613444447517395
1696083232813621200,6.219621337890625,0.5534439086914062,-0.009773843921720982,-0.6597344875335693
1696083232823621400,6.229621337890625,0.6023131608963013,-0.23640485107898712,-0.9584475755691528
1696083232833621200,6.239621337890625,0.5907067060470581,-0.30115658044815063,-1.1618657112121582
1696083232843621400,6.249621337890625,0.5540547966957092,-0.16249015927314758,-1.2455542087554932
1696083232853621200,6.259621337890625,0.5601634383201599,-0.005497787147760391,-1.2150110006332397
1696083232863621400,6.269621337890625,0.6047565937042236,0.059864792972803116,-1.1050552129745483
1696083232873621200,6.279621337890625,0.6505714654922485,0.04642575979232788,-0.9364564418792725
1696083232883621400,6.289621337890625,0.6731734871864319,-0.02076941914856434,-0.7623597979545593
1696083232893621200,6.299621337890625,0.675616979598999,-0.13988813757896423,-0.6505714654922485
1696083232903621400,6.309621337890625,0.6933320760726929,-0.2926044464111328,-0.6230825781822205
1696083232913621200,6.319621337890625,0.7305948138237,-0.3836233615875244,-0.6786713004112244
1696083232923621400,6.329621337890625,0.7837401032447815,-0.3384193480014801,-0.7947356700897217
1696083232933621200,6.339621337890625,0.8429940342903137,-0.21991148591041565,-0.9352346658706665
1696083232943621400,6.349621337890625,0.9040805697441101,-0.11667526513338089,-1.0488556623458862
1696083232953621000,6.35962109375,0.9669997096061707,-0.07208210229873657,-1.0531316995620728
1696083232963620900,6.369620849609375,1.0225883722305298,-0.12339477986097336,-0.9046914577484131
1696083232973621000,6.37962109375,1.0598511695861816,-0.31459560990333557,-0.6249151229858398
1696083232983620900,6.389620849609375,1.0775662660598755,-0.5919284224510193,-0.27000242471694946
1696083232993621000,6.39962109375,1.081842303276062,-0.8130616545677185,0.09224065393209457
1696083233003620900,6.409620849609375,1.0751228332519531,-0.8600982427597046,0.3744603991508484
1696083233013621000,6.41962109375,1.036027431488037,-0.7611380815505981,0.46853363513946533
1696083233023620900,6.429620849609375,0.9395107626914978,-0.5711590051651001,0.32009339332580566
1696083233033621000,6.43962109375,0.7525860071182251,-0.303600013256073,0.004886921960860491
1696083233043620900,6.449620849609375,0.46181413531303406,0.003054326167330146,-0.2480112910270691
1696083233053621000,6.45962109375,0.09957103431224823,0.2681698501110077,-0.2620611786842346
1696083233063620900,6.469620849609375,-0.2877175211906433,0.37629300355911255,-0.025656340643763542
1696083233073621000,6.47962109375,-0.627358615398407,0.29993483424186707,0.3536909818649292
1696083233083620900,6.489620849609375,-0.8649851679801941,0.18387043476104736,0.8051204085350037
1696083233093621000,6.49962109375,-1.0195341110229492,0.20036379992961884,1.2779301404953003
1696083233103620900,6.509620849609375,-1.1508700847625732,0.33475416898727417,1.6969836950302124
1696083233113621000,6.51962109375,-1.3439035415649414,0.50335294008255,1.9810359477996826
1696083233123621000,6.52962109375,-1.616349458694458,0.5955936312675476,2.1539108753204346
1696083233133621000,6.53962109375,-1.9309450387954712,0.5955936312675476,2.2846360206604004
1696083233143620900,6.549620849609375,-2.22782564163208,0.40256020426750183,2.3964242935180664
1696083233153620200,6.5596201171875,-2.4636194705963135,0.029932396486401558,2.4801127910614014
1696083233163620400,6.569620361328125,-2.579684019088745,-0.42760565876960754,2.524095296859741
1696083233173620200,6.5796201171875,-2.532036542892456,-0.9517280459403992,2.5479190349578857
1696083233183620400,6.589620361328125,-2.364659309387207,-1.380555510520935,2.548529863357544
1696083233193620200,6.5996201171875,-2.0916025638580322,-1.6120734214782715,2.4495697021484375
1696083233203620400,6.609620361328125,-1.737911581993103,-1.6169602870941162,2.2003366947174072
1696083233213620200,6.6196201171875,-1.4092661142349243,-1.3548991680145264,1.8600846529006958
1696083233223620000,6.6296201171875,-1.1478158235549927,-0.8918632864952087,1.5424346923828125
1696083233233620200,6.6396201171875,-0.9926560521125793,-0.24556782841682434,1.3182471990585327
1696083233243620000,6.6496201171875,-0.9028588533401489,0.2785545587539673,1.2541064023971558
1696083233253620500,6.659620361328125,-0.8668177723884583,0.3927863538265228,1.310916781425476
1696083233263620600,6.66962060546875,-0.8576548099517822,0.3072652220726013,1.378722906112671
1696083233273620700,6.679620849609375,-0.8735373020172119,0.21013765037059784,1.4275920391082764
1696083233283620600,6.68962060546875,-0.9053022861480713,0.17348572611808777,1.431868076324463
1696083233293620700,6.699620849609375,-0.9615018963813782,0.14416420459747314,1.3878858089447021
1696083233303620600,6.70962060546875,-1.037249207496643,0.13805554807186127,1.312138557434082
1696083233313620700,6.719620849609375,-1.131933331489563,0.09529497474431992,1.225395679473877
1696083233323620600,6.72962060546875,-1.2370021343231201,-0.007941247895359993,1.1386528015136719
1696083233333620700,6.739620849609375,-1.3200798034667969,-0.0806342139840126,1.0574077367782593
1696083233343620600,6.74962060546875,-1.3628404140472412,-0.027488935738801956,1.0073168277740479
1696083233353620700,6.759620849609375,-1.3616186380386353,0.17592918872833252,0.9834930300712585
1696083233363620600,6.76962060546875,-1.3225232362747192,0.394008070230484,0.9334021210670471
1696083233373620700,6.779620849609375,-1.2412781715393066,0.616973876953125,0.8600982427597046
1696083233383620600,6.78962060546875,-1.1331549882888794,0.8979719281196594,0.7745771408081055
1696083233393620700,6.799620849609375,-1.0042624473571777,1.1673635244369507,0.6872233748435974
1696083233403620600,6.80962060546875,-0.8631525635719299,1.3524556159973145,0.6017022728919983
1696083233413620700,6.819620849609375,-0.720820963382721,1.4611896276474,0.5143485069274902
1696083233423620600,6.82962060546875,-0.5809328556060791,1.4899003505706787,0.39645153284072876
1696083233433620700,6.839620849609375,-0.4440990388393402,1.453248381614685,0.24984388053417206
1696083233443620600,6.84962060546875,-0.32131510972976685,1.3548991680145264,0.07757988572120667
1696083233453621500,6.85962158203125,-0.21441370248794556,1.217454433441162,-0.11545353382825851
1696083233463621400,6.869621337890625,-0.10873401165008545,1.074512004852295,-0.33169981837272644
1696083233473621500,6.87962158203125,0.019547687843441963,0.941343367099762,-0.5638286471366882
1696083233483621400,6.889621337890625,0.192422553896904,0.8020660877227783,-0.8038986921310425
1696083233493621000,6.89962109375,0.4043927788734436,0.626747727394104,-1.0543533563613892
1696083233503621000,6.90962109375,0.6285803318023682,0.4153883755207062,-1.312138557434082
1696083233513621000,6.91962109375,0.799011766910553,0.21991148591041565,-1.5741997957229614
1696083233523621000,6.92962109375,0.8674286603927612,0.15821409225463867,-1.8099937438964844
1696083233533621000,6.93962109375,0.8423831462860107,0.2474004179239273,-1.9590448141098022
1696083233543621000,6.94962109375,0.7660250067710876,0.4660901725292206,-1.9199494123458862
1696083233553622300,6.959622314453125,0.6255260109901428,0.8668177723884583,-1.5888605117797852
1696083233563623200,6.969623046875,0.4147774875164032,1.4110987186431885,-1.10139000415802
1696083233573623000,6.979623046875,0.18570303916931152,1.5821410417556763,-0.8796459436416626
1696083233583623200,6.989623046875,-0.00733038317412138,1.1178834438323975,-0.9059131741523743
1696083233593623000,6.999623046875,-0.1459967941045761,0.09468411654233932,-0.8356636762619019
1696083233603623200,7.009623046875,-0.22540926933288574,-1.024420976638794,-0.4917465150356293
1696083233613623000,7.019623046875,-0.2724458873271942,-1.7385225296020508,-0.06841690838336945
1696083233623623200,7.029623046875,-0.24862214922904968,-2.1197023391723633,0.11789698898792267
1696083233633623000,7.039623046875,-0.17043140530586243,-2.1478021144866943,0.03848451003432274
1696083233643623000,7.049622802734375,-0.025656340643763542,-1.8020524978637695,-0.22418753802776337
1696083233653623000,7.059623046875,0.19853121042251587,-1.4062118530273438,-0.5198463201522827
1696083233663623000,7.069622802734375,0.4190535545349121,-1.2486085891723633,-0.7776314616203308
1696083233673623000,7.079623046875,0.6126978397369385,-1.244943380355835,-0.9089674949645996
1696083233683623000,7.089622802734375,0.6811147332191467,-1.1759155988693237,-0.6346889734268188
1696083233693623000,7.099623046875,0.5662720799446106,-0.8124507665634155,-0.05619960278272629
1696083233703623000,7.109622802734375,0.39706242084503174,-0.192422553896904,0.4080579876899719
1696083233713623000,7.119623046875,0.35185837745666504,0.8686503767967224,0.4056145250797272
1696083233723623000,7.129622802734375,0.4954117238521576,1.63467538356781,-0.0555887371301651
1696083233733623000,7.139623046875,0.6670648455619812,1.6126842498779297,-0.27977627515792847
1696083233743623000,7.149622802734375,0.7141014933586121,1.2150110006332397,-0.24007004499435425
1696083233753623000,7.159623046875,0.6890559792518616,0.7446447610855103,-0.21807889640331268
1696083233763623000,7.169622802734375,0.7415903806686401,0.22296582162380219,-0.42210787534713745
1696083233773623000,7.179623046875,0.8607091307640076,-0.35674530267715454,-0.7098253965377808
1696083233783623000,7.189622802734375,0.9040805697441101,-0.7953465580940247,-0.8955284357070923
1696083233793623300,7.199623291015625,0.8484918475151062,-0.8772025108337402,-0.9590584635734558
1696083233803623400,7.20962353515625,0.7244861721992493,-0.6139195561408997,-1.0268645286560059
1696083233813623300,7.219623291015625,0.6621779203414917,-0.12461651116609573,-1.0800096988677979
1696083233823623000,7.229622802734375,0.6731734871864319,0.4056145250797272,-1.0519099235534668
1696083233833623000,7.239623046875,0.7067710757255554,0.8674286603927612,-0.9908234477043152
1696083233843623200,7.249623046875,0.7782423496246338,1.1258246898651123,-1.0977247953414917
1696083233853621800,7.259621826171875,0.8423831462860107,1.0519099235534668,-1.4257594347000122
1696083233863620900,7.269620849609375,0.8057312369346619,0.7061602473258972,-1.7269160747528076
1696083233873621000,7.27962109375,0.646906316280365,0.16859880089759827,-1.8509217500686646
1696083233883620900,7.289620849609375,0.4282165467739105,-0.3738495409488678,-1.7299703359603882
1696083233893621000,7.29962109375,0.24373523890972137,-0.6811147332191467,-1.3897184133529663
1696083233903620900,7.309620849609375,0.14416420459747314,-0.6713408827781677,-0.9841039180755615
1696083233913621000,7.31962109375,0.12767083942890167,-0.4550946056842804,-0.6713408827781677
1696083233923620900,7.329620849609375,0.15882496535778046,-0.2119702398777008,-0.5363397002220154
1696083233933621000,7.33962109375,0.2272418737411499,-0.00366519158706069,-0.5302310585975647
1696083233943620900,7.349620849609375,0.34025195240974426,0.051312681287527084,-0.5900958180427551
1696083233953621000,7.35962109375,0.4593706727027893,-0.07452555745840073,-0.6725626587867737
1696083233963620900,7.369620849609375,0.5442809462547302,-0.1459967941045761,-0.7299839854240417
1696083233973621000,7.37962109375,0.626747727394104,-0.05253441259264946,-0.7507534027099609
1696083233983620900,7.389620849609375,0.7293730974197388,0.059864792972803116,-0.8307767510414124
1696083233993621000,7.39962109375,0.7904596328735352,-0.007941247895359993,-1.0268645286560059
1696083234003620900,7.409620849609375,0.8210029006004333,-0.24617868661880493,-1.23394775390625
1696083234013621000,7.41962109375,0.8289441466331482,-0.4856378734111786,-1.3445143699645996
1696083234023620900,7.429620849609375,0.8301658630371094,-0.6359107494354248,-1.340238332748413
1696083234033621000,7.43962109375,0.8381071090698242,-0.7202101349830627,-1.2431107759475708
1696083234043620900,7.449620849609375,0.8313875794410706,-0.7458664774894714,-1.0769554376602173
1696083234053621000,7.45962109375,0.8045095205307007,-0.7000515460968018,-0.8674286603927612
1696083234063620900,7.469620849609375,0.7507534027099609,-0.6053674817085266,-0.6743952035903931
1696083234073621000,7.47962109375,0.66584312915802,-0.4807509481906891,-0.5595525503158569
1696083234083620900,7.489620849609375,0.5858197808265686,-0.35552358627319336,-0.588263213634491
1696083234093621000,7.49962109375,0.5540547966957092,-0.2620611786842346,-0.7409795522689819
1696083234103620900,7.509620849609375,0.5638286471366882,-0.19486601650714874,-0.9132435321807861
1696083234113621000,7.51962109375,0.59803706407547,-0.18570303916931152,-0.9896016716957092
1696083234123621400,7.529621337890625,0.6597344875335693,-0.27061331272125244,-0.9083566069602966
1696083234133621200,7.539621337890625,0.7476990818977356,-0.5002986192703247,-0.6902777552604675
1696083234143621400,7.549621337890625,0.837496280670166,-0.8533787727355957,-0.39645153284072876
1696083234153621200,7.559621337890625,0.9077457785606384,-1.1539244651794434,-0.09346238523721695
1696083234163621400,7.569621337890625,0.9535606503486633,-1.2040153741836548,0.17348572611808777
1696083234173621200,7.579621337890625,0.9896016716957092,-1.0115928649902344,0.3732386529445648
1696083234183621400,7.589621337890625,1.0122036933898926,-0.7128797173500061,0.45875978469848633
1696083234193621200,7.599621337890625,1.0103710889816284,-0.5638286471366882,0.39645153284072876
1696083234203621400,7.609621337890625,0.8820894360542297,-0.2370157092809677,0.20586158335208893
1696083234213622000,7.6196220703125,0.7764097452163696,-0.19364428520202637,0.09468411654233932
1696083234223588900,7.6295888671875,0.4807509481906891,-0.1569923609495163,-0.014049900695681572
1696083234233555500,7.639555419921875,0.1215621829032898,-0.08979719132184982,0.182648703455925
1696083234243522000,7.64952197265625,-0.27488934993743896,0.025656340643763542,0.6927211880683899
1696083234253488600,7.659488525390625,-0.6841690540313721,0.08429940044879913,1.3182471990585327
1696083234263455500,7.66945556640625,-1.0225883722305298,0.039706241339445114,1.8661932945251465
1696083234273422000,7.679422119140625,-1.2406673431396484,0.01710422709584236,2.2962424755096436
1696083234283388700,7.689388671875,-1.4245377779006958,0.16065755486488342,2.6725354194641113
1696083234293355500,7.69935546875,-1.7153096199035645,0.5296201705932617,2.9095511436462402
1696083234303322000,7.709322021484375,-2.1319196224212646,0.7837401032447815,2.8710665702819824
1696083234313288700,7.719288818359375,-2.5784621238708496,0.7238753437995911,2.643824815750122
1696083234323255300,7.72925537109375,-2.964529037475586,0.5522221922874451,2.4361305236816406
1696083234333222100,7.73922216796875,-3.185662269592285,0.23945917189121246,2.3542747497558594
1696083234343188700,7.749188720703125,-3.1386256217956543,-0.4300491213798523,2.4135286808013916
1696083234353155300,7.7591552734375,-2.83074951171875,-1.3854423761367798,2.5442538261413574
1696083234363122200,7.7691220703125,-2.428189277648926,-2.4776694774627686,2.504547595977783
1696083234373088800,7.7790888671875,-2.0586159229278564,-3.0109548568725586,2.122145891189575
1696083234383055400,7.789055419921875,-1.6939293146133423,-2.830138683319092,1.5729780197143555
1696083234393022000,7.79902197265625,-1.4220943450927734,-2.0873265266418457,1.1203268766403198
1696083234402988800,7.80898876953125,-1.2883148193359375,-0.8063421249389648,0.9334021210670471
1696083234412955400,7.818955322265625,-1.207069754600525,0.3072652220726013,1.111163854598999
1696083234422922000,7.828921875,-1.1105530261993408,0.7574729323387146,1.3237450122833252
1696083234432888800,7.838888916015625,-1.0042624473571777,0.8038986921310425,1.4129313230514526
1696083234442855400,7.84885546875,-0.931569516658783,0.6939429044723511,1.378722906112671
1696083234452822000,7.858822021484375,-0.8985827565193176,0.5186246037483215,1.2986994981765747
1696083234462788900,7.868788818359375,-0.9346238374710083,0.2535090744495392,1.23394775390625
1696083234472755500,7.87875537109375,-1.014647126197815,-0.051312681287527084,1.1643091440200806
1696083234482722000,7.88872216796875,-1.120937705039978,-0.3341432809829712,1.0781772136688232
1696083234492688600,7.898688720703125,-1.2498302459716797,-0.27061331272125244,0.9944885969161987
1696083234502655500,7.908655517578125,-1.3231340646743774,0.08979719132184982,0.9810495972633362
1696083234512621300,7.918621337890625,-1.3194689750671387,0.33108896017074585,1.0396926403045654
1696083234522621200,7.92862109375,-1.2565498352050781,0.3628539443016052,1.0885618925094604
1696083234532621300,7.938621337890625,-1.1429288387298584,0.45204028487205505,1.0824532508850098
1696083234542621200,7.94862109375,-0.9938777685165405,0.6896668672561646,0.9963212013244629
1696083234552621300,7.958621337890625,-0.8448266386985779,1.0390818119049072,0.8582656979560852
1696083234562621200,7.96862109375,-0.7159340381622314,1.356731653213501,0.7012733221054077
1696083234572621300,7.978621337890625,-0.598647952079773,1.5711454153060913,0.543059229850769
1696083234582621200,7.98862109375,-0.48869219422340393,1.6682729721069336,0.4056145250797272
1696083234592621300,7.998621337890625,-0.37568211555480957,1.6603317260742188,0.2742784917354584
1696083234602621200,8.00862109375,-0.2535090744495392,1.570534586906433,0.1313360333442688
1696083234612621300,8.018621337890625,-0.11850785464048386,1.4697418212890625,-0.04703662544488907
1696083234622621200,8.02862109375,0.036651913076639175,1.367727279663086,-0.26572638750076294
1696083234632621300,8.038621337890625,0.20891591906547546,1.246165156364441,-0.5161811113357544
1696083234642621200,8.04862109375,0.403781920671463,1.015868902206421,-0.7965682744979858
1696083234652621300,8.058621337890624,0.6261368989944458,0.6621779203414917,-1.1032226085662842
1696083234662621200,8.06862109375,0.8533787727355957,0.3243694305419922,-1.4367550611495972
1696083234672621300,8.078621337890626,1.0183123350143433,0.19547687470912933,-1.7464637756347656
1696083234682621200,8.08862109375,1.053742527961731,0.29504790902137756,-1.945605754852295
1696083234692621300,8.098621337890625,1.0115928649902344,0.5418374538421631,-2.024407386779785
1696083234702621200,8.10862109375,0.901637077331543,0.8790351152420044,-1.9462167024612427
1696083234712621300,8.118621337890625,0.6908885836601257,1.292590856552124,-1.6658295392990112
1696083234722621200,8.12862109375,0.4105014503002167,1.585806131362915,-1.4379768371582031
1696083234732621300,8.138621337890624,0.11178833991289139,1.309084177017212,-1.4367550611495972
1696083234742621200,8.14862109375,-0.14049901068210602,0.21868975460529327,-1.3341296911239624
1696083234752621300,8.158621337890626,-0.3170390725135803,-1.2693779468536377,-0.8533787727355957
1696083234762621200,8.16862109375,-0.3127630054950714,-2.2595906257629395,-0.2535090744495392
1696083234772621300,8.178621337890625,-0.2174680233001709,-2.657874584197998,0.14905111491680145
1696083234782621200,8.18862109375,-0.14416420459747314,-2.5247061252593994,0.16737708449363708
1696083234792621300,8.198621337890625,-0.10873401165008545,-2.0647244453430176,-0.07330382615327835
1696083234802621200,8.20862109375,-0.08735372871160507,-1.6969836950302124,-0.34147366881370544
1696083234812621300,8.218621337890625,0.02687807008624077,-1.4917329549789429,-0.5302310585975647
1696083234822621200,8.22862109375,0.19486601650714874,-1.3561208248138428,-0.4593706727027893
1696083234832621300,8.238621337890624,0.3243694305419922,-1.1905763149261475,-0.05864306539297104
1696083234842621200,8.24862109375,0.40256020426750183,-0.6811147332191467,0.5027421116828918
1696083234852621300,8.258621337890625,0.49724429845809937,0.4990769028663635,0.7348709106445312
1696083234862621200,8.26862109375,0.6401867866516113,1.5583171844482422,0.5119050741195679
1696083234872621300,8.278621337890625,0.8185594081878662,1.8515325784683228,0.26022860407829285
1696083234882621200,8.28862109375,0.9535606503486633,1.567480206489563,0.1820378452539444
1696083234892621300,8.298621337890625,1.0085384845733643,0.9040805697441101,0.1014036312699318
1696083234902621200,8.30862109375,1.0897835493087769,0.13927727937698364,-0.14233160018920898
1696083234912621300,8.318621337890624,1.1716395616531372,-0.42699480056762695,-0.4660901725292206
1696083234922621200,8.32862109375,1.1441506147384644,-0.6994407176971436,-0.7678576111793518
1696083234932621300,8.338621337890626,1.015868902206421,-0.7195992469787598,-1.0488556623458862
1696083234942621000,8.348620849609375,0.8796459436416626,-0.48685958981513977,-1.2418889999389648
1696083234952620800,8.358620849609375,0.7861835956573486,-0.06841690838336945,-1.263269305229187
1696083234962621000,8.368620849609375,0.7483099102973938,0.4795292317867279,-1.1246029138565063
1696083234972620800,8.378620849609375,0.7489207983016968,1.0910053253173828,-0.8949176073074341
1696083234982621000,8.388620849609374,0.7770205736160278,1.6658295392990112,-0.6939429044723511
1696083234992620800,8.398620849609374,0.8436049222946167,2.007303237915039,-0.6951646208763123
1696083235002621000,8.408620849609376,1.0390818119049072,1.503339409828186,-1.4208725690841675
1696083235012620800,8.418620849609376,1.1050552129745483,0.5748242139816284,-2.219273328781128
1696083235022621000,8.428620849609375,0.9474520087242126,-0.2981022298336029,-2.596788167953491
1696083235032620800,8.438620849609375,0.6841690540313721,-0.9816604256629944,-2.5638015270233154
1696083235042621000,8.448620849609375,0.43615779280662537,-1.3054190874099731,-2.2406537532806396
1696083235052620800,8.458620849609375,0.251676470041275,-1.1771373748779297,-1.7018705606460571
1696083235062621000,8.468620849609374,0.20097467303276062,-0.6499606370925903,-1.0641272068023682
1696083235072620800,8.478620849609374,0.2480112910270691,0.07269296050071716,-0.5192354321479797
1696083235082621000,8.488620849609376,0.2993239760398865,0.6346889734268188,-0.2272418737411499
1696083235092620800,8.498620849609376,0.3689626157283783,0.8546004891395569,-0.2272418737411499
1696083235102621000,8.508620849609375,0.4996877610683441,0.9382890462875366,-0.35063666105270386
1696083235112620800,8.518620849609375,0.6188064813613892,0.8448266386985779,-0.5070181488990784
1696083235122621000,8.528620849609375,0.7275404930114746,0.4495968222618103,-0.7220427393913269
1696083235132620800,8.538620849609375,0.7733554244041443,-0.20525072515010834,-0.9657779335975647
1696083235142621000,8.548620849609375,0.7605272531509399,-0.7086036801338196,-1.0965031385421753
1696083235152620800,8.558620849609374,0.7202101349830627,-0.8991936445236206,-1.0873401165008545
1696083235162621000,8.568620849609376,0.6890559792518616,-0.8655960559844971,-1.016479730606079
1696083235172620800,8.578620849609376,0.6817256212234497,-0.740368664264679,-0.902247965335846
1696083235182621000,8.588620849609375,0.7049384713172913,-0.6157521605491638,-0.7476990818977356
1696083235192620800,8.598620849609375,0.7367035150527954,-0.5265658497810364,-0.6090326309204102
1696083235202621000,8.608620849609375,0.7641924023628235,-0.47342056035995483,-0.5363397002220154
1696083235212620800,8.618620849609375,0.7641924023628235,-0.44776421785354614,-0.5632177591323853
1696083235222621000,8.628620849609375,0.749531626701355,-0.4086688458919525,-0.6719517707824707
1696083235232620800,8.638620849609374,0.7360926270484924,-0.30970868468284607,-0.8252789378166199
1696083235242621400,8.648621337890624,0.7476990818977356,-0.21013765037059784,-1.0103710889816284
1696083235252621300,8.658621337890626,0.7825183868408203,-0.1875356286764145,-1.176526427268982
1696083235262621200,8.66862109375,0.8124507665634155,-0.2321287989616394,-1.207680583000183
1696083235272621300,8.678621337890625,0.8118399381637573,-0.2687807083129883,-1.0073168277740479
1696083235282621200,8.68862109375,0.778853178024292,-0.32131510972976685,-0.6059783101081848
1696083235292621300,8.698621337890625,0.7446447610855103,-0.44165557622909546,-0.13744467496871948
1696083235302621200,8.70862109375,0.7281513810157776,-0.5613851547241211,0.27611109614372253
1696083235312621300,8.718621337890625,0.7299839854240417,-0.6340781450271606,0.5412266254425049
1696083235322621200,8.72862109375,0.7257078886032104,-0.6725626587867737,0.6139195561408997
1696083235332621300,8.738621337890624,0.6695083379745483,-0.6725626587867737,0.5009095072746277
1696083235342621200,8.74862109375,0.5259549617767334,-0.588263213634491,0.26450464129447937
1696083235352621300,8.758621337890625,0.2687807083129883,-0.42149701714515686,0.045204028487205505
1696083235362621200,8.76862109375,-0.09285151958465576,-0.23090706765651703,0.00427605677396059
1696083235372621300,8.778621337890625,-0.5021312236785889,-0.12095131725072861,0.23457226157188416
1696083235382621200,8.78862109375,-0.8570439219474792,-0.05864306539297104,0.6695083379745483
1696083235392621300,8.798621337890625,-1.1093312501907349,0.02382374368607998,1.1594222784042358
1696083235402621400,8.808621337890624,-1.2809844017028809,0.11850785464048386,1.5986343622207642
1696083235412621300,8.818621337890624,-1.4086552858352661,0.2125810980796814,1.9657644033432007
1696083235422621400,8.828621337890626,-1.539380431175232,0.4740314185619354,2.3047945499420166
1696083235432621300,8.838621337890626,-1.7397441864013672,0.9706648588180542,2.615725040435791
1696083235442621400,8.848621337890625,-2.0470094680786133,1.3848315477371216,2.7702739238739014
1696083235452621300,8.858621337890625,-2.3903157711029053,1.4110987186431885,2.721404552459717
1696083235462621400,8.868621337890625,-2.6902506351470947,0.9993755221366882,2.5308146476745605
1696083235472621300,8.878621337890625,-2.8741209506988525,0.14844025671482086,2.3035728931427
1696083235482621400,8.888621337890624,-2.8875601291656494,-0.9162978529930115,2.2424862384796143
1696083235492621300,8.898621337890624,-2.6902506351470947,-2.116647958755493,2.3273966312408447
1696083235502621200,8.90862109375,-2.39214825630188,-3.045163154602051,2.3353378772735596
1696083235512621300,8.918621337890626,-2.1233675479888916,-3.2229249477386475,2.0873265266418457
1696083235522621200,8.92862109375,-1.881464958190918,-2.2736403942108154,1.6688838005065918
1696083235532621300,8.938621337890625,-1.6059647798538208,-0.7305948138237,1.3732250928878784
1696083235542621200,8.94862109375,-1.3561208248138428,0.33536502718925476,1.3390166759490967
1696083235552621300,8.958621337890625,-1.1673635244369507,0.5937610268592834,1.4795156717300415
1696083235562621200,8.96862109375,-1.0268645286560059,0.2785545587539673,1.5919147729873657
1696083235572621300,8.978621337890624,-0.9248499870300293,-0.09162978827953339,1.4953981637954712
1696083235582621200,8.98862109375,-0.8515461683273315,-0.00733038317412138,1.171028733253479
1696083235592621300,8.998621337890626,-0.8881980776786804,0.32681289315223694,0.8399397134780884
1696083235602621200,9.00862109375,-0.988990843296051,0.494189977645874,0.6951646208763123
1696083235612621300,9.018621337890625,-1.1154398918151855,0.3017674386501312,0.7476990818977356
1696083235622621200,9.02862109375,-1.2260065078735352,-0.028099801391363144,0.8515461683273315
1696083235632621300,9.038621337890625,-1.2889256477355957,-0.15577064454555511,0.9010262489318848
1696083235642621200,9.04862109375,-1.2907582521438599,-0.024434609338641167,0.9272934198379517
1696083235652621300,9.058621337890624,-1.2296717166900635,0.18081611394882202,0.960280179977417
1696083235662621200,9.06862109375,-1.1545352935791016,0.2321287989616394,0.9260717034339905
1696083235672621300,9.078621337890626,-1.0690141916275024,0.3286454975605011,0.8344419002532959
1696083235682621200,9.08862109375,-0.9651671051979065,0.6444628238677979,0.7299839854240417
1696083235692621300,9.098621337890625,-0.8338310718536377,1.0561859607696533,0.6310238242149353
1696083235702621200,9.10862109375,-0.6817256212234497,1.3878858089447021,0.5418374538421631
1696083235712621300,9.118621337890625,-0.5204572081565857,1.557706356048584,0.4508185386657715
1696083235722621200,9.12862109375,-0.3695734739303589,1.6010777950286865,0.3439171314239502
1696083235732621300,9.138621337890624,-0.22663100063800812,1.580308437347412,0.22846360504627228
1696083235742621200,9.14862109375,-0.0910189226269722,1.513113260269165,0.10201449692249298
1696083235752621300,9.158621337890626,0.027488935738801956,1.3732250928878784,-0.048258353024721146
1696083235762621200,9.16862109375,0.12767083942890167,1.1734721660614014,-0.24862214922904968
1696083235772622300,9.178622314453126,0.23640485107898712,0.970054030418396,-0.48685958981513977
1696083235782622500,9.18862255859375,0.38728857040405273,0.7336491346359253,-0.7483099102973938
1696083235792622300,9.198622314453125,0.5943718552589417,0.44654250144958496,-1.0152580738067627
1696083235802622500,9.20862255859375,0.8326093554496765,0.1368338167667389,-1.2834278345108032
1696083235812622300,9.218622314453125,1.0384708642959595,-0.1466076523065567,-1.5570955276489258
1696083235822622500,9.22862255859375,1.1270463466644287,-0.3139847218990326,-1.8209892511367798
1696083235832622300,9.238622314453124,1.0855075120925903,-0.3396410644054413,-2.0024163722991943
1696083235842622500,9.24862255859375,0.9236282706260681,-0.19608774781227112,-2.015244483947754
1696083235852622000,9.2586220703125,0.6542366743087769,0.11850785464048386,-1.7519614696502686
1696083235862622200,9.268622314453125,0.3139847218990326,0.6334672570228577,-1.2785409688949585
1696083235872622000,9.2786220703125,0.00427605677396059,1.0616837739944458,-0.9914342761039734
1696083235882622200,9.288622314453125,-0.17470745742321014,1.0696250200271606,-0.9816604256629944
1696083235892622300,9.298622314453125,-0.20830504596233368,0.5180137157440186,-0.8136724829673767
1696083235902622200,9.308622314453125,-0.16554448008537292,-0.24556782841682434,-0.342695415019989
1696083235912622300,9.318622314453124,-0.13377949595451355,-0.8662069439888,0.04459316283464432
1696083235922622200,9.328622314453124,-0.056810468435287476,-1.1007791757583618,0.21135938167572021
1696083235932622300,9.338622314453126,0.00427605677396059,-1.016479730606079,0.12461651116609573
1696083235942622200,9.348622314453126,0.09896016865968704,-0.7373143434524536,-0.2015855312347412
1696083235952622300,9.358622314453125,0.23273965716362,-0.4434881806373596,-0.5852088928222656
1696083235962622200,9.368622314453125,0.31154128909111023,-0.45142942667007446,-0.8442157506942749
1696083235972622300,9.378622314453125,0.38240164518356323,-0.7745771408081055,-1.014647126197815
1696083235982622200,9.388622314453125,0.4489859640598297,-1.2638801336288452,-0.9224064946174622
1696083235992622300,9.398622314453124,0.49785518646240234,-1.623068928718567,-0.44593164324760437
1696083236002622200,9.408622314453124,0.5064072608947754,-1.6212363243103027,0.042760565876960754
1696083236012622300,9.418622314453126,0.44776421785354614,-0.6279694437980652,0.3121521472930908
1696083236022622200,9.428622314453126,0.4960225820541382,0.6536257863044739,-0.007941247895359993
1696083236032622300,9.438622314453125,0.6939429044723511,1.1453723907470703,-0.252287358045578
1696083236042622200,9.448622314453125,0.8124507665634155,0.9779952764511108,-0.22907446324825287
1696083236052622300,9.458622314453125,0.8399397134780884,0.6401867866516113,-0.19792033731937408
1696083236062622200,9.468622314453125,0.9254608750343323,0.24862214922904968,-0.37629300355911255
1696083236072621000,9.47862109375,1.0598511695861816,-0.14049901068210602,-0.6878342628479004
1696083236082621200,9.48862109375,1.2119566202163696,-0.38179078698158264,-0.9266825914382935
1696083236092621000,9.49862109375,1.3506230115890503,-0.3237585723400116,-1.129489779472351
1696083236102621200,9.50862109375,1.3255776166915894,0.11972958594560623,-1.3451253175735474
1696083236112621000,9.51862109375,1.1527026891708374,0.7721336483955383,-1.4581353664398193
1696083236122621200,9.52862109375,0.9053022861480713,1.3213015794754028,-1.4141530990600586
1696083236132621000,9.53862109375,0.6713408827781677,1.6756033897399902,-1.2504411935806274
1696083236142621200,9.54862109375,0.4996877610683441,1.8442021608352661,-1.0702359676361084
1696083236152621600,9.55862158203125,0.3988949954509735,1.803274154663086,-0.9731083512306213
1696083236162621400,9.568621337890624,0.41599923372268677,1.2919800281524658,-1.2858713865280151
1696083236172621600,9.57862158203125,0.47219884395599365,0.17776179313659668,-1.9034560918807983
1696083236182621400,9.588621337890626,0.3793473243713379,-1.1362093687057495,-2.194838762283325
1696083236192621300,9.598621337890625,0.20341812074184418,-2.2033908367156982,-1.9950858354568481
1696083236202621200,9.60862109375,0.03848451003432274,-2.73301100730896,-1.4367550611495972
1696083236212621300,9.618621337890625,-0.07941248267889023,-2.6450464725494385,-0.7605272531509399
1696083236222621200,9.62862109375,-0.09712757170200348,-2.0225749015808105,-0.1508837193250656
1696083236232621300,9.638621337890624,0.012217304669320583,-1.1429288387298584,0.2590068578720093
1696083236242621200,9.64862109375,0.18387043476104736,-0.25595253705978394,0.4105014503002167
1696083236252621300,9.658621337890626,0.34513887763023376,0.41599923372268677,0.3634648323059082
1696083236262621200,9.66862109375,0.4703662395477295,0.7776314616203308,0.2064724564552307
1696083236272621300,9.678621337890625,0.5907067060470581,0.921184778213501,0.012828170321881771
1696083236282621200,9.68862109375,0.7055493593215942,0.750142514705658,-0.2742784917354584
1696083236292621300,9.698621337890625,0.7825183868408203,0.1716531366109848,-0.6633996367454529
1696083236302621200,9.70862109375,0.808174729347229,-0.4288274049758911,-1.015868902206421
1696083236312621300,9.718621337890625,0.7623597979545593,-0.7073819637298584,-1.2247848510742188
1696083236322621200,9.72862109375,0.7086036801338196,-0.7128797173500061,-1.3292428255081177
1696083236332621300,9.738621337890624,0.6860016584396362,-0.6585127115249634,-1.379333734512329
1696083236342621200,9.74862109375,0.6695083379745483,-0.6035348773002625,-1.3432927131652832
1696083236352621300,9.758621337890625,0.6401867866516113,-0.523511528968811,-1.2101240158081055
1696083236362621200,9.76862109375,0.5839871764183044,-0.39645153284072876,-1.0335839986801147
1696083236372621300,9.778621337890625,0.5320636034011841,-0.23335053026676178,-0.8851437568664551
1696083236382621200,9.78862109375,0.5167919993400574,-0.08429940044879913,-0.8313875794410706
1696083236392621300,9.798621337890625,0.5320636034011841,-0.00427605677396059,-0.8802568316459656
1696083236402621200,9.80862109375,0.5729916095733643,0.016493361443281174,-0.9773843884468079
1696083236412621300,9.818621337890624,0.6346889734268188,0.016493361443281174,-1.0476338863372803
1696083236422621200,9.82862109375,0.7275404930114746,-0.018936822190880775,-0.9902125597000122
1696083236432621300,9.838621337890626,0.8307767510414124,-0.08185594528913498,-0.7678576111793518
1696083236442621200,9.84862109375,0.8985827565193176,-0.23457226157188416,-0.45753806829452515
1696083236452621300,9.858621337890625,0.8979719281196594,-0.494189977645874,-0.17837265133857727
1696083236462621200,9.86862109375,0.8662069439888,-0.7617489695549011,0.02321287989616394
1696083236472621300,9.878621337890625,0.8558222055435181,-0.8857545852661133,0.16493362188339233
1696083236482621200,9.88862109375,0.8668177723884583,-0.8301658630371094,0.2632829248905182
1696083236492621300,9.898621337890624,0.8747590184211731,-0.6536257863044739,0.2938261926174164
1696083236502621200,9.90862109375,0.8313875794410706,-0.4355469346046448,0.23273965716362
1696083236512621300,9.918621337890626,0.6939429044723511,-0.29077184200286865,0.06475171446800232
1696083236522621200,9.92862109375,0.4398229718208313,-0.24556782841682434,-0.11911872029304504
1696083236532621300,9.938621337890625,0.12095131725072861,-0.25045475363731384,-0.14233160018920898
1696083236542621200,9.94862109375,-0.18509216606616974,-0.2840523421764374,0.0910189226269722
1696083236552621300,9.958621337890625,-0.4715879559516907,-0.2993239760398865,0.50335294008255
1696083236562621200,9.96862109375,-0.720820963382721,-0.25106561183929443,0.9822713136672974
1696083236572621300,9.978621337890624,-0.8924741148948669,-0.18325957655906677,1.4300355911254883
1696083236582621200,9.98862109375,-0.9718865752220154,-0.060475658625364304,1.834428310394287
1696083236592621300,9.998621337890626,-0.9834930300712585,0.21868975460529327,2.3157901763916016
1696083236602621200,10.00862109375,-1.0781772136688232,0.6908885836601257,2.847242832183838
1696083236612621300,10.018621337890625,-1.379333734512329,1.0213667154312134,3.132516860961914
1696083236622621200,10.02862109375,-1.807550311088562,0.9553932547569275,3.0726521015167236
1696083236632621300,10.038621337890625,-2.2204952239990234,0.5937610268592834,2.822808265686035
1696083236642621200,10.04862109375,-2.4947736263275146,-0.039095375686883926,2.557692766189575
1696083236652621300,10.058621337890624,-2.576629638671875,-0.740368664264679,2.4446825981140137
1696083236662621200,10.06862109375,-2.5167648792266846,-1.318858027458191,2.537534236907959
1696083236672621300,10.078621337890626,-2.3102922439575195,-1.9022343158721924,2.635272741317749
1696083236682621200,10.08862109375,-2.0787744522094727,-2.302962064743042,2.499049663543701
1696083236976481800,10.382481689453124,1.1337659358978271,0.11301007121801376,-1.2760975360870361
1696083236986481700,10.392481689453126,1.2370021343231201,0.05192354694008827,-1.5271631479263306
1696083236996481800,10.402481689453126,1.2095131874084473,0.18814650177955627,-1.7269160747528076
1696083237006482000,10.41248193359375,1.0885618925094604,0.5149593949317932,-1.7745635509490967
1696083237016481800,10.422481689453125,0.8961393237113953,0.998153805732727,-1.6493362188339233
1696083237026481700,10.432481689453125,0.6603453159332275,1.4978415966033936,-1.4245377779006958
1696083237036481800,10.442481689453125,0.413555771112442,1.6982053518295288,-1.3463469743728638
1696083237046482000,10.45248193359375,0.18997909128665924,1.226617455482483,-1.443474531173706
1696083237056481800,10.462481689453124,-0.010995574295520782,0.16798794269561768,-1.312138557434082
1696083237066481700,10.472481689453126,-0.25595253705978394,-1.0610729455947876,-0.6591235995292664
1696083237076481800,10.482481689453126,-0.5161811113357544,-1.72935950756073,0.15821409225463867
1696083237086482000,10.49248193359375,-0.5791002511978149,-1.72935950756073,0.5900958180427551
1696083237096481800,10.502481689453125,-0.5400048494338989,-1.513113260269165,0.6249151229858398
1696083237106481700,10.512481689453125,-0.3701843321323395,-0.750142514705658,0.36651915311813354
1696083237116481800,10.522481689453125,-0.12889257073402405,0.00366519158706069,-0.07696902006864548
1696083237126482000,10.53248193359375,0.0910189226269722,0.1973094791173935,-0.42699480056762695
1696083237136481800,10.542481689453124,0.2565633952617645,-0.13072516024112701,-0.6383541822433472
1696083237146481700,10.552481689453124,0.3078760802745819,-0.7422012686729431,-0.665232241153717
1696083237156481800,10.562481689453126,0.2272418737411499,-1.3946053981781006,-0.33658674359321594
1696083237166482000,10.57248193359375,0.10506882518529892,-1.6352862119674683,0.12034045159816742
1696083237176481800,10.582481689453125,0.05375614017248154,-0.7849618196487427,0.3323107063770294
1696083237186481700,10.592481689453125,0.23029619455337524,0.5772676467895508,0.12400564551353455
1696083237196481800,10.602481689453125,0.5253441333770752,0.949895441532135,-0.13255776464939117
1696083237206482000,10.61248193359375,0.7831292152404785,0.6890559792518616,-0.1814269721508026
1696083237216481800,10.622481689453124,0.9920451641082764,0.303600013256073,-0.2583959996700287
1696083237226482000,10.63248193359375,1.1661417484283447,-0.09285151958465576,-0.5455026626586914
1696083237236481800,10.642481689453126,1.3390166759490967,-0.3280346393585205,-0.8662069439888
1696083237246482000,10.65248193359375,1.46424400806427,-0.4129449129104614,-1.0824532508850098
1696083237256481800,10.662481689453125,1.492343783378601,-0.27000242471694946,-1.3048081398010254
1696083237266482000,10.67248193359375,1.4575244188308716,0.15760323405265808,-1.5234979391098022
1696083237276481800,10.682481689453125,1.3200798034667969,0.6927211880683899,-1.633453607559204
1696083237286482000,10.69248193359375,1.1508700847625732,1.1349875926971436,-1.5900822877883911
1696083237296481800,10.702481689453125,1.0054842233657837,1.4972307682037354,-1.3933836221694946
1696083237306482000,10.71248193359375,0.9132435321807861,1.7537940740585327,-1.1649199724197388
1696083237316481800,10.722481689453126,0.8894197940826416,1.7806721925735474,-1.0824532508850098
1696083237326482000,10.73248193359375,0.9242390990257263,1.4074335098266602,-1.2919800281524658
1696083237336481800,10.742481689453125,0.8979719281196594,0.5461135506629944,-1.703092336654663
1696083237346482000,10.75248193359375,0.7055493593215942,-0.5772676467895508,-1.9871445894241333
1696083237356481800,10.762481689453125,0.4343251883983612,-1.5351043939590454,-1.930334210395813
1696083237366482000,10.77248193359375,0.18997909128665924,-2.0842721462249756,-1.5436564683914185
1696083237376481800,10.782481689453125,0.015271631069481373,-2.138639211654663,-0.970054030418396
1696083237386482000,10.79248193359375,-0.06902777403593063,-1.6798794269561768,-0.3903428912162781
1696083237396481800,10.802481689453124,-0.048258353024721146,-0.8979719281196594,0.02382374368607998
1696083237406482000,10.81248193359375,0.05803219974040985,-0.15027284622192383,0.24495697021484375
1696083237416481800,10.822481689453125,0.16432274878025055,0.3280346393585205,0.29565876722335815
1696083237426482000,10.83248193359375,0.26145032048225403,0.5149593949317932,0.22663100063800812
1696083237436481800,10.842481689453125,0.3646865487098694,0.494189977645874,0.10384709388017654
1696083237446482000,10.85248193359375,0.46547931432724,0.3744603991508484,-0.05803219974040985
1696083237456481800,10.862481689453125,0.5351179838180542,-0.06536258012056351,-0.36163222789764404
1696083237466482000,10.87248193359375,0.588874101638794,-0.5381723046302795,-0.7171558141708374
1696083237476481800,10.882481689453124,0.6126978397369385,-0.6640105247497559,-0.9767735004425049
1696083237486482000,10.89248193359375,0.5937610268592834,-0.47342056035995483,-1.1215485334396362
1696083237496481800,10.902481689453126,0.5681046843528748,-0.17104226350784302,-1.214400053024292
1696083237506482000,10.91248193359375,0.5571091175079346,0.07757988572120667,-1.2596040964126587
1696083237516481800,10.922481689453125,0.5601634383201599,0.19058994948863983,-1.2205088138580322
1696083237526482000,10.93248193359375,0.5748242139816284,0.1869247704744339,-1.1160508394241333
1696083237536481800,10.942481689453125,0.5968153476715088,0.08307767659425735,-1.0012081861495972
1696083237546482000,10.95248193359375,0.6243042945861816,-0.07452555745840073,-0.930347740650177
1696083237556481800,10.962481689453124,0.6493497490882874,-0.18631389737129211,-0.9187413454055786
1696083237566482000,10.97248193359375,0.6841690540313721,-0.15882496535778046,-0.9657779335975647
1696083237576481800,10.982481689453126,0.7238753437995911,-0.02871066704392433,-1.0702359676361084
1696083237586482000,10.99248193359375,0.7733554244041443,0.12461651116609573,-1.1808024644851685
1696083237596481800,11.002481689453125,0.8576548099517822,0.17043140530586243,-1.1966849565505981
1696083237606482000,11.01248193359375,0.9749409556388855,0.005497787147760391,-1.0335839986801147
1696083237616481800,11.022481689453125,1.0806206464767456,-0.4086688458919525,-0.7098253965377808
1696083237626482000,11.03248193359375,1.1233811378479004,-0.970054030418396,-0.2981022298336029
1696083237636481800,11.042481689453124,1.1154398918151855,-1.4294246435165405,0.11789698898792267
1696083237646482000,11.05248193359375,1.1136072874069214,-1.5137240886688232,0.4709770977497101
1696083237656481800,11.062481689453126,1.1325441598892212,-1.2272282838821411,0.6884451508522034
1696083237666482000,11.07248193359375,1.131933331489563,-0.7819074988365173,0.6481280326843262
1696083237676481800,11.082481689453125,1.0403034687042236,-0.38179078698158264,0.2742784917354584
1696083237686482000,11.09248193359375,0.7855727076530457,-0.09346238523721695,-0.2620611786842346
1696083237696481800,11.102481689453125,0.4043927788734436,0.08124507963657379,-0.6481280326843262
1696083237706482000,11.11248193359375,0.0024434609804302454,0.15027284622192383,-0.6731734871864319
1696083237716481800,11.122481689453124,-0.3878994286060333,0.1362229436635971,-0.31031954288482666
1696083237726482000,11.13248193359375,-0.7373143434524536,0.09162978827953339,0.2871066629886627
1696083237736481800,11.142481689453126,-0.9853256344795227,0.04459316283464432,0.8319984674453735
1696083237746482000,11.15248193359375,-1.1203268766403198,0.001832595793530345,1.1716395616531372
1696083237756481800,11.162481689453125,-1.1826350688934326,0.02626720629632473,1.3548991680145264
1696083237766482000,11.17248193359375,-1.2296717166900635,0.2021963894367218,1.5149458646774292
1696083237776481800,11.182481689453125,-1.3720033168792725,0.5277875661849976,1.709811806678772
1696083237786482000,11.19248193359375,-1.6126842498779297,0.8533787727355957,1.9633208513259888
1696083237796481800,11.202481689453125,-1.8839083909988403,0.9553932547569275,2.269975185394287
1696083237806482000,11.21248193359375,-2.1429152488708496,0.6841690540313721,2.556471109390259
1696083237816481800,11.222481689453126,-2.3548855781555176,0.16371189057826996,2.750115394592285
1696083237826482000,11.23248193359375,-2.507601737976074,-0.5693264007568359,2.8295278549194336
1696083237836481800,11.242481689453125,-2.5216517448425293,-1.2162326574325562,2.8344147205352783
1696083237846482000,11.25248193359375,-2.3860397338867188,-1.6597208976745605,2.8399124145507812
1696083237856481800,11.262481689453125,-2.122145891189575,-1.9999728202819824,2.764165163040161
1696083237866482000,11.27248193359375,-1.8112154006958008,-1.9871445894241333,2.475836753845215
1696083237876481800,11.282481689453125,-1.5076154470443726,-1.6731599569320679,2.0751092433929443
1696083237886482000,11.29248193359375,-1.2498302459716797,-1.1789699792861938,1.7037031650543213
1696083237896481800,11.302481689453124,-1.1313223838806152,-0.5143485069274902,1.4324790239334106
1696083237906482000,11.31248193359375,-1.0873401165008545,0.02626720629632473,1.3151928186416626
1696083237916481800,11.322481689453125,-1.092837929725647,0.1569923609495163,1.3274102210998535
1696083237926482000,11.33248193359375,-1.1191051006317139,0.09224065393209457,1.338405728340149
1696083237936481800,11.342481689453125,-1.13926362991333,0.08429940044879913,1.2736539840698242
1696083237946482000,11.35248193359375,-1.166752576828003,0.24495697021484375,1.1575896739959717
1696083237956481800,11.362481689453125,-1.1899654865264893,0.35063666105270386,1.056796908378601
1696083237966482000,11.37248193359375,-1.2217304706573486,0.22968533635139465,1.006095051765442
1696083237976481800,11.382481689453124,-1.2669345140457153,0.0659734457731247,0.979827880859375
1696083237986482000,11.39248193359375,-1.3310753107070923,-0.0024434609804302454,0.9248499870300293
1696083237996481800,11.402481689453126,-1.3842206001281738,0.029932396486401558,0.8607091307640076
1696083238006482000,11.41248193359375,-1.3848315477371216,0.0806342139840126,0.8258898258209229
1696083238016481800,11.422481689453125,-1.3347405195236206,0.07513642311096191,0.827111542224884
1696083238026482000,11.43248193359375,-1.254717230796814,0.17348572611808777,0.827722430229187
1696083238036481800,11.442481689453125,-1.1508700847625732,0.4856378734111786,0.7904596328735352
1696083238046482000,11.45248193359375,-1.0286970138549805,0.9156870245933533,0.7043276429176331
1696083238056481800,11.462481689453124,-0.8973610401153564,1.2950342893600464,0.6139195561408997
1696083238066482000,11.47248193359375,-0.7586946487426758,1.5338826179504395,0.5345070958137512
1696083238076481800,11.482481689453126,-0.6255260109901428,1.6126842498779297,0.44654250144958496
1696083238086482000,11.49248193359375,-0.5015203952789307,1.5717562437057495,0.3433062732219696
1696083238096481800,11.502481689453125,-0.37568211555480957,1.4782938957214355,0.22479841113090515
1696083238106482000,11.51248193359375,-0.24862214922904968,1.380555510520935,0.06658431142568588
1696083238116481800,11.522481689453125,-0.12339477986097336,1.33168625831604,-0.11545353382825851
1696083238126482000,11.53248193359375,0.006108652334660292,1.2999212741851807,-0.3182607889175415
1696083238136481800,11.542481689453124,0.14844025671482086,1.2424999475479126,-0.5497786998748779
1696083238146482000,11.55248193359375,0.31581732630729675,1.141707181930542,-0.8148942589759827
1696083238156481800,11.562481689453126,0.504574716091156,1.0073168277740479,-1.0989465713500977
1696083238166482000,11.57248193359375,0.6878342628479004,0.836885392665863,-1.3799445629119873
1696083238176481800,11.582481689453125,0.8338310718536377,0.645684540271759,-1.6603317260742188
1696083238186482000,11.59248193359375,0.921795666217804,0.5308418869972229,-1.8991800546646118
1696083238196481800,11.602481689453125,0.9382890462875366,0.5748242139816284,-2.02929425239563
1696083238206482000,11.61248193359375,0.8582656979560852,0.8307767510414124,-1.9657644033432007
1696083238216481800,11.622481689453124,0.6695083379745483,1.2150110006332397,-1.6560556888580322
1696083238226482000,11.63248193359375,0.3744603991508484,1.4471397399902344,-1.3329079151153564
1696083238236481800,11.642481689453126,0.0354301854968071,1.0946705341339111,-1.2235630750656128
1696083238246482000,11.65248193359375,-0.2632829248905182,-0.024434609338641167,-1.1636983156204224
1696083238256481800,11.662481689453125,-0.4288274049758911,-1.370781660079956,-0.8252789378166199
1696083238266482000,11.67248193359375,-0.3549126982688904,-2.188119411468506,-0.30482175946235657
1696083238276481800,11.682481689453125,-0.1569923609495163,-2.4801127910614014,0.08552113175392151
1696083238286482000,11.69248193359375,-0.02076941914856434,-2.3597724437713623,0.16859880089759827
1696083238296481800,11.702481689453125,0.09651670604944229,-1.7263051271438599,-0.018936822190880775
1696083238306482000,11.71248193359375,0.2632829248905182,-0.8038986921310425,-0.3225368559360504
1696083238316481800,11.722481689453126,0.3952298164367676,-0.3225368559360504,-0.5601634383201599
1696083238326482000,11.73248193359375,0.50335294008255,-0.37262779474258423,-0.7275404930114746
1696083238336481800,11.742481689453125,0.5363397002220154,-0.694553792476654,-0.6236934065818787
1696083238346482000,11.75248193359375,0.484416127204895,-0.9584475755691528,-0.17043140530586243
1696083238356481800,11.762481689453125,0.4098905920982361,-1.1172724962234497,0.2528982162475586
1696083238366482000,11.77248193359375,0.2632829248905182,-0.7305948138237,0.28038713335990906
1696083238376481800,11.782481689453125,0.25106561183929443,0.13011430203914642,-0.29993483424186707
1696083238386482000,11.79248193359375,0.40256020426750183,0.3500257730484009,-0.523511528968811
1696083238396481800,11.802481689453124,0.5277875661849976,0.18875735998153687,-0.3805690407752991
1696083238406482000,11.81248193359375,0.6805039048194885,0.018936822190880775,-0.33169981837272644
1696083238416481800,11.822481689453125,0.9187413454055786,-0.18570303916931152,-0.5112941861152649
1696083238426482000,11.83248193359375,1.10139000415802,-0.4960225820541382,-0.7342600226402283
1696083238436481800,11.842481689453125,1.2473868131637573,-0.6236934065818787,-0.9236282706260681
1696083238446482000,11.85248193359375,1.3225232362747192,-0.4306600093841553,-1.120937705039978
1696083238456481800,11.862481689453125,1.2571606636047363,0.0354301854968071,-1.2638801336288452
1696083238466482000,11.87248193359375,1.0500773191452026,0.6017022728919983,-1.303586483001709
1696083238476481800,11.882481689453124,0.836885392665863,1.0458012819290161,-1.2424999475479126
1696083238486482000,11.89248193359375,0.6951646208763123,1.3756685256958008,-1.0702359676361084
1696083238496481800,11.902481689453126,0.646295428276062,1.5387696027755737,-0.9224064946174622
1696083238506482000,11.91248193359375,0.6957755088806152,1.5906931161880493,-0.9957103729248047
1696083238516481800,11.922481689453125,0.8045095205307007,1.42637038230896,-1.3909401893615723
1696083238526482000,11.93248193359375,0.8289441466331482,0.9419541954994202,-1.822821855545044
1696083238536481800,11.942481689453125,0.685390830039978,0.23457226157188416,-1.9694294929504395
1696083238546482000,11.95248193359375,0.4447098970413208,-0.46547931432724,-1.730581283569336
1696083238556481800,11.962481689453124,0.23396138846874237,-0.9340129494667053,-1.1954632997512817
1696083238566482000,11.97248193359375,0.10812314599752426,-1.0971139669418335,-0.5919284224510193
1696083238576481800,11.982481689453126,0.08368854224681854,-1.037249207496643,-0.11911872029304504
1696083238586482000,11.99248193359375,0.13744467496871948,-0.7666358947753906,0.13011430203914642
1696083238596481800,12.002481689453125,0.2076941877603531,-0.3017674386501312,0.21930062770843506
1696083238606482000,12.01248193359375,0.2571742534637451,0.06536258012056351,0.16859880089759827
1696083238616481800,12.022481689453125,0.31459560990333557,0.19975294172763824,0.006108652334660292
1696083238626482000,12.03248193359375,0.40133845806121826,0.15821409225463867,-0.20463985204696655
1696083238636481800,12.042481689453124,0.5247332453727722,-0.03420845419168472,-0.45875978469848633
1696083238646482000,12.05248193359375,0.6407976150512695,-0.3640756905078888,-0.7678576111793518
1696083238656481800,12.062481689453126,0.6695083379745483,-0.6218608021736145,-1.0280861854553223
1696083238666482000,12.07248193359375,0.6188064813613892,-0.6548475623130798,-1.1691961288452148
1696083238676481800,12.082481689453125,0.5992587804794312,-0.49235737323760986,-1.1832460165023804
1696083238686482000,12.09248193359375,0.6475171446800232,-0.28649580478668213,-1.0824532508850098
1696083238696481800,12.102481689453125,0.7177666425704956,-0.1722639948129654,-0.9071348905563354
1696083238706482000,12.11248193359375,0.7550294399261475,-0.18509216606616974,-0.7220427393913269
1696083238716481800,12.122481689453124,0.7409795522689819,-0.2718350291252136,-0.6004805564880371
1696083239018333700,12.424333740234376,-2.3267858028411865,-1.0152580738067627,2.412306785583496
1696083239028333800,12.434333740234376,-1.9675970077514648,-1.6774359941482544,2.3011293411254883
1696083239038333700,12.444333740234375,-1.6059647798538208,-1.9816468954086304,2.0256290435791016
1696083239048333800,12.454333740234375,-1.3267992734909058,-1.796554684638977,1.6517796516418457
1696083239058333700,12.464333740234375,-1.1355985403060913,-1.2394455671310425,1.318858027458191
1696083239068333800,12.474333740234375,-1.0543533563613892,-0.59803706407547,1.1215485334396362
1696083239078333700,12.484333740234375,-1.084285855293274,-0.0024434609804302454,1.0714576244354248
1696083239088333800,12.494333740234374,-1.1374311447143555,0.2431243658065796,1.2046263217926025
1696083239098333700,12.504333740234374,-1.150259256362915,0.10506882518529892,1.3683381080627441
1696083239108333800,12.514333740234376,-1.1704177856445312,-0.04764748737215996,1.3817771673202515
1696083239118333700,12.524333740234376,-1.1905763149261475,0.01771509274840355,1.1899654865264893
1696083239128333800,12.534333740234375,-1.2431107759475708,0.16554448008537292,0.9676105380058289
1696083239138333700,12.544333740234375,-1.3054190874099731,0.1514945775270462,0.8130616545677185
1696083239148333800,12.554333740234375,-1.3768903017044067,-0.01771509274840355,0.7293730974197388
1696083239158333700,12.564333740234375,-1.4330898523330688,-0.22602014243602753,0.6841690540313721
1696083239168333800,12.574333740234374,-1.4691308736801147,-0.3500257730484009,0.6346889734268188
1696083239178333700,12.584333740234374,-1.4770721197128296,-0.32070425152778625,0.5839871764183044
1696083239188333800,12.594333740234376,-1.4306464195251465,-0.09712757170200348,0.5717698931694031
1696083239198333700,12.604333740234376,-1.3048081398010254,0.2974913716316223,0.6243042945861816
1696083239208333800,12.614333740234375,-1.1282681226730347,0.6188064813613892,0.6798930168151855
1696083239218333700,12.624333740234375,-0.9285151958465576,0.816726803779602,0.6627888083457947
1696083239228333800,12.634333740234375,-0.7360926270484924,1.0677924156188965,0.5815436840057373
1696083239238333700,12.644333740234375,-0.5540547966957092,1.2999212741851807,0.475253164768219
1696083239248333800,12.654333740234375,-0.3842342495918274,1.3915510177612305,0.3689626157283783
1696083239258333700,12.664333740234374,-0.23151792585849762,1.3182471990585327,0.26145032048225403
1696083239268333800,12.674333740234376,-0.11301007121801376,1.1533136367797852,0.13927727937698364
1696083239278333700,12.684333740234376,-0.021991148591041565,0.9486737251281738,-0.0006108652451075613
1696083239288333800,12.694333740234375,0.0806342139840126,0.7446447610855103,-0.16249015927314758
1696083239298333700,12.704333740234375,0.2064724564552307,0.607200026512146,-0.34697145223617554
1696083239308333800,12.714333740234375,0.36713001132011414,0.5015203952789307,-0.5503895878791809
1696083239318333700,12.724333740234375,0.5687155723571777,0.37262779474258423,-0.7635815739631653
1696083239328333800,12.734333740234375,0.7757988572120667,0.251676470041275,-0.9877691268920898
1696083239338333700,12.744333740234374,0.9443976879119873,0.1973094791173935,-1.217454433441162
1696083239348333800,12.754333740234374,1.0299187898635864,0.22052235901355743,-1.4019356966018677
1696083239358333700,12.764333740234376,1.0115928649902344,0.3732386529445648,-1.4666874408721924
1696083239368333800,12.774333740234376,0.9126327037811279,0.7134906053543091,-1.3848315477371216
1696083239378333700,12.784333740234375,0.7635815739631653,1.217454433441162,-1.1362093687057495
1696083239388333800,12.794333740234375,0.5949827432632446,1.7092009782791138,-0.8729264140129089
1696083239398333700,12.804333740234375,0.45326200127601624,1.8460347652435303,-0.8051204085350037
1696083239408333800,12.814333740234375,0.33719760179519653,1.4795156717300415,-0.9004153609275818
1696083239418334000,12.824333984375,0.20891591906547546,0.7672467231750488,-0.9663888216018677
1696083239428333800,12.834333740234374,0.05253441259264946,-0.07024950534105301,-0.8338310718536377
1696083239438334000,12.844333984375,-0.09834930300712585,-0.7141014933586121,-0.5583308339118958
1696083239448333800,12.854333740234376,-0.23457226157188416,-0.9370672702789307,-0.24129177629947662
1696083239458334000,12.864333984375,-0.32681289315223694,-0.8692612648010254,-0.005497787147760391
1696083239468333800,12.874333740234375,-0.3634648323059082,-0.7348709106445312,0.05192354694008827
1696083239478334000,12.884333984375,-0.3237585723400116,-0.618195652961731,-0.0959058403968811
1696083239488333800,12.894333740234375,-0.18081611394882202,-0.4147774875164032,-0.3378084897994995
1696083239498334000,12.904333984375,0.015882495790719986,-0.21013765037059784,-0.5455026626586914
1696083239508333800,12.914333740234374,0.1472185254096985,-0.08491026610136032,-0.6499606370925903
1696083239518334000,12.924333984375,0.21930062770843506,-0.1814269721508026,-0.7079927921295166
1696083239528333800,12.934333740234376,0.29504790902137756,-0.5650503635406494,-0.6908885836601257
1696083239538334000,12.944333984375,0.33597588539123535,-1.0793988704681396,-0.48319441080093384
1696083239548333800,12.954333740234375,0.34086281061172485,-1.389107584953308,-0.16371189057826996
1696083239558334000,12.964333984375,0.3787364661693573,-1.0800096988677979,0.18325957655906677
1696083239568333800,12.974333740234375,0.5180137157440186,-0.24373523890972137,0.16798794269561768
1696083239578334000,12.984333984375,0.6884451508522034,0.32620203495025635,-0.07696902006864548
1696083239588333800,12.994333740234374,0.778853178024292,0.5552765130996704,-0.16493362188339233
1696083239598334000,13.004333984375,0.8008443117141724,0.4648684561252594,-0.12400564551353455
1696083239608333800,13.014333740234376,0.788016140460968,0.006719517521560192,-0.12034045159816742
1696083239618334000,13.024333984375,0.7415903806686401,-0.6194173693656921,-0.182648703455925
1696083239628333800,13.034333740234375,0.7409795522689819,-1.1337659358978271,-0.3488040566444397
1696083239638334000,13.044333984375,0.8594874143600464,-1.1966849565505981,-0.5290092825889587
1696083239648333800,13.054333740234375,0.9657779335975647,-0.8949176073074341,-0.6200281977653503
1696083239658334000,13.064333984375,0.9462302923202515,-0.33047810196876526,-0.6377432942390442
1696083239668333800,13.074333740234374,0.8472700715065002,0.384845107793808,-0.6255260109901428
1696083239678334000,13.084333984375,0.7397578358650208,1.0531316995620728,-0.5852088928222656
1696083239688333800,13.094333740234376,0.6860016584396362,1.513113260269165,-0.5852088928222656
1696083239698334000,13.104333984375,0.7024950385093689,1.7623462677001953,-0.6475171446800232
1696083239998363100,13.404363037109375,0.33047810196876526,-0.10995574295520782,-0.6908885836601257
1696083240008363300,13.41436328125,0.35124751925468445,-0.1411098688840866,-0.7580837607383728
1696083240018363100,13.424363037109375,0.3854559659957886,-0.19120082259178162,-0.7782423496246338
1696083240028363300,13.43436328125,0.4196644127368927,-0.2730567753314972,-0.7269296646118164
1696083240038363100,13.444363037109374,0.45204028487205505,-0.3689626157283783,-0.5809328556060791
1696083240048363300,13.45436328125,0.4612032473087311,-0.44654250144958496,-0.34513887763023376
1696083240058363100,13.464363037109376,0.42210787534713745,-0.49235737323760986,-0.0659734457731247
1696083240068363300,13.47436328125,0.33719760179519653,-0.4905247986316681,0.19853121042251587
1696083240078363100,13.484363037109375,0.2528982162475586,-0.4612032473087311,0.394618958234787
1696083240088363300,13.49436328125,0.21930062770843506,-0.42210787534713745,0.4893030524253845
1696083240098363100,13.504363037109375,0.242513507604599,-0.38240164518356323,0.48197266459465027
1696083240108363300,13.51436328125,0.29993483424186707,-0.3500257730484009,0.4050036668777466
1696083240118363400,13.52436328125,0.3536909818649292,-0.3090978264808655,0.3023782968521118
1696083240128363300,13.53436328125,0.3628539443016052,-0.2718350291252136,0.2076941877603531
1696083240138363400,13.54436328125,0.29077184200286865,-0.24007004499435425,0.13316862285137177
1696083240148363300,13.55436328125,0.14049901068210602,-0.22602014243602753,0.06536258012056351
1696083240158363400,13.56436328125,-0.009162978269159794,-0.26022860407829285,-0.004886921960860491
1696083240168363300,13.57436328125,-0.07452555745840073,-0.34147366881370544,-0.05925392732024193
1696083240178363400,13.58436328125,-0.06780604273080826,-0.323147714138031,-0.016493361443281174
1696083240188363300,13.59436328125,-0.06963863968849182,-0.06780604273080826,0.18325957655906677
1696083240198363400,13.60436328125,-0.17776179313659668,0.3591887652873993,0.45326200127601624
1696083240208363300,13.61436328125,-0.4080579876899719,0.6927211880683899,0.6530149579048157
1696083240218363400,13.62436328125,-0.7000515460968018,0.7299839854240417,0.7177666425704956
1696083240228363300,13.63436328125,-0.9627236127853394,0.4740314185619354,0.7428121566772461
1696083240238363400,13.64436328125,-1.1594222784042358,0.08735372871160507,0.8668177723884583
1696083240248363300,13.65436328125,-1.312138557434082,-0.2987131178379059,1.0983357429504395
1696083240258363400,13.66436328125,-1.4373658895492554,-0.6646214127540588,1.3744467496871948
