time,seconds_elapsed,z,y,x
1696083226639930000,0.04593017578125,8.633790969848633,4.5609540939331055,0.2298433631658554
1696083226649930000,0.055929931640625,8.444648742675781,4.608838081359863,0.24420857429504395
1696083226659930000,0.06593017578125,8.265083312988281,4.668693542480469,0.2082955539226532
1696083226669930000,0.075929931640625,8.19565200805664,4.72376012802124,0.20111294090747833
1696083226679930000,0.08593017578125,8.25550651550293,4.7405195236206055,0.2537853717803955
1696083226689930000,0.095929931640625,8.372822761535645,4.738125324249268,0.20111294090747833
1696083226699930000,0.10593017578125,8.55717658996582,4.707000732421875,0.10534487664699554
1696083226709930000,0.115929931640625,8.688857078552246,4.716577529907227,0.06464344263076782
1696083226719930000,0.12593017578125,8.806173324584961,4.6950297355651855,0.047884032130241394
1696083226729930000,0.135929931640625,8.882787704467773,4.656722068786621,0.07661445438861847
1696083226739930000,0.14593017578125,8.933065414428711,4.599261283874512,0.1173158809542656
1696083226749930000,0.155929931640625,8.949825286865234,4.537012100219727,0.20111294090747833
1696083226759930000,0.16593017578125,8.885181427001953,4.4508209228515625,0.26815059781074524
1696083226769930000,0.175929931640625,8.734347343444824,4.37420654296875,0.27054479718208313
1696083226779930000,0.18593017578125,8.552388191223145,4.367023944854736,0.26575639843940735
1696083226789930000,0.195929931640625,8.365639686584473,4.371812343597412,0.2777273952960968
1696083226799930000,0.20593017578125,8.16213321685791,4.400542736053467,0.28969839215278625
1696083226809930000,0.215929931640625,7.999327182769775,4.3861775398254395,0.3447650372982025
1696083226819930000,0.22593017578125,7.834127426147461,4.388571739196777,0.38307225704193115
1696083226829930000,0.235929931640625,7.776666164398193,4.412513732910156,0.3232172429561615
1696083226839930000,0.24593017578125,7.7072343826293945,4.424484729766846,0.26336219906806946
1696083226849930000,0.255929931640625,7.671321392059326,4.400542736053467,0.24899697303771973
1696083226859930000,0.26593017578125,7.6210432052612305,4.268861770629883,0.181959331035614
1696083226869930000,0.275929931640625,7.570765018463135,4.158728122711182,0.12210428714752197
1696083226879930000,0.28593017578125,7.486968040466309,3.97916316986084,0.15083470940589905
1696083226889930000,0.295929931640625,7.340921878814697,3.734954595565796,0.26096799969673157
1696083226899930000,0.30593017578125,7.079953670501709,3.359065055847168,0.2585737705230713
1696083226909930000,0.315929931640625,6.8501105308532715,3.155557870864868,0.4405331015586853
1696083226919930000,0.32593017578125,6.526893138885498,2.782062292098999,0.7206547260284424
1696083226929930000,0.335929931640625,8.281843185424805,2.650381326675415,-1.0079588890075684
1696083226939930000,0.34593017578125,8.607454299926758,3.5386300086975098,-1.3192051649093628
1696083226949930000,0.355929931640625,9.086295127868652,3.490746021270752,-2.1308395862579346
1696083226959930000,0.36593017578125,9.6896333694458,3.426102638244629,-2.9544448852539062
1696083226969930000,0.375929931640625,8.478167533874512,3.251325845718384,-2.918531894683838
1696083226979930000,0.38593017578125,7.460631847381592,4.218583583831787,-2.0231003761291504
1696083226989930000,0.395929931640625,6.464643955230713,4.63517427444458,-0.05985504388809204
1696083226999930000,0.40593017578125,5.372888088226318,4.683058738708496,0.7637503147125244
1696083227009930000,0.415929931640625,4.0749311447143555,4.766855716705322,0.2082955539226532
1696083227019930000,0.42593017578125,5.099948883056641,4.304774761199951,-0.6105214357376099
1696083227029930000,0.435929931640625,6.459855556488037,3.708618402481079,-0.7805097699165344
1696083227039930000,0.44593017578125,7.000945091247559,3.0765492916107178,-0.08858546614646912
1696083227049930000,0.455929931640625,7.036858081817627,2.4660277366638184,0.7541735172271729
1696083227059930000,0.46593017578125,6.950666904449463,1.9608511924743652,1.53707754611969
1696083227069930000,0.475929931640625,7.005733489990234,1.5897499322891235,1.8124107122421265
1696083227079930000,0.48593017578125,6.862081527709961,1.9728221893310547,1.7908629179000854
1696083227089930200,0.49593017578125,6.845322132110596,2.8179752826690674,1.6639702320098877
1696083227099930000,0.50593017578125,6.8285627365112305,3.622427225112915,2.0039467811584473
1696083227109930200,0.51593017578125,6.723217487335205,4.14915132522583,2.5450363159179688
1696083227119930000,0.52593017578125,6.340145587921143,4.28322696685791,3.335123062133789
1696083227129930200,0.53593017578125,5.569212436676025,4.2951979637146,4.752490520477295
1696083227139930000,0.54593017578125,-6.170156955718994,3.6846764087677,7.012916088104248
1696083227149930000,0.555929931640625,5.135861873626709,2.669534921646118,7.331345081329346
1696083227159930000,0.56593017578125,3.711012601852417,1.6519991159439087,6.924330711364746
1696083227169930000,0.575929931640625,2.1332337856292725,0.9433154463768005,5.593154430389404
1696083227179929600,0.5859296875,1.2401964664459229,0.6727706789970398,4.491522312164307
1696083227189929700,0.5959296875,0.3902548849582672,0.26096799969673157,3.138798475265503
1696083227199929600,0.6059296875,-0.09576806426048279,-1.900996208190918,3.0310592651367188
1696083227209929700,0.6159296875,-0.7469909191131592,-3.2800562381744385,3.0119056701660156
1696083227219929600,0.6259296875,-0.9528923034667969,-3.5051112174987793,2.760514497756958
1696083227229929700,0.6359296875,-0.4141969084739685,-3.5482068061828613,2.6647465229034424
1696083227239929600,0.6459296875,0.9624691009521484,-4.390965938568115,3.1723172664642334
1696083227249929700,0.6559296875,2.7222073078155518,-5.621884822845459,4.0294413566589355
1696083227259929600,0.6659296875,4.173093795776367,-6.548440933227539,4.69024133682251
1696083227269929700,0.6759296875,4.6040496826171875,-7.01052188873291,4.776432514190674
1696083227279928800,0.6859287109375,4.572925090789795,-6.783072471618652,4.939537525177002
1696083227289928700,0.6959287109375,3.5170822143554688,-6.704063892364502,5.054459095001221
1696083227299928800,0.7059287109375,3.1196448802948,-5.839757442474365,5.890035629272461
1696083227309928700,0.7159287109375,3.5266590118408203,-5.107131481170654,7.518092632293701
1696083227319928800,0.7259287109375,4.414907932281494,-5.365705490112305,10.122983932495117
1696083227329928700,0.7359287109375,4.78122091293335,-6.431125164031982,13.343185424804688
1696083227339928800,0.7459287109375,5.241206645965576,-6.7136406898498535,16.659454345703125
1696083227349929000,0.755928955078125,6.29944372177124,-6.3209919929504395,20.5308780670166
1696083227359928800,0.7659287109375,7.848492622375488,-5.653009414672852,24.39751434326172
1696083227369929000,0.775928955078125,9.141361236572266,-5.303455829620361,27.17987632751465
1696083227379928600,0.785928466796875,9.505280494689941,-5.351340293884277,28.30275535583496
1696083227389928400,0.795928466796875,8.803778648376465,-5.013757705688477,28.16628646850586
1696083227399928600,0.805928466796875,8.004115104675293,-3.97916316986084,28.09685516357422
1696083227409928400,0.815928466796875,7.882011413574219,-3.0885202884674072,28.082489013671875
1696083227419928600,0.825928466796875,8.549993515014648,-2.2026655673980713,29.12396812438965
1696083227429928400,0.835928466796875,9.141361236572266,-1.8507179021835327,30.019399642944336
1696083227439928600,0.845928466796875,8.789413452148438,-1.7980455160140991,28.700193405151367
1696083227449928400,0.855928466796875,8.121431350708008,-1.7860745191574097,26.45682716369629
1696083227459928600,0.865928466796875,8.645761489868164,-2.5713725090026855,23.102251052856445
1696083227469928400,0.875928466796875,7.929895401000977,-1.721431016921997,20.03288459777832
1696083227479928600,0.885928466796875,6.397606372833252,0.2561795711517334,19.757551193237305
1696083227489928400,0.895928466796875,6.203675746917725,-1.7405846118927002,17.00661277770996
1696083227499928600,0.905928466796875,6.282684326171875,-1.1348515748977661,15.687408447265625
1696083227509928400,0.915928466796875,-0.8882488012313843,1.0869675874710083,15.902886390686035
1696083227519928600,0.925928466796875,-3.3494882583618164,0.08140286058187485,10.721534729003906
1696083227529930200,0.93593017578125,-2.9233202934265137,-0.9624691009521484,7.491756439208984
1696083227539930400,0.945930419921875,-2.3271639347076416,-1.2976573705673218,5.930737018585205
1696083227549930200,0.95593017578125,-2.231395959854126,-0.8140285611152649,3.993528366088867
1696083227559930400,0.965930419921875,-2.5498247146606445,0.1173158809542656,1.7884687185287476
1696083227569930200,0.97593017578125,-2.580949544906616,0.7876923680305481,-0.1412578970193863
1696083227579930600,0.9859306640625,-2.1595699787139893,1.3646949529647827,-1.9249382019042969
1696083227589930800,0.9959306640625,-1.6112977266311646,1.7693150043487549,-3.9025487899780273
1696083227599931000,1.005930908203125,-0.8571242094039917,1.7262194156646729,-5.521328449249268
1696083227609930800,1.0159306640625,-0.2322375625371933,1.53707754611969,-6.086359977722168
1696083227619931000,1.025930908203125,0.181959331035614,1.50355863571167,-5.356128692626953
1696083227629930500,1.035930419921875,-0.42616790533065796,0.7781155705451965,-5.073612689971924
1696083227639930400,1.045930419921875,-0.646434485912323,1.1779472827911377,-3.4141316413879395
1696083227649930200,1.05593017578125,-1.2066776752471924,1.742978811264038,-1.479616641998291
1696083227659930400,1.065930419921875,-1.886630892753601,1.6352397203445435,0.0933738648891449
1696083227669930200,1.07593017578125,-2.8874073028564453,1.316810965538025,1.8914192914962769
1696083227679930600,1.0859306640625,-4.2544965744018555,1.4844050407409668,3.4380736351013184
1696083227689930800,1.0959306640625,-5.645826816558838,2.0853497982025146,4.522646903991699
1696083227699930600,1.1059306640625,-6.6035075187683105,2.7102363109588623,6.368875980377197
1696083227709930800,1.1159306640625,-6.43351936340332,2.5905263423919678,8.243535995483398
1696083227719931000,1.125930908203125,-5.521328449249268,1.7070658206939697,9.979331970214844
1696083227729930800,1.1359306640625,-5.018546104431152,0.9768342971801758,12.335226058959961
1696083227739931000,1.145930908203125,-5.50696325302124,0.6105214357376099,14.492402076721191
1696083227749930800,1.1559306640625,-6.833351135253906,0.5339069962501526,15.385738372802734
1696083227759931000,1.165930908203125,-7.556399822235107,0.646434485912323,15.155895233154297
1696083227769930800,1.1759306640625,-7.364863872528076,0.4405331015586853,14.367903709411621
1696083227779931100,1.18593115234375,-3.73016619682312,-1.3192051649093628,15.531785011291504
1696083227789930800,1.1959306640625,3.1459810733795166,-3.421314239501953,20.107105255126953
1696083227799931000,1.205930908203125,3.931279182434082,-3.7852327823638916,22.616228103637695
1696083227809930800,1.2159306640625,3.179499864578247,-3.3925838470458984,21.895572662353516
1696083227819931000,1.225930908203125,2.2864625453948975,-2.5091233253479004,18.63467025756836
1696083227829929000,1.235928955078125,2.6839001178741455,-3.184288263320923,15.984289169311523
1696083227839928800,1.2459287109375,3.287238836288452,-4.039018154144287,12.91222858428955
1696083227849929000,1.255928955078125,0.2082955539226532,-5.296273231506348,10.606613159179688
1696083227859928800,1.2659287109375,-0.9959878921508789,-6.5173163414001465,8.818143844604492
1696083227869929000,1.275928955078125,-3.603273630142212,-7.087136268615723,6.186916351318359
1696083227879929300,1.285929443359375,-4.639962673187256,-7.293037414550781,4.558559894561768
1696083227889931500,1.295931640625,-2.5019407272338867,-6.002562999725342,4.0964789390563965
1696083227899931600,1.305931640625,-1.4628572463989258,-4.505887508392334,4.046200752258301
1696083227909931500,1.315931640625,0.40940847992897034,-2.9257144927978516,4.060565948486328
1696083227919931600,1.325931640625,2.3295583724975586,-1.6184803247451782,3.9456443786621094
1696083227929932000,1.33593212890625,1.4748282432556152,-0.608127236366272,6.060023784637451
1696083227939932000,1.345931884765625,-1.4053963422775269,-0.8595184087753296,8.123826026916504
1696083227949932000,1.35593212890625,-3.56017804145813,-1.0414776802062988,8.918700218200684
1696083227959932000,1.365931884765625,-5.097554683685303,0.4141969084739685,6.586748123168945
1696083227969932000,1.37593212890625,-1.0223240852355957,6.56998872756958,-7.431901454925537
1696083227979932000,1.385931884765625,-1.6543933153152466,6.079177379608154,-4.110844135284424
1696083227989932000,1.39593212890625,-5.152621269226074,0.12210428714752197,16.26680564880371
1696083227999932000,1.405931884765625,-7.2212114334106445,-3.0621838569641113,31.228469848632812
1696083228009932000,1.41593212890625,-13.644854545593262,0.038307227194309235,21.25632095336914
1696083228019932000,1.425931884765625,-12.450148582458496,2.212242364883423,15.143924713134766
1696083228029932000,1.43593212890625,-8.353669166564941,3.5170822143554688,13.8746976852417
1696083228039932200,1.44593212890625,-5.882853031158447,3.5721490383148193,15.725715637207031
1696083228049932000,1.45593212890625,-2.5953147411346436,2.3726539611816406,19.348142623901367
1696083228059932200,1.46593212890625,-1.6376339197158813,1.2018892765045166,21.91951560974121
1696083228069932000,1.47593212890625,-1.039083480834961,0.22266076505184174,22.235549926757812
1696083228079932200,1.48593212890625,0.17238251864910126,-0.26815059781074524,20.3513126373291
1696083228089932500,1.4959326171875,0.9959878921508789,-0.45489832758903503,16.640300750732422
1696083228099932400,1.505932373046875,1.335964560508728,-0.31124621629714966,9.909899711608887
1696083228109932500,1.5159326171875,2.205059766769409,-0.33758243918418884,3.4332852363586426
1696083228119932400,1.525932373046875,0.2849099934101105,-1.7932571172714233,-1.8722656965255737
1696083228133623800,1.539623779296875,-5.686528205871582,-1.6663644313812256,-8.798990249633789
1696083228143624000,1.5496240234375,-3.7708675861358643,-2.911349296569824,-6.318597793579102
1696083228153623800,1.559623779296875,-0.38307225704193115,-5.68892240524292,-8.21959400177002
1696083228163624200,1.569624267578125,3.6511576175689697,-6.040870189666748,-8.356062889099121
1696083228173624300,1.579624267578125,7.618649005889893,-6.361693382263184,-4.754884719848633
1696083228183624200,1.589624267578125,6.950666904449463,-7.781454563140869,-2.1092917919158936
1696083228193622000,1.5996220703125,5.976226806640625,-9.095871925354004,0.7565677165985107
1696083228203622000,1.609621826171875,6.96503210067749,-9.797372817993164,4.331110954284668
1696083228213622000,1.6196220703125,3.866635799407959,-8.083124160766602,4.022258758544922
1696083228223622000,1.629621826171875,-0.1867477297782898,-6.790255069732666,5.818209171295166
1696083228233622000,1.6396220703125,-4.189853191375732,-8.092700958251953,5.638644218444824
1696083228243622400,1.649622314453125,-5.700893402099609,-8.607454299926758,4.14915132522583
1696083228253622300,1.659622314453125,-6.356904983520508,-7.568370819091797,0.3926490843296051
1696083228263622400,1.669622314453125,-5.976226806640625,-6.668150901794434,1.1540051698684692
1696083228273622300,1.679622314453125,-3.581725835800171,-6.332962989807129,3.222595453262329
1696083228283622400,1.689622314453125,-4.158728122711182,-6.644208908081055,4.1156325340271
1696083228293622300,1.699622314453125,-2.5977089405059814,-9.263465881347656,6.787860870361328
1696083228303622400,1.709622314453125,-1.6974890232086182,-13.383886337280273,14.164396286010742
1696083228313622300,1.719622314453125,5.811026573181152,-17.248428344726562,22.266674041748047
1696083228323622400,1.729622314453125,13.881880760192871,-14.782400131225586,16.460735321044922
1696083228333622300,1.739622314453125,13.673584938049316,-14.768034934997559,12.816460609436035
1696083228343622100,1.7496220703125,7.4678144454956055,-11.243470191955566,10.19720458984375
1696083228353622300,1.759622314453125,2.4157495498657227,-8.478167533874512,8.394370079040527
1696083228363622100,1.7696220703125,-0.20350714027881622,-7.66653299331665,6.026504993438721
1696083228373622300,1.779622314453125,-1.403002142906189,-6.838139533996582,4.110844135284424
1696083228383622100,1.7896220703125,-1.8315643072128296,-5.837363243103027,2.87064790725708
1696083228393622300,1.799622314453125,-2.363077163696289,-5.092766284942627,1.9584569931030273
1696083228403622100,1.8096220703125,-2.118868589401245,-4.496310710906982,1.5322890281677246
1696083228413622000,1.8196220703125,-1.6424223184585571,-4.199429988861084,1.2186486721038818
1696083228423622100,1.8296220703125,-0.9265560507774353,-4.390965938568115,1.290474772453308
1696083228433622000,1.8396220703125,-0.6584054827690125,-4.522646903991699,1.3694833517074585
1696083228443622100,1.8496220703125,-0.6991068720817566,-4.611232280731201,1.577778935432434
1696083228453622000,1.8596220703125,-0.31124621629714966,-4.8051629066467285,2.3247697353363037
1696083228463621600,1.86962158203125,0.2059013396501541,-7.091924667358398,3.043030261993408
1696083228473621800,1.879621826171875,1.0055646896362305,-12.828432083129883,4.999392509460449
1696083228483622000,1.889621826171875,2.7437551021575928,-17.803882598876953,4.965873718261719
1696083228493621800,1.899621826171875,-0.6584054827690125,-23.80854034423828,3.28963303565979
1696083228503622000,1.909621826171875,-3.4165258407592773,-27.488727569580078,1.0630255937576294
1696083228513621800,1.919621826171875,-6.589142322540283,-29.19100570678711,-0.6344634294509888
1696083228523622000,1.929621826171875,-8.466196060180664,-26.882993698120117,-1.900996208190918
1696083228533621800,1.939621826171875,-7.75751256942749,-22.539613723754883,-2.6384103298187256
1696083228543621400,1.949621337890625,-10.19720458984375,-16.309900283813477,-2.2409727573394775
1696083228553621500,1.95962158203125,-6.66096830368042,-10.982502937316895,-1.7741034030914307
1696083228563621400,1.969621337890625,-2.070984363555908,-8.88757610321045,-2.011129379272461
1696083228573621500,1.97962158203125,2.2409727573394775,-7.503727436065674,-2.868253707885742
1696083228583621400,1.989621337890625,6.725611686706543,-6.620266914367676,-4.242525577545166
1696083228593621500,1.99962158203125,10.812514305114746,-6.203675746917725,-5.554847240447998
1696083228603621400,2.009621337890625,10.699986457824707,-6.876446723937988,-5.686528205871582
1696083228613621200,2.019621337890625,7.683292388916016,-8.159738540649414,-4.2951979637146
1696083228623621400,2.029621337890625,3.3877954483032227,-9.320926666259766,-2.604891538619995
1696083228633621200,2.039621337890625,-0.5339069962501526,-10.101436614990234,-1.45806884765625
1696083228643621400,2.049621337890625,-3.2369606494903564,-10.383952140808105,-1.01753568649292
1696083228653621200,2.059621337890625,-4.671087741851807,-10.261847496032715,-0.6799532771110535
1696083228663621400,2.069621337890625,-4.575319290161133,-10.146925926208496,-0.1149216815829277
1696083228673621200,2.079621337890625,-3.6391866207122803,-10.05115795135498,-0.07661445438861847
1696083228683621400,2.089621337890625,-2.8874073028564453,-9.857227325439453,-0.16759411990642548
1696083228693621200,2.099621337890625,-2.118868589401245,-9.593865394592285,-0.2322375625371933
1696083228703621400,2.109621337890625,-1.7405846118927002,-9.335291862487793,-0.09816227108240128
1696083228713621200,2.119621337890625,-1.5610195398330688,-9.155726432800293,0.090979665517807
1696083228723621400,2.129621337890625,-1.50355863571167,-9.036016464233398,0.3447650372982025
1696083228733621200,2.139621337890625,-1.436521053314209,-8.964190483093262,0.730231523513794
1696083228743621400,2.149621337890625,-1.1252747774124146,-9.160514831542969,1.2186486721038818
1696083228753621200,2.159621337890625,-0.7206547260284424,-9.522039413452148,1.434126853942871
1696083228763621400,2.169621337890625,-0.545877993106842,-9.854833602905273,1.5825673341751099
1696083228773621200,2.179621337890625,-0.6416460275650024,-9.885957717895508,1.5131354331970215
1696083228783621400,2.189621337890625,-0.9313444495201111,-9.699210166931152,1.3551181554794312
1696083228793621200,2.199621337890625,-1.2210428714752197,-9.44063663482666,1.2521674633026123
1696083228803621600,2.20962158203125,-1.4053963422775269,-9.263465881347656,1.1013327836990356
1696083228813621500,2.21962158203125,-1.359906554222107,-9.263465881347656,0.8403648138046265
1696083228823621600,2.22962158203125,-1.0271124839782715,-9.466972351074219,0.6200982332229614
1696083228833621500,2.23962158203125,-0.6727706789970398,-9.715970039367676,0.4572925269603729
1696083228843621600,2.24962158203125,-0.37828385829925537,-9.89553451538086,0.31603461503982544
1696083228853621500,2.25962158203125,-0.22744916379451752,-9.873987197875977,0.2561795711517334
1696083228863621600,2.26962158203125,-0.31124621629714966,-9.62259578704834,0.2298433631658554
1696083228873621500,2.27962158203125,-0.5817909836769104,-9.402329444885254,0.23702596127986908
1696083228883621600,2.28962158203125,-0.9433154463768005,-9.392752647399902,0.2322375625371933
1696083228893621500,2.29962158203125,-1.314416766166687,-9.38556957244873,0.2992752194404602
1696083228903621600,2.30962158203125,-1.5849615335464478,-9.466972351074219,0.304063618183136
1696083228913621800,2.319621826171875,-1.7094600200653076,-9.483732223510742,0.2106897532939911
1696083228923621600,2.32962158203125,-1.6376339197158813,-9.464578628540039,0.15801730751991272
1696083228933621800,2.339621826171875,-1.4508862495422363,-9.457395553588867,0.2059013396501541
1696083228943621600,2.34962158203125,-1.2066776752471924,-9.459790229797363,0.33039984107017517
1696083228953621800,2.359621826171875,-1.0462661981582642,-9.514857292175293,0.5291185975074768
1696083228963621600,2.36962158203125,-0.9983820915222168,-9.58907699584961,0.7254431247711182
1696083228973621800,2.379621826171875,-1.1085153818130493,-9.670479774475098,0.9457096457481384
1696083228983621600,2.38962158203125,-1.335964560508728,-9.720758438110352,1.1444283723831177
1696083228993621800,2.399621826171875,-1.5610195398330688,-9.756670951843262,1.335964560508728
1696083229003621600,2.40962158203125,-1.7884687185287476,-9.881169319152832,1.5394717454910278
1696083229013621800,2.419621826171875,-1.8818424940109253,-9.89314079284668,1.6400281190872192
1696083229023621600,2.42962158203125,-1.8195933103561401,-9.751882553100586,1.534683346748352
1696083229033621800,2.439621826171875,-1.6711528301239014,-9.584288597106934,1.4221558570861816
1696083229043621600,2.44962158203125,-1.5969325304031372,-9.608230590820312,1.4173674583435059
1696083229053621800,2.459621826171875,-1.4891934394836426,-9.792584419250488,1.400607943534851
1696083229063621600,2.46962158203125,-1.292868971824646,-9.828496932983398,1.1324573755264282
1696083229073621800,2.479621826171875,-1.094150185585022,-9.737517356872559,0.727837324142456
1696083229083621600,2.48962158203125,-0.849941611289978,-9.581894874572754,0.15562310814857483
1696083229093621800,2.499621826171875,-0.6153098344802856,-9.428665161132812,-0.4620809257030487
1696083229103621400,2.509621337890625,-0.4812345504760742,-9.419088363647461,-1.05105459690094
1696083229113621500,2.51962158203125,-0.5315127968788147,-9.524434089660645,-1.5490485429763794
1696083229123621400,2.529621337890625,-0.811634361743927,-9.481337547302246,-1.9584569931030273
1696083229133621500,2.53962158203125,-1.1851298809051514,-9.328108787536621,-2.1547815799713135
1696083229143621400,2.549621337890625,-1.3192051649093628,-9.174880027770996,-2.1547815799713135
1696083229153621800,2.559621826171875,-1.2976573705673218,-9.150938034057617,-1.9967641830444336
1696083229163622000,2.569621826171875,-1.4173674583435059,-9.237129211425781,-1.7549498081207275
1696083229173621800,2.579621826171875,-1.460463047027588,-9.404723167419434,-1.2449848651885986
1696083229183622000,2.589621826171875,-1.436521053314209,-9.572318077087402,-0.5171475410461426
1696083229193621800,2.599621826171875,-1.2018892765045166,-9.62259578704834,0.21308395266532898
1696083229203622000,2.609621826171875,-0.7469909191131592,-9.524434089660645,0.950498104095459
1696083229213621800,2.619621826171875,-0.22026655077934265,-9.308955192565918,1.5753847360610962
1696083229223621600,2.62962158203125,-0.14604631066322327,-9.359233856201172,2.142810583114624
1696083229233621800,2.639621826171875,0.009576806798577309,-9.715970039367676,2.808398485183716
1696083229243621600,2.64962158203125,-0.014365210197865963,-9.900322914123535,3.2321722507476807
1696083229253621800,2.659621826171875,-0.12928688526153564,-9.785401344299316,3.2632968425750732
1696083229263621600,2.66962158203125,-0.3663128614425659,-9.359233856201172,2.5905263423919678
1696083229273621800,2.679621826171875,-0.49559974670410156,-9.069535255432129,1.7190368175506592
1696083229283622000,2.689621826171875,-0.6344634294509888,-9.052776336669922,0.9983820915222168
1696083229293621800,2.699621826171875,-0.8068459630012512,-9.143755912780762,0.3519476354122162
1696083229303622000,2.709621826171875,-0.9959878921508789,-9.256282806396484,-0.23942017555236816
1696083229313621800,2.719621826171875,-1.0678139925003052,-9.368810653686523,-0.7709329724311829
1696083229323622000,2.729621826171875,-1.0103530883789062,-9.634567260742188,-1.1037269830703735
1696083229333621800,2.739621826171875,-0.8738836050033569,-10.060734748840332,-1.3120225667953491
1696083229343622000,2.749621826171875,-0.6129156351089478,-10.5252103805542,-1.436521053314209
1696083229353621200,2.759621337890625,-0.24181437492370605,-10.98968505859375,-1.434126853942871
1696083229363621400,2.769621337890625,0.3495534360408783,-11.521198272705078,-1.3910311460494995
1696083229373621200,2.779621337890625,1.115697979927063,-12.17720890045166,-1.137245774269104
1696083229383621400,2.789621337890625,1.8483237028121948,-12.689568519592285,-0.6871358752250671
1696083229393621200,2.799621337890625,2.315192937850952,-12.960113525390625,-0.12210428714752197
1696083229403621400,2.809621337890625,2.3702597618103027,-12.948142051696777,0.6488286852836609
1696083229413621200,2.819621337890625,2.0661959648132324,-12.849979400634766,1.3886369466781616
1696083229423621400,2.829621337890625,1.556231141090393,-12.799701690673828,1.968033790588379
1696083229433621200,2.839621337890625,0.9768342971801758,-12.78773021697998,2.473210334777832
1696083229443621400,2.849621337890625,0.47405192255973816,-12.756606101989746,2.942473888397217
1696083229453621000,2.85962109375,0.2825157940387726,-12.7853364944458,3.399766445159912
1696083229463620900,2.869620849609375,0.6272808313369751,-13.122919082641602,3.7014358043670654
1696083229473621000,2.87962109375,1.5897499322891235,-13.596970558166504,4.01268196105957
1696083229483620900,2.889620849609375,2.894589900970459,-13.707103729248047,4.165910720825195
1696083229493621000,2.89962109375,4.10366153717041,-13.283329963684082,4.02465295791626
1696083229503620900,2.909620849609375,4.637568473815918,-12.691962242126465,3.7828385829925537
1696083229513621000,2.91962109375,4.426878929138184,-12.17720890045166,3.6152446269989014
1696083229523620900,2.929620849609375,3.7684733867645264,-11.74625301361084,3.4189200401306152
1696083229533621000,2.93962109375,3.184288263320923,-11.22671127319336,3.1052796840667725
1696083229543620900,2.949620849609375,2.959233283996582,-10.551546096801758,2.691082715988159
1696083229553621000,2.95962109375,2.7988216876983643,-9.92665958404541,2.1954829692840576
1696083229563620900,2.969620849609375,2.5905263423919678,-9.601048469543457,1.721431016921997
1696083229573621000,2.97962109375,2.8778305053710938,-9.74709415435791,0.8762778043746948
1696083229583620900,2.989620849609375,1.8100165128707886,-10.271424293518066,-0.023942016065120697
1696083229593621000,2.99962109375,0.4118026793003082,-11.355998039245605,-0.8427590131759644
1696083229603620900,3.009620849609375,-1.479616641998291,-12.244246482849121,-1.3838485479354858
1696083229613621000,3.01962109375,-2.4660277366638184,-12.591405868530273,-1.8986018896102905
1696083229623620900,3.029620849609375,-3.9217023849487305,-12.442965507507324,-2.1547815799713135
1696083229633621000,3.03962109375,-5.308244228363037,-12.01919174194336,-2.1380221843719482
1696083229643620900,3.049620849609375,-5.5668182373046875,-11.379940032958984,-2.2649147510528564
1696083229653621200,3.059621337890625,-4.6734819412231445,-10.850821495056152,-2.319981336593628
1696083229663621400,3.069621337890625,-3.6942532062530518,-10.618583679199219,-1.7118542194366455
1696083229673621500,3.07962158203125,-3.138798475265503,-10.496479988098145,-0.9552865028381348
1696083229683621400,3.089621337890625,-2.7676970958709717,-10.522815704345703,-0.4572925269603729
1696083229693621500,3.09962158203125,-1.8339585065841675,-10.728716850280762,0.4692635238170624
1696083229703621400,3.109621337890625,0.1173158809542656,-10.89870548248291,1.3192051649093628
1696083229713621500,3.11962158203125,2.027888774871826,-10.925041198730469,2.008735179901123
1696083229723621400,3.129621337890625,2.1499931812286377,-10.869975090026855,1.9776105880737305
1696083229733621500,3.13962158203125,0.8164227604866028,-10.963348388671875,1.7741034030914307
1696083229743621400,3.149621337890625,-0.8020575642585754,-10.877157211303711,1.1468225717544556
1696083229753621500,3.15962158203125,-1.2401964664459229,-10.81011962890625,0.304063618183136
1696083229763621400,3.169621337890625,-1.3958195447921753,-10.65210247039795,-0.5147533416748047
1696083229773621500,3.17962158203125,-1.4748282432556152,-10.302549362182617,-1.139639973640442
1696083229783621400,3.189621337890625,-1.2401964664459229,-9.672874450683594,-1.8483237028121948
1696083229793621500,3.19962158203125,-1.0773907899856567,-9.026439666748047,-2.31758713722229
1696083229803621400,3.209621337890625,-1.0678139925003052,-8.420706748962402,-2.561795711517334
1696083229813621500,3.21962158203125,-1.1300631761550903,-7.874828815460205,-2.669534921646118
1696083229823621400,3.229621337890625,-1.0319008827209473,-7.355287075042725,-2.7748796939849854
1696083229833621500,3.23962158203125,-1.0247182846069336,-7.01052188873291,-2.612074136734009
1696083229843621400,3.249621337890625,-1.0414776802062988,-6.682516098022461,-2.255337953567505
1696083229853621500,3.25962158203125,-1.0462661981582642,-6.4742207527160645,-1.8531121015548706
1696083229863621400,3.269621337890625,-1.1252747774124146,-6.143820762634277,-1.625662922859192
1696083229873621500,3.27962158203125,-1.2976573705673218,-5.791872978210449,-1.577778935432434
1696083229883621400,3.289621337890625,-1.3670891523361206,-5.42795467376709,-1.525106430053711
1696083229893621500,3.29962158203125,-1.4173674583435059,-5.061641693115234,-1.6184803247451782
1696083229903621400,3.309621337890625,-1.4987702369689941,-4.649539470672607,-1.745373010635376
1696083229913621500,3.31962158203125,-1.4772224426269531,-4.206612586975098,-1.8962076902389526
1696083229923621400,3.329621337890625,-1.2832920551300049,-3.6990416049957275,-2.169146776199341
1696083229933621500,3.33962158203125,-0.8858546018600464,-3.1962592601776123,-2.609679937362671
1696083229943621400,3.349621337890625,-0.33758243918418884,-2.786850690841675,-2.8347349166870117
1696083229953621500,3.35962158203125,0.11013327538967133,-2.6024973392486572,-2.832340717315674
1696083229963621400,3.369621337890625,0.6631938815116882,-2.999934673309326,-2.0398597717285156
1696083229973621500,3.37962158203125,1.7764976024627686,-3.7924153804779053,-0.5339069962501526
1696083229983621400,3.389621337890625,3.7493197917938232,-5.028122901916504,1.0007762908935547
1696083229993621500,3.39962158203125,5.526116847991943,-6.876446723937988,2.3726539611816406
1696083230003621400,3.409621337890625,8.238747596740723,-9.380781173706055,4.307168960571289
1696083230013621500,3.41962158203125,11.04475212097168,-12.344802856445312,6.773495674133301
1696083230023621400,3.429621337890625,13.491625785827637,-15.402498245239258,8.686463356018066
1696083230033621500,3.43962158203125,15.012243270874023,-18.20610809326172,9.907505989074707
1696083230043621400,3.449621337890625,13.733440399169922,-20.006547927856445,9.308955192565918
1696083230053621200,3.459621337890625,10.19720458984375,-19.7383975982666,6.821380138397217
1696083230063621400,3.469621337890625,6.730400085449219,-16.652271270751953,3.7924153804779053
1696083230073621200,3.479621337890625,4.335899353027344,-12.780548095703125,2.0829553604125977
1696083230083621400,3.489621337890625,2.4157495498657227,-9.277831077575684,1.3287819623947144
1696083230093621500,3.49962158203125,2.0039467811584473,-7.776666164398193,0.8810662031173706
1696083230103621400,3.509621337890625,2.8155810832977295,-8.262689590454102,0.31124621629714966
1696083230113621500,3.51962158203125,3.3063924312591553,-9.488520622253418,-1.2832920551300049
1696083230123621400,3.529621337890625,2.3032219409942627,-11.92821216583252,-3.2154128551483154
1696083230133621500,3.53962158203125,0.8259995579719543,-15.316307067871094,-4.642356872558594
1696083230143621400,3.549621337890625,-0.19393034279346466,-17.676990509033203,-4.821922302246094
1696083230153621500,3.55962158203125,2.0374655723571777,-17.97147560119629,-4.642356872558594
1696083230163621400,3.569621337890625,1.4652514457702637,-15.361796379089355,-2.7509377002716064
1696083230173621500,3.57962158203125,-1.6041151285171509,-11.77977180480957,-1.6065093278884888
1696083230183621400,3.589621337890625,-3.112462282180786,-9.01207447052002,-1.580173134803772
1696083230193621500,3.59962158203125,-4.405331134796143,-6.974608898162842,-1.8579005002975464
1696083230203621400,3.609621337890625,-6.012139797210693,-5.406406879425049,-2.0159177780151367
1696083230213621200,3.619621337890625,-6.8070149421691895,-4.189853191375732,-1.9057846069335938
1696083230223621400,3.629621337890625,-6.823774337768555,-3.794809579849243,-2.2577321529388428
1696083230233621200,3.639621337890625,-5.595548629760742,-4.304774761199951,-2.1739351749420166
1696083230243621400,3.649621337890625,-4.973056316375732,-5.600337028503418,-1.4508862495422363
1696083230253621200,3.659621337890625,-4.412513732910156,-7.32655668258667,-1.357512354850769
1696083230263621400,3.669621337890625,-3.6822822093963623,-8.909123420715332,-1.5466543436050415
1696083230273621500,3.67962158203125,-2.9879636764526367,-10.118195533752441,-1.3192051649093628
1696083230283621400,3.689621337890625,-2.4612393379211426,-10.917859077453613,-0.6320692300796509
1696083230293621500,3.69962158203125,-2.0446481704711914,-11.346421241760254,0.21787235140800476
1696083230303621400,3.709621337890625,-1.2641384601593018,-11.32726764678955,1.1348515748977661
1696083230313621500,3.71962158203125,-0.004788403399288654,-11.152490615844727,2.142810583114624
1696083230323621400,3.729621337890625,1.2856862545013428,-10.853215217590332,2.9951462745666504
1696083230333621500,3.73962158203125,2.123656988143921,-10.436624526977539,3.423708438873291
1696083230343621400,3.749621337890625,2.387019157409668,-9.964966773986816,3.423708438873291
1696083230353621500,3.75962158203125,2.4684219360351562,-9.534010887145996,3.0358476638793945
1696083230363621600,3.76962158203125,2.145204782485962,-9.206005096435547,2.252943754196167
1696083230373621500,3.77962158203125,1.659181833267212,-9.000102996826172,1.4652514457702637
1696083230383621600,3.78962158203125,1.0342950820922852,-9.050381660461426,0.8020575642585754
1696083230393621500,3.79962158203125,0.507570743560791,-9.292196273803711,0.3447650372982025
1696083230403621400,3.809621337890625,0.17717093229293823,-9.675268173217773,-0.019153613597154617
1696083230413621500,3.81962158203125,0.1604115068912506,-9.732728958129883,-0.4572925269603729
1696083230423621400,3.829621337890625,0.1364694982767105,-9.593865394592285,-0.751779317855835
1696083230433621500,3.83962158203125,0.3471592366695404,-9.251494407653809,-1.1779472827911377
1696083230443621400,3.849621337890625,0.043095629662275314,-9.009679794311523,-1.1516109704971313
1696083230453621500,3.85962158203125,-0.6153098344802856,-8.976161003112793,-0.6823474764823914
1696083230463621400,3.869621337890625,-1.139639973640442,-8.992920875549316,-0.05027823522686958
1696083230473621500,3.87962158203125,-1.292868971824646,-8.964190483093262,0.6847416758537292
1696083230483621400,3.889621337890625,-1.316810965538025,-8.940248489379883,1.280897855758667
1696083230493621500,3.89962158203125,-1.280897855758667,-8.854057312011719,1.3646949529647827
1696083230503621400,3.909621337890625,-1.192312479019165,-8.70801067352295,1.213860273361206
1696083230513621500,3.91962158203125,-0.9241618514060974,-8.420706748962402,1.1492167711257935
1696083230523621400,3.929621337890625,-0.5482721924781799,-8.21959400177002,1.0773907899856567
1696083230533621500,3.93962158203125,-0.16519992053508759,-8.41352367401123,0.9289502501487732
1696083230543621400,3.949621337890625,0.023942016065120697,-9.024045944213867,0.7038952708244324
1696083230553621500,3.95962158203125,-0.07661445438861847,-9.605836868286133,0.3280056416988373
1696083230563621400,3.969621337890625,-0.2513911724090576,-10.113407135009766,0.05746084079146385
1696083230573621500,3.97962158203125,-0.06224924325942993,-10.50126838684082,0
1696083230583621400,3.989621337890625,0.569819986820221,-10.889128684997559,0.011971008032560349
1696083230593621500,3.99962158203125,1.5059528350830078,-11.181221008300781,-0.07661445438861847
1696083230603621400,4.009621337890625,2.4588451385498047,-11.224316596984863,-0.2944868206977844
1696083230613621500,4.01962158203125,2.9927520751953125,-11.102212905883789,-0.3998316824436188
1696083230623621400,4.029621337890625,2.913743495941162,-11.0208101272583,-0.14604631066322327
1696083230633621500,4.03962158203125,2.4181437492370605,-11.071087837219238,0.4908113479614258
1696083230643621400,4.049621337890625,1.5610195398330688,-11.394305229187012,1.4245500564575195
1696083230653621200,4.059621337890625,0.5003881454467773,-11.9306058883667,2.449268341064453
1696083230663621400,4.069621337890625,-0.48602294921875,-12.340014457702637,3.4524388313293457
1696083230673621500,4.07962158203125,-1.113303780555725,-12.668020248413086,4.402936935424805
1696083230683621400,4.089621337890625,-1.3527239561080933,-13.000814437866211,5.408801078796387
1696083230693621500,4.09962158203125,-1.1324573755264282,-13.561058044433594,6.4071831703186035
1696083230703621400,4.109621337890625,-0.3878606855869293,-13.99440860748291,7.070376873016357
1696083230713621500,4.11962158203125,0.5770025849342346,-14.221857070922852,7.261912822723389
1696083230723621400,4.129621337890625,1.338358759880066,-14.475643157958984,6.795043468475342
1696083230733621500,4.13962158203125,1.9919757843017578,-14.636054039001465,5.885247230529785
1696083230743621400,4.149621337890625,2.628833532333374,-14.152425765991211,4.3622355461120605
1696083230753621500,4.15962158203125,3.6080620288848877,-13.166014671325684,2.2673089504241943
1696083230763621400,4.169621337890625,4.917989730834961,-12.167632102966309,0.10534487664699554
1696083230773621500,4.17962158203125,6.304232120513916,-11.767800331115723,-1.7381904125213623
1696083230783621400,4.189621337890625,6.390423774719238,-11.933000564575195,-3.1004912853240967
1696083230793621500,4.19962158203125,5.159803867340088,-12.337620735168457,-4.055777549743652
1696083230803621400,4.209621337890625,2.360682964324951,-12.548310279846191,-5.116708278656006
1696083230813621500,4.21962158203125,-0.1604115068912506,-12.744634628295898,-6.251559734344482
1696083230823621400,4.229621337890625,-2.185906171798706,-13.29769515991211,-6.88602352142334
1696083230833621500,4.23962158203125,-5.166986465454102,-13.501202583312988,-6.672939300537109
1696083230843621400,4.249621337890625,-6.909965515136719,-13.304878234863281,-6.297049522399902
1696083230853621500,4.25962158203125,-6.637026309967041,-12.699145317077637,-5.420772075653076
1696083230863621400,4.269621337890625,-5.494992256164551,-12.088624000549316,-4.278438568115234
1696083230873621500,4.27962158203125,-3.9839515686035156,-11.425429344177246,-2.762908697128296
1696083230883621400,4.289621337890625,-1.8531121015548706,-10.86758041381836,-1.173158884048462
1696083230893621500,4.29962158203125,1.3479355573654175,-10.75265884399414,0.5291185975074768
1696083230903621400,4.309621337890625,3.2776620388031006,-11.178827285766602,2.3104045391082764
1696083230913621500,4.31962158203125,2.492363929748535,-11.315296173095703,3.095702886581421
1696083230923621400,4.329621337890625,0.4620809257030487,-11.207557678222656,2.806004285812378
1696083230933621500,4.33962158203125,-1.2832920551300049,-10.726323127746582,2.2218191623687744
1696083230943621400,4.349621337890625,-1.7262194156646729,-9.993697166442871,1.479616641998291
1696083230953621500,4.35962158203125,-1.7573440074920654,-9.253889083862305,0.7350199222564697
1696083230963621400,4.369621337890625,-1.6735470294952393,-8.535628318786621,-0.06703764945268631
1696083230973621500,4.37962158203125,-1.7501614093780518,-7.984961986541748,-0.9217676520347595
1696083230983621400,4.389621337890625,-1.8555063009262085,-7.601889610290527,-1.6400281190872192
1696083230993621500,4.39962158203125,-1.802833914756775,-7.352892875671387,-2.1978771686553955
1696083231003621400,4.409621337890625,-1.7836803197860718,-7.154173851013184,-2.4875755310058594
1696083231013621500,4.41962158203125,-1.922544002532959,-7.008127689361572,-2.3774423599243164
1696083231023621400,4.429621337890625,-2.054224967956543,-6.830956935882568,-2.1571757793426514
1696083231033621500,4.43962158203125,-1.9823989868164062,-6.589142322540283,-1.900996208190918
1696083231043621400,4.449621337890625,-1.8195933103561401,-6.344933986663818,-1.644816517829895
1696083231053621200,4.459621337890625,-1.7405846118927002,-6.158185958862305,-1.4891934394836426
1696083231063621400,4.469621337890625,-1.7932571172714233,-5.976226806640625,-1.460463047027588
1696083231073621200,4.479621337890625,-1.7525556087493896,-5.782296180725098,-1.6543933153152466
1696083231083621400,4.489621337890625,-1.8770540952682495,-5.55245304107666,-2.1978771686553955
1696083231093621500,4.49962158203125,-2.078166961669922,-5.183745861053467,-2.782062292098999
1696083231103621400,4.509621337890625,-2.2242133617401123,-4.577713489532471,-3.3925838470458984
1696083231113621500,4.51962158203125,-2.0925323963165283,-3.9001545906066895,-3.7636849880218506
1696083231123621400,4.529621337890625,-1.6950948238372803,-3.227383852005005,-4.072536945343018
1696083231133621500,4.53962158203125,-1.158793568611145,-2.655169725418091,-4.218583583831787
1696083231143621400,4.549621337890625,-0.706289529800415,-2.5522189140319824,-4.019864559173584
1696083231153621000,4.55962109375,-0.2322375625371933,-3.1938650608062744,-2.942473888397217
1696083231163620900,4.569620849609375,0.3423708379268646,-4.32871675491333,-0.7781155705451965
1696083231173621000,4.57962109375,3.3279404640197754,-6.146214962005615,1.7549498081207275
1696083231183620900,4.589620849609375,7.616254806518555,-8.696040153503418,4.077325344085693
1696083231193621000,4.59962109375,10.95616626739502,-11.552322387695312,6.593930721282959
1696083231203620900,4.609620849609375,10.891522407531738,-14.099753379821777,9.541193008422852
1696083231213621000,4.61962109375,11.229104995727539,-16.43918800354004,10.869975090026855
1696083231223620900,4.629620849609375,14.375085830688477,-18.82141876220703,10.994473457336426
1696083231233621000,4.63962109375,12.943353652954102,-19.877260208129883,9.555558204650879
1696083231243620900,4.649620849609375,9.13657283782959,-18.368913650512695,6.122272968292236
1696083231253621000,4.65962109375,6.170156955718994,-15.000271797180176,2.911349296569824
1696083231263620900,4.669620849609375,4.405331134796143,-10.8412446975708,1.7860745191574097
1696083231273621000,4.67962109375,3.2393548488616943,-6.632237911224365,1.45806884765625
1696083231283620900,4.689620849609375,2.736572504043579,-4.127603530883789,0.7493851184844971
1696083231293621000,4.69962109375,2.9472622871398926,-5.269937038421631,-0.20350714027881622
1696083231303620900,4.709620849609375,2.87064790725708,-7.972990989685059,-0.9313444495201111
1696083231313621000,4.71962109375,2.0614075660705566,-11.133337020874023,-2.0661959648132324
1696083231323621000,4.72962109375,-0.023942016065120697,-15.440805435180664,-2.9328970909118652
1696083231333621000,4.73962109375,-2.8107926845550537,-18.15104103088379,-3.155557870864868
1696083231343621000,4.74962109375,-3.531447410583496,-19.932327270507812,-4.58968448638916
1696083231353621000,4.75962109375,-1.070208191871643,-21.024084091186523,-5.770325183868408
1696083231363621000,4.76962109375,-2.7724854946136475,-17.401657104492188,-3.335123062133789
1696083231373621000,4.77962109375,-2.715024709701538,-12.646472930908203,-1.9057846069335938
1696083231383621000,4.78962109375,-2.8778305053710938,-9.641749382019043,-2.1332337856292725
1696083231393621000,4.79962109375,-3.6822822093963623,-6.888417720794678,-2.1380221843719482
1696083231403621000,4.80962109375,-4.479551315307617,-4.659116744995117,-2.1978771686553955
1696083231413621000,4.81962109375,-4.467580318450928,-3.0885202884674072,-2.3056161403656006
1696083231423621000,4.82962109375,-4.24970817565918,-2.2218191623687744,-2.0422539710998535
1696083231433621000,4.83962109375,-5.083189487457275,-2.1954829692840576,-1.525106430053711
1696083231443621000,4.84962109375,-5.636250019073486,-4.194641590118408,-0.5339069962501526
1696083231453621500,4.85962158203125,-5.008969306945801,-6.356904983520508,-0.35434186458587646
1696083231463621400,4.869621337890625,-4.027047157287598,-8.257901191711426,0.08140286058187485
1696083231473621500,4.87962158203125,-3.40216064453125,-9.979331970214844,0.5650315880775452
1696083231483621400,4.889621337890625,-3.220201253890991,-11.44218921661377,1.0558429956436157
1696083231493621500,4.89962158203125,-3.1052796840667725,-12.526762962341309,1.678335428237915
1696083231503621400,4.909621337890625,-1.2545616626739502,-13.0822172164917,3.095702886581421
1696083231513621500,4.91962158203125,2.537853717803955,-13.209110260009766,4.812345504760742
1696083231523621400,4.929621337890625,6.263530731201172,-12.584223747253418,5.686528205871582
1696083231533621500,4.93962158203125,8.123826026916504,-11.183615684509277,5.147832870483398
1696083231543621400,4.949621337890625,8.006509780883789,-9.732728958129883,3.6727054119110107
1696083231553621500,4.95962158203125,6.5388641357421875,-8.597877502441406,1.98958158493042
1696083231563621400,4.969621337890625,4.000710964202881,-7.850886821746826,0.3711012601852417
1696083231573621500,4.97962158203125,1.3431471586227417,-7.716811180114746,-1.0103530883789062
1696083231583621400,4.989621337890625,-0.5434837937355042,-8.210017204284668,-1.4413094520568848
1696083231593621500,4.99962158203125,-1.8339585065841675,-8.854057312011719,-1.2545616626739502
1696083231603621400,5.009621337890625,-2.9496564865112305,-9.273042678833008,-1.3000515699386597
1696083231613621500,5.01962158203125,-4.003105163574219,-9.277831077575684,-1.4101848602294922
1696083231623621400,5.029621337890625,-4.956296920776367,-9.179668426513672,-1.3670891523361206
1696083231633621500,5.03962158203125,-5.099948883056641,-9.182063102722168,-0.7996633648872375
1696083231643621400,5.049621337890625,-4.043806552886963,-9.234735488891602,-0.3495534360408783
1696083231653621200,5.059621337890625,-2.5067291259765625,-9.13417911529541,-0.0933738648891449
1696083231663621400,5.069621337890625,-1.0558429956436157,-8.748712539672852,-0.6153098344802856
1696083231673621200,5.079621337890625,0.07900865375995636,-8.403946876525879,-1.3215993642807007
1696083231683621400,5.089621337890625,0.6512228846549988,-8.320150375366211,-1.5682021379470825
1696083231693621200,5.099621337890625,0.7996633648872375,-8.55717658996582,-1.5466543436050415
1696083231703621400,5.109621337890625,0.4213795065879822,-9.095871925354004,-1.2976573705673218
1696083231713621200,5.119621337890625,-0.2825157940387726,-9.76864242553711,-1.0223240852355957
1696083231723621400,5.129621337890625,-0.7230489253997803,-10.491691589355469,-0.8355764150619507
1696083231733621200,5.139621337890625,-0.5123591423034668,-11.212346076965332,-0.7182605266571045
1696083231743621400,5.149621337890625,0.3447650372982025,-11.652878761291504,-0.6871358752250671
1696083231753621500,5.15962158203125,1.745373010635376,-11.53316879272461,-0.5985504388809204
1696083231763621400,5.169621337890625,3.270479440689087,-11.130943298339844,-0.40222588181495667
1696083231773621200,5.179621337890625,4.467580318450928,-10.908282279968262,-0.05267243832349777
1696083231783621400,5.189621337890625,4.73573112487793,-10.913070678710938,0.4118026793003082
1696083231793621200,5.199621337890625,3.9384617805480957,-10.98968505859375,1.0055646896362305
1696083231803621400,5.209621337890625,2.3558945655822754,-11.073482513427734,1.7262194156646729
1696083231813621200,5.219621337890625,0.4668693244457245,-11.389516830444336,2.6216509342193604
1696083231823621400,5.229621337890625,-1.137245774269104,-11.822867393493652,3.6343982219696045
1696083231833621200,5.239621337890625,-2.2361843585968018,-12.196362495422363,4.891354084014893
1696083231843621400,5.249621337890625,-2.557007312774658,-12.320860862731934,6.3640875816345215
1696083231853621500,5.25962158203125,-1.5873557329177856,-12.081440925598145,7.640196800231934
1696083231863621400,5.269621337890625,0.40701428055763245,-11.667243957519531,8.269871711730957
1696083231873621500,5.27962158203125,2.889801502227783,-11.413458824157715,7.905953407287598
1696083231883621400,5.289621337890625,4.817133903503418,-11.604994773864746,6.8070149421691895
1696083231893621500,5.29962158203125,5.1454386711120605,-12.227487564086914,5.557241439819336
1696083231903621400,5.309621337890625,4.4723687171936035,-12.679991722106934,4.201824188232422
1696083231913621500,5.31962158203125,3.88818359375,-12.835614204406738,2.801215887069702
1696083231923621400,5.329621337890625,3.998316764831543,-12.610559463500977,1.3527239561080933
1696083231933621500,5.33962158203125,4.417302131652832,-12.08383560180664,0.15562310814857483
1696083231943621400,5.349621337890625,4.036623954772949,-11.868356704711914,-0.3256114423274994
1696083231953621800,5.359621826171875,2.518700122833252,-12.44536018371582,0.26575639843940735
1696083231963621600,5.36962158203125,0.6416460275650024,-13.118130683898926,0.667982280254364
1696083231973621500,5.37962158203125,-1.1037269830703735,-13.697526931762695,0.43335050344467163
1696083231983621600,5.38962158203125,-2.2146365642547607,-14.403817176818848,-0.19871874153614044
1696083231993621500,5.39962158203125,-2.691082715988159,-15.543755531311035,-1.8195933103561401
1696083232003621600,5.40962158203125,-3.248931646347046,-17.126323699951172,-3.8355112075805664
1696083232013621500,5.41962158203125,-4.2544965744018555,-17.835006713867188,-5.4782328605651855
1696083232023621600,5.42962158203125,-5.29387903213501,-17.801488876342773,-6.783072471618652
1696083232033621500,5.43962158203125,-5.681739807128906,-16.427215576171875,-7.041646480560303
1696083232043621600,5.44962158203125,-5.483021259307861,-14.288894653320312,-5.799055576324463
1696083232053621500,5.45962158203125,-2.6623523235321045,-12.41662883758545,-4.752490520477295
1696083232063621600,5.46962158203125,2.0925323963165283,-11.346421241760254,-3.246537446975708
1696083232073621500,5.47962158203125,4.206612586975098,-10.723928451538086,-1.3479355573654175
1696083232083621600,5.48962158203125,3.160346269607544,-10.338461875915527,-0.31603461503982544
1696083232093621500,5.49962158203125,0.5339069962501526,-10.01524543762207,0.17238251864910126
1696083232103621600,5.50962158203125,-1.558625340461731,-9.490914344787598,0.5913678407669067
1696083232113621800,5.519621826171875,-2.3319525718688965,-8.822932243347168,0.8403648138046265
1696083232123621600,5.52962158203125,-2.212242364883423,-8.085518836975098,0.9720458984375
1696083232133621800,5.539621826171875,-1.6280571222305298,-7.297826290130615,0.9169792532920837
1696083232143621600,5.54962158203125,-1.4676456451416016,-6.579565525054932,0.8595184087753296
1696083232153621200,5.559621337890625,-1.45806884765625,-5.9642558097839355,0.4908113479614258
1696083232163621400,5.569621337890625,-1.3000515699386597,-5.399224281311035,-0.17956513166427612
1696083232173621200,5.579621337890625,-1.2066776752471924,-5.394435882568359,-0.6488286852836609
1696083232183621400,5.589621337890625,-1.2018892765045166,-5.667374610900879,-1.161187767982483
1696083232193621200,5.599621337890625,-1.403002142906189,-5.952284812927246,-1.6352397203445435
1696083232203621400,5.609621337890625,-1.5131354331970215,-6.225223541259766,-2.03507137298584
1696083232213621200,5.619621337890625,-1.6687586307525635,-6.356904983520508,-2.2697031497955322
1696083232223621400,5.629621337890625,-1.802833914756775,-6.431125164031982,-2.2625205516815186
1696083232233621200,5.639621337890625,-1.8938134908676147,-6.380846977233887,-2.1045033931732178
1696083232243621400,5.649621337890625,-1.9393033981323242,-6.17494535446167,-1.9081788063049316
1696083232253621000,5.65962109375,-2.0470423698425293,-5.8086323738098145,-1.920149803161621
1696083232263621000,5.66962109375,-2.2673089504241943,-5.404012680053711,-2.051830768585205
1696083232273621000,5.67962109375,-2.5546131134033203,-4.973056316375732,-2.3487119674682617
1696083232283621000,5.68962109375,-2.6360161304473877,-4.618414878845215,-2.676717519760132
1696083232293621000,5.69962109375,-2.3942017555236816,-4.137180328369141,-3.1747114658355713
1696083232303621000,5.70962109375,-1.86508309841156,-3.708618402481079,-3.7660791873931885
1696083232313621000,5.71962109375,-1.0893617868423462,-3.404554843902588,-4.043806552886963
1696083232323621000,5.72962109375,-0.45010992884635925,-3.375824451446533,-3.8810009956359863
1696083232333621000,5.73962109375,-0.047884032130241394,-3.9624037742614746,-2.8562827110290527
1696083232343621000,5.74962109375,0.7589619159698486,-4.946720123291016,-1.1444283723831177
1696083232353621200,5.759621337890625,2.4875755310058594,-6.285078525543213,0.8858546018600464
1696083232363621000,5.76962109375,5.1909284591674805,-8.25550651550293,2.8802247047424316
1696083232373621200,5.779621337890625,9.850045204162598,-10.879551887512207,5.049670696258545
1696083232383621000,5.78962109375,13.754987716674805,-13.970466613769531,7.84609842300415
1696083232393621200,5.799621337890625,14.238616943359375,-17.36095428466797,11.547533988952637
1696083232403621000,5.80962109375,12.84279727935791,-20.289064407348633,13.460501670837402
1696083232413621000,5.81962109375,11.288960456848145,-21.522077560424805,12.938565254211426
1696083232423621000,5.82962109375,7.882011413574219,-20.02570152282715,10.90109920501709
1696083232433621000,5.83962109375,6.2707133293151855,-15.89809799194336,7.084742069244385
1696083232443621000,5.84962109375,4.417302131652832,-11.116578102111816,4.414907932281494
1696083232453621500,5.85962158203125,2.6671407222747803,-7.273883819580078,2.7437551021575928
1696083232463621400,5.869621337890625,1.6927006244659424,-4.845864295959473,1.381454348564148
1696083232473621500,5.87962158203125,1.941697597503662,-5.492598056793213,0.4189853072166443
1696083232483621400,5.889621337890625,1.4389152526855469,-7.901165008544922,-0.13407529890537262
1696083232493621500,5.89962158203125,0.4884171485900879,-11.985672950744629,-1.0007762908935547
1696083232503621400,5.909621337890625,-0.12449848651885986,-16.987459182739258,-1.6208745241165161
1696083232513621000,5.91962109375,-0.2585737705230713,-20.14541244506836,-2.7078421115875244
1696083232523621000,5.92962109375,4.2090067863464355,-21.581932067871094,-5.085583686828613
1696083232533621200,5.939621337890625,-0.40701428055763245,-17.643470764160156,-4.833893299102783
1696083232543621000,5.94962109375,-3.1723172664642334,-12.950536727905273,-3.603273630142212
1696083232553621200,5.959621337890625,-4.309563159942627,-9.742305755615234,-2.33913516998291
1696083232563621000,5.96962109375,-4.8937482833862305,-8.013691902160645,-2.8419175148010254
1696083232573621000,5.97962109375,-5.42795467376709,-6.340145587921143,-3.0597896575927734
1696083232583621000,5.98962109375,-5.969044208526611,-4.503493309020996,-2.889801502227783
1696083232593621200,5.999621337890625,-5.222053050994873,-3.667917013168335,-2.674323320388794
1696083232603621000,6.00962109375,-4.398148536682129,-3.5410242080688477,-2.6791117191314697
1696083232613621000,6.01962109375,-4.7189717292785645,-4.19224739074707,-1.8195933103561401
1696083232623621000,6.02962109375,-4.738125324249268,-5.449502468109131,-1.5179238319396973
1696083232633621000,6.03962109375,-3.3231520652770996,-7.474997043609619,-1.7190368175506592
1696083232643621000,6.04962109375,-1.946485996246338,-9.13417911529541,-1.3982137441635132
1696083232653621000,6.05962109375,-1.192312479019165,-10.3456449508667,-0.849941611289978
1696083232663621000,6.06962109375,-1.094150185585022,-11.248258590698242,-0.1867477297782898
1696083232673621000,6.07962109375,-0.9744400978088379,-11.676820755004883,0.646434485912323
1696083232683621000,6.08962109375,0.19393034279346466,-12.01919174194336,2.0661959648132324
1696083232693621000,6.09962109375,2.5091233253479004,-12.038345336914062,3.754108190536499
1696083232703621000,6.10962109375,4.977844715118408,-11.789348602294922,4.908412933349609
1696083232713621000,6.11962109375,6.421548366546631,-11.037569046020508,4.857835292816162
1696083232723621000,6.12962109375,6.49098014831543,-9.845256805419922,3.797203779220581
1696083232733621000,6.13962109375,5.24838924407959,-8.8971529006958,2.205059766769409
1696083232743621000,6.14962109375,3.069366693496704,-8.243535995483398,0.8571242094039917
1696083232753621000,6.15962109375,0.3998316824436188,-8.157344818115234,0.24181437492370605
1696083232763621000,6.16962109375,-1.4484920501708984,-8.497321128845215,0.26575639843940735
1696083232773621000,6.17962109375,-1.9153614044189453,-8.868422508239746,0.3519476354122162
1696083232783621000,6.18962109375,-2.760514497756958,-8.88757610321045,-0.09576806426048279
1696083232793621000,6.19962109375,-3.9695863723754883,-9.014469146728516,-0.06703764945268631
1696083232803621000,6.20962109375,-4.747702121734619,-9.074323654174805,-0.047884032130241394
1696083232813621200,6.219621337890625,-4.520252704620361,-9.083900451660156,0.014365210197865963
1696083232823621400,6.229621337890625,-3.2752678394317627,-9.07911205291748,0.27054479718208313
1696083232833621200,6.239621337890625,-1.678335428237915,-9.091083526611328,0.4141969084739685
1696083232843621400,6.249621337890625,-0.002394201699644327,-9.019257545471191,0.16998831927776337
1696083232853621200,6.259621337890625,1.3551181554794312,-9.01207447052002,-0.1173158809542656
1696083232863621400,6.269621337890625,2.1140801906585693,-8.961795806884766,-0.16759411990642548
1696083232873621200,6.279621337890625,2.0614075660705566,-9.028834342956543,-0.07422025501728058
1696083232883621400,6.289621337890625,1.1563993692398071,-9.201216697692871,-0.06464344263076782
1696083232893621200,6.299621337890625,0.06703764945268631,-9.414299964904785,-0.2346317619085312
1696083232903621400,6.309621337890625,-0.7613561153411865,-9.639355659484863,-0.45250412821769714
1696083232913621200,6.319621337890625,-1.01753568649292,-9.933841705322266,-0.5650315880775452
1696083232923621400,6.329621337890625,-0.6488286852836609,-10.350433349609375,-0.5602431893348694
1696083232933621200,6.339621337890625,0.24420857429504395,-10.77660083770752,-0.4668693244457245
1696083232943621400,6.349621337890625,1.5945383310317993,-10.999261856079102,-0.272938996553421
1696083232953621000,6.35962109375,2.9328970909118652,-11.0208101272583,0.08858546614646912
1696083232963620900,6.369620849609375,3.6367924213409424,-10.80772590637207,0.6344634294509888
1696083232973621000,6.37962109375,3.272873640060425,-10.35522174835205,1.2282254695892334
1696083232983620900,6.389620849609375,2.073378562927246,-10.065523147583008,1.8483237028121948
1696083232993621000,6.39962109375,0.36152446269989014,-10.120590209960938,2.585737943649292
1696083233003620900,6.409620849609375,-1.381454348564148,-10.477325439453125,3.423708438873291
1696083233013621000,6.41962109375,-2.6599581241607666,-10.872368812561035,4.321534156799316
1696083233023620900,6.429620849609375,-3.0095114707946777,-11.186009407043457,5.308244228363037
1696083233033621000,6.43962109375,-1.9273324012756348,-11.300930976867676,6.110301971435547
1696083233043620900,6.449620849609375,0.031124621629714966,-11.842020988464355,6.505345344543457
1696083233053621000,6.45962109375,1.9943699836730957,-12.90025806427002,6.541258335113525
1696083233063620900,6.469620849609375,3.3518824577331543,-13.63288402557373,5.954679012298584
1696083233073621000,6.47962109375,4.046200752258301,-13.771747589111328,4.841075897216797
1696083233083620900,6.489620849609375,3.9695863723754883,-13.709498405456543,3.734954595565796
1696083233093621000,6.49962109375,3.579331636428833,-13.443741798400879,2.82515811920166
1696083233103620900,6.509620849609375,2.9065608978271484,-13.225869178771973,2.2457611560821533
1696083233113621000,6.51962109375,2.5258827209472656,-13.089400291442871,1.455674648284912
1696083233123621000,6.52962109375,2.2601263523101807,-13.031939506530762,0.5027823448181152
1696083233133621000,6.53962109375,1.8746598958969116,-13.333608627319336,-0.4596867263317108
1696083233143620900,6.549620849609375,1.015141487121582,-13.946524620056152,-1.1827356815338135
1696083233153620200,6.5596201171875,-0.17477671802043915,-14.48043155670166,-1.9177556037902832
1696083233163620400,6.569620361328125,-1.3311761617660522,-15.455170631408691,-3.509899616241455
1696083233173620200,6.5796201171875,-2.097320795059204,-16.039356231689453,-4.613626480102539
1696083233183620400,6.589620361328125,-2.999934673309326,-16.38172721862793,-5.514145851135254
1696083233193620200,6.5996201171875,-3.9169139862060547,-16.017807006835938,-6.376058578491211
1696083233203620400,6.609620361328125,-4.0078935623168945,-14.64084243774414,-6.0743889808654785
1696083233213620200,6.6196201171875,-3.318363666534424,-13.094188690185547,-5.188534259796143
1696083233223620000,6.6296201171875,-2.183511972427368,-11.87314510345459,-3.8067808151245117
1696083233233620200,6.6396201171875,-0.8930372595787048,-10.946589469909668,-2.5474305152893066
1696083233243620000,6.6496201171875,0.9888052940368652,-10.369586944580078,-1.2976573705673218
1696083233253620500,6.659620361328125,1.1635819673538208,-10.127772331237793,-0.3711012601852417
1696083233263620600,6.66962060546875,0.38307225704193115,-9.89553451538086,0.4141969084739685
1696083233273620700,6.679620849609375,-0.3758896589279175,-9.519645690917969,0.9576807022094727
1696083233283620600,6.68962060546875,-1.0007762908935547,-9.024045944213867,1.3192051649093628
1696083233293620700,6.699620849609375,-1.4317326545715332,-8.585906982421875,1.5682021379470825
1696083233303620600,6.70962060546875,-1.7381904125213623,-8.133402824401855,1.5155296325683594
1696083233313620700,6.719620849609375,-1.623268723487854,-7.719205379486084,1.359906554222107
1696083233323620600,6.72962060546875,-1.886630892753601,-7.293037414550781,1.0103530883789062
1696083233333620700,6.739620849609375,-1.8602946996688843,-6.864475727081299,0.5841852426528931
1696083233343620600,6.74962060546875,-1.8171991109848022,-6.598719120025635,0.07661445438861847
1696083233353620700,6.759620849609375,-1.7741034030914307,-6.704063892364502,-0.4812345504760742
1696083233363620600,6.76962060546875,-1.7286136150360107,-6.878840923309326,-1.1061211824417114
1696083233373620700,6.779620849609375,-1.7908629179000854,-6.984185695648193,-1.501164436340332
1696083233383620600,6.78962060546875,-1.7501614093780518,-6.986579895019531,-1.800439715385437
1696083233393620700,6.799620849609375,-1.742978811264038,-6.869264125823975,-2.008735179901123
1696083233403620600,6.80962060546875,-1.7980455160140991,-6.684910297393799,-1.9823989868164062
1696083233413620700,6.819620849609375,-2.0925323963165283,-6.529287338256836,-1.9847931861877441
1696083233423620600,6.82962060546875,-2.2888567447662354,-6.258742332458496,-2.0039467811584473
1696083233433620700,6.839620849609375,-2.3247697353363037,-5.925948619842529,-2.10210919380188
1696083233443620600,6.84962060546875,-2.2385785579681396,-5.516540050506592,-2.276885747909546
1696083233453621500,6.85962158203125,-2.164358377456665,-5.083189487457275,-2.6431987285614014
1696083233463621400,6.869621337890625,-2.027888774871826,-4.639962673187256,-3.1076738834381104
1696083233473621500,6.87962158203125,-1.702277421951294,-4.206612586975098,-3.6822822093963623
1696083233483621400,6.889621337890625,-1.2545616626739502,-3.732560396194458,-4.141968727111816
1696083233493621000,6.89962109375,-0.7493851184844971,-3.378218650817871,-4.252102375030518
1696083233503621000,6.90962109375,-0.17717093229293823,-3.3949780464172363,-3.869029998779297
1696083233513621000,6.91962109375,0.5674257874488831,-3.9049429893493652,-2.7269957065582275
1696083233523621000,6.92962109375,1.5873557329177856,-4.824316501617432,-1.05105459690094
1696083233533621000,6.93962109375,3.1651346683502197,-6.222829341888428,0.790086567401886
1696083233543621000,6.94962109375,6.043264389038086,-8.382399559020996,2.5929205417633057
1696083233553622300,6.959622314453125,10.264242172241211,-11.209951400756836,4.776432514190674
1696083233563623200,6.969623046875,11.616966247558594,-13.637672424316406,7.01052188873291
1696083233573623000,6.979623046875,10.9585599899292,-15.550938606262207,9.459790229797363
1696083233583623200,6.989623046875,11.640908241271973,-17.380107879638672,11.195586204528809
1696083233593623000,6.999623046875,12.000038146972656,-18.677766799926758,11.336844444274902
1696083233603623200,7.009623046875,10.178050994873047,-18.265962600708008,9.416694641113281
1696083233613623000,7.019623046875,7.733570575714111,-15.677831649780273,6.414365768432617
1696083233623623200,7.029623046875,5.360917091369629,-12.08383560180664,3.957615375518799
1696083233633623000,7.039623046875,3.892971992492676,-8.530839920043945,2.808398485183716
1696083233643623000,7.049622802734375,2.9496564865112305,-6.8501105308532715,1.7142484188079834
1696083233653623000,7.059623046875,2.477998733520508,-8.07354736328125,1.1348515748977661
1696083233663623000,7.069622802734375,1.886630892753601,-10.132560729980469,0.6655880808830261
1696083233673623000,7.079623046875,1.5969325304031372,-13.003209114074707,0.035913024097681046
1696083233683623000,7.089622802734375,0.7829039692878723,-16.25962257385254,-0.7038952708244324
1696083233693623000,7.099623046875,-0.3663128614425659,-18.349760055541992,-1.8052281141281128
1696083233703623000,7.109622802734375,1.7549498081207275,-19.405603408813477,-3.993528366088867
1696083233713623000,7.119623046875,-1.7166426181793213,-15.644312858581543,-4.027047157287598
1696083233723623000,7.129622802734375,-3.246537446975708,-11.396698951721191,-2.8443117141723633
1696083233733623000,7.139623046875,-3.687070608139038,-8.822932243347168,-1.9105730056762695
1696083233743623000,7.149622802734375,-4.869806289672852,-7.281066417694092,-1.8076223134994507
1696083233753623000,7.159623046875,-6.285078525543213,-6.086359977722168,-2.3319525718688965
1696083233763623000,7.169622802734375,-6.957849502563477,-4.946720123291016,-2.808398485183716
1696083233773623000,7.179623046875,-6.115090370178223,-4.73573112487793,-2.2864625453948975
1696083233783623000,7.189622802734375,-4.946720123291016,-5.313032627105713,-1.4460978507995605
1696083233793623300,7.199623291015625,-5.02094030380249,-5.882853031158447,-0.6272808313369751
1696083233803623400,7.20962353515625,-5.260360240936279,-6.605901718139648,-0.7924807667732239
1696083233813623300,7.219623291015625,-4.522646903991699,-7.747935771942139,-1.2210428714752197
1696083233823623000,7.229622802734375,-3.4524388313293457,-9.059958457946777,-1.1348515748977661
1696083233833623000,7.239623046875,-2.6671407222747803,-10.16368579864502,-0.6392518281936646
1696083233843623200,7.249623046875,-1.944091796875,-11.008838653564453,0.2322375625371933
1696083233853621800,7.259621826171875,-0.5961562395095825,-11.403882026672363,1.501164436340332
1696083233863620900,7.269620849609375,1.3287819623947144,-11.468525886535645,2.734178304672241
1696083233873621000,7.27962109375,3.1723172664642334,-11.157279014587402,3.404554843902588
1696083233883620900,7.289620849609375,4.338293552398682,-10.450989723205566,3.3470940589904785
1696083233893621000,7.29962109375,4.347870349884033,-9.471760749816895,2.609679937362671
1696083233903620900,7.309620849609375,3.294421434402466,-8.602665901184082,1.577778935432434
1696083233913621000,7.31962109375,1.7573440074920654,-8.126219749450684,0.47165772318840027
1696083233923620900,7.329620849609375,0.1867477297782898,-7.94904899597168,-0.40940847992897034
1696083233933621000,7.33962109375,-1.0414776802062988,-8.049605369567871,-1.2737152576446533
1696083233943620900,7.349620849609375,-1.98958158493042,-8.552388191223145,-1.8148049116134644
1696083233953621000,7.35962109375,-2.4875755310058594,-9.146149635314941,-1.8171991109848022
1696083233963620900,7.369620849609375,-2.3511061668395996,-9.814131736755371,-1.53707754611969
1696083233973621000,7.37962109375,-2.7222073078155518,-9.87159252166748,-1.501164436340332
1696083233983620900,7.389620849609375,-3.3423056602478027,-9.754277229309082,-1.213860273361206
1696083233993621000,7.39962109375,-2.8562827110290527,-9.596260070800781,-0.7469909191131592
1696083234003620900,7.409620849609375,-1.3982137441635132,-9.404723167419434,-0.2106897532939911
1696083234013621000,7.41962109375,0.15801730751991272,-9.25867748260498,0.4189853072166443
1696083234023620900,7.429620849609375,1.5682021379470825,-9.122207641601562,0.9624691009521484
1696083234033621000,7.43962109375,2.365471363067627,-9.024045944213867,1.5849615335464478
1696083234043620900,7.449620849609375,2.557007312774658,-8.873210906982422,2.0590133666992188
1696083234053621000,7.45962109375,1.920149803161621,-8.825326919555664,2.3080103397369385
1696083234063620900,7.469620849609375,0.8954314589500427,-8.918700218200684,2.3127987384796143
1696083234073621000,7.47962109375,-0.21787235140800476,-9.215581893920898,1.9345149993896484
1696083234083620900,7.489620849609375,-0.751779317855835,-9.749488830566406,1.1324573755264282
1696083234093621000,7.49962109375,-0.1604115068912506,-10.47253704071045,0.35913026332855225
1696083234103620900,7.509620849609375,1.2090718746185303,-11.073482513427734,-0.22744916379451752
1696083234113621000,7.51962109375,2.5929205417633057,-11.406275749206543,-0.7445967197418213
1696083234123621400,7.529621337890625,3.2417490482330322,-11.547533988952637,-1.0630255937576294
1696083234133621200,7.539621337890625,3.1890766620635986,-11.396698951721191,-1.0606313943862915
1696083234143621400,7.549621337890625,2.5546131134033203,-10.8412446975708,-0.45489832758903503
1696083234153621200,7.559621337890625,1.6974890232086182,-10.44620132446289,0.49559974670410156
1696083234163621400,7.569621337890625,0.5003881454467773,-10.580276489257812,1.9105730056762695
1696083234173621200,7.579621337890625,-0.2537853717803955,-10.994473457336426,3.0550012588500977
1696083234183621400,7.589621337890625,-0.8667010068893433,-11.616966247558594,4.551377296447754
1696083234193621200,7.599621337890625,-0.7876923680305481,-12.062287330627441,5.739200592041016
1696083234203621400,7.609621337890625,0.26096799969673157,-12.450148582458496,7.065588474273682
1696083234213622000,7.6196220703125,1.922544002532959,-12.30170726776123,7.465420246124268
1696083234223588900,7.6295888671875,4.1156325340271,-12.196362495422363,7.328950881958008
1696083234233555500,7.639555419921875,5.827786445617676,-12.737452507019043,7.036858081817627
1696083234243522000,7.64952197265625,6.268319129943848,-13.379097938537598,6.565200328826904
1696083234253488600,7.659488525390625,5.485415458679199,-13.630489349365234,5.645826816558838
1696083234263455500,7.66945556640625,3.976768970489502,-13.604153633117676,4.462791919708252
1696083234273422000,7.679422119140625,2.9281086921691895,-13.465290069580078,3.756502389907837
1696083234283388700,7.689388671875,1.2521674633026123,-13.45331859588623,3.555389642715454
1696083234293355500,7.69935546875,-0.545877993106842,-13.714286804199219,2.806004285812378
1696083234303322000,7.709322021484375,-1.482010841369629,-14.363115310668945,1.702277421951294
1696083234313288700,7.719288818359375,-2.054224967956543,-15.289970397949219,0.950498104095459
1696083234323255300,7.72925537109375,-2.389413356781006,-16.400880813598633,-0.4357447028160095
1696083234333222100,7.73922216796875,-2.7437551021575928,-17.791912078857422,-2.7102363109588623
1696083234343188700,7.749188720703125,-2.8395233154296875,-19.041685104370117,-5.155015468597412
1696083234353155300,7.7591552734375,-3.6607344150543213,-19.645023345947266,-6.66096830368042
1696083234363122200,7.7691220703125,-4.946720123291016,-18.344972610473633,-7.082347869873047
1696083234373088800,7.7790888671875,-4.55616569519043,-15.457564353942871,-7.039252281188965
1696083234383055400,7.789055419921875,-2.3942017555236816,-12.938565254211426,-5.866093635559082
1696083234393022000,7.79902197265625,0.09816227108240128,-11.6337251663208,-3.864241600036621
1696083234402988800,7.80898876953125,3.4141316413879395,-10.795754432678223,-2.188300371170044
1696083234412955400,7.818955322265625,3.397372245788574,-10.53478717803955,-1.2880805730819702
1696083234422922000,7.828921875,1.2210428714752197,-10.3240966796875,-0.7948749661445618
1696083234432888800,7.838888916015625,-0.7110779285430908,-9.92665958404541,-0.06703764945268631
1696083234442855400,7.84885546875,-1.7381904125213623,-9.179668426513672,0.4596867263317108
1696083234452822000,7.858822021484375,-1.644816517829895,-8.183680534362793,0.8858546018600464
1696083234462788900,7.868788818359375,-1.6280571222305298,-7.19248104095459,0.8355764150619507
1696083234472755500,7.87875537109375,-1.7956513166427612,-6.359299182891846,0.730231523513794
1696083234482722000,7.88872216796875,-2.6623523235321045,-5.6984992027282715,0.790086567401886
1696083234492688600,7.898688720703125,-2.63362193107605,-5.0784010887146,0.6560112833976746
1696083234502655500,7.908655517578125,-1.6400281190872192,-4.913201332092285,0.1173158809542656
1696083234512621300,7.918621337890625,-0.8738836050033569,-5.183745861053467,-0.6129156351089478
1696083234522621200,7.92862109375,-0.9552865028381348,-5.559635639190674,-1.3072341680526733
1696083234532621300,7.938621337890625,-1.3670891523361206,-5.873276233673096,-1.7860745191574097
1696083234542621200,7.94862109375,-1.742978811264038,-6.198887348175049,-1.9153614044189453
1696083234552621300,7.958621337890625,-1.886630892753601,-6.366481781005859,-1.8507179021835327
1696083234562621200,7.96862109375,-2.0374655723571777,-6.371270179748535,-1.7286136150360107
1696083234572621300,7.978621337890625,-2.094926595687866,-6.213252544403076,-1.5873557329177856
1696083234582621200,7.98862109375,-2.209848165512085,-5.909189224243164,-1.5945383310317993
1696083234592621300,7.998621337890625,-2.3367409706115723,-5.514145851135254,-1.8124107122421265
1696083234602621200,8.00862109375,-2.655169725418091,-5.054459095001221,-2.248155355453491
1696083234612621300,8.018621337890625,-2.8874073028564453,-4.632780075073242,-2.8658595085144043
1696083234622621200,8.02862109375,-2.873042106628418,-4.3191399574279785,-3.507505416870117
1696083234632621300,8.038621337890625,-2.492363929748535,-3.952826976776123,-4.127603530883789
1696083234642621200,8.04862109375,-1.9752163887023926,-3.4524388313293457,-4.671087741851807
1696083234652621300,8.058621337890624,-1.5849615335464478,-3.141192674636841,-4.812345504760742
1696083234662621200,8.06862109375,-0.912190854549408,-3.4739866256713867,-3.9600095748901367
1696083234672621300,8.078621337890626,0.5674257874488831,-4.41969633102417,-1.625662922859192
1696083234682621200,8.08862109375,2.2912509441375732,-5.6099138259887695,0.569819986820221
1696083234692621300,8.098621337890625,4.69024133682251,-7.630620002746582,2.5522189140319824
1696083234702621200,8.10862109375,8.595483779907227,-10.673650741577148,4.592078685760498
1696083234712621300,8.118621337890625,10.858003616333008,-13.886669158935547,6.943484306335449
1696083234722621200,8.12862109375,10.553940773010254,-16.640300750732422,10.067917823791504
1696083234732621300,8.138621337890624,10.98968505859375,-18.775928497314453,12.747029304504395
1696083234742621200,8.14862109375,12.19875717163086,-19.273921966552734,13.180379867553711
1696083234752621300,8.158621337890626,10.666467666625977,-17.90204429626465,11.26262378692627
1696083234762621200,8.16862109375,8.92109489440918,-15.091252326965332,7.803002834320068
1696083234772621300,8.178621337890625,6.75194787979126,-13.221080780029297,4.733336925506592
1696083234782621200,8.18862109375,5.243600845336914,-12.960113525390625,2.6455929279327393
1696083234792621300,8.198621337890625,4.1874589920043945,-13.810054779052734,1.4317326545715332
1696083234802621200,8.20862109375,3.0550012588500977,-14.954782485961914,0.16998831927776337
1696083234812621300,8.218621337890625,1.8507179021835327,-15.881338119506836,-0.6727706789970398
1696083234822621200,8.22862109375,1.9560627937316895,-16.649877548217773,-1.6831238269805908
1696083234832621300,8.238621337890624,4.455609321594238,-17.305889129638672,-3.177105665206909
1696083234842621200,8.24862109375,3.1004912853240967,-16.410457611083984,-4.721365928649902
1696083234852621300,8.258621337890625,-2.43011474609375,-13.85075569152832,-4.903624534606934
1696083234862621200,8.26862109375,-5.29387903213501,-10.56112289428711,-4.508281707763672
1696083234872621300,8.278621337890625,-5.739200592041016,-7.688080787658691,-3.6104562282562256
1696083234882621200,8.28862109375,-6.263530731201172,-5.624279022216797,-2.82515811920166
1696083234892621300,8.298621337890625,-7.060800075531006,-3.866635799407959,-2.853888511657715
1696083234902621200,8.30862109375,-7.120655059814453,-2.8443117141723633,-2.6815059185028076
1696083234912621300,8.318621337890624,-6.634632110595703,-2.8155810832977295,-1.5753847360610962
1696083234922621200,8.32862109375,-6.488585948944092,-3.2178070545196533,-0.6248866319656372
1696083234932621300,8.338621337890626,-6.136638164520264,-3.9647979736328125,-0.3734954595565796
1696083234942621000,8.348620849609375,-5.0592474937438965,-5.432743072509766,-0.3711012601852417
1696083234952620800,8.358620849609375,-3.93367338180542,-7.352892875671387,-0.40222588181495667
1696083234962621000,8.368620849609375,-3.1483752727508545,-9.340080261230469,-0.2585737705230713
1696083234972620800,8.378620849609375,-2.9281086921691895,-11.162067413330078,0.002394201699644327
1696083234982621000,8.388620849609374,-2.985569477081299,-12.275371551513672,0.24660277366638184
1696083234992620800,8.398620849609374,-3.5482068061828613,-12.917016983032227,0.6967126727104187
1696083235002621000,8.408620849609376,-2.1045033931732178,-13.000814437866211,2.229001760482788
1696083235012620800,8.418620849609376,0.6631938815116882,-12.399869918823242,3.7660791873931885
1696083235022621000,8.428620849609375,3.399766445159912,-11.236288070678711,4.28322696685791
1696083235032620800,8.438620849609375,5.262754440307617,-9.76864242553711,3.5027170181274414
1696083235042621000,8.448620849609375,6.347328186035156,-8.547599792480469,2.1164743900299072
1696083235052620800,8.458620849609375,6.421548366546631,-7.719205379486084,0.24181437492370605
1696083235062621000,8.468620849609374,5.049670696258545,-7.743147373199463,-1.0678139925003052
1696083235072620800,8.478620849609374,2.8993782997131348,-8.238747596740723,-1.5729905366897583
1696083235082621000,8.488620849609376,0.2082955539226532,-9.268254280090332,-1.8770540952682495
1696083235092620800,8.498620849609376,-1.6735470294952393,-9.979331970214844,-2.0446481704711914
1696083235102621000,8.508620849609375,-2.6192567348480225,-10.024822235107422,-1.680729627609253
1696083235112620800,8.518620849609375,-3.2369606494903564,-9.89553451538086,-1.2090718746185303
1696083235122621000,8.528620849609375,-3.5218706130981445,-9.814131736755371,-0.5339069962501526
1696083235132620800,8.538620849609375,-2.5737667083740234,-9.47415542602539,0.035913024097681046
1696083235142621000,8.548620849609375,-0.9074024558067322,-8.88757610321045,0.26096799969673157
1696083235152620800,8.558620849609374,0.47884035110473633,-8.459013938903809,0.3256114423274994
1696083235162621000,8.568620849609376,1.4867992401123047,-8.497321128845215,0.5674257874488831
1696083235172620800,8.578620849609376,1.8698714971542358,-8.751106262207031,0.7948749661445618
1696083235182621000,8.588620849609375,1.3479355573654175,-9.196428298950195,1.0079588890075684
1696083235192620800,8.598620849609375,0.26096799969673157,-9.502885818481445,1.0989385843276978
1696083235202621000,8.608620849609375,-1.048660397529602,-9.735123634338379,1.1659762859344482
1696083235212620800,8.618620849609375,-1.8579005002975464,-9.972148895263672,1.091755986213684
1696083235222621000,8.628620849609375,-1.968033790588379,-10.237905502319336,1.0414776802062988
1696083235232620800,8.638620849609374,-1.259350061416626,-10.441412925720215,0.9744400978088379
1696083235242621400,8.648621337890624,0.10295066982507706,-10.553940773010254,0.9816226959228516
1696083235252621300,8.658621337890626,1.8770540952682495,-10.671256065368652,1.1420341730117798
1696083235262621200,8.66862109375,3.665522813796997,-10.764630317687988,1.4389152526855469
1696083235272621300,8.678621337890625,4.726154327392578,-10.8412446975708,1.7094600200653076
1696083235282621200,8.68862109375,4.441244125366211,-10.781389236450195,1.9129672050476074
1696083235292621300,8.698621337890625,3.246537446975708,-10.721534729003906,2.2625205516815186
1696083235302621200,8.70862109375,1.601720929145813,-10.838850021362305,2.8778305053710938
1696083235312621300,8.718621337890625,-0.016759412363171577,-11.071087837219238,3.7445313930511475
1696083235322621200,8.72862109375,-1.0462661981582642,-11.279383659362793,4.879383087158203
1696083235332621300,8.738621337890624,-1.235408067703247,-11.35360336303711,6.093542575836182
1696083235342621200,8.74862109375,-0.4141969084739685,-11.121366500854492,7.070376873016357
1696083235352621300,8.758621337890625,1.3527239561080933,-10.762235641479492,7.6210432052612305
1696083235362621200,8.76862109375,3.624821424484253,-10.853215217590332,7.494150638580322
1696083235372621300,8.778621337890625,5.200505256652832,-11.430217742919922,6.629843711853027
1696083235382621200,8.78862109375,5.243600845336914,-12.112565994262695,5.384859085083008
1696083235392621300,8.798621337890625,4.49870491027832,-12.44775390625,4.163516521453857
1696083235402621400,8.808621337890624,4.022258758544922,-12.62971305847168,3.047818660736084
1696083235412621300,8.818621337890624,3.7253777980804443,-12.854767799377441,2.1475989818573
1696083235422621400,8.828621337890626,2.873042106628418,-13.225869178771973,1.599326729774475
1696083235432621300,8.838621337890626,0.9457096457481384,-13.836390495300293,1.8076223134994507
1696083235442621400,8.848621337890625,-1.3048399686813354,-14.631265640258789,1.8195933103561401
1696083235452621300,8.858621337890625,-2.741360902786255,-15.546150207519531,0.9385270476341248
1696083235462621400,8.868621337890625,-2.9927520751953125,-16.793529510498047,-0.6727706789970398
1696083235472621300,8.878621337890625,-2.209848165512085,-18.380884170532227,-2.6862943172454834
1696083235482621400,8.888621337890624,-1.9105730056762695,-19.886837005615234,-4.9922099113464355
1696083235492621300,8.898621337890624,-2.75812029838562,-20.686500549316406,-6.969820499420166
1696083235502621200,8.90862109375,-4.005499362945557,-19.85331916809082,-8.044816970825195
1696083235512621300,8.918621337890626,-4.266467571258545,-17.293916702270508,-8.583512306213379
1696083235522621200,8.92862109375,-2.1356279850006104,-14.061446189880371,-7.829339027404785
1696083235532621300,8.938621337890625,1.1803414821624756,-11.74864673614502,-6.390423774719238
1696083235542621200,8.94862109375,3.090914487838745,-10.32170295715332,-4.680664539337158
1696083235552621300,8.958621337890625,2.9305028915405273,-9.591471672058105,-3.043030261993408
1696083235562621200,8.96862109375,0.7134721279144287,-9.502885818481445,-1.7980455160140991
1696083235572621300,8.978621337890624,-2.762908697128296,-9.462183952331543,-1.2497732639312744
1696083235582621200,8.98862109375,-4.223371982574463,-9.088688850402832,0.18914192914962769
1696083235592621300,8.998621337890626,-2.8347349166870117,-8.418312072753906,1.091755986213684
1696083235602621200,9.00862109375,-0.6320692300796509,-7.491756439208984,1.580173134803772
1696083235612621300,9.018621337890625,0.2585737705230713,-6.7136406898498535,1.7764976024627686
1696083235622621200,9.02862109375,-0.4572925269603729,-6.012139797210693,1.802833914756775
1696083235632621300,9.038621337890625,-1.0031704902648926,-5.4351372718811035,1.7908629179000854
1696083235642621200,9.04862109375,-0.7637503147125244,-5.068824291229248,1.5921441316604614
1696083235652621300,9.058621337890624,-0.4812345504760742,-5.291484832763672,1.1180921792984009
1696083235662621200,9.06862109375,-0.5339069962501526,-5.777507781982422,0.47884035110473633
1696083235672621300,9.078621337890626,-0.8690952062606812,-6.196493148803711,-0.14604631066322327
1696083235682621200,9.08862109375,-1.0773907899856567,-6.510133743286133,-0.8164227604866028
1696083235692621300,9.098621337890625,-1.2401964664459229,-6.52449893951416,-1.3982137441635132
1696083235702621200,9.10862109375,-1.4173674583435059,-6.426336765289307,-1.802833914756775
1696083235712621300,9.118621337890625,-1.8818424940109253,-6.165368556976318,-2.0207061767578125
1696083235722621200,9.12862109375,-2.298433542251587,-5.772719383239746,-2.2840683460235596
1696083235732621300,9.138621337890624,-2.5761611461639404,-5.250783443450928,-2.5498247146606445
1696083235742621200,9.14862109375,-2.6455929279327393,-4.754884719848633,-2.786850690841675
1696083235752621300,9.158621337890626,-2.6862943172454834,-4.304774761199951,-2.920926094055176
1696083235762621200,9.16862109375,-2.650381326675415,-3.8738183975219727,-3.1723172664642334
1696083235772622300,9.178622314453126,-2.3343467712402344,-3.49314022064209,-3.6176388263702393
1696083235782622500,9.18862255859375,-1.8076223134994507,-3.114856481552124,-4.079719543457031
1696083235792622300,9.198622314453125,-1.1516109704971313,-2.849100112915039,-4.355052947998047
1696083235802622500,9.20862255859375,-0.5147533416748047,-2.913743495941162,-4.07014274597168
1696083235812622300,9.218622314453125,0.2082955539226532,-3.6750996112823486,-2.6815059185028076
1696083235822622500,9.22862255859375,1.4389152526855469,-4.879383087158203,-0.5985504388809204
1696083235832622300,9.238622314453124,3.4811692237854004,-6.548440933227539,2.051830768585205
1696083235842622500,9.24862255859375,6.744765281677246,-9.105448722839355,4.771644115447998
1696083235852622000,9.2586220703125,10.95616626739502,-12.474090576171875,7.647379398345947
1696083235862622200,9.268622314453125,12.363956451416016,-15.962740898132324,10.814908027648926
1696083235872622000,9.2786220703125,10.647314071655273,-18.428768157958984,13.501202583312988
1696083235882622200,9.288622314453125,10.405499458312988,-19.170970916748047,13.771747589111328
1696083235892622300,9.298622314453125,11.20276927947998,-18.20132064819336,13.09179401397705
1696083235902622200,9.308622314453125,9.124602317810059,-15.685013771057129,11.849203109741211
1696083235912622300,9.318622314453124,7.142202854156494,-12.816460609436035,7.925107002258301
1696083235922622200,9.328622314453124,5.107131481170654,-9.902717590332031,4.908412933349609
1696083235932622300,9.338622314453126,3.1483752727508545,-7.142202854156494,2.942473888397217
1696083235942622200,9.348622314453126,1.7812861204147339,-5.76793098449707,0.993593692779541
1696083235952622300,9.358622314453125,1.5921441316604614,-7.338527679443359,-0.1173158809542656
1696083235962622200,9.368622314453125,1.3431471586227417,-10.247482299804688,-1.1420341730117798
1696083235972622300,9.378622314453125,0.7757213711738586,-13.630489349365234,-2.121262788772583
1696083235982622200,9.388622314453125,0.3974374830722809,-16.716915130615234,-2.762908697128296
1696083235992622300,9.398622314453124,-0.29209262132644653,-19.108722686767578,-3.5673606395721436
1696083236002622200,9.408622314453124,4.146757125854492,-20.966623306274414,-4.8482584953308105
1696083236012622300,9.418622314453126,0.5195417404174805,-17.466299057006836,-3.974374771118164
1696083236022622200,9.428622314453126,-2.717418909072876,-13.972860336303711,-3.509899616241455
1696083236032622300,9.438622314453125,-4.086902141571045,-12.162843704223633,-2.470816135406494
1696083236042622200,9.448622314453125,-5.483021259307861,-10.450989723205566,-2.274491548538208
1696083236052622300,9.458622314453125,-6.562806129455566,-8.267477989196777,-2.8227639198303223
1696083236062622200,9.468622314453125,-7.391200065612793,-6.060023784637451,-2.9089550971984863
1696083236072621000,9.47862109375,-6.4957685470581055,-4.78122091293335,-2.851494312286377
1696083236082621200,9.48862109375,-5.8996124267578125,-4.0749311447143555,-2.9951462745666504
1696083236092621000,9.49862109375,-6.555623531341553,-4.089296340942383,-1.8387469053268433
1696083236102621200,9.50862109375,-6.045658588409424,-4.596867084503174,-0.7134721279144287
1696083236112621000,9.51862109375,-4.855441093444824,-5.557241439819336,0.047884032130241394
1696083236122621200,9.52862109375,-3.3446998596191406,-7.087136268615723,0.33279404044151306
1696083236132621000,9.53862109375,-2.497152328491211,-8.597877502441406,0.3471592366695404
1696083236142621200,9.54862109375,-2.0925323963165283,-9.931447982788086,0.2968810200691223
1696083236152621600,9.55862158203125,-1.8722656965255737,-11.123760223388672,0.33279404044151306
1696083236162621400,9.568621337890624,-0.6823474764823914,-12.344802856445312,1.1348515748977661
1696083236172621600,9.57862158203125,2.341529369354248,-13.003209114074707,2.7509377002716064
1696083236182621400,9.588621337890626,5.916371822357178,-12.940959930419922,4.010287761688232
1696083236192621300,9.598621337890625,8.427888870239258,-11.889904975891113,4.041412353515625
1696083236202621200,9.60862109375,8.789413452148438,-10.458171844482422,3.069366693496704
1696083236212621300,9.618621337890625,7.091924667358398,-9.019257545471191,1.6208745241165161
1696083236222621200,9.62862109375,4.448426723480225,-7.9538373947143555,0.07422025501728058
1696083236232621300,9.638621337890624,1.2856862545013428,-7.479785442352295,-0.9313444495201111
1696083236242621200,9.64862109375,-1.460463047027588,-7.786243438720703,-1.3862427473068237
1696083236252621300,9.658621337890626,-3.31118106842041,-8.205228805541992,-1.2617442607879639
1696083236262621200,9.66862109375,-4.436455726623535,-8.784625053405762,-1.0630255937576294
1696083236272621300,9.678621337890625,-5.375282287597656,-9.222764015197754,-0.8020575642585754
1696083236282621200,9.68862109375,-6.040870189666748,-9.447818756103516,-0.3878606855869293
1696083236292621300,9.698621337890625,-5.887641429901123,-9.189245223999023,0.0933738648891449
1696083236302621200,9.70862109375,-4.426878929138184,-8.856451034545898,1.0295066833496094
1696083236312621300,9.718621337890625,-2.7533318996429443,-8.691251754760742,1.659181833267212
1696083236322621200,9.72862109375,-1.2545616626739502,-8.746317863464355,1.8794482946395874
1696083236332621300,9.738621337890624,0.21308395266532898,-8.880393028259277,2.0207061767578125
1696083236342621200,9.74862109375,1.5610195398330688,-8.901941299438477,2.10210919380188
1696083236352621300,9.758621337890625,2.2385785579681396,-8.997709274291992,2.078166961669922
1696083236362621200,9.76862109375,2.054224967956543,-9.160514831542969,1.7764976024627686
1696083236372621300,9.778621337890625,1.2665326595306396,-9.392752647399902,1.036689281463623
1696083236382621200,9.78862109375,0.5363011956214905,-9.952995300292969,0.363918662071228
1696083236392621300,9.798621337890625,0.4165911078453064,-10.55872917175293,-0.17477671802043915
1696083236402621200,9.80862109375,1.05105459690094,-10.929829597473145,-0.569819986820221
1696083236412621300,9.818621337890624,2.1739351749420166,-10.81011962890625,-0.8834604024887085
1696083236422621200,9.82862109375,3.1483752727508545,-10.577882766723633,-0.7589619159698486
1696083236432621300,9.838621337890626,3.268085241317749,-10.589853286743164,-0.26815059781074524
1696083236442621200,9.84862109375,2.5115175247192383,-10.695198059082031,0.6392518281936646
1696083236452621300,9.858621337890625,1.357512354850769,-10.62816047668457,1.5322890281677246
1696083236462621200,9.86862109375,0.3447650372982025,-10.403105735778809,2.185906171798706
1696083236472621300,9.878621337890625,-0.3471592366695404,-10.371980667114258,2.8371291160583496
1696083236482621200,9.88862109375,-0.9265560507774353,-10.563517570495605,3.6391866207122803
1696083236492621300,9.898621337890624,-1.3838485479354858,-10.8412446975708,4.570530891418457
1696083236502621200,9.90862109375,-1.5897499322891235,-10.93461799621582,5.471050262451172
1696083236512621300,9.918621337890626,-1.1013327836990356,-10.709563255310059,6.000168800354004
1696083236522621200,9.92862109375,0.4189853072166443,-10.403105735778809,6.012139797210693
1696083236532621300,9.938621337890625,2.5474305152893066,-10.340856552124023,5.272331237792969
1696083236542621200,9.94862109375,4.290409564971924,-10.941801071166992,4.3622355461120605
1696083236552621300,9.958621337890625,5.33697509765625,-12.44775390625,3.663128614425659
1696083236562621200,9.96862109375,5.928342819213867,-13.855544090270996,2.956839084625244
1696083236572621300,9.978621337890624,6.1174845695495605,-14.528315544128418,2.0446481704711914
1696083236582621200,9.98862109375,6.522104740142822,-14.492402076721191,0.9983820915222168
1696083236592621300,9.998621337890626,6.275501728057861,-14.221857070922852,0.6440402865409851
1696083236602621200,10.00862109375,3.6966474056243896,-14.171579360961914,1.5155296325683594
1696083236612621300,10.018621337890625,0.1149216815829277,-14.082993507385254,2.298433542251587
1696083236622621200,10.02862109375,-2.513911724090576,-13.93934154510498,2.1930887699127197
1696083236632621300,10.038621337890625,-3.6607344150543213,-14.35832691192627,1.048660397529602
1696083236642621200,10.04862109375,-3.708618402481079,-15.400103569030762,-0.7134721279144287
1696083236652621300,10.058621337890624,-3.0119056701660156,-16.977882385253906,-2.0925323963165283
1696083236662621200,10.06862109375,-3.220201253890991,-18.404827117919922,-3.4739866256713867
1696083236672621300,10.078621337890626,-4.206612586975098,-19.084779739379883,-4.709394931793213
1696083236682621200,10.08862109375,-4.754884719848633,-17.98105239868164,-5.092766284942627
1696083236976481800,10.382481689453124,-0.028730420395731926,-3.246537446975708,-2.6839001178741455
1696083236986481700,10.392481689453126,0.6703764796257019,-4.14915132522583,-0.6248866319656372
1696083236996481800,10.402481689453126,2.343923568725586,-5.284302234649658,1.5969325304031372
1696083237006482000,10.41248193359375,4.7405195236206055,-7.302614688873291,3.7493197917938232
1696083237016481800,10.422481689453125,7.331345081329346,-9.950601577758789,5.732017993927002
1696083237026481700,10.432481689453125,9.411906242370605,-12.761394500732422,8.154950141906738
1696083237036481800,10.442481689453125,9.87159252166748,-15.668254852294922,10.927435874938965
1696083237046482000,10.45248193359375,10.338461875915527,-18.119916915893555,14.001590728759766
1696083237056481800,10.462481689453124,12.249034881591797,-19.331382751464844,15.17265510559082
1696083237066481700,10.472481689453126,12.723087310791016,-19.12069320678711,14.791976928710938
1696083237076481800,10.482481689453126,10.671256065368652,-17.202938079833984,11.118971824645996
1696083237086482000,10.49248193359375,8.159738540649414,-14.456489562988281,6.244377136230469
1696083237096481800,10.502481689453125,5.24838924407959,-11.281777381896973,3.1866824626922607
1696083237106481700,10.512481689453125,3.112462282180786,-8.858845710754395,1.2617442607879639
1696083237116481800,10.522481689453125,3.2776620388031006,-8.631396293640137,-0.05746084079146385
1696083237126482000,10.53248193359375,3.5745432376861572,-10.388740539550781,-1.1803414821624756
1696083237136481800,10.542481689453124,2.4372973442077637,-13.426982879638672,-1.7477672100067139
1696083237146481700,10.552481689453124,1.1300631761550903,-16.56847381591797,-2.382230758666992
1696083237156481800,10.562481689453126,-0.8619126081466675,-18.749591827392578,-3.8091750144958496
1696083237166482000,10.57248193359375,-1.1444283723831177,-19.290681838989258,-6.440701961517334
1696083237176481800,10.582481689453125,-3.4524388313293457,-15.617976188659668,-7.434295654296875
1696083237186481700,10.592481689453125,-6.134243965148926,-12.208333969116211,-6.268319129943848
1696083237196481800,10.602481689453125,-6.608295917510986,-9.624990463256836,-4.999392509460449
1696083237206482000,10.61248193359375,-7.084742069244385,-7.882011413574219,-4.252102375030518
1696083237216481800,10.622481689453124,-7.735964775085449,-5.550058841705322,-3.7158010005950928
1696083237226482000,10.63248193359375,-7.065588474273682,-4.158728122711182,-3.56017804145813
1696083237236481800,10.642481689453126,-5.363311290740967,-3.4811692237854004,-2.889801502227783
1696083237246482000,10.65248193359375,-5.430348873138428,-3.3279404640197754,-2.0374655723571777
1696083237256481800,10.662481689453125,-5.451896667480469,-3.7924153804779053,-1.6065093278884888
1696083237266482000,10.67248193359375,-4.290409564971924,-5.303455829620361,-0.6248866319656372
1696083237276481800,10.682481689453125,-2.8395233154296875,-7.618649005889893,0.011971008032560349
1696083237286482000,10.69248193359375,-1.920149803161621,-9.471760749816895,0.21308395266532898
1696083237296481800,10.702481689453125,-1.601720929145813,-10.946589469909668,0.24899697303771973
1696083237306482000,10.71248193359375,-1.4389152526855469,-11.985672950744629,0.4357447028160095
1696083237316481800,10.722481689453126,-0.9816226959228516,-12.533945083618164,1.2210428714752197
1696083237326482000,10.73248193359375,0.4213795065879822,-12.773365020751953,2.669534921646118
1696083237336481800,10.742481689453125,2.956839084625244,-12.632107734680176,4.355052947998047
1696083237346482000,10.75248193359375,5.708076000213623,-11.849203109741211,5.166986465454102
1696083237356481800,10.762481689453125,7.649773597717285,-10.707169532775879,4.702212333679199
1696083237366482000,10.77248193359375,8.020874977111816,-9.682451248168945,3.361459255218506
1696083237376481800,10.782481689453125,6.584353923797607,-9.036016464233398,1.946485996246338
1696083237386482000,10.79248193359375,4.0294413566589355,-8.710405349731445,0.586579442024231
1696083237396481800,10.802481689453124,1.7477672100067139,-8.676886558532715,-0.4596867263317108
1696083237406482000,10.81248193359375,-0.22505496442317963,-8.904335021972656,-0.7206547260284424
1696083237416481800,10.822481689453125,-1.8914192914962769,-8.978555679321289,-0.7948749661445618
1696083237426482000,10.83248193359375,-3.2824504375457764,-8.947430610656738,-0.7493851184844971
1696083237436481800,10.842481689453125,-4.163516521453857,-8.949825286865234,-0.38307225704193115
1696083237446482000,10.85248193359375,-5.377676486968994,-8.86363410949707,-0.011971008032560349
1696083237456481800,10.862481689453125,-5.681739807128906,-8.686463356018066,0.3016694188117981
1696083237466482000,10.87248193359375,-4.774038314819336,-8.561964988708496,0.6009446382522583
1696083237476481800,10.882481689453124,-3.3016040325164795,-8.61703109741211,0.9265560507774353
1696083237486482000,10.89248193359375,-2.0039467811584473,-8.700828552246094,0.9959878921508789
1696083237496481800,10.902481689453126,-0.7805097699165344,-8.751106262207031,0.8834604024887085
1696083237506482000,10.91248193359375,0.4405331015586853,-8.837297439575195,0.586579442024231
1696083237516481800,10.922481689453125,1.194706678390503,-9.074323654174805,0.26096799969673157
1696083237526482000,10.93248193359375,1.2090718746185303,-9.404723167419434,-0.08379705995321274
1696083237536481800,10.942481689453125,0.6536170840263367,-9.668086051940918,-0.3758896589279175
1696083237546482000,10.95248193359375,0.06703764945268631,-9.917082786560059,-0.6105214357376099
1696083237556481800,10.962481689453124,-0.16759411990642548,-10.180444717407227,-0.9624691009521484
1696083237566482000,10.97248193359375,0.10773907601833344,-10.50126838684082,-1.2210428714752197
1696083237576481800,10.982481689453126,1.0223240852355957,-10.896310806274414,-1.45806884765625
1696083237586482000,10.99248193359375,2.583343744277954,-11.095029830932617,-1.5873557329177856
1696083237596481800,11.002481689453125,4.125209331512451,-11.087847709655762,-1.3192051649093628
1696083237606482000,11.01248193359375,4.721365928649902,-11.104606628417969,-0.5554547905921936
1696083237616481800,11.022481689453125,4.091690540313721,-11.063905715942383,0.6416460275650024
1696083237626482000,11.03248193359375,2.604891538619995,-10.927435874938965,1.821987509727478
1696083237636481800,11.042481689453124,0.6009446382522583,-10.910676002502441,2.829946517944336
1696083237646482000,11.05248193359375,-1.4484920501708984,-11.095029830932617,3.821146011352539
1696083237656481800,11.062481689453126,-3.220201253890991,-11.44218921661377,5.11191987991333
1696083237666482000,11.07248193359375,-4.381389141082764,-11.798925399780273,6.656179904937744
1696083237676481800,11.082481689453125,-3.818751811981201,-11.894693374633789,8.056788444519043
1696083237686482000,11.09248193359375,-1.5705963373184204,-11.339238166809082,8.547599792480469
1696083237696481800,11.102481689453125,1.3886369466781616,-10.647314071655273,7.9753851890563965
1696083237706482000,11.11248193359375,3.976768970489502,-10.599430084228516,7.0224928855896
1696083237716481800,11.122481689453124,5.135861873626709,-11.44458293914795,5.873276233673096
1696083237726482000,11.13248193359375,4.259284973144531,-12.533945083618164,4.537012100219727
1696083237736481800,11.142481689453126,2.7246015071868896,-13.268964767456055,3.332728862762451
1696083237746482000,11.15248193359375,1.8291701078414917,-13.589788436889648,2.231395959854126
1696083237756481800,11.162481689453125,2.432508945465088,-13.209110260009766,1.0965443849563599
1696083237766482000,11.17248193359375,3.44765043258667,-12.854767799377441,0.3256114423274994
1696083237776481800,11.182481689453125,4.173093795776367,-12.75421142578125,-0.4620809257030487
1696083237786482000,11.19248193359375,4.120420932769775,-12.948142051696777,-1.1875240802764893
1696083237796481800,11.202481689453125,2.8419175148010254,-13.596970558166504,-1.3646949529647827
1696083237806482000,11.21248193359375,0.9097966551780701,-14.250587463378906,-1.8770540952682495
1696083237816481800,11.222481689453126,-0.2944868206977844,-15.198990821838379,-2.5761611461639404
1696083237826482000,11.23248193359375,-1.6208745241165161,-16.051326751708984,-3.706224203109741
1696083237836481800,11.242481689453125,-2.4468741416931152,-16.709732055664062,-4.613626480102539
1696083237846482000,11.25248193359375,-3.533841609954834,-17.207725524902344,-5.669768810272217
1696083237856481800,11.262481689453125,-4.788403511047363,-16.4631290435791,-5.945102214813232
1696083237866482000,11.27248193359375,-4.323928356170654,-15.072097778320312,-5.550058841705322
1696083237876481800,11.282481689453125,-2.7317841053009033,-13.743017196655273,-4.656722068786621
1696083237886482000,11.29248193359375,-1.5442601442337036,-13.098977088928223,-3.1244332790374756
1696083237896481800,11.302481689453124,-0.2513911724090576,-12.306495666503906,-1.8770540952682495
1696083237906482000,11.31248193359375,0.8068459630012512,-11.662455558776855,-0.7374141216278076
1696083237916481800,11.322481689453125,0.33758243918418884,-11.20516300201416,0.002394201699644327
1696083237926482000,11.33248193359375,-0.811634361743927,-10.714351654052734,0.44532153010368347
1696083237936481800,11.342481689453125,-1.9488801956176758,-10.158897399902344,0.9959878921508789
1696083237946482000,11.35248193359375,-1.8626888990402222,-9.234735488891602,1.2090718746185303
1696083237956481800,11.362481689453125,-1.1492167711257935,-8.420706748962402,1.1659762859344482
1696083237966482000,11.37248193359375,-1.0462661981582642,-7.661744594573975,1.2737152576446533
1696083237976481800,11.382481689453124,-1.5897499322891235,-7.154173851013184,1.3024457693099976
1696083237986482000,11.39248193359375,-1.8938134908676147,-6.615478515625,1.3000515699386597
1696083237996481800,11.402481689453126,-1.7190368175506592,-6.0959367752075195,0.9145850539207458
1696083238006482000,11.41248193359375,-1.1061211824417114,-5.770325183868408,0.2944868206977844
1696083238016481800,11.422481689453125,-1.0007762908935547,-5.755959987640381,-0.33758243918418884
1696083238026482000,11.43248193359375,-1.3407529592514038,-5.873276233673096,-0.7996633648872375
1696083238036481800,11.442481689453125,-1.778891921043396,-6.00495719909668,-1.1420341730117798
1696083238046482000,11.45248193359375,-1.8363527059555054,-6.064812183380127,-1.3910311460494995
1696083238056481800,11.462481689453124,-1.7980455160140991,-6.062417984008789,-1.5705963373184204
1696083238066482000,11.47248193359375,-1.8938134908676147,-5.995380401611328,-1.625662922859192
1696083238076481800,11.482481689453126,-1.968033790588379,-5.8086323738098145,-1.7357962131500244
1696083238086482000,11.49248193359375,-2.075772762298584,-5.581183433532715,-2.0159177780151367
1696083238096481800,11.502481689453125,-2.3247697353363037,-5.274725437164307,-2.4229321479797363
1696083238106482000,11.51248193359375,-2.518700122833252,-4.838681697845459,-2.7988216876983643
1696083238116481800,11.522481689453125,-2.410961151123047,-4.32871675491333,-3.134010076522827
1696083238126482000,11.53248193359375,-2.229001760482788,-3.778050184249878,-3.397372245788574
1696083238136481800,11.542481689453124,-1.8698714971542358,-3.270479440689087,-3.620033025741577
1696083238146482000,11.55248193359375,-1.4269442558288574,-2.918531894683838,-3.7876269817352295
1696083238156481800,11.562481689453126,-0.6607996821403503,-3.0166940689086914,-3.6367924213409424
1696083238166482000,11.57248193359375,0.040701430290937424,-3.5434184074401855,-2.9688100814819336
1696083238176481800,11.582481689453125,1.0582371950149536,-4.37420654296875,-1.7932571172714233
1696083238186482000,11.59248193359375,2.808398485183716,-5.607519626617432,-0.1364694982767105
1696083238196481800,11.602481689453125,5.6314616203308105,-7.561188220977783,1.745373010635376
1696083238206482000,11.61248193359375,10.087071418762207,-10.312126159667969,3.847482204437256
1696083238216481800,11.622481689453124,12.778153419494629,-13.4197998046875,6.720823287963867
1696083238226482000,11.63248193359375,12.543521881103516,-16.611570358276367,10.127772331237793
1696083238236481800,11.642481689453126,11.025598526000977,-18.94831085205078,12.730269432067871
1696083238246482000,11.65248193359375,10.728716850280762,-19.458274841308594,12.656049728393555
1696083238256481800,11.662481689453125,9.273042678833008,-17.404050827026367,10.676044464111328
1696083238266482000,11.67248193359375,7.585130214691162,-13.647249221801758,7.649773597717285
1696083238276481800,11.682481689453125,5.882853031158447,-10.079888343811035,5.356128692626953
1696083238286482000,11.69248193359375,4.185064792633057,-6.924330711364746,3.8379054069519043
1696083238296481800,11.702481689453125,2.5953147411346436,-5.028122901916504,2.4636335372924805
1696083238306482000,11.71248193359375,2.097320795059204,-6.93151330947876,1.4987702369689941
1696083238316481800,11.722481689453126,1.314416766166687,-10.580276489257812,0.4572925269603729
1696083238326482000,11.73248193359375,0.10773907601833344,-14.741698265075684,-0.181959331035614
1696083238336481800,11.742481689453125,-1.6663644313812256,-17.935564041137695,-1.048660397529602
1696083238346482000,11.75248193359375,-3.0550012588500977,-20.784664154052734,-2.537853717803955
1696083238356481800,11.762481689453125,2.691082715988159,-24.261043548583984,-4.618414878845215
1696083238366482000,11.77248193359375,-1.5466543436050415,-19.97781753540039,-3.9049429893493652
1696083238376481800,11.782481689453125,-3.4141316413879395,-14.523527145385742,-3.093308687210083
1696083238386482000,11.79248193359375,-3.845088005065918,-10.74068832397461,-2.889801502227783
1696083238396481800,11.802481689453124,-5.629067420959473,-8.008903503417969,-3.8091750144958496
1696083238406482000,11.81248193359375,-6.84053373336792,-5.526116847991943,-4.400542736053467
1696083238416481800,11.822481689453125,-6.165368556976318,-3.7660791873931885,-3.5936968326568604
1696083238426482000,11.83248193359375,-5.207687854766846,-2.964021682739258,-3.3686418533325195
1696083238436481800,11.842481689453125,-5.317821025848389,-2.738966703414917,-2.999934673309326
1696083238446482000,11.85248193359375,-5.164592266082764,-3.1459810733795166,-2.140416383743286
1696083238456481800,11.862481689453125,-4.4532151222229,-4.098873138427734,-1.0271124839782715
1696083238466482000,11.87248193359375,-3.6535518169403076,-5.933131217956543,-0.7661445140838623
1696083238476481800,11.882481689453124,-2.607285737991333,-7.970596790313721,-0.6919242739677429
1696083238486482000,11.89248193359375,-2.1763293743133545,-9.905111312866211,-0.7422025203704834
1696083238496481800,11.902481689453126,-2.0374655723571777,-11.60020637512207,-0.5889736413955688
1696083238506482000,11.91248193359375,-1.5466543436050415,-12.782941818237305,0.06464344263076782
1696083238516481800,11.922481689453125,0.4596867263317108,-13.32882022857666,1.556231141090393
1696083238526482000,11.93248193359375,3.73016619682312,-13.254599571228027,3.3279404640197754
1696083238536481800,11.942481689453125,6.737582683563232,-12.50282096862793,4.4723687171936035
1696083238546482000,11.95248193359375,8.269871711730957,-11.054328918457031,4.2760443687438965
1696083238556481800,11.962481689453124,7.563582420349121,-9.421483039855957,3.201047658920288
1696083238566482000,11.97248193359375,5.272331237792969,-8.25311279296875,1.7693150043487549
1696083238576481800,11.982481689453126,2.099714994430542,-7.84609842300415,0.5027823448181152
1696083238586482000,11.99248193359375,-0.5985504388809204,-7.951443195343018,-0.19632454216480255
1696083238596481800,12.002481689453125,-2.5522189140319824,-8.408735275268555,-0.6344634294509888
1696083238606482000,12.01248193359375,-3.928884983062744,-8.861239433288574,-1.0821791887283325
1696083238616481800,12.022481689453125,-4.687847137451172,-9.22755241394043,-1.2952631711959839
1696083238626482000,12.03248193359375,-5.176563262939453,-9.347262382507324,-1.5442601442337036
1696083238636481800,12.042481689453124,-5.269937038421631,-9.361627578735352,-1.4437036514282227
1696083238646482000,12.05248193359375,-4.165910720825195,-9.49809741973877,-0.8212111592292786
1696083238656481800,12.062481689453126,-2.298433542251587,-9.483732223510742,-0.1388636976480484
1696083238666482000,12.07248193359375,-0.4213795065879822,-9.280224800109863,0.10534487664699554
1696083238676481800,12.082481689453125,1.1803414821624756,-9.364022254943848,0.17238251864910126
1696083238686482000,12.09248193359375,2.140416383743286,-9.617807388305664,0.5003881454467773
1696083238696481800,12.102481689453125,2.1571757793426514,-9.900322914123535,0.9983820915222168
1696083238706482000,12.11248193359375,1.3072341680526733,-10.158897399902344,1.3982137441635132
1696083238716481800,12.122481689453124,0.2801215946674347,-10.281001091003418,1.3886369466781616
1696083239018333700,12.424333740234376,-3.931279182434082,-19.039291381835938,-4.58968448638916
1696083239028333800,12.434333740234376,-4.637568473815918,-18.069639205932617,-5.054459095001221
1696083239038333700,12.444333740234375,-4.618414878845215,-16.127941131591797,-4.58968448638916
1696083239048333800,12.454333740234375,-3.485957622528076,-14.226645469665527,-3.864241600036621
1696083239058333700,12.464333740234375,-1.6065093278884888,-12.924200057983398,-2.779668092727661
1696083239068333800,12.474333740234375,0.2537853717803955,-12.150873184204102,-1.3072341680526733
1696083239078333700,12.484333740234375,1.9153614044189453,-11.485284805297852,-0.16759411990642548
1696083239088333800,12.494333740234374,2.7030537128448486,-11.063905715942383,0.031124621629714966
1696083239098333700,12.504333740234374,0.8906430602073669,-10.714351654052734,0.2537853717803955
1696083239108333800,12.514333740234376,-1.778891921043396,-10.283395767211914,0.31124621629714966
1696083239118333700,12.524333740234376,-2.889801502227783,-9.613018989562988,0.667982280254364
1696083239128333800,12.534333740234375,-2.2888567447662354,-8.875604629516602,0.6057330369949341
1696083239138333700,12.544333740234375,-1.4460978507995605,-8.061576843261719,0.4884171485900879
1696083239148333800,12.554333740234375,-1.072602391242981,-7.316979885101318,0.22026655077934265
1696083239158333700,12.564333740234375,-1.1444283723831177,-6.6274495124816895,-0.09576806426048279
1696083239168333800,12.574333740234374,-1.2282254695892334,-6.136638164520264,-0.5578489899635315
1696083239178333700,12.584333740234374,-1.2186486721038818,-5.839757442474365,-1.1085153818130493
1696083239188333800,12.594333740234376,-0.9840168952941895,-5.648221015930176,-1.9584569931030273
1696083239198333700,12.604333740234376,-0.6631938815116882,-5.700893402099609,-2.557007312774658
1696083239208333800,12.614333740234375,-0.8068459630012512,-5.830180644989014,-2.846705913543701
1696083239218333700,12.624333740234375,-1.4317326545715332,-6.0312933921813965,-2.7940332889556885
1696083239228333800,12.634333740234375,-1.8914192914962769,-6.124667167663574,-2.6360161304473877
1696083239238333700,12.644333740234375,-1.9153614044189453,-6.136638164520264,-2.432508945465088
1696083239248333800,12.654333740234375,-1.7860745191574097,-6.048052787780762,-2.300827741622925
1696083239258333700,12.664333740234374,-1.7094600200653076,-5.969044208526611,-2.142810583114624
1696083239268333800,12.674333740234376,-1.7166426181793213,-5.799055576324463,-2.1308395862579346
1696083239278333700,12.684333740234376,-1.6974890232086182,-5.449502468109131,-2.4803929328918457
1696083239288333800,12.694333740234375,-1.7070658206939697,-4.92996072769165,-2.937685489654541
1696083239298333700,12.704333740234375,-1.53707754611969,-4.343081951141357,-3.4117374420166016
1696083239308333800,12.714333740234375,-1.2018892765045166,-3.847482204437256,-3.794809579849243
1696083239318333700,12.724333740234375,-0.8930372595787048,-3.732560396194458,-3.73016619682312
1696083239328333800,12.734333740234375,-0.5746083855628967,-4.031835556030273,-3.021482467651367
1696083239338333700,12.744333740234374,0.12689268589019775,-4.845864295959473,-1.764526605606079
1696083239348333800,12.754333740234374,1.5682021379470825,-6.0959367752075195,0.15562310814857483
1696083239358333700,12.764333740234376,3.28963303565979,-7.637802600860596,2.2912509441375732
1696083239368333800,12.774333740234376,5.6314616203308105,-9.555558204650879,4.19224739074707
1696083239378333700,12.784333740234375,7.5994954109191895,-11.4972562789917,6.019322395324707
1696083239388333800,12.794333740234375,7.652167797088623,-12.936171531677246,7.570765018463135
1696083239398333700,12.804333740234375,6.859687328338623,-13.486837387084961,8.854057312011719
1696083239408333800,12.814333740234375,6.610690116882324,-13.338397026062012,9.897929191589355
1696083239418334000,12.824333984375,7.472602844238281,-13.125312805175781,10.721534729003906
1696083239428333800,12.834333740234374,7.439084053039551,-12.940959930419922,10.269030570983887
1696083239438334000,12.844333984375,6.663362503051758,-12.624924659729004,8.210017204284668
1696083239448333800,12.854333740234376,5.710470199584961,-12.186785697937012,5.535693645477295
1696083239458334000,12.864333984375,4.733336925506592,-11.645696640014648,3.3303346633911133
1696083239468333800,12.874333740234375,3.026270866394043,-10.178050994873047,1.7956513166427612
1696083239478334000,12.884333984375,2.0207061767578125,-8.174103736877441,0.629675030708313
1696083239488333800,12.894333740234375,1.381454348564148,-7.240365028381348,-0.22744916379451752
1696083239498334000,12.904333984375,1.4197616577148438,-8.432677268981934,-0.38307225704193115
1696083239508333800,12.914333740234374,1.8171991109848022,-10.5252103805542,-0.5123591423034668
1696083239518334000,12.924333984375,2.1116859912872314,-13.103765487670898,-1.278503656387329
1696083239528333800,12.934333740234376,2.4133553504943848,-15.895703315734863,-1.764526605606079
1696083239538334000,12.944333984375,2.4803929328918457,-18.289905548095703,-1.8148049116134644
1696083239548333800,12.954333740234375,4.920383930206299,-20.502147674560547,-2.427720546722412
1696083239558334000,12.964333984375,4.855441093444824,-19.872472763061523,-2.7724854946136475
1696083239568333800,12.974333740234375,0.4572925269603729,-16.19976806640625,-1.920149803161621
1696083239578334000,12.984333984375,-1.0678139925003052,-12.62971305847168,-0.7757213711738586
1696083239588333800,12.994333740234374,-1.9776105880737305,-9.510068893432617,-0.33279404044151306
1696083239598334000,13.004333984375,-3.3470940589904785,-6.866869926452637,-0.9265560507774353
1696083239608333800,13.014333740234376,-4.264073371887207,-5.042488098144531,-1.192312479019165
1696083239618334000,13.024333984375,-5.0807952880859375,-3.6296098232269287,-1.1851298809051514
1696083239628333800,13.034333740234375,-5.46147346496582,-2.698265314102173,-1.965639591217041
1696083239638334000,13.044333984375,-4.886565685272217,-2.7964274883270264,-1.987187385559082
1696083239648333800,13.054333740234375,-4.431667327880859,-3.976768970489502,-1.2066776752471924
1696083239658334000,13.064333984375,-4.326322555541992,-5.837363243103027,-0.7398083209991455
1696083239668333800,13.074333740234374,-3.754108190536499,-8.004115104675293,-0.646434485912323
1696083239678334000,13.084333984375,-3.2537200450897217,-10.23072338104248,-0.7757213711738586
1696083239688333800,13.094333740234376,-2.9257144927978516,-12.1101713180542,-0.7948749661445618
1696083239698334000,13.104333984375,-2.387019157409668,-13.197138786315918,-0.363918662071228
1696083239998363100,13.404363037109375,0.1388636976480484,-9.419088363647461,-0.07422025501728058
1696083240008363300,13.41436328125,0.950498104095459,-9.672874450683594,-0.12689268589019775
1696083240018363100,13.424363037109375,1.9105730056762695,-9.92905330657959,0.07661445438861847
1696083240028363300,13.43436328125,2.8778305053710938,-9.981725692749023,0.3495534360408783
1696083240038363100,13.444363037109374,3.5482068061828613,-9.790189743041992,0.6512228846549988
1696083240048363300,13.45436328125,3.5434184074401855,-9.572318077087402,1.0438719987869263
1696083240058363100,13.464363037109376,2.7940332889556885,-9.543587684631348,1.3982137441635132
1696083240068363300,13.47436328125,1.6112977266311646,-9.687239646911621,1.4628572463989258
1696083240078363100,13.484363037109375,0.37828385829925537,-9.766247749328613,1.1827356815338135
1696083240088363300,13.49436328125,-0.6823474764823914,-9.555558204650879,0.7876923680305481
1696083240098363100,13.504363037109375,-1.3215993642807007,-9.165303230285645,0.6536170840263367
1696083240108363300,13.51436328125,-1.6639702320098877,-8.784625053405762,0.7350199222564697
1696083240118363400,13.52436328125,-1.7501614093780518,-8.679280281066895,0.9959878921508789
1696083240128363300,13.53436328125,-1.6615760326385498,-8.925883293151855,1.4724340438842773
1696083240138363400,13.54436328125,-1.6065093278884888,-9.52922248840332,2.0638017654418945
1696083240148363300,13.55436328125,-1.4532804489135742,-10.484508514404297,2.4396915435791016
1696083240158363400,13.56436328125,-1.0438719987869263,-11.133337020874023,2.3942017555236816
1696083240168363300,13.57436328125,-0.38067805767059326,-11.190797805786133,2.3104045391082764
