time,seconds_elapsed,z,y,x
1696081747495497000,0.3204970703125,-0.05925392732024193,-0.15454891324043274,-0.04703662544488907
1696081747505497000,0.3304970703125,-0.06475171446800232,-0.14538592100143433,0.00733038317412138
1696081747515497000,0.3404970703125,-0.1062905490398407,-0.13255776464939117,0.02932153269648552
1696081747525497000,0.3504970703125,-0.1466076523065567,-0.1661553531885147,0.09896016865968704
1696081747535497000,0.3604970703125,-0.21013765037059784,-0.30482175946235657,0.20830504596233368
1696081747545497000,0.3704970703125,-0.2822197377681732,-0.5711590051651001,0.3701843321323395
1696081747555497000,0.3804970703125,-0.36590829491615295,-0.7031059265136719,0.5357288122177124
1696081747565497000,0.3904970703125,-0.4593706727027893,-0.6994407176971436,0.6609562039375305
1696081747575497000,0.4004970703125,-0.50335294008255,-0.7324274182319641,0.6633996367454529
1696081747585497000,0.4104970703125,-0.48197266459465027,-1.1594222784042358,0.45692721009254456
1696081747595497000,0.4204970703125,-0.4337143301963806,-1.7825047969818115,0.37690386176109314
1696081747605497000,0.4304970703125,-0.45631635189056396,-2.2760839462280273,0.37690386176109314
1696081747615497000,0.4404970703125,-0.5314527750015259,-2.7281241416931152,0.4306600093841553
1696081747625497000,0.4504970703125,-0.7171558141708374,-3.0109548568725586,0.4697553813457489
1696081747635497000,0.4604970703125,-0.8930850028991699,-3.053715467453003,0.4795292317867279
1696081747645497000,0.4704970703125,-1.0280861854553223,-2.908329486846924,0.46792277693748474
1696081747655497000,0.4804970703125,-1.1380419731140137,-2.707354784011841,0.4795292317867279
1696081747665497000,0.4904970703125,-1.2205088138580322,-2.5137104988098145,0.5241223573684692
1696081747675497000,0.5004970703125,-1.2932016849517822,-2.3915374279022217,0.5797111392021179
1696081747685497000,0.5104970703125,-1.2467759847640991,-2.1893410682678223,0.578489363193512
1696081747695497000,0.5204970703125,-1.1612548828125,-1.8784105777740479,0.4502076804637909
1696081747705497000,0.5304970703125,-1.0616837739944458,-1.7024813890457153,0.29016098380088806
1696081747715497000,0.5404970703125,-1.0036516189575195,-1.740355134010315,0.16493362188339233
1696081747725497000,0.5504970703125,-1.0134254693984985,-2.0366246700286865,0.07208210229873657
1696081747735497000,0.5604970703125,-1.0366383790969849,-2.4697282314300537,-0.021991148591041565
1696081747745497000,0.5704970703125,-1.0134254693984985,-2.8570168018341064,-0.14538592100143433
1696081747755497000,0.5804970703125,-0.949895441532135,-3.0494391918182373,-0.24434609711170197
1696081747765497000,0.5904970703125,-0.8918632864952087,-2.9822440147399902,-0.32559117674827576
1696081747775497000,0.6004970703125,-0.8319984674453735,-2.883894920349121,-0.3830125033855438
1696081747785497000,0.6104970703125,-0.7318165898323059,-2.8710665702819824,-0.44165557622909546
1696081747795497000,0.6204970703125,-0.5711590051651001,-2.9681942462921143,-0.5112941861152649
1696081747805497000,0.6304970703125,-0.35552358627319336,-3.1117475032806396,-0.5760459303855896
1696081747815497000,0.6404970703125,-0.1563815027475357,-3.192992687225342,-0.7513642311096191
1696081747825497000,0.6504970703125,0.08552113175392151,-3.450777769088745,-0.9822713136672974
1696081747835497000,0.6604970703125,0.35063666105270386,-3.9626829624176025,-1.1160508394241333
1696081747845497000,0.6704970703125,0.5638286471366882,-4.288885116577148,-1.2541064023971558
1696081747855497000,0.6804970703125,0.7440338730812073,-4.23818302154541,-1.3377948999404907
1696081747865497000,0.6904970703125,0.9517280459403992,-3.484375476837158,-1.1020009517669678
1696081747875497000,0.7004970703125,1.0641272068023682,-2.744006633758545,-0.7910705208778381
1696081747885497000,0.7104970703125,1.0073168277740479,-2.1734585762023926,-0.5180137157440186
1696081747895496200,0.72049609375,1.0268645286560059,-1.7537940740585327,-0.2076941877603531
1696081747905496000,0.73049609375,1.076344609260559,-1.4526375532150269,0.006719517521560192
1696081747915496200,0.74049609375,1.1325441598892212,-1.2046263217926025,0.10690141469240189
1696081747925496000,0.75049609375,1.2015719413757324,-0.9187413454055786,0.16310101747512817
1696081747935496200,0.76049609375,1.3103059530258179,-0.5571091175079346,0.2168571650981903
1696081747945496000,0.77049609375,1.4746286869049072,-0.07941248267889023,0.26633724570274353
1696081747955496000,0.780495849609375,1.6591099500656128,0.27000242471694946,0.23151792585849762
1696081747965496000,0.79049609375,1.7397441864013672,0.060475658625364304,0.0006108652451075613
1696081747975496000,0.800495849609375,1.7024813890457153,-0.21991148591041565,-0.2968805134296417
1696081747985496000,0.81049609375,1.606575608253479,-0.3701843321323395,-0.5558874011039734
1696081747995495700,0.82049560546875,1.5424346923828125,-0.4147774875164032,-0.8051204085350037
1696081748005495800,0.830495849609375,1.5338826179504395,-0.3744603991508484,-0.9932668805122375
1696081748015495700,0.84049560546875,1.5528194904327393,-0.2528982162475586,-1.1227703094482422
1696081748025495800,0.850495849609375,1.6090190410614014,-0.027488935738801956,-1.2889256477355957
1696081748035495700,0.86049560546875,1.7892242670059204,0.2223549485206604,-1.5241087675094604
1696081748045495800,0.870495849609375,2.0757200717926025,0.27000242471694946,-1.7580702304840088
1696081748055495700,0.88049560546875,2.557081937789917,0.1014036312699318,-1.9730947017669678
1696081748065495800,0.890495849609375,3.0714304447174072,-0.22846360504627228,-2.1728477478027344
1696081748075495700,0.90049560546875,3.5417966842651367,-0.7422012686729431,-2.3518311977386475
1696081748085495800,0.910495849609375,3.941913366317749,-1.2687671184539795,-2.464841365814209
1696081748095495700,0.92049560546875,4.203974723815918,-1.6310101747512817,-2.535090684890747
1696081748105495800,0.930495849609375,4.294382572174072,-1.6982053518295288,-2.615114212036133
1696081748115495700,0.94049560546875,4.2253546714782715,-1.5766432285308838,-2.7342329025268555
1696081748125495800,0.950495849609375,4.073249340057373,-1.3561208248138428,-2.8845057487487793
1696081748135495700,0.96049560546875,3.8844921588897705,-1.215621829032898,-2.889392614364624
1696081748145495800,0.970495849609375,3.6829066276550293,-1.2467759847640991,-2.6138923168182373
1696081748155495700,0.98049560546875,3.5155293941497803,-1.3628404140472412,-2.069000482559204
1696081748165495800,0.990495849609375,3.3927454948425293,-1.5833626985549927,-1.4208725690841675
1696081748175495700,1.00049560546875,3.2986724376678467,-2.043955087661743,-0.9419541954994202
1696081748185495800,1.010495849609375,3.219259738922119,-2.68230938911438,-0.7538077235221863
1696081748195496400,1.020496337890625,3.1148018836975098,-3.36708927154541,-0.7544185519218445
1696081748205496300,1.030496337890625,2.955976963043213,-3.936415672302246,-0.7605272531509399
1696081748215496400,1.040496337890625,2.73606538772583,-4.341419219970703,-0.6487388610839844
1696081748225496300,1.050496337890625,2.462397813796997,-4.571715354919434,-0.4502076804637909
1696081748235496400,1.060496337890625,2.090991735458374,-4.566828727722168,-0.23640485107898712
1696081748245496000,1.07049609375,1.6517796516418457,-4.289495944976807,-0.10812314599752426
1696081748255496200,1.08049609375,1.2040153741836548,-4.127005577087402,-0.10262536257505417
1696081748265496000,1.09049609375,0.8344419002532959,-4.33286714553833,-0.10445795953273773
1696081748275496200,1.10049609375,0.5748242139816284,-5.039638042449951,-0.009162978269159794
1696081748285496000,1.11049609375,0.1722639948129654,-5.00176477432251,-0.2070833146572113
1696081748295496000,1.120495849609375,-0.3396410644054413,-4.7751336097717285,-0.2974913716316223
1696081748305496000,1.13049609375,-0.8985827565193176,-4.335921287536621,-0.38117989897727966
1696081748315496000,1.140495849609375,-1.4624114036560059,-4.0158281326293945,-0.5216789245605469
1696081748325496000,1.15049609375,-1.8967366218566895,-3.9956696033477783,-0.6145304441452026
1696081748335496000,1.160495849609375,-2.2040019035339355,-4.089131832122803,-0.8142833709716797
1696081748345496300,1.170496337890625,-2.386650562286377,-4.107458114624023,-1.1331549882888794
1696081748355496400,1.180496337890625,-2.48988676071167,-4.02987813949585,-1.4972307682037354
1696081748365496300,1.190496337890625,-2.543642997741699,-3.8148534297943115,-1.8564194440841675
1696081748375496400,1.200496337890625,-2.5949554443359375,-3.4819319248199463,-2.13314151763916
1696081748385496300,1.210496337890625,-2.6566529273986816,-2.9822440147399902,-2.3438899517059326
1696081748395497000,1.2204970703125,-2.687807083129883,-2.4446825981140137,-2.4471261501312256
1696081748405496800,1.230496826171875,-2.607783794403076,-1.8796323537826538,-2.4025330543518066
1696081748415497000,1.2404970703125,-2.3823745250701904,-1.3237450122833252,-2.230879783630371
1696081748425496800,1.250496826171875,-2.0176877975463867,-0.816726803779602,-1.9590448141098022
1696081748435497000,1.2604970703125,-1.5693128108978271,-0.3903428912162781,-1.6303993463516235
1696081748445496800,1.270496826171875,-1.1215485334396362,-0.001832595793530345,-1.2614367008209229
1696081748455497000,1.2804970703125,-0.7037167549133301,0.3732386529445648,-0.8906415104866028
1696081748465496800,1.290496826171875,-0.303600013256073,0.7122688889503479,-0.5687155723571777
1696081748475497000,1.3004970703125,0.10384709388017654,0.9627236127853394,-0.3481931984424591
1696081748485497000,1.3104970703125,0.4899139404296875,1.131933331489563,-0.23090706765651703
1696081748495497200,1.320497314453125,0.8356636762619019,1.225395679473877,-0.17043140530586243
1696081748505497000,1.3304970703125,1.1618657112121582,1.2333369255065918,-0.14355333149433136
1696081748515497200,1.340497314453125,1.451415777206421,1.2229522466659546,-0.1014036312699318
1696081748525497000,1.3504970703125,1.730581283569336,1.1924089193344116,-0.06719517707824707
1696081748535497200,1.360497314453125,1.974927306175232,1.1343767642974854,-0.03726277872920036
1696081748545497600,1.37049755859375,2.1704041957855225,1.0531316995620728,-0.04092797264456749
1696081748555497700,1.380497802734375,2.310903310775757,0.9095783233642578,-0.10995574295520782
1696081748565497900,1.390497802734375,2.3890938758850098,0.7574729323387146,-0.22968533635139465
1696081748575497700,1.400497802734375,2.3890938758850098,0.655458390712738,-0.3781255781650543
1696081748585497900,1.410497802734375,2.3878722190856934,0.4550946056842804,-0.5845980644226074
1696081748595498200,1.420498291015625,2.4294111728668213,0.33108896017074585,-0.8827002644538879
1696081748605497900,1.430497802734375,2.3689353466033936,0.2791654169559479,-1.2315043210983276
1696081748615497700,1.440497802734375,2.1398608684539795,0.20586158335208893,-1.5137240886688232
1696081748625497900,1.450497802734375,1.7989981174468994,0.2889392673969269,-1.6591099500656128
1696081748635497700,1.460497802734375,1.4660766124725342,0.28527405858039856,-1.6566665172576904
1696081748645497300,1.470497314453125,1.2883148193359375,0.303600013256073,-1.6236798763275146
1696081748655497000,1.4804970703125,1.1435397863388062,0.1661553531885147,-1.560760736465454
1696081748665497000,1.4904970703125,1.064738154411316,0.015271631069481373,-1.5656476020812988
1696081748675497000,1.5004970703125,0.9639453291893005,-0.028099801391363144,-1.6939293146133423
1696081748685497000,1.5104970703125,0.7715228199958801,0.006108652334660292,-1.8955148458480835
1696081748695496400,1.520496337890625,0.48808133602142334,0.12828169763088226,-2.0732767581939697
1696081748705497300,1.530497314453125,0.10018189996480942,0.2431243658065796,-2.1508564949035645
1696081748715497500,1.54049755859375,-0.28649580478668213,0.3017674386501312,-2.1148154735565186
1696081748725497300,1.550497314453125,-0.645684540271759,0.23273965716362,-1.9407188892364502
1696081748735497500,1.56049755859375,-0.8429940342903137,0.09162978827953339,-1.7794504165649414
1696081748745497300,1.570497314453125,-0.9291260242462158,0.02382374368607998,-1.6908750534057617
1696081748755498800,1.580498779296875,-0.9236282706260681,0.1869247704744339,-1.5864170789718628
1696081748765498600,1.59049853515625,-0.8429940342903137,0.8894197940826416,-0.9108000993728638
1696081748775498500,1.60049853515625,-0.8063421249389648,1.4850133657455444,-0.02076941914856434
1696081748785498600,1.61049853515625,-0.5632177591323853,1.6664403676986694,0.637132465839386
1696081748795498500,1.62049853515625,-0.4434881806373596,1.3732250928878784,0.7531968355178833
1696081748805498000,1.630498046875,-0.5644394755363464,1.0543533563613892,0.5271766781806946
1696081748815498200,1.640498291015625,-0.8087855577468872,0.9999864101409912,0.16798794269561768
1696081748825498000,1.650498046875,-1.086118459701538,1.1478158235549927,-0.14416420459747314
1696081748835498200,1.660498291015625,-1.2400563955307007,1.1917980909347534,-0.3640756905078888
1696081748845498000,1.670498046875,-1.23394775390625,1.0592403411865234,-0.42271876335144043
1696081748855498000,1.680498046875,-1.5625933408737183,0.912021815776825,-0.4288274049758911
1696081748865498000,1.690498046875,-1.5656476020812988,1.303586483001709,-0.3121521472930908
1696081748875498000,1.700498046875,-1.5485434532165527,1.6120734214782715,-0.08491026610136032
1696081748885498000,1.710498046875,-1.4202617406845093,1.7275269031524658,0.3292563557624817
1696081748895498000,1.720498046875,-1.567480206489563,1.892460584640503,0.9346238374710083
1696081748905498400,1.730498291015625,-1.8790215253829956,1.788002610206604,1.2455542087554932
1696081748915498500,1.74049853515625,-2.158186912536621,1.2962560653686523,0.9578366875648499
1696081748925498000,1.750498046875,-2.152689218521118,0.7305948138237,0.22357667982578278
1696081748935498000,1.760498046875,-1.9028452634811401,0.6023131608963013,-0.5198463201522827
1696081748945498000,1.770498046875,-1.482569932937622,0.8008443117141724,-0.9834930300712585
1696081748955498500,1.78049853515625,-1.0995573997497559,1.2956452369689941,-1.1355985403060913
1696081748965498400,1.790498291015625,-0.9395107626914978,2.026240110397339,-1.0421360731124878
1696081748975498500,1.80049853515625,-0.8093964457511902,2.63832688331604,-0.9071348905563354
1696081748985498600,1.81049853515625,-0.6249151229858398,3.0549371242523193,-0.93095862865448
1696081748995498500,1.82049853515625,-0.2583959996700287,3.3182199001312256,-1.024420976638794
1696081749005497600,1.83049755859375,0.25534167885780334,3.3298263549804688,-1.1001683473587036
1696081749015497700,1.840497802734375,0.7415903806686401,3.324939489364624,-1.0769554376602173
1696081749025497600,1.85049755859375,1.238223910331726,3.28828763961792,-1.0903944969177246
1696081749035497700,1.860497802734375,1.80510675907135,3.238807439804077,-1.1930198669433594
1696081749049309000,1.874308837890625,2.4587326049804688,3.096475839614868,-1.2663236856460571
1696081749059307800,1.884307861328125,3.121521472930908,2.7562239170074463,-1.312138557434082
1696081749069307600,1.8943076171875,3.902817964553833,1.8741345405578613,-1.3176363706588745
1696081749079307800,1.904307861328125,4.837441921234131,0.7910705208778381,-1.454470157623291
1696081749089307600,1.9143076171875,5.747020244598389,-0.2932153046131134,-1.6310101747512817
1696081749099308000,1.92430810546875,6.502049446105957,-0.3139847218990326,-1.4624114036560059
1696081749109308400,1.934308349609375,6.902777194976807,0.616973876953125,-0.9138544201850891
1696081749119308300,1.944308349609375,6.922935962677002,1.813048005104065,-0.27000242471694946
1696081749129308200,1.95430810546875,6.687752723693848,2.6309967041015625,0.1514945775270462
1696081749139308300,1.964308349609375,6.255870819091797,2.1923954486846924,0.00427605677396059
1696081749149308200,1.97430810546875,5.515502452850342,0.48319441080093384,-0.5393940210342407
1696081749159308300,1.984308349609375,4.5546112060546875,-1.6084082126617432,-0.9663888216018677
1696081749169308200,1.99430810546875,3.5020904541015625,-2.6755897998809814,-0.9608910083770752
1696081749179308000,2.00430810546875,2.342668294906616,-2.7568347454071045,-0.39706242084503174
1696081749189308000,2.014307861328125,1.453248381614685,-1.7018705606460571,0.3646865487098694
1696081749199308000,2.02430810546875,0.9535606503486633,-0.43737950921058655,0.9633345007896423
1696081749209308000,2.034307861328125,0.9156870245933533,0.4031710624694824,1.2541064023971558
1696081749219308000,2.04430810546875,1.186300277709961,1.158811330795288,1.3005321025848389
1696081749229308400,2.054308349609375,1.3103059530258179,1.3817771673202515,1.197906732559204
1696081749239308300,2.064308349609375,1.367727279663086,0.9279043078422546,0.8448266386985779
1696081749249308400,2.074308349609375,1.4043792486190796,0.6029239892959595,0.34574973583221436
1696081749259308300,2.084308349609375,1.38849675655365,0.7049384713172913,-0.2015855312347412
1696081749269308400,2.094308349609375,1.3390166759490967,1.2400563955307007,-0.6774495840072632
1696081749279308300,2.104308349609375,1.1594222784042358,1.8515325784683228,-1.0885618925094604
1696081749289308200,2.11430810546875,0.9028588533401489,2.0610592365264893,-1.4911220073699951
1696081749299308300,2.124308349609375,0.5925393104553223,1.9743164777755737,-1.86497163772583
1696081749309308200,2.13430810546875,0.2223549485206604,1.9828685522079468,-1.938886284828186
1696081749319308300,2.144308349609375,-0.07513642311096191,1.9236146211624146,-1.7928894758224487
1696081749329308200,2.15430810546875,-0.182648703455925,1.7116444110870361,-1.5796974897384644
1696081749339308300,2.164308349609375,-0.03420845419168472,1.1789699792861938,-1.3842206001281738
1696081749349308200,2.17430810546875,0.2730567753314972,0.5192354321479797,-1.086118459701538
1696081749359308300,2.184308349609375,0.6285803318023682,-0.02687807008624077,-0.7049384713172913
1696081749369308200,2.19430810546875,1.0781772136688232,-0.24434609711170197,-0.4715879559516907
1696081749379308300,2.204308349609375,1.5051720142364502,-0.18325957655906677,-0.5198463201522827
1696081749389308200,2.21430810546875,1.6878206729888916,0.17470745742321014,-0.3689626157283783
1696081749399308000,2.22430810546875,2.0341813564300537,0.9859365224838257,-0.22663100063800812
1696081749409308200,2.23430810546875,2.378709316253662,1.3530665636062622,-0.2174680233001709
1696081749419308000,2.24430810546875,2.4947736263275146,1.0806206464767456,-0.28527405858039856
1696081749429308200,2.25430810546875,2.472782611846924,0.5412266254425049,-0.5265658497810364
1696081749439308000,2.26430810546875,2.4074199199676514,0.1258382350206375,-0.7183775305747986
1696081749449308200,2.27430810546875,2.0958786010742188,0.16737708449363708,-0.6346889734268188
1696081749459307800,2.284307861328125,1.5399912595748901,0.5027421116828918,-0.7263187766075134
1696081749469308000,2.294307861328125,1.1630873680114746,0.8833111524581909,-0.9657779335975647
1696081749479308000,2.30430810546875,0.9651671051979065,1.2412781715393066,-1.2919800281524658
1696081749489308200,2.31430810546875,0.8967501521110535,1.3261884450912476,-1.529606580734253
1696081749499308000,2.32430810546875,0.9450085163116455,0.9590584635734558,-1.560760736465454
1696081749509308200,2.33430810546875,1.0751228332519531,0.18387043476104736,-1.4703526496887207
1696081749519308000,2.34430810546875,1.2712105512619019,-0.5937610268592834,-1.5375478267669678
1696081749529308200,2.35430810546875,1.4373658895492554,-1.1239920854568481,-1.8576412200927734
1696081749539308000,2.36430810546875,1.49906325340271,-1.397048830986023,-2.1032090187072754
1696081749549308200,2.37430810546875,1.1050552129745483,-1.5925257205963135,-2.104430675506592
1696081749559308000,2.38430810546875,0.49357911944389343,-1.4575244188308716,-2.0781636238098145
1696081749569308200,2.39430810546875,0.192422553896904,-0.9162978529930115,-1.976759910583496
1696081749579307800,2.404307861328125,0.4917465150356293,-0.42699480056762695,-1.359175205230713
1696081749589308000,2.414307861328125,1.1624765396118164,-0.5601634383201599,-0.4190535545349121
1696081749599307800,2.424307861328125,1.42637038230896,-0.7312057018280029,0.5174028873443604
1696081749609308000,2.434307861328125,1.2015719413757324,0.021991148591041565,0.9535606503486633
1696081749619307800,2.444307861328125,0.8668177723884583,1.2015719413757324,0.9144652485847473
1696081749629308000,2.454307861328125,0.5112941861152649,2.2198843955993652,0.7012733221054077
1696081749639307800,2.464307861328125,0.2718350291252136,2.7904324531555176,0.5583308339118958
1696081749649308000,2.474307861328125,0.182648703455925,2.800206184387207,0.5693264007568359
1696081749659307800,2.484307861328125,0.2217440903186798,2.559525489807129,0.5210680365562439
1696081749669308000,2.494307861328125,0.26511552929878235,2.317011833190918,0.2968805134296417
1696081749679307800,2.504307861328125,0.23273965716362,2.1154263019561768,-0.00733038317412138
1696081749689308000,2.514307861328125,0.14049901068210602,2.0506746768951416,-0.32986724376678467
1696081749699307800,2.524307861328125,0.17531833052635193,1.6798794269561768,-0.4434881806373596
1696081749709308000,2.534307861328125,0.3219259977340698,0.9859365224838257,-0.3927863538265228
1696081749719307800,2.544307861328125,0.4612032473087311,0.5845980644226074,-0.3891211748123169
1696081749729308000,2.554307861328125,0.5455026626586914,0.5619960427284241,-0.4489859640598297
1696081749739308500,2.56430859375,0.6291912198066711,0.7916813492774963,-0.5119050741195679
1696081749749308400,2.574308349609375,0.6695083379745483,0.9615018963813782,-0.5094616413116455
1696081749759308800,2.584308837890625,0.5650503635406494,0.8637634515762329,-0.38728857040405273
1696081749769308700,2.59430859375,0.33169981837272644,0.413555771112442,-0.1319468915462494
1696081749779308800,2.604308837890625,-0.06841690838336945,-0.4306600093841553,0.27061331272125244
1696081749789308700,2.61430859375,-0.18081611394882202,-1.274264931678772,0.5564982295036316
1696081749799308800,2.624308837890625,-0.07819075137376785,-1.9242255687713623,0.6340781450271606
1696081749809308700,2.63430859375,0.033597588539123535,-2.3579399585723877,0.543059229850769
1696081749819308800,2.644308837890625,0.08979719132184982,-2.615114212036133,0.35735616087913513
1696081749829308700,2.65430859375,0.07147123664617538,-2.772106409072876,0.15393804013729095
1696081749839308800,2.664308837890625,0.0012217304902151227,-2.867401361465454,-0.028099801391363144
1696081749849308700,2.67430859375,-0.06536258012056351,-2.847242832183838,-0.1820378452539444
1696081749859308800,2.684308837890625,-0.1215621829032898,-2.582127332687378,-0.32009339332580566
1696081749869308700,2.69430859375,-0.16432274878025055,-2.207667112350464,-0.34513887763023376
1696081749879309000,2.70430908203125,-0.16859880089759827,-1.8839083909988403,-0.2278527319431305
1696081749889309000,2.714308837890625,-0.11667526513338089,-1.5900822877883911,-0.01038470957428217
1696081749899309000,2.72430908203125,-0.030543262138962746,-1.431868076324463,0.2632829248905182
1696081749909309000,2.734308837890625,0.13377949595451355,-1.4104878902435303,0.5326744914054871
1696081749919309000,2.74430908203125,0.3243694305419922,-1.4575244188308716,0.6524040699005127
1696081749929309000,2.754308837890625,0.41111230850219727,-1.4080443382263184,0.5229006409645081
1696081749939309000,2.76430908203125,0.35735616087913513,-1.3072515726089478,0.27061331272125244
1696081749949309000,2.774308837890625,0.23518311977386475,-1.158811330795288,0.003054326167330146
1696081749959309000,2.78430908203125,0.08918632566928864,-0.9388998746871948,-0.19608774781227112
1696081749969309200,2.79430908203125,-0.036651913076639175,-0.6530149579048157,-0.26083946228027344
1696081749979309000,2.80430908203125,-0.12522737681865692,-0.2724458873271942,-0.21441370248794556
1696081749989309200,2.81430908203125,-0.18936823308467865,0.11850785464048386,-0.11728613078594208
1696081749999309000,2.82430908203125,-0.2321287989616394,0.40683624148368835,-0.02932153269648552
1696081750009309200,2.83430908203125,-0.26022860407829285,0.5723807215690613,0.02321287989616394
1696081750019309000,2.84430908203125,-0.2620611786842346,0.6126978397369385,0.0354301854968071
1696081750029309000,2.854308837890625,-0.2370157092809677,0.5436700582504272,0.01710422709584236
1696081750039308300,2.864308349609375,-0.192422553896904,0.384845107793808,-0.01771509274840355
1696081750049308400,2.874308349609375,-0.13255776464939117,0.1814269721508026,-0.04886921867728233
1696081750059308300,2.884308349609375,-0.06902777403593063,-0.00733038317412138,-0.07269296050071716
1696081750069308400,2.894308349609375,-0.025045474991202354,-0.14782938361167908,-0.08979719132184982
1696081750079308300,2.904308349609375,0.005497787147760391,-0.22479841113090515,-0.09529497474431992
1696081750089308400,2.914308349609375,0.02687807008624077,-0.24007004499435425,-0.09224065393209457
1696081750099308300,2.924308349609375,0.04337143152952194,-0.21135938167572021,-0.08124507963657379
1696081750109308400,2.934308349609375,0.04459316283464432,-0.16493362188339233,-0.07269296050071716
1696081750119308300,2.944308349609375,0.031154127791523933,-0.12889257073402405,-0.0659734457731247
1696081750129308400,2.954308349609375,0.007941247895359993,-0.10873401165008545,-0.056810468435287476
1696081750139308300,2.964308349609375,-0.015271631069481373,-0.09896016865968704,-0.04581489413976669
1696081750149308400,2.974308349609375,-0.039095375686883926,-0.09224065393209457,-0.033597588539123535
1696081750159308300,2.984308349609375,-0.05803219974040985,-0.0806342139840126,-0.025656340643763542
1696081750169308400,2.994308349609375,-0.06658431142568588,-0.06169738993048668,-0.02321287989616394
1696081750179308300,3.004308349609375,-0.06414084881544113,-0.03787364438176155,-0.02382374368607998
1696081750189308400,3.014308349609375,-0.0507018156349659,-0.018325956538319588,-0.03481931984424591
1696081750199308300,3.024308349609375,-0.04092797264456749,-0.006719517521560192,-0.05009094998240471
1696081750209308400,3.034308349609375,-0.04214970022439957,0.001832595793530345,-0.06414084881544113
1696081750219308300,3.044308349609375,-0.03298672288656235,-0.009773843921720982,-0.06414084881544113
1696081750229308400,3.054308349609375,-0.031154127791523933,-0.0354301854968071,-0.05864306539297104
1696081750239308000,3.06430810546875,-0.03481931984424591,-0.06658431142568588,-0.054367005825042725
1696081750249308000,3.074307861328125,-0.0354301854968071,-0.10506882518529892,-0.05497787147760391
1696081750259308000,3.08430810546875,-0.03298672288656235,-0.1472185254096985,-0.059864792972803116
1696081750269308000,3.094307861328125,-0.029932396486401558,-0.1820378452539444,-0.06963863968849182
1696081750279307800,3.104307861328125,-0.02932153269648552,-0.2064724564552307,-0.07635815441608429
1696081750289308000,3.114307861328125,-0.02626720629632473,-0.21807889640331268,-0.08185594528913498
1696081750299307800,3.124307861328125,-0.024434609338641167,-0.22357667982578278,-0.08552113175392151
1696081750309308000,3.134307861328125,-0.016493361443281174,-0.2168571650981903,-0.08796459436416626
1696081750319307800,3.144307861328125,-0.0012217304902151227,-0.192422553896904,-0.08246681094169617
1696081750329308000,3.154307861328125,0.012217304669320583,-0.16371189057826996,-0.07880161702632904
1696081750339307800,3.164307861328125,0.015882495790719986,-0.15515977144241333,-0.07819075137376785
1696081750349308000,3.174307861328125,0.00855211354792118,-0.1618792861700058,-0.08307767659425735
1696081750359307800,3.184307861328125,0.001832595793530345,-0.1661553531885147,-0.09712757170200348
1696081750369308000,3.194307861328125,0.009773843921720982,-0.1716531366109848,-0.11911872029304504
1696081750379307800,3.204307861328125,0.025045474991202354,-0.1765400618314743,-0.1514945775270462
1696081750389308000,3.214307861328125,0.033597588539123535,-0.17348572611808777,-0.18631389737129211
1696081750399307800,3.224307861328125,0.031154127791523933,-0.1459967941045761,-0.20036379992961884
1696081750409308000,3.234307861328125,0.025045474991202354,-0.09712757170200348,-0.18814650177955627
1696081750419307800,3.244307861328125,0.02382374368607998,-0.054367005825042725,-0.16554448008537292
1696081750429308000,3.254307861328125,0.03848451003432274,-0.028099801391363144,-0.14294247329235077
1696081750439308000,3.26430810546875,0.06230825558304787,-0.00855211354792118,-0.11911872029304504
1696081750449308000,3.274307861328125,0.09346238523721695,0.016493361443281174,-0.10506882518529892
1696081750459308000,3.28430810546875,0.14294247329235077,0.03787364438176155,-0.11301007121801376
1696081750469308000,3.294307861328125,0.19975294172763824,0.0555887371301651,-0.13316862285137177
1696081750479308000,3.30430810546875,0.24923302233219147,0.09285151958465576,-0.14049901068210602
1696081750489308200,3.31430810546875,0.2791654169559479,0.1814269721508026,-0.13805554807186127
1696081750499308000,3.32430810546875,0.29993483424186707,0.3066543638706207,-0.14294247329235077
1696081750509308200,3.33430810546875,0.3066543638706207,0.4355469346046448,-0.17837265133857727
1696081750519308000,3.34430810546875,0.29504790902137756,0.5198463201522827,-0.24984388053417206
1696081750529308200,3.35430810546875,0.2675589919090271,0.5345070958137512,-0.32559117674827576
1696081750539308500,3.36430859375,0.20525072515010834,0.47280970215797424,-0.36651915311813354
1696081750549308400,3.374308349609375,0.10873401165008545,0.3445279896259308,-0.3695734739303589
1696081750559308500,3.38430859375,0.013439035043120384,0.1472185254096985,-0.3732386529445648
1696081750569308400,3.394308349609375,-0.05192354694008827,-0.13927727937698364,-0.3787364661693573
1696081750579308500,3.40430859375,-0.06902777403593063,-0.46547931432724,-0.36713001132011414
1696081750589308400,3.414308349609375,-0.051312681287527084,-0.7434229850769043,-0.33047810196876526
1696081750599308500,3.42430859375,-0.01771509274840355,-0.8863654732704163,-0.2791654169559479
1696081750609308400,3.434308349609375,0.042760565876960754,-0.8515461683273315,-0.20402899384498596
1696081750619308500,3.44430859375,0.11789698898792267,-0.6041457056999207,-0.12461651116609573
1696081750629308400,3.454308349609375,0.1466076523065567,-0.3280346393585205,-0.10751228034496307
1696081750639308500,3.46430859375,0.16859880089759827,-0.1264491081237793,-0.14538592100143433
1696081750649308400,3.474308349609375,0.20341812074184418,-0.00366519158706069,-0.21380282938480377
1696081750659308500,3.48430859375,0.23518311977386475,0.0012217304902151227,-0.2938261926174164
1696081750669308400,3.494308349609375,0.27122417092323303,-0.07880161702632904,-0.35246923565864563
1696081750679308500,3.50430859375,0.30482175946235657,-0.15454891324043274,-0.3744603991508484
1696081750689308400,3.514308349609375,0.33108896017074585,-0.12461651116609573,-0.3701843321323395
1696081750699308500,3.52430859375,0.3017674386501312,0.03420845419168472,-0.35124751925468445
1696081750709308400,3.534308349609375,0.2223549485206604,0.23090706765651703,-0.3280346393585205
1696081750719308500,3.54430859375,0.12522737681865692,0.3891211748123169,-0.3170390725135803
1696081750729308400,3.554308349609375,0.036041051149368286,0.4331034719944,-0.33536502718925476
1696081750739308500,3.56430859375,-0.031154127791523933,0.35735616087913513,-0.38728857040405273
1696081750749308400,3.574308349609375,-0.06902777403593063,0.21563543379306793,-0.475253164768219
1696081750759308500,3.58430859375,-0.07452555745840073,0.08368854224681854,-0.5729916095733643
1696081750769308400,3.594308349609375,-0.06719517707824707,-0.009773843921720982,-0.6633996367454529
1696081750779308300,3.604308349609375,-0.06475171446800232,-0.0555887371301651,-0.7293730974197388
1696081750789308400,3.614308349609375,-0.08185594528913498,-0.07208210229873657,-0.7605272531509399
1696081750799308300,3.624308349609375,-0.11056660860776901,-0.07513642311096191,-0.7538077235221863
1696081750809308400,3.634308349609375,-0.13561208546161652,-0.07635815441608429,-0.7098253965377808
1696081750819308300,3.644308349609375,-0.13561208546161652,-0.0806342139840126,-0.6401867866516113
1696081750829308400,3.654308349609375,-0.09712757170200348,-0.059864792972803116,-0.5393940210342407
1696081750839308300,3.664308349609375,-0.036651913076639175,-0.031154127791523933,-0.42210787534713745
1696081750849308400,3.674308349609375,0.030543262138962746,-0.015271631069481373,-0.31093040108680725
1696081750859308300,3.684308349609375,0.10445795953273773,-0.0354301854968071,-0.2028072625398636
1696081750869308400,3.694308349609375,0.18020524084568024,-0.09529497474431992,-0.09957103431224823
1696081750879308300,3.704308349609375,0.26022860407829285,-0.18570303916931152,-0.012828170321881771
1696081750889308400,3.714308349609375,0.3341432809829712,-0.31093040108680725,0.05803219974040985
1696081750899308300,3.724308349609375,0.39767327904701233,-0.45142942667007446,0.10323622822761536
1696081750909308400,3.734308349609375,0.44776421785354614,-0.6328563690185547,0.11789698898792267
1696081750919308300,3.744308349609375,0.4697553813457489,-0.8973610401153564,0.08307767659425735
1696081750929308400,3.754308349609375,0.4343251883983612,-1.2302825450897217,0.02076941914856434
1696081750939308300,3.764308349609375,0.3390302062034607,-1.5497651100158691,0.009162978269159794
1696081750949308400,3.774308349609375,0.22296582162380219,-1.7189748287200928,0.12522737681865692
1696081750959308300,3.784308349609375,0.11911872029304504,-1.5473216772079468,0.38667771220207214
1696081750969308400,3.794308349609375,-0.00855211354792118,-1.0653489828109741,0.7391469478607178
1696081750979308300,3.804308349609375,-0.1319468915462494,-0.4813618063926697,1.0561859607696533
1696081750989308400,3.814308349609375,-0.19486601650714874,-0.08124507963657379,1.2443325519561768
1696081750999308300,3.824308349609375,-0.22907446324825287,0.021380282938480377,1.303586483001709
1696081751009308400,3.834308349609375,-0.29626965522766113,-0.00366519158706069,1.348179578781128
1696081751019308300,3.844308349609375,-0.41661009192466736,0.033597588539123535,1.453248381614685
1696081751029308400,3.854308349609375,-0.4954117238521576,0.09285151958465576,1.5357152223587036
1696081751039308300,3.864308349609375,-0.6737843751907349,0.24923302233219147,1.7580702304840088
1696081751049308400,3.874308349609375,-0.8405506014823914,0.3701843321323395,2.032959461212158
1696081751059308300,3.884308349609375,-0.9712757468223572,0.36529740691185,2.330451011657715
1696081751069308400,3.894308349609375,-1.0757336616516113,0.16432274878025055,2.612670660018921
1696081751079308300,3.904308349609375,-1.1636983156204224,-0.22296582162380219,2.8264734745025635
1696081751089308400,3.914308349609375,-1.273043155670166,-0.7476990818977356,2.950479030609131
1696081751099308300,3.924308349609375,-1.415374755859375,-1.359175205230713,2.9266552925109863
1696081751109308400,3.934308349609375,-1.5222761631011963,-1.832595705986023,2.6975808143615723
1696081751119308300,3.944308349609375,-1.5039502382278442,-1.910786509513855,2.3011293411254883
1696081751129308400,3.954308349609375,-1.3811663389205933,-1.6578882932662964,1.7922786474227905
1696081751139308300,3.964308349609375,-1.2333369255065918,-1.282817006111145,1.2565498352050781
1696081751149308400,3.974308349609375,-1.2101240158081055,-0.9462302923202515,0.8417723178863525
1696081751159308300,3.984308349609375,-1.303586483001709,-0.8484918475151062,0.6908885836601257
1696081751169308400,3.994308349609375,-1.4996742010116577,-0.93095862865448,0.8100073337554932
1696081751179308300,4.004308349609375,-1.72935950756073,-0.9462302923202515,1.0879509449005127
1696081751189308400,4.014308349609375,-1.935831904411316,-0.7324274182319641,1.351233959197998
1696081751199308300,4.024308349609375,-2.0555615425109863,-0.24434609711170197,1.4159855842590332
1696081751209308400,4.034308349609375,-2.051896333694458,0.48747047781944275,1.2638801336288452
1696081751219308300,4.044308349609375,-1.957212209701538,1.1032226085662842,1.0073168277740479
1696081751229308400,4.054308349609375,-1.7989981174468994,1.4917329549789429,0.7409795522689819
1696081751239308300,4.064308349609375,-1.5894713401794434,1.7104226350784302,0.5968153476715088
1696081751249308400,4.074308349609375,-1.3897184133529663,1.6847662925720215,0.5913175344467163
1696081751259308300,4.084308349609375,-1.2565498352050781,1.49906325340271,0.6603453159332275
1696081751269308400,4.094308349609375,-1.1844676733016968,1.3274102210998535,0.7422012686729431
1696081751279308300,4.104308349609375,-1.1362093687057495,1.236391305923462,0.7959573864936829
1696081751289308400,4.114308349609375,-1.1068878173828125,1.2589932680130005,0.826500654220581
1696081751299308300,4.124308349609375,-1.083064079284668,1.3463469743728638,0.826500654220581
1696081751309308400,4.134308349609375,-1.006095051765442,1.480737328529358,0.7831292152404785
1696081751319308300,4.144308349609375,-0.901637077331543,1.6175711154937744,0.6933320760726929
1696081751329308400,4.154308349609375,-0.7849618196487427,1.7256942987442017,0.588874101638794
1696081751339308300,4.164308349609375,-0.6627888083457947,1.7629570960998535,0.4789183437824249
1696081751349308400,4.174308349609375,-0.5436700582504272,1.7055357694625854,0.3579670190811157
1696081751359308300,4.184308349609375,-0.4050036668777466,1.5766432285308838,0.23151792585849762
1696081751369308400,4.194308349609375,-0.24373523890972137,1.356731653213501,0.08735372871160507
1696081751379308300,4.204308349609375,-0.06902777403593063,1.0641272068023682,-0.07269296050071716
1696081751389308400,4.214308349609375,0.10018189996480942,0.7519751191139221,-0.24556782841682434
1696081751399308300,4.224308349609375,0.2480112910270691,0.46547931432724,-0.41599923372268677
1696081751409308400,4.234308349609375,0.384845107793808,0.2174680233001709,-0.5894849896430969
1696081751419308300,4.244308349609375,0.543059229850769,0.0006108652451075613,-0.7531968355178833
1696081751429308400,4.254308349609375,0.7397578358650208,-0.20341812074184418,-0.9162978529930115
1696081751439308300,4.264308349609375,0.921795666217804,-0.4001167416572571,-1.0989465713500977
1696081751449308400,4.274308349609375,0.9877691268920898,-0.5937610268592834,-1.3194689750671387
1696081751459308300,4.284308349609375,0.9352346658706665,-0.7281513810157776,-1.5137240886688232
1696081751469308400,4.294308349609375,0.797789990901947,-0.6762278079986572,-1.539380431175232
1696081751479308500,4.30430859375,0.5595525503158569,-0.4098905920982361,-1.289536476135254
1696081751489308400,4.314308349609375,0.2535090744495392,0.029932396486401558,-0.9279043078422546
1696081751499308500,4.32430859375,0.0354301854968071,0.4948008358478546,-0.6957755088806152
1696081751509308400,4.334308349609375,-0.08979719132184982,0.6493497490882874,-0.5192354321479797
1696081751519308300,4.344308349609375,-0.25534167885780334,0.6646214127540588,-0.21441370248794556
1696081751529308400,4.354308349609375,-0.47342056035995483,0.7470881938934326,0.19486601650714874
1696081751539308300,4.364308349609375,-0.5962044596672058,0.7360926270484924,0.43737950921058655
1696081751549308400,4.374308349609375,-0.5937610268592834,0.4990769028663635,0.4331034719944
1696081751559308300,4.384308349609375,-0.5601634383201599,0.1612684279680252,0.2382374405860901
1696081751569308400,4.394308349609375,-0.43127086758613586,-0.3335324227809906,-0.027488935738801956
1696081751579308300,4.404308349609375,-0.1618792861700058,-0.9327912330627441,-0.192422553896904
1696081751589308400,4.414308349609375,0.12828169763088226,-1.6798794269561768,-0.31093040108680725
1696081751599308800,4.424308837890625,0.4001167416572571,-2.481334686279297,-0.41111230850219727
1696081751609309000,4.434308837890625,0.6420193910598755,-2.7788259983062744,-0.37568211555480957
1696081751619308800,4.444308837890625,0.7336491346359253,-2.2003366947174072,-0.10812314599752426
1696081751629309000,4.454308837890625,0.5100724697113037,-1.035416603088379,0.2968805134296417
1696081751639308800,4.464308837890625,0.3646865487098694,0.010995574295520782,0.42638394236564636
1696081751649309000,4.474308837890625,0.5247332453727722,0.24068090319633484,0.3445279896259308
1696081751659308800,4.484308837890625,0.8289441466331482,-0.021991148591041565,0.252287358045578
1696081751669309000,4.494308837890625,1.0965031385421753,-0.23273965716362,0.08429940044879913
1696081751679308800,4.504308837890625,1.156978726387024,-0.20097467303276062,-0.23029619455337524
1696081751689309000,4.514308837890625,1.043968677520752,-0.1215621829032898,-0.5222898125648499
1696081751699308800,4.524308837890625,0.9089674949645996,-0.27611109614372253,-0.6591235995292664
1696081751709309000,4.534308837890625,0.8417723178863525,-0.720820963382721,-0.7031059265136719
1696081751719308800,4.544308837890625,0.8429940342903137,-1.2974777221679688,-0.7391469478607178
1696081751729309000,4.554308837890625,0.8594874143600464,-1.807550311088562,-0.8356636762619019
1696081751739308800,4.564308837890625,0.8662069439888,-2.0592267513275146,-0.9706648588180542
1696081751749309000,4.574308837890625,0.8546004891395569,-1.9792033433914185,-1.1203268766403198
1696081751759308800,4.584308837890625,0.8643743395805359,-1.7177530527114868,-1.2950342893600464
1696081751769308700,4.59430859375,0.9242390990257263,-1.5638149976730347,-1.436144232749939
1696081751779308800,4.604308837890625,0.998153805732727,-1.5632041692733765,-1.4697418212890625
1696081751789308700,4.61430859375,1.0482447147369385,-1.4758504629135132,-1.398881435394287
1696081751799308800,4.624308837890625,1.0677924156188965,-1.1380419731140137,-1.2681562900543213
1696081751809308700,4.63430859375,1.0574077367782593,-0.5436700582504272,-1.1215485334396362
1696081751819308800,4.644308837890625,1.0128145217895508,0.16065755486488342,-0.9926560521125793
1696081751829308700,4.65430859375,0.9431759119033813,0.7513642311096191,-0.911410927772522
1696081751839308800,4.664308837890625,0.8619308471679688,1.0769554376602173,-0.9010262489318848
1696081751849308700,4.67430859375,0.8002334833145142,1.160033106803894,-0.9260717034339905
1696081751859308800,4.684308837890625,0.7684684991836548,1.0708467960357666,-0.9285151958465576
1696081751869308700,4.69430859375,0.7318165898323059,0.8600982427597046,-0.8735373020172119
1696081751879308800,4.704308837890625,0.6896668672561646,0.655458390712738,-0.7635815739631653
1696081751889308700,4.71430859375,0.6432411074638367,0.44165557622909546,-0.6475171446800232
1696081751899308300,4.724308349609375,0.5858197808265686,0.2541199326515198,-0.5510004758834839
1696081751909308200,4.73430810546875,0.5528330206871033,0.14905111491680145,-0.49235737323760986
1696081751919308300,4.744308349609375,0.5528330206871033,0.09224065393209457,-0.513126790523529
1696081751929308200,4.75430810546875,0.5418374538421631,-0.007941247895359993,-0.59803706407547
1696081751939308300,4.764308349609375,0.5375614166259766,-0.1722639948129654,-0.7098253965377808
1696081751949308200,4.77430810546875,0.5485569834709167,-0.40683624148368835,-0.8038986921310425
1696081751959308300,4.784308349609375,0.5577199459075928,-0.6811147332191467,-0.856433093547821
1696081751969308400,4.794308349609375,0.5644394755363464,-0.902247965335846,-0.8973610401153564
1696081751979308300,4.804308349609375,0.5876523852348328,-0.970054030418396,-0.9547823667526245
1696081751989308400,4.814308349609375,0.6188064813613892,-0.8527678847312927,-0.979827880859375
1696081751999308300,4.824308349609375,0.6432411074638367,-0.48685958981513977,-0.9669997096061707
1696081752009308400,4.834308349609375,0.6414085030555725,-0.05009094998240471,-0.9321803450584412
1696081752019308300,4.844308349609375,0.6352998614311218,0.17409659922122955,-0.9108000993728638
1696081752029308200,4.85430810546875,0.6475171446800232,0.06108652427792549,-0.9419541954994202
1696081752039308300,4.864308349609375,0.6768386960029602,-0.2877175211906433,-0.9871582388877869
1696081752049308200,4.87430810546875,0.7183775305747986,-0.627358615398407,-0.9541715383529663
1696081752059308300,4.884308349609375,0.7611380815505981,-0.778853178024292,-0.7867944240570068
1696081752069308200,4.89430810546875,0.7757988572120667,-0.7605272531509399,-0.5076290369033813
1696081752079308300,4.904308349609375,0.7660250067710876,-0.6780604124069214,-0.19058994948863983
1696081752089308200,4.91430810546875,0.750142514705658,-0.5583308339118958,0.07819075137376785
1696081752099308300,4.924308349609375,0.7348709106445312,-0.42577308416366577,0.2767219543457031
1696081752109308200,4.93430810546875,0.6982190012931824,-0.27550023794174194,0.4043927788734436
1696081752119308300,4.944308349609375,0.6249151229858398,-0.14905111491680145,0.455705463886261
1696081752129308200,4.95430810546875,0.5094616413116455,-0.2822197377681732,0.37690386176109314
1696081752139308300,4.964308349609375,0.35552358627319336,-0.7446447610855103,0.16249015927314758
1696081752149308200,4.97430810546875,0.13500121235847473,-1.3078625202178955,-0.042760565876960754
1696081752159308300,4.984308349609375,-0.12034045159816742,-1.6096298694610596,-0.054367005825042725
1696081752169308200,4.99430810546875,-0.3701843321323395,-1.4550809860229492,0.18509216606616974
1696081752179308300,5.004308349609375,-0.6395758986473083,-0.901637077331543,0.5876523852348328
1696081752189308200,5.01430810546875,-0.8973610401153564,-0.1814269721508026,1.0054842233657837
1696081752199308300,5.024308349609375,-1.112385630607605,0.3805690407752991,1.3341296911239624
1696081752209308200,5.03430810546875,-1.2620476484298706,0.5858197808265686,1.577254056930542
1696081752219308300,5.044308349609375,-1.3646728992462158,0.4495968222618103,1.7788395881652832
1696081752229308400,5.054308349609375,-1.4813482761383057,0.2626720666885376,1.9541579484939575
1696081752239308300,5.064308349609375,-1.6438384056091309,0.2919935882091522,2.1087067127227783
1696081752249308400,5.074308349609375,-1.8136589527130127,0.48808133602142334,2.2406537532806396
1696081752259308300,5.084308349609375,-1.976149082183838,0.6236934065818787,2.3487768173217773
1696081752269308200,5.09430810546875,-2.105041742324829,0.44104471802711487,2.476447820663452
1696081752279308300,5.104308349609375,-2.1710150241851807,-0.13988813757896423,2.629163980484009
1696081752289308200,5.11430810546875,-2.2241604328155518,-0.7941248416900635,2.676811456680298
1696081752299308300,5.124308349609375,-2.2009475231170654,-1.2559388875961304,2.5112669467926025
1696081752309308200,5.13430810546875,-2.010357618331909,-1.4831807613372803,2.141693592071533
1696081752319308300,5.144308349609375,-1.719585657119751,-1.580308437347412,1.6468926668167114
1696081752329308200,5.15430810546875,-1.4575244188308716,-1.5717562437057495,1.0800096988677979
1696081752339308300,5.164308349609375,-1.301142930984497,-1.6713273525238037,0.6670648455619812
1696081752349308200,5.17430810546875,-1.312138557434082,-1.6939293146133423,0.5839871764183044
1696081752359308300,5.184308349609375,-1.5137240886688232,-1.3127493858337402,0.8130616545677185
1696081752369308200,5.19430810546875,-1.7837265729904175,-0.5253441333770752,1.1178834438323975
1696081752379308300,5.204308349609375,-1.9443840980529785,0.4801400899887085,1.2553280591964722
1696081752389308200,5.21430810546875,-1.9523253440856934,1.3359622955322266,1.197906732559204
1696081752399308300,5.224308349609375,-1.8197675943374634,1.7531832456588745,1.0280861854553223
1696081752409308200,5.23430810546875,-1.6200146675109863,1.778228759765625,0.8533787727355957
1696081752419308300,5.244308349609375,-1.4330898523330688,1.5741997957229614,0.7110471725463867
1696081752429308200,5.25430810546875,-1.318858027458191,1.2852604389190674,0.5907067060470581
1696081752439308300,5.264308349609375,-1.2388347387313843,1.1942415237426758,0.5729916095733643
1696081752449308400,5.274308349609375,-1.186300277709961,1.2760975360870361,0.636521577835083
1696081752459308300,5.284308349609375,-1.1508700847625732,1.4330898523330688,0.7171558141708374
1696081752469308400,5.294308349609375,-1.1270463466644287,1.5485434532165527,0.7751879692077637
1696081752479308500,5.30430859375,-1.092837929725647,1.585806131362915,0.7867944240570068
1696081752489308700,5.31430859375,-1.0305296182632446,1.5986343622207642,0.7299839854240417
1696081752499308500,5.32430859375,-0.9443976879119873,1.566258430480957,0.6163630485534668
1696081752509308700,5.33430859375,-0.8252789378166199,1.4685200452804565,0.47769662737846375
1696081752519308500,5.34430859375,-0.6768386960029602,1.357953429222107,0.303600013256073
1696081752529308700,5.35430859375,-0.49357911944389343,1.2589932680130005,0.11362093687057495
1696081752539308500,5.36430859375,-0.27611109614372253,1.158811330795288,-0.07269296050071716
1696081752549308700,5.37430859375,-0.04886921867728233,1.0629055500030518,-0.24923302233219147
1696081752559308500,5.38430859375,0.15821409225463867,0.9908234477043152,-0.4147774875164032
1696081752569308700,5.39430859375,0.3439171314239502,0.9560040831565857,-0.5723807215690613
1696081752579308500,5.40430859375,0.5112941861152649,0.949895441532135,-0.7257078886032104
1696081752589308700,5.41430859375,0.6872233748435974,0.9242390990257263,-0.8753699064254761
1696081752599308500,5.42430859375,0.8949176073074341,0.8411614298820496,-1.018923282623291
1696081752609308700,5.43430859375,1.0793988704681396,0.6713408827781677,-1.2137892246246338
1696081752619308500,5.44430859375,1.1429288387298584,0.3842342495918274,-1.5039502382278442
1696081752629308700,5.45430859375,1.056796908378601,0.0507018156349659,-1.7892242670059204
1696081752639308500,5.46430859375,0.8521569967269897,-0.0959058403968811,-1.9211711883544922
1696081752649308700,5.47430859375,0.5583308339118958,0.0403171069920063,-1.7831156253814697
1696081752659308500,5.48430859375,0.22357667982578278,0.19120082259178162,-1.4715744256973267
1696081752669308700,5.49430859375,-0.05803219974040985,0.11056660860776901,-1.2376129627227783
1696081752679308500,5.50430859375,-0.18631389737129211,-0.08979719132184982,-1.0073168277740479
1696081752689308700,5.51430859375,-0.3017674386501312,-0.2541199326515198,-0.38728857040405273
1696081752699308500,5.52430859375,-0.413555771112442,-0.1765400618314743,0.4550946056842804
1696081752709308700,5.53430859375,-0.4862487316131592,-0.16249015927314758,0.8698720932006836
1696081752719308800,5.544308837890625,-0.5229006409645081,-0.44104471802711487,0.9108000993728638
1696081752729308700,5.55430859375,-0.4960225820541382,-0.8069530129432678,0.7037167549133301
1696081752739308500,5.56430859375,-0.35185837745666504,-1.1716395616531372,0.37201693654060364
1696081752749308700,5.57430859375,-0.033597588539123535,-1.3494013547897339,0.0555887371301651
1696081752759308500,5.58430859375,0.394008070230484,-1.376279354095459,-0.16554448008537292
1696081752769308700,5.59430859375,0.8057312369346619,-1.5106697082519531,-0.43737950921058655
1696081752779308300,5.604308349609375,1.0488556623458862,-0.9169087409973145,-0.9205739498138428
1696081752789308400,5.614308349609375,1.0543533563613892,0.35552358627319336,-1.1691961288452148
1696081752799308300,5.624308349609375,0.750142514705658,1.0293079614639282,-0.8497135639190674
1696081752809308400,5.634308349609375,0.18570303916931152,0.7006624341011047,-0.2541199326515198
1696081752819308300,5.644308349609375,-0.15454891324043274,-0.4489859640598297,0.1973094791173935
1696081752829308400,5.654308349609375,-0.13439035415649414,-1.309084177017212,0.45692721009254456
1696081752839308300,5.664308349609375,0.030543262138962746,-1.2858713865280151,0.3579670190811157
1696081752849308400,5.674308349609375,0.17959438264369965,-0.7648032903671265,0.015882495790719986
1696081752859308300,5.684308349609375,0.22479841113090515,-0.2528982162475586,-0.39217549562454224
1696081752869308400,5.694308349609375,0.30482175946235657,-0.1368338167667389,-0.6719517707824707
1696081752879308300,5.704308349609375,0.5772676467895508,-0.4178318381309509,-0.7611380815505981
1696081752889308400,5.714308349609375,0.8643743395805359,-0.9040805697441101,-0.7568620443344116
1696081752899308300,5.724308349609375,1.0629055500030518,-1.2968668937683105,-0.7348709106445312
1696081752909308400,5.734308349609375,1.1520918607711792,-1.4202617406845093,-0.7745771408081055
1696081752919308300,5.744308349609375,1.216843605041504,-1.2877039909362793,-0.9382890462875366
1696081752929308400,5.754308349609375,1.2528846263885498,-0.9963212013244629,-1.166752576828003
1696081752939308300,5.764308349609375,1.2321151494979858,-0.6346889734268188,-1.4013248682022095
1696081752949308200,5.77430810546875,1.19912850856781,-0.33108896017074585,-1.5925257205963135
1696081752959308300,5.784308349609375,1.2046263217926025,-0.2968805134296417,-1.6682729721069336
1696081752969308400,5.794308349609375,1.2589932680130005,-0.5583308339118958,-1.5778648853302002
1696081752979308300,5.804308349609375,1.3145819902420044,-0.8796459436416626,-1.3744467496871948
1696081752989308400,5.814308349609375,1.3371840715408325,-1.054964303970337,-1.1252137422561646
1696081752999308300,5.824308349609375,1.3420709371566772,-0.9767735004425049,-0.9187413454055786
1696081753009308400,5.834308349609375,1.3267992734909058,-0.7122688889503479,-0.7947356700897217
1696081753019308300,5.844308349609375,1.2767083644866943,-0.39156460762023926,-0.7281513810157776
1696081753029308200,5.85430810546875,1.2137892246246338,-0.05742133408784866,-0.6805039048194885
1696081753039308300,5.864308349609375,1.1368201971054077,0.2919935882091522,-0.637132465839386
1696081753049308200,5.87430810546875,1.0128145217895508,0.6298020482063293,-0.5913175344467163
1696081753059308300,5.884308349609375,0.856433093547821,0.8955284357070923,-0.5485569834709167
1696081753069308200,5.89430810546875,0.7171558141708374,1.037249207496643,-0.4948008358478546
1696081753079308300,5.904308349609375,0.646906316280365,0.979827880859375,-0.46792277693748474
1696081753089308200,5.91430810546875,0.6334672570228577,0.7061602473258972,-0.5009095072746277
1696081753099308300,5.924308349609375,0.6450737118721008,0.2021963894367218,-0.5778785347938538
1696081753109308200,5.93430810546875,0.627358615398407,-0.3579670190811157,-0.6768386960029602
1696081753119308300,5.944308349609375,0.5607742667198181,-0.8032878041267395,-0.770301103591919
1696081753129308200,5.95430810546875,0.513737678527832,-1.1282681226730347,-0.8570439219474792
1696081753139308300,5.964308349609375,0.513126790523529,-1.3060299158096313,-0.9193521738052368
1696081753149308200,5.97430810546875,0.5650503635406494,-1.1716395616531372,-0.93095862865448
1696081753159308300,5.984308349609375,0.6126978397369385,-0.7849618196487427,-0.8979719281196594
1696081753169308200,5.99430810546875,0.6194173693656921,-0.3854559659957886,-0.8692612648010254
1696081753179308300,6.004308349609375,0.5968153476715088,-0.24007004499435425,-0.8979719281196594
1696081753189308200,6.01430810546875,0.5913175344467163,-0.4080579876899719,-0.969443142414093
1696081753199308300,6.024308349609375,0.6243042945861816,-0.7483099102973938,-1.014647126197815
1696081753209308200,6.03430810546875,0.6866125464439392,-0.9914342761039734,-0.9285151958465576
1696081753219308300,6.044308349609375,0.7721336483955383,-0.9608910083770752,-0.6579018831253052
1696081753229308400,6.054308349609375,0.8442157506942749,-0.7617489695549011,-0.2681698501110077
1696081753239308300,6.064308349609375,0.8741481900215149,-0.5216789245605469,0.1264491081237793
1696081753249308400,6.074308349609375,0.8570439219474792,-0.3396410644054413,0.4202753007411957
1696081753259308300,6.084308349609375,0.8118399381637573,-0.2431243658065796,0.5711590051651001
1696081753269308200,6.09430810546875,0.7324274182319641,-0.11178833991289139,0.6041457056999207
1696081753279308300,6.104308349609375,0.6096435189247131,0.022602014243602753,0.5479460954666138
1696081753289308200,6.11430810546875,0.4599815309047699,-0.05803219974040985,0.35674530267715454
1696081753299308300,6.124308349609375,0.30543261766433716,-0.4813618063926697,0.03176499158143997
1696081753309308200,6.13430810546875,0.13744467496871948,-1.0592403411865234,-0.28649580478668213
1696081753319308300,6.144308349609375,-0.09285151958465576,-1.433700680732727,-0.4105014503002167
1696081753329308200,6.15430810546875,-0.4300491213798523,-1.4410310983657837,-0.2620611786842346
1696081753339308300,6.164308349609375,-0.8246681094169617,-1.1740829944610596,0.12217304855585098
1696081753349308200,6.17430810546875,-1.2015719413757324,-0.7757988572120667,0.6646214127540588
1696081753359308300,6.184308349609375,-1.510058879852295,-0.19547687470912933,1.2479976415634155
1696081753369308200,6.19430810546875,-1.750128984451294,0.4080579876899719,1.8087719678878784
1696081753379308300,6.204308349609375,-1.9688186645507812,0.8857545852661133,2.2577579021453857
1696081753389308200,6.21430810546875,-2.1954495906829834,1.19607412815094,2.509434461593628
1696081753399308300,6.224308349609375,-2.428189277648926,1.1887437105178833,2.573575258255005
1696081753409308200,6.23430810546875,-2.610227108001709,0.8289441466331482,2.506380081176758
1696081753419308300,6.244308349609375,-2.7140743732452393,0.1563815027475357,2.4074199199676514
1696081753429308200,6.25430810546875,-2.7256808280944824,-0.4715879559516907,2.3493876457214355
1696081753439308300,6.264308349609375,-2.6224443912506104,-0.8344419002532959,2.3512203693389893
1696081753449308400,6.274308349609375,-2.431854486465454,-0.9236282706260681,2.3164010047912598
1696081753459308300,6.284308349609375,-2.182621479034424,-0.9156870245933533,2.172236919403076
1696081753469308400,6.294308349609375,-1.9016234874725342,-1.0903944969177246,1.9559905529022217
1696081753479308300,6.304308349609375,-1.6475036144256592,-1.4104878902435303,1.6310101747512817
1696081753489308200,6.31430810546875,-1.4398094415664673,-1.8087719678878784,1.253495454788208
1696081753499308300,6.324308349609375,-1.3353514671325684,-1.940108060836792,0.988379955291748
1696081753509308200,6.33430810546875,-1.3518447875976562,-1.6499470472335815,0.8539896011352539
1696081753519308300,6.344308349609375,-1.4874569177627563,-0.9358455538749695,0.837496280670166
1696081753529308200,6.35430810546875,-1.6047430038452148,-0.003054326167330146,0.8399397134780884
1696081753539308300,6.364308349609375,-1.616349458694458,0.8936958312988281,0.7929030656814575
1696081753549308200,6.37430810546875,-1.5546520948410034,1.6297885179519653,0.6927211880683899
1696081753559308300,6.384308349609375,-1.4471397399902344,2.0922133922576904,0.5821545720100403
1696081753569308200,6.39430810546875,-1.3420709371566772,2.2742512226104736,0.48319441080093384
1696081753579308300,6.404308349609375,-1.2779301404953003,2.1282544136047363,0.4251621961593628
1696081753589308200,6.41430810546875,-1.2223412990570068,1.884519338607788,0.44837507605552673
1696081753599308300,6.424308349609375,-1.1759155988693237,1.6603317260742188,0.5345070958137512
1696081753609308200,6.43430810546875,-1.150259256362915,1.5045610666275024,0.6163630485534668
1696081753619308300,6.444308349609375,-1.1337659358978271,1.49906325340271,0.6450737118721008
1696081753629308200,6.45430810546875,-1.0952813625335693,1.6548339128494263,0.6346889734268188
1696081753639308300,6.464308349609375,-1.0207557678222656,1.8723019361495972,0.5650503635406494
1696081753649308200,6.47430810546875,-0.8998045325279236,2.001805305480957,0.45326200127601624
1696081753659308300,6.484308349609375,-0.7348709106445312,2.0415115356445312,0.3127630054950714
1696081753669308200,6.49430810546875,-0.5406157374382019,1.9822577238082886,0.15821409225463867
1696081753679308300,6.504308349609375,-0.34086281061172485,1.7702875137329102,-0.00733038317412138
1696081753689308200,6.51430810546875,-0.15943582355976105,1.4172073602676392,-0.182648703455925
1696081753699308300,6.524308349609375,0.006108652334660292,1.0458012819290161,-0.37262779474258423
1696081753709308200,6.53430810546875,0.16920967400074005,0.7635815739631653,-0.5705481171607971
1696081753719308300,6.544308349609375,0.3439171314239502,0.5424483418464661,-0.7660250067710876
1696081753729308200,6.55430810546875,0.5461135506629944,0.2987131178379059,-0.9541715383529663
1696081753739308300,6.564308349609375,0.759305477142334,0.02015855349600315,-1.130711555480957
1696081753749308200,6.57430810546875,0.9535606503486633,-0.2590068578720093,-1.3017538785934448
1696081753759308300,6.584308349609375,1.0806206464767456,-0.4789183437824249,-1.5008958578109741
1696081753769308200,6.59430810546875,1.0598511695861816,-0.6609562039375305,-1.7244726419448853
1696081753779308300,6.604308349609375,0.902247965335846,-0.8240572214126587,-1.8869627714157104
1696081753789308200,6.61430810546875,0.6505714654922485,-0.7617489695549011,-1.7360789775848389
1696081753799308300,6.624308349609375,0.29626965522766113,-0.3549126982688904,-1.2247848510742188
1696081753809308200,6.63430810546875,-0.06963863968849182,-0.10018189996480942,-0.8240572214126587
1696081753819308300,6.644308349609375,-0.38606682419776917,-0.35735616087913513,-0.750142514705658
1696081753829308200,6.65430810546875,-0.5968153476715088,-0.3194825351238251,-0.617584764957428
1696081753839307800,6.664307861328125,-0.6939429044723511,0.08735372871160507,-0.018325956538319588
1696081753849308000,6.674307861328125,-0.7422012686729431,0.23579397797584534,0.5345070958137512
1696081753859307800,6.684307861328125,-0.7354817390441895,0.08246681094169617,0.6835582256317139
1696081753869308000,6.694307861328125,-0.6982190012931824,-0.0555887371301651,0.5607742667198181
1696081753879307800,6.704307861328125,-0.5491678714752197,-0.24862214922904968,0.2926044464111328
1696081753889308000,6.714307861328125,-0.2687807083129883,-0.4392121136188507,-0.02321287989616394
1696081753899307800,6.724307861328125,0.09896016865968704,-0.6615670323371887,-0.2638937830924988
1696081753909308000,6.734307861328125,0.46242499351501465,-1.320690631866455,-0.4086688458919525
1696081753919307800,6.744307861328125,0.7739662528038025,-1.7263051271438599,-0.5149593949317932
1696081753929308000,6.754307861328125,0.9645562171936035,-1.1899654865264893,-0.5876523852348328
1696081753939307800,6.764307861328125,0.8161159753799438,-0.4392121136188507,-0.3396410644054413
1696081753949308000,6.774307861328125,0.3121521472930908,-0.2834414839744568,0.22479841113090515
1696081753959307800,6.784307861328125,0.028099801391363144,-0.5345070958137512,0.5791002511978149
1696081753969308000,6.794307861328125,0.07696902006864548,-1.0458012819290161,0.827111542224884
1696081753979308000,6.80430810546875,0.3292563557624817,-0.9877691268920898,0.6536257863044739
1696081753989308000,6.814307861328125,0.6029239892959595,-0.4660901725292206,0.1466076523065567
1696081753999308000,6.82430810546875,0.7929030656814575,0.06352998316287994,-0.30970868468284607
1696081754009308000,6.834307861328125,0.9853256344795227,0.2370157092809677,-0.5369505286216736
1696081754019307800,6.844307861328125,1.2131783962249756,-0.00366519158706069,-0.5815436840057373
1696081754029308000,6.854307861328125,1.4080443382263184,-0.5412266254425049,-0.5491678714752197
1696081754039307800,6.864307861328125,1.5418238639831543,-1.111163854598999,-0.5057964324951172
1696081754049308000,6.874307861328125,1.570534586906433,-1.4715744256973267,-0.5418374538421631
1696081754059307800,6.884307861328125,1.5277739763259888,-1.5497651100158691,-0.6798930168151855
1696081754069308000,6.894307861328125,1.4404202699661255,-1.3622294664382935,-0.911410927772522
1696081754079308000,6.90430810546875,1.3408491611480713,-1.0512990951538086,-1.1985175609588623
1696081754089308000,6.914307861328125,1.284038782119751,-0.7580837607383728,-1.4776830673217773
1696081754099308000,6.92430810546875,1.281595230102539,-0.6597344875335693,-1.6560556888580322
1696081754109308000,6.934307861328125,1.32863187789917,-0.7733554244041443,-1.6945401430130005
1696081754119308000,6.94430810546875,1.380555510520935,-0.9737191796302795,-1.5735888481140137
1696081754129308000,6.954307861328125,1.3952162265777588,-1.1453723907470703,-1.340238332748413
1696081754139308300,6.964308349609375,1.3720033168792725,-1.214400053024292,-1.0836749076843262
1696081754149308400,6.974308349609375,1.3255776166915894,-1.0952813625335693,-0.8796459436416626
1696081754159308300,6.984308349609375,1.253495454788208,-0.7635815739631653,-0.7654141783714294
1696081754169308400,6.994308349609375,1.1661417484283447,-0.2877175211906433,-0.7171558141708374
1696081754179308300,7.004308349609375,1.0952813625335693,0.242513507604599,-0.6982190012931824
1696081754189308400,7.014308349609375,0.9999864101409912,0.788627028465271,-0.6737843751907349
1696081754199308300,7.024308349609375,0.8631525635719299,1.2651019096374512,-0.6218608021736145
1696081754209308400,7.034308349609375,0.759305477142334,1.5063936710357666,-0.5736024379730225
1696081754219308300,7.044308349609375,0.7098253965377808,1.5112806558609009,-0.5552765130996704
1696081754229308400,7.054308349609375,0.7171558141708374,1.2956452369689941,-0.5772676467895508
1696081754239308300,7.064308349609375,0.7483099102973938,0.8307767510414124,-0.6646214127540588
1696081754249308400,7.074308349609375,0.7605272531509399,0.20097467303276062,-0.8008443117141724
1696081754259308000,7.08430810546875,0.7550294399261475,-0.4098905920982361,-0.9083566069602966
1696081754269308000,7.094307861328125,0.7727445363998413,-0.8539896011352539,-0.9773843884468079
1696081754279308000,7.10430810546875,0.8332201838493347,-1.0812314748764038,-1.0054842233657837
1696081754289307100,7.11430712890625,0.9065240025520325,-1.1020009517669678,-1.0024298429489136
1696081754299307300,7.124307373046875,0.9492846131324768,-0.9468411207199097,-0.970054030418396
1696081754309307100,7.13430712890625,0.9450085163116455,-0.7531968355178833,-0.941343367099762
1696081754319307300,7.144307373046875,0.9028588533401489,-0.7092145681381226,-0.9517280459403992
1696081754329307100,7.15430712890625,0.8631525635719299,-0.8655960559844971,-0.9767735004425049
1696081754339307300,7.164307373046875,0.856433093547821,-1.0855075120925903,-0.931569516658783
1696081754349307100,7.17430712890625,0.8839219808578491,-1.0946705341339111,-0.749531626701355
1696081754359307300,7.184307373046875,0.9297369122505188,-0.7611380815505981,-0.44715335965156555
1696081754369307100,7.19430712890625,0.9541715383529663,-0.23884831368923187,-0.13011430203914642
1696081754379307000,7.20430712890625,0.9291260242462158,0.1918116807937622,0.11972958594560623
1696081754389307100,7.21430712890625,0.8790351152420044,0.3793473243713379,0.27550023794174194
1696081754399307000,7.22430712890625,0.8246681094169617,0.313373863697052,0.3488040566444397
1696081754409307100,7.23430712890625,0.7580837607383728,0.06963863968849182,0.36102136969566345
1696081754419307000,7.24430712890625,0.6603453159332275,-0.24862214922904968,0.34086281061172485
1696081754429307100,7.25430712890625,0.5125159621238708,-0.5351179838180542,0.30482175946235657
1696081754439307000,7.26430712890625,0.3292563557624817,-0.778853178024292,0.2638937830924988
1696081754449307100,7.27430712890625,0.10812314599752426,-0.9108000993728638,0.2571742534637451
1696081754459307000,7.28430712890625,-0.18020524084568024,-0.7415903806686401,0.35063666105270386
1696081754469307100,7.29430712890625,-0.5662720799446106,-0.19853121042251587,0.5546656250953674
1696081754479307000,7.30430712890625,-0.9578366875648499,0.2535090744495392,0.8197811841964722
1696081754489307100,7.31430712890625,-1.2467759847640991,0.39767327904701233,1.1184942722320557
1696081754499307000,7.32430712890625,-1.463022232055664,0.6230825781822205,1.4685200452804565
1696081754509307100,7.33430712890625,-1.6969836950302124,1.0775662660598755,1.8405369520187378
1696081754519307000,7.34430712890625,-2.0274617671966553,1.5094480514526367,2.127643585205078
1696081754529307100,7.35430712890625,-2.39214825630188,1.6633861064910889,2.2369885444641113
1696081754539307000,7.36430712890625,-2.5521950721740723,1.6212363243103027,2.233323335647583
1696081754549307100,7.37430712890625,-2.783102035522461,1.3390166759490967,2.197282314300537
1696081754559307500,7.3843076171875,-2.869234085083008,0.770301103591919,2.2400429248809814
1696081754569307400,7.394307373046875,-2.7763824462890625,-0.03726277872920036,2.4275784492492676
1696081754579307500,7.4043076171875,-2.5747969150543213,-0.8991936445236206,2.648711681365967
1696081754589308200,7.41430810546875,-2.3848178386688232,-1.3561208248138428,2.5674667358398438
1696081754599308300,7.424308349609375,-2.182621479034424,-1.3939944505691528,2.1587977409362793
1696081754609308200,7.43430810546875,-1.9535470008850098,-1.4672982692718506,1.6536122560501099
1696081754619308300,7.444308349609375,-1.7244726419448853,-1.670716404914856,1.1771373748779297
1696081754629308200,7.45430810546875,-1.5815300941467285,-1.6878206729888916,0.770301103591919
1696081754639308300,7.464308349609375,-1.5112806558609009,-1.5821410417556763,0.6218608021736145
1696081754649308200,7.47430810546875,-1.5387696027755737,-1.188132882118225,0.8203920125961304
1696081754659308300,7.484308349609375,-1.6096298694610596,-0.5192354321479797,1.0629055500030518
1696081754669308200,7.49430810546875,-1.6279559135437012,0.2785545587539673,1.0855075120925903
1696081754679308300,7.504308349609375,-1.6273449659347534,1.0024298429489136,0.931569516658783
1696081754689308200,7.51430810546875,-1.5919147729873657,1.444696307182312,0.6792821288108826
1696081754699308300,7.524308349609375,-1.5125023126602173,1.5693128108978271,0.4648684561252594
1696081754709308200,7.53430810546875,-1.4092661142349243,1.5387696027755737,0.4105014503002167
1696081754719308300,7.544308349609375,-1.3170254230499268,1.395827054977417,0.48380526900291443
1696081754729308400,7.554308349609375,-1.264491081237793,1.2962560653686523,0.6023131608963013
1696081754739308300,7.564308349609375,-1.2418889999389648,1.228450059890747,0.7226535677909851
1696081754749308400,7.574308349609375,-1.2321151494979858,1.1759155988693237,0.8307767510414124
1696081754759308300,7.584308349609375,-1.2064588069915771,1.214400053024292,0.8979719281196594
1696081754769308400,7.594308349609375,-1.140485405921936,1.2870930433273315,0.8833111524581909
1696081754779308300,7.604308349609375,-1.0268645286560059,1.330464482307434,0.7959573864936829
1696081754789308400,7.614308349609375,-0.8698720932006836,1.4062118530273438,0.6536257863044739
1696081754799308300,7.624308349609375,-0.6780604124069214,1.4941763877868652,0.47830748558044434
1696081754809308400,7.634308349609375,-0.4502076804637909,1.5112806558609009,0.2968805134296417
1696081754819308300,7.644308349609375,-0.21135938167572021,1.3811663389205933,0.1258382350206375
1696081754829308400,7.654308349609375,0.02382374368607998,1.1160508394241333,-0.03298672288656235
1696081754839308300,7.664308349609375,0.26511552929878235,0.8112290501594543,-0.192422553896904
1696081754849308400,7.674308349609375,0.5076290369033813,0.5711590051651001,-0.3396410644054413
1696081754859308300,7.684308349609375,0.749531626701355,0.4343251883983612,-0.47830748558044434
1696081754869308200,7.69430810546875,0.9944885969161987,0.34147366881370544,-0.6395758986473083
1696081754879308300,7.704308349609375,1.2302825450897217,0.23579397797584534,-0.8680394887924194
1696081754889308200,7.71430810546875,1.389107584953308,0.12095131725072861,-1.1942415237426758
1696081754899308300,7.724308349609375,1.3976596593856812,0.013439035043120384,-1.5564846992492676
1696081754909308200,7.73430810546875,1.2608258724212646,0.07208210229873657,-1.7049249410629272
1696081754919308300,7.744308349609375,0.9205739498138428,0.4697553813457489,-1.3048081398010254
1696081754929308200,7.75430810546875,0.40683624148368835,0.8985827565193176,-0.9236282706260681
1696081754939308300,7.764308349609375,-0.15943582355976105,0.8136724829673767,-1.130711555480957
1696081754949308200,7.77430810546875,-0.5644394755363464,0.2217440903186798,-1.6536122560501099
1696081754959308300,7.784308349609375,-0.6010913848876953,-0.694553792476654,-1.5876387357711792
1696081754969308400,7.794308349609375,-0.5626068711280823,-1.3261884450912476,-0.41599923372268677
1696081754979308300,7.804308349609375,-0.7104362845420837,-1.189354658126831,0.6542366743087769
1696081754989308400,7.814308349609375,-0.8020660877227783,-0.9706648588180542,0.8607091307640076
1696081754999308300,7.824308349609375,-0.7354817390441895,-0.988379955291748,0.50335294008255
1696081755009308400,7.834308349609375,-0.5534439086914062,-0.9932668805122375,-0.01038470957428217
1696081755019308300,7.844308349609375,-0.18509216606616974,-0.9731083512306213,-0.34513887763023376
1696081755029308200,7.85430810546875,0.33536502718925476,-0.826500654220581,-0.37568211555480957
1696081755039308300,7.864308349609375,0.7684684991836548,-0.14049901068210602,-0.46242499351501465
1696081755049308200,7.87430810546875,1.0256427526474,0.6389650702476501,-0.607200026512146
1696081755059308300,7.884308349609375,1.218676209449768,1.3768903017044067,-0.6487388610839844
1696081755069308200,7.89430810546875,1.1997393369674683,1.3487904071807861,-0.4862487316131592
1696081755079308300,7.904308349609375,0.6542366743087769,-0.16737708449363708,-0.22846360504627228
1696081755089308200,7.91430810546875,-0.05742133408784866,-2.495384454727173,0.03848451003432274
1696081755099308300,7.924308349609375,-0.4740314185619354,-3.7336084842681885,0.3793473243713379
1696081755109308200,7.93430810546875,-0.46181413531303406,-2.9016098976135254,0.5143485069274902
1696081755119307800,7.944307861328125,-0.1411098688840866,-1.968207836151123,0.45265114307403564
1696081755129308000,7.954307861328125,0.2565633952617645,-1.3329079151153564,0.28099802136421204
1696081755139307800,7.964307861328125,0.5534439086914062,-0.5821545720100403,-0.006719517521560192
1696081755149308000,7.974307861328125,0.8234463334083557,-0.01160643994808197,-0.2981022298336029
1696081755159307800,7.984307861328125,1.1062769889831543,0.27550023794174194,-0.49724429845809937
1696081755169308000,7.994307861328125,1.4019356966018677,0.36651915311813354,-0.6334672570228577
1696081755179307800,8.004307861328124,1.6615535020828247,0.3604104816913605,-0.7250970602035522
1696081755189308000,8.014307861328126,1.7745635509490967,0.3445279896259308,-0.8356636762619019
1696081755199307800,8.024307861328126,1.709811806678772,0.4202753007411957,-1.009149432182312
1696081755209308000,8.034307861328125,1.5601497888565063,0.37690386176109314,-1.2620476484298706
1696081755219307800,8.044307861328125,1.4672982692718506,-0.0861319974064827,-1.5925257205963135
1696081755229308000,8.054307861328125,1.490511178970337,-0.7776314616203308,-1.8496999740600586
1696081755239307800,8.064307861328125,1.5515977144241333,-1.2877039909362793,-1.881464958190918
1696081755249308000,8.074307861328125,1.5668693780899048,-1.4880677461624146,-1.6939293146133423
1696081755259307800,8.084307861328124,1.5265522003173828,-1.3897184133529663,-1.36650550365448
1696081755269308000,8.094307861328126,1.4581353664398193,-1.036027431488037,-0.9932668805122375
1696081755279307800,8.104307861328126,1.3903292417526245,-0.5027421116828918,-0.66584312915802
1696081755289308000,8.114307861328125,1.3359622955322266,0.05192354694008827,-0.45265114307403564
1696081755299307800,8.124307861328125,1.264491081237793,0.48380526900291443,-0.38240164518356323
1696081755309308000,8.134307861328125,1.1679743528366089,0.749531626701355,-0.44593164324760437
1696081755319307800,8.144307861328125,1.0293079614639282,0.9040805697441101,-0.5534439086914062
1696081755329308000,8.154307861328125,0.846659243106842,0.9963212013244629,-0.6029239892959595
1696081755339307800,8.164307861328124,0.7104362845420837,0.931569516658783,-0.6243042945861816
1696081755349308000,8.174307861328124,0.6340781450271606,0.6493497490882874,-0.6444628238677979
1696081755359307800,8.184307861328126,0.6041457056999207,0.12828169763088226,-0.6633996367454529
1696081755369308000,8.194307861328125,0.588874101638794,-0.413555771112442,-0.6591235995292664
1696081755379307800,8.204307861328125,0.5864306092262268,-0.7550294399261475,-0.59803706407547
1696081755389308000,8.214307861328125,0.5962044596672058,-0.8808676600456238,-0.5393940210342407
1696081755399307800,8.224307861328125,0.617584764957428,-0.8307767510414124,-0.5277875661849976
1696081755409308000,8.234307861328125,0.656069278717041,-0.6120869517326355,-0.5314527750015259
1696081755419308300,8.244308349609375,0.6707300543785095,-0.27000242471694946,-0.5387831330299377
1696081755429308200,8.25430810546875,0.6352998614311218,0.015271631069481373,-0.608421802520752
1696081755439308300,8.264308349609376,0.6035348773002625,0.060475658625364304,-0.7709119319915771
1696081755449308200,8.27430810546875,0.617584764957428,-0.17531833052635193,-0.9859365224838257
1696081755459308300,8.284308349609375,0.694553792476654,-0.5626068711280823,-1.1520918607711792
1696081755469308400,8.294308349609375,0.8002334833145142,-0.9065240025520325,-1.1624765396118164
1696081755479308300,8.304308349609375,0.9101892113685608,-0.9865473508834839,-0.9553932547569275
1696081755489308400,8.314308349609375,0.9865473508834839,-0.7544185519218445,-0.5681046843528748
1696081755499308300,8.324308349609375,0.9841039180755615,-0.37201693654060364,-0.12828169763088226
1696081755509308400,8.334308349609374,0.9425650835037231,0.039706241339445114,0.2382374405860901
1696081755519308300,8.344308349609374,0.8894197940826416,0.4043927788734436,0.4807509481906891
1696081755529308200,8.35430810546875,0.8100073337554932,0.6774495840072632,0.627358615398407
1696081755539308300,8.364308349609376,0.6951646208763123,0.6609562039375305,0.6621779203414917
1696081755549308200,8.37430810546875,0.5754350423812866,0.3066543638706207,0.5467243790626526
1696081755559308300,8.384308349609375,0.4502076804637909,-0.2889392673969269,0.2791654169559479
1696081755569308200,8.39430810546875,0.3090978264808655,-0.9859365224838257,-0.04703662544488907
1696081755579308300,8.404308349609375,0.12828169763088226,-1.6420058012008667,-0.2528982162475586
1696081755589308200,8.41430810546875,-0.1966986060142517,-2.0054705142974854,-0.23273965716362
1696081755599308300,8.424308349609374,-0.5907067060470581,-1.940108060836792,0.08002334833145142
1696081755609308200,8.43430810546875,-1.0128145217895508,-1.2657127380371094,0.6823364496231079
1696081755619308300,8.444308349609376,-1.4398094415664673,-0.17104226350784302,1.451415777206421
1696081755629308200,8.45430810546875,-1.8087719678878784,0.8161159753799438,2.090380907058716
1696081755639308300,8.464308349609375,-2.0928242206573486,1.3280210494995117,2.39520263671875
1696081755649308200,8.47430810546875,-2.3267858028411865,1.5357152223587036,2.403754711151123
1696081755659308300,8.484308349609375,-2.609616279602051,1.7122552394866943,2.1954495906829834
1696081755669308200,8.49430810546875,-2.9462029933929443,1.8820757865905762,1.9034560918807983
1696081755679308300,8.504308349609374,-3.2479705810546875,1.6939293146133423,1.6890424489974976
1696081755689308200,8.51430810546875,-3.4348952770233154,0.9046914577484131,1.63467538356781
1696081755699308300,8.524308349609376,-3.3988542556762695,-0.16065755486488342,1.7617353200912476
1696081755709308200,8.53430810546875,-3.1086931228637695,-1.1673635244369507,1.9627100229263306
1696081755719308300,8.544308349609375,-2.6529877185821533,-1.8936822414398193,2.0384573936462402
1696081755729308400,8.554308349609375,-2.1227567195892334,-2.440406560897827,1.9315558671951294
1696081755739308300,8.564308349609375,-1.7079792022705078,-2.735454559326172,1.6646077632904053
1696081755749308400,8.574308349609375,-1.5143349170684814,-2.504547595977783,1.2754865884780884
1696081755759308300,8.584308349609374,-1.463022232055664,-1.651168704032898,0.9663888216018677
1696081755769308200,8.59430810546875,-1.4343116283416748,-0.616973876953125,0.8332201838493347
1696081755779308300,8.604308349609376,-1.4178181886672974,0.22052235901355743,0.7519751191139221
1696081755789308200,8.61430810546875,-1.406822681427002,0.797789990901947,0.636521577835083
1696081755799308300,8.624308349609375,-1.4025466442108154,1.33168625831604,0.4489859640598297
1696081755809308200,8.63430810546875,-1.397048830986023,1.6627751588821411,0.2431243658065796
1696081755819308300,8.644308349609375,-1.405600905418396,1.8643606901168823,0.1215621829032898
1696081755829308200,8.65430810546875,-1.3952162265777588,1.9327776432037354,0.1765400618314743
1696081755839308300,8.664308349609374,-1.359786033630371,1.8753563165664673,0.35246923565864563
1696081755849308200,8.67430810546875,-1.3292428255081177,1.709811806678772,0.5351179838180542
1696081755859308300,8.684308349609376,-1.313360333442688,1.5326608419418335,0.6896668672561646
1696081755869308200,8.69430810546875,-1.2767083644866943,1.3768903017044067,0.8106181621551514
1696081755879308300,8.704308349609375,-1.243721604347229,1.282817006111145,0.8460483551025391
1696081755889308200,8.71430810546875,-1.2119566202163696,1.3225232362747192,0.7941248416900635
1696081755899308300,8.724308349609375,-1.1362093687057495,1.4636331796646118,0.6707300543785095
1696081755909308200,8.73430810546875,-1.0213667154312134,1.670716404914856,0.513126790523529
1696081755919308300,8.744308349609375,-0.8686503767967224,1.8490891456604004,0.3549126982688904
1696081755929308200,8.75430810546875,-0.6982190012931824,1.8735237121582031,0.21991148591041565
1696081755939308300,8.764308349609376,-0.5106833577156067,1.6988162994384766,0.10384709388017654
1696081755949308200,8.77430810546875,-0.3219259977340698,1.4489723443984985,-0.03787364438176155
1696081755959308300,8.784308349609375,-0.1362229436635971,1.2553280591964722,-0.21441370248794556
1696081755969308400,8.794308349609375,0.05619960278272629,1.1203268766403198,-0.41722095012664795
1696081755979308300,8.804308349609375,0.2583959996700287,0.9529497623443604,-0.6212499737739563
1696081755989308400,8.814308349609375,0.4813618063926697,0.7330383062362671,-0.8191702961921692
1696081755999308300,8.824308349609375,0.7293730974197388,0.46242499351501465,-1.0140362977981567
1696081756009308400,8.834308349609374,0.9926560521125793,0.1814269721508026,-1.2162326574325562
1696081756019308300,8.844308349609374,1.2290608882904053,-0.07330382615327835,-1.4288138151168823
1696081756029308200,8.85430810546875,1.3823879957199097,-0.29504790902137756,-1.6383405923843384
1696081756039308300,8.864308349609376,1.3939944505691528,-0.44287729263305664,-1.835650086402893
1696081756049308200,8.87430810546875,1.2589932680130005,-0.4355469346046448,-1.8949040174484253
1696081756059308300,8.884308349609375,0.9468411207199097,-0.11728613078594208,-1.6004669666290283
1696081756069308200,8.89430810546875,0.5155702829360962,0.3481931984424591,-1.186300277709961
1696081756079308300,8.904308349609375,0.11850785464048386,0.4349360466003418,-0.988990843296051
1696081756089308200,8.91430810546875,-0.20891591906547546,-0.02932153269648552,-0.9950994849205017
1696081756099308300,8.924308349609374,-0.43127086758613586,-0.4300491213798523,-0.8833111524581909
1696081756109308200,8.93430810546875,-0.588874101638794,-0.49296826124191284,-0.24068090319633484
1696081756119308300,8.944308349609376,-0.6933320760726929,-0.5265658497810364,0.43737950921058655
1696081756129308200,8.95430810546875,-0.7287622094154358,-0.6823364496231079,0.6609562039375305
1696081756139308300,8.964308349609375,-0.6579018831253052,-0.8723155856132507,0.49296826124191284
1696081756149308200,8.97430810546875,-0.41722095012664795,-1.0329731702804565,0.15821409225463867
1696081756159308300,8.984308349609375,-0.013439035043120384,-1.072068452835083,-0.12767083942890167
1696081756169308200,8.99430810546875,0.36224308609962463,-1.0103710889816284,-0.27122417092323303
1696081756179308300,9.004308349609374,0.6517932415008545,-1.2308934926986694,-0.31154128909111023
1696081756189308400,9.014308349609376,0.8283332586288452,-0.8912523984909058,-0.3732386529445648
1696081756199308500,9.02430859375,0.797789990901947,0.14538592100143433,-0.4398229718208313
1696081756209308400,9.034308349609375,0.33536502718925476,0.33658674359321594,-0.18081611394882202
1696081756219308500,9.04430859375,-0.21380282938480377,-0.2919935882091522,0.1814269721508026
1696081756229308400,9.054308349609375,-0.33719760179519653,-1.4092661142349243,0.588874101638794
1696081756239308500,9.06430859375,-0.10751228034496307,-1.7617353200912476,0.7538077235221863
1696081756249308400,9.074308349609375,0.22357667982578278,-1.1563678979873657,0.46303585171699524
1696081756259308500,9.08430859375,0.4404338300228119,-0.5656611919403076,0.08918632566928864
1696081756269308400,9.094308349609374,0.608421802520752,-0.2730567753314972,-0.1514945775270462
1696081756279308500,9.10430859375,0.9199630618095398,-0.34697145223617554,-0.2883284091949463
1696081756289308400,9.114308349609376,1.2327260971069336,-0.5619960427284241,-0.3805690407752991
1696081756299308500,9.12430859375,1.4636331796646118,-0.7623597979545593,-0.48685958981513977
1696081756309308400,9.134308349609375,1.5925257205963135,-0.778853178024292,-0.608421802520752
1696081756319308500,9.14430859375,1.6047430038452148,-0.5992587804794312,-0.7812966704368591
1696081756329308400,9.154308349609375,1.5485434532165527,-0.31459560990333557,-0.9975429177284241
1696081756339308500,9.16430859375,1.4679092168807983,-0.10384709388017654,-1.2486085891723633
1696081756349308400,9.174308349609374,1.4508049488067627,-0.2480112910270691,-1.5332717895507812
1696081756359308500,9.18430859375,1.4996742010116577,-0.7122688889503479,-1.7458528280258179
1696081756369308400,9.194308349609376,1.5485434532165527,-1.1911872625350952,-1.7568484544754028
1696081756379308500,9.20430859375,1.5583171844482422,-1.4373658895492554,-1.5876387357711792
1696081756389308400,9.214308349609375,1.5387696027755737,-1.3585642576217651,-1.318858027458191
1696081756399308500,9.22430859375,1.5204435586929321,-1.054964303970337,-1.0103710889816284
1696081756409308400,9.234308349609375,1.4978415966033936,-0.6426302194595337,-0.7446447610855103
1696081756419308500,9.24430859375,1.4721852540969849,-0.22479841113090515,-0.588263213634491
1696081756429308400,9.254308349609374,1.4404202699661255,0.09651670604944229,-0.5455026626586914
1696081756439308500,9.26430859375,1.3933836221694946,0.3390302062034607,-0.5540547966957092
1696081756449308400,9.274308349609376,1.2822061777114868,0.5192354321479797,-0.5827654600143433
1696081756459308500,9.28430859375,1.084285855293274,0.7385360598564148,-0.5736024379730225
1696081756469308400,9.294308349609375,0.8338310718536377,0.96883225440979,-0.5106833577156067
1696081756479308500,9.30430859375,0.6426302194595337,0.9523389339447021,-0.46731191873550415
1696081756489308400,9.314308349609375,0.5479460954666138,0.5754350423812866,-0.4795292317867279
1696081756499308300,9.324308349609375,0.5161811113357544,-0.11484266817569733,-0.5412266254425049
1696081756509308400,9.334308349609374,0.4911356568336487,-0.8558222055435181,-0.5931501388549805
1696081756519308300,9.344308349609374,0.4899139404296875,-1.2681562900543213,-0.5754350423812866
1696081756529308200,9.35430810546875,0.5296201705932617,-1.3078625202178955,-0.5216789245605469
1696081756539308300,9.364308349609376,0.6065891981124878,-1.0922271013259888,-0.47342056035995483
1696081756549308200,9.37430810546875,0.685390830039978,-0.6957755088806152,-0.43737950921058655
1696081756559308300,9.384308349609375,0.7275404930114746,-0.27488934993743896,-0.4612032473087311
1696081756569308200,9.39430810546875,0.7238753437995911,-0.06291911751031876,-0.6041457056999207
1696081756579308300,9.404308349609375,0.7257078886032104,-0.17898350954055786,-0.8350527882575989
1696081756589308200,9.41430810546875,0.7470881938934326,-0.4856378734111786,-1.0225883722305298
1696081756599308300,9.424308349609374,0.7715228199958801,-0.6517932415008545,-1.0201449394226074
1696081756609308200,9.43430810546875,0.8106181621551514,-0.48808133602142334,-0.7806857824325562
1696081756619308300,9.444308349609376,0.8491026759147644,-0.1569923609495163,-0.3891211748123169
1696081756629308200,9.45430810546875,0.8417723178863525,0.08185594528913498,-0.00427605677396059
1696081756639308300,9.464308349609375,0.79840087890625,0.0024434609804302454,0.2724458873271942
1696081756649308200,9.47430810546875,0.759916365146637,-0.3701843321323395,0.41172316670417786
1696081756659308300,9.484308349609375,0.7476990818977356,-0.7141014933586121,0.45875978469848633
1696081756669308200,9.49430810546875,0.7141014933586121,-0.7531968355178833,0.46547931432724
1696081756679308300,9.504308349609374,0.6212499737739563,-0.5791002511978149,0.4202753007411957
1696081756689308200,9.51430810546875,0.5112941861152649,-0.5106833577156067,0.2834414839744568
1696081756699308300,9.524308349609376,0.41722095012664795,-0.6982190012931824,0.08674286305904388
1696081756709308200,9.53430810546875,0.2632829248905182,-0.9358455538749695,-0.06963863968849182
1696081756719308300,9.544308349609375,0.009773843921720982,-1.0989465713500977,-0.09285151958465576
1696081756729308400,9.554308349609375,-0.2822197377681732,-1.0604621171951294,0.07880161702632904
1696081756739308300,9.564308349609375,-0.5858197808265686,-0.6939429044723511,0.46670106053352356
1696081756749308400,9.574308349609375,-0.9095783233642578,-0.1514945775270462,1.0085384845733643
1696081756759308300,9.584308349609374,-1.2119566202163696,0.2382374405860901,1.5778648853302002
1696081756769308200,9.59430810546875,-1.443474531173706,0.4288274049758911,2.0189096927642822
1696081756779308300,9.604308349609376,-1.5931365489959717,0.637132465839386,2.274862289428711
1696081756789308200,9.61430810546875,-1.8014415502548218,1.1129964590072632,2.344500780105591
1696081756799308300,9.624308349609375,-2.1642956733703613,1.6878206729888916,2.2492058277130127
1696081756809308200,9.63430810546875,-2.6358835697174072,2.070833206176758,2.0360138416290283
1696081756819308300,9.644308349609375,-3.134960412979126,1.9315558671951294,1.803274154663086
1696081756829308200,9.65430810546875,-3.5210273265838623,1.129489779472351,1.6450600624084473
1696081756839308300,9.664308349609374,-3.662137031555176,0.2816088795661926,1.6090190410614014
1696081756849308200,9.67430810546875,-3.4489452838897705,-0.34697145223617554,1.7171422243118286
1696081756859308300,9.684308349609376,-2.9492573738098145,-0.8747590184211731,1.863139033317566
1696081756869308200,9.69430810546875,-2.328007459640503,-1.588249683380127,1.8594738245010376
1696081756879308300,9.704308349609375,-1.8264870643615723,-2.507601737976074,1.6187928915023804
1696081756889308200,9.71430810546875,-1.5968017578125,-3.2149837017059326,1.1563678979873657
1696081756899308300,9.724308349609375,-1.5729780197143555,-3.2082643508911133,0.7385360598564148
1696081756909308200,9.73430810546875,-1.6108516454696655,-2.3041837215423584,0.684779942035675
1696081757204855000,10.02985498046875,0.5387831330299377,-0.5516113042831421,-1.0396926403045654
1696081757214855200,10.039855224609376,0.06719517707824707,-0.4648684561252594,-0.8741481900215149
1696081757224855000,10.04985498046875,-0.3066543638706207,-0.911410927772522,-0.9517280459403992
1696081757234855200,10.059855224609375,-0.5277875661849976,-1.0696250200271606,-0.494189977645874
1696081757244855000,10.06985498046875,-0.7605272531509399,-0.8546004891395569,0.5583308339118958
1696081757254855200,10.079855224609375,-0.8674286603927612,-0.5613851547241211,1.0085384845733643
1696081757264855000,10.08985498046875,-0.807563841342926,-0.18020524084568024,0.8356636762619019
1696081757274855200,10.099855224609374,-0.675006091594696,0.14233160018920898,0.36651915311813354
1696081757284855000,10.10985498046875,-0.3842342495918274,0.2638937830924988,-0.07513642311096191
1696081757294855200,10.119855224609376,0.09834930300712585,0.15271630883216858,-0.3323107063770294
1696081757304855000,10.12985498046875,0.5607742667198181,0.23273965716362,-0.5870414972305298
1696081757314855200,10.139855224609375,0.8423831462860107,0.09773843735456467,-0.8148942589759827
1696081757324855000,10.14985498046875,0.9773843884468079,-0.26022860407829285,-0.7910705208778381
1696081757334855200,10.159855224609375,0.9450085163116455,-0.7324274182319641,-0.47280970215797424
1696081757344855000,10.16985498046875,0.4495968222618103,-1.8313740491867065,0.14233160018920898
1696081757354855200,10.179855224609375,-0.35124751925468445,-2.0702223777770996,0.3579670190811157
1696081757364855000,10.18985498046875,-0.6707300543785095,-1.4428637027740479,0.5638286471366882
1696081757374855200,10.199855224609376,-0.4331034719944,-1.4563027620315552,1.1349875926971436
1696081757384855000,10.20985498046875,0.05314527451992035,-1.3231340646743774,1.171028733253479
1696081757394855200,10.219855224609375,0.5143485069274902,-0.8026769161224365,0.7611380815505981
1696081757404855000,10.22985498046875,0.8472700715065002,-0.3549126982688904,0.3139847218990326
1696081757414855200,10.239855224609375,1.0036516189575195,-0.054367005825042725,-0.025656340643763542
1696081757424855000,10.24985498046875,1.1410962343215942,0.09040805697441101,-0.2541199326515198
1696081757434855200,10.259855224609375,1.3506230115890503,0.02321287989616394,-0.3591887652873993
1696081757444855000,10.26985498046875,1.580308437347412,-0.1368338167667389,-0.35246923565864563
1696081757454855200,10.279855224609374,1.7073683738708496,-0.2272418737411499,-0.32620203495025635
1696081757464855300,10.289855224609376,1.7018705606460571,-0.18325957655906677,-0.3988949954509735
1696081757474855200,10.299855224609376,1.5748106241226196,-0.00366519158706069,-0.6114761233329773
1696081757484855300,10.309855224609375,1.4098769426345825,0.21135938167572021,-0.9376781582832336
1696081757494855200,10.319855224609375,1.3377948999404907,0.12095131725072861,-1.351233959197998
1696081757504855300,10.329855224609375,1.4269812107086182,-0.5821545720100403,-1.8069393634796143
1696081757514855200,10.339855224609375,1.5796974897384644,-1.5467108488082886,-2.0946569442749023
1696081757524855300,10.349855224609374,1.6688838005065918,-2.253481864929199,-2.0531179904937744
1696081757534855200,10.359855224609374,1.670716404914856,-2.5607471466064453,-1.718363881111145
1696081757544855300,10.369855224609376,1.615127682685852,-2.5228734016418457,-1.235169529914856
1696081757554855200,10.379855224609376,1.5332717895507812,-2.222327709197998,-0.7623597979545593
1696081757564855300,10.389855224609375,1.4220943450927734,-1.7220290899276733,-0.4343251883983612
1696081757574855200,10.399855224609375,1.282817006111145,-1.1337659358978271,-0.2987131178379059
1696081757584855300,10.409855224609375,1.1270463466644287,-0.44776421785354614,-0.3072652220726013
1696081757594855200,10.419855224609375,0.9841039180755615,0.3445279896259308,-0.35674530267715454
1696081757604855300,10.429855224609375,0.8637634515762329,1.0390818119049072,-0.41661009192466736
1696081757614855200,10.439855224609374,0.7929030656814575,1.4477506875991821,-0.4550946056842804
1696081757624855300,10.449855224609376,0.7941248416900635,1.6022995710372925,-0.4948008358478546
1696081757634855200,10.459855224609376,0.7898487448692322,1.5259413719177246,-0.5174028873443604
1696081757644855300,10.469855224609375,0.7916813492774963,1.1252137422561646,-0.5143485069274902
1696081757654855200,10.479855224609375,0.8332201838493347,0.38179078698158264,-0.5210680365562439
1696081757664855300,10.489855224609375,0.9010262489318848,-0.5009095072746277,-0.5461135506629944
1696081757674855200,10.499855224609375,0.9682214260101318,-1.226617455482483,-0.5534439086914062
1696081757684855300,10.509855224609375,0.9957103729248047,-1.5735888481140137,-0.5699372887611389
1696081757694855200,10.519855224609374,1.0293079614639282,-1.63467538356781,-0.618195652961731
1696081757704855300,10.529855224609374,1.092837929725647,-1.4654656648635864,-0.7079927921295166
1696081757714855200,10.539855224609376,1.1771373748779297,-1.1087204217910767,-0.8100073337554932
1696081757724855300,10.549855224609376,1.2498302459716797,-0.6890559792518616,-0.901637077331543
1696081757734855200,10.559855224609375,1.2681562900543213,-0.42149701714515686,-0.988379955291748
1696081757744855300,10.569855224609375,1.217454433441162,-0.45265114307403564,-1.0268645286560059
1696081757754855200,10.579855224609375,1.1032226085662842,-0.6090326309204102,-0.9327912330627441
1696081770575510300,23.40051025390625,0.05803219974040985,1.4880677461624146,1.1264355182647705
1696081770585483300,23.410483154296877,0.15332718193531036,1.6352862119674683,1.3530665636062622
1696081770595524000,23.420524169921876,0.2431243658065796,1.6029103994369507,1.5515977144241333
1696081770605537800,23.430537841796873,0.30482175946235657,1.4850133657455444,1.6682729721069336
1696081770615546600,23.440546630859377,0.31031954288482666,1.4306464195251465,1.651168704032898
1696081770625553400,23.450553466796876,0.24129177629947662,1.4874569177627563,1.5149458646774292
1696081770635559000,23.460558837890623,0.12034045159816742,1.6450600624084473,1.289536476135254
1696081770645558800,23.470558837890625,-0.018325956538319588,1.7159204483032227,1.0335839986801147
1696081770655562800,23.480562744140624,-0.14416420459747314,1.455691933631897,0.8057312369346619
1696081770665566200,23.490566162109374,-0.2681698501110077,0.8704829812049866,0.6053674817085266
1696081770675569200,23.500569091796876,-0.37140607833862305,0.2724458873271942,0.3793473243713379
1696081770685571800,23.51057177734375,-0.45631635189056396,-0.18387043476104736,0.15027284622192383
1696081770695574300,23.52057421875,-0.503963828086853,-0.3078760802745819,-0.07269296050071716
1696081770705576400,23.530576416015624,-0.5204572081565857,-0.2834414839744568,-0.23273965716362
1696081770715576600,23.54057666015625,-0.5064072608947754,-0.18387043476104736,-0.28649580478668213
1696081770725578500,23.55057861328125,-0.4795292317867279,-0.09407325088977814,-0.23518311977386475
1696081770735580200,23.560580078125,-0.4453207552433014,-0.02076941914856434,-0.11728613078594208
1696081770745582300,23.570582275390624,-0.413555771112442,-0.029932396486401558,0.024434609338641167
1696081770755584000,23.580583984375,-0.3628539443016052,-0.13377949595451355,0.13255776464939117
1696081770765585400,23.59058544921875,-0.2968805134296417,-0.251676470041275,0.1765400618314743
1696081770775586800,23.6005869140625,-0.24984388053417206,-0.33719760179519653,0.17409659922122955
1696081770785588200,23.610588134765624,-0.24373523890972137,-0.394008070230484,0.14782938361167908
1696081770795588400,23.62058837890625,-0.32986724376678467,-0.5192354321479797,0.08429940044879913
1696081770805589500,23.630589599609376,-0.46670106053352356,-0.6597344875335693,0.009162978269159794
1696081770815590700,23.640590576171874,-0.5607742667198181,-0.6780604124069214,-0.04886921867728233
1696081770825591800,23.650591796875,-0.5943718552589417,-0.6059783101081848,-0.07391469180583954
1696081770835593000,23.660593017578126,-0.578489363193512,-0.5271766781806946,-0.08857546001672745
1696081770845593900,23.67059375,-0.5308418869972229,-0.4715879559516907,-0.08857546001672745
1696081770855595000,23.680594970703126,-0.4642575979232788,-0.4404338300228119,-0.07513642311096191
1696081770865596000,23.690595947265624,-0.3878994286060333,-0.3952298164367676,-0.048258353024721146
1696081770875596800,23.7005966796875,-0.31154128909111023,-0.31520646810531616,-0.014049900695681572
1696081770885598200,23.71059814453125,-0.25595253705978394,-0.24495697021484375,0.02321287989616394
1696081770895597800,23.720597900390626,-0.22052235901355743,-0.22052235901355743,0.05314527451992035
1696081770905598000,23.730597900390624,-0.2070833146572113,-0.22602014243602753,0.04581489413976669
1696081770915597800,23.740597900390625,-0.1973094791173935,-0.24373523890972137,0.00427605677396059
1696081770925598000,23.750597900390623,-0.19364428520202637,-0.23640485107898712,-0.04642575979232788
1696081770935597800,23.760597900390625,-0.19303341209888458,-0.21380282938480377,-0.08368854224681854
1696081770945598700,23.7705986328125,-0.192422553896904,-0.2272418737411499,-0.10995574295520782
1696081770955598800,23.780598876953125,-0.1875356286764145,-0.2822197377681732,-0.1313360333442688
1696081770965598700,23.7905986328125,-0.18936823308467865,-0.3604104816913605,-0.1514945775270462
1696081770975598800,23.800598876953124,-0.20402899384498596,-0.4245513379573822,-0.16859880089759827
1696081770985598700,23.8105986328125,-0.22296582162380219,-0.4789183437824249,-0.1814269721508026
1696081770995598800,23.820598876953124,-0.23518311977386475,-0.5241223573684692,-0.18631389737129211
1696081771005598700,23.8305986328125,-0.24068090319633484,-0.5296201705932617,-0.18325957655906677
1696081771015599600,23.840599609375,-0.24373523890972137,-0.5015203952789307,-0.16493362188339233
1696081771025599700,23.850599853515625,-0.23945917189121246,-0.4538728892803192,-0.13805554807186127
1696081771035599600,23.860599609375,-0.2376265823841095,-0.4001167416572571,-0.10812314599752426
1696081771045599500,23.870599609375,-0.2376265823841095,-0.3292563557624817,-0.08368854224681854
1696081771055599400,23.880599365234374,-0.24190263450145721,-0.23945917189121246,-0.07452555745840073
1696081771065599500,23.890599609375,-0.24984388053417206,-0.14844025671482086,-0.06902777403593063
1696081771075599400,23.900599365234374,-0.2541199326515198,-0.07819075137376785,-0.05192354694008827
1696081771085599500,23.910599609375,-0.26083946228027344,-0.03726277872920036,-0.030543262138962746
1696081771095600400,23.920600341796874,-0.2718350291252136,-0.018936822190880775,-0.016493361443281174
1696081771105600300,23.930600341796875,-0.27488934993743896,-0.025656340643763542,-0.014049900695681572
1696081771115600400,23.940600341796873,-0.26939156651496887,-0.0354301854968071,-0.02015855349600315
1696081771125600300,23.950600341796875,-0.26633724570274353,-0.04459316283464432,0.00366519158706069
1696081771135600400,23.960600341796876,-0.25473082065582275,-0.10445795953273773,0.1618792861700058
1696081771145600300,23.970600341796874,-0.24068090319633484,-0.24495697021484375,0.2816088795661926
1696081771155600400,23.980600341796876,-0.24190263450145721,-0.3396410644054413,0.3341432809829712
1696081771165600300,23.990600341796874,-0.25534167885780334,-0.2822197377681732,0.3292563557624817
1696081771175600400,24.000600341796876,-0.2669481039047241,-0.22907446324825287,0.2926044464111328
1696081771185599700,24.010599853515625,-0.26511552929878235,-0.23884831368923187,0.2528982162475586
1696081771195599600,24.020599609375,-0.2541199326515198,-0.29138273000717163,0.22052235901355743
1696081771205599700,24.030599853515625,-0.2321287989616394,-0.32559117674827576,0.19425514340400696
1696081771215599600,24.040599609375,-0.21380282938480377,-0.3188716471195221,0.17959438264369965
1696081771225599700,24.050599853515624,-0.19853121042251587,-0.2883284091949463,0.16982053220272064
1696081771235599600,24.060599609375,-0.1820378452539444,-0.23945917189121246,0.15271630883216858
1696081771245599700,24.070599853515624,-0.1716531366109848,-0.19853121042251587,0.1459967941045761
1696081771255599600,24.080599609375,-0.1618792861700058,-0.17592918872833252,0.13805554807186127
1696081771265599700,24.090599853515624,-0.15760323405265808,-0.1661553531885147,0.13744467496871948
1696081771275599600,24.100599609375,-0.15577064454555511,-0.1722639948129654,0.13561208546161652
1696081771285599700,24.110599853515627,-0.1514945775270462,-0.17592918872833252,0.12461651116609573
1696081771295599600,24.120599609375,-0.15027284622192383,-0.18448130786418915,0.10995574295520782
1696081771305599700,24.130599853515626,-0.1508837193250656,-0.19792033731937408,0.09468411654233932
1696081771315599600,24.140599609375,-0.14905111491680145,-0.1973094791173935,0.08002334833145142
1696081771325599700,24.150599853515626,-0.14905111491680145,-0.18814650177955627,0.06658431142568588
1696081771335599600,24.160599609375,-0.14538592100143433,-0.17409659922122955,0.04886921867728233
1696081771345599700,24.170599853515625,-0.14416420459747314,-0.15332718193531036,0.02321287989616394
1696081771355599600,24.180599609375,-0.14538592100143433,-0.14416420459747314,0.004886921960860491
1696081771365599700,24.190599853515625,-0.14905111491680145,-0.1466076523065567,0.00427605677396059
1696081771375599600,24.200599609375,-0.15027284622192383,-0.15515977144241333,0.018325956538319588
1696081771385599700,24.210599853515625,-0.14782938361167908,-0.16065755486488342,0.03481931984424591
1696081771395599600,24.220599609375,-0.1466076523065567,-0.15027284622192383,0.04092797264456749
1696081771405599700,24.230599853515624,-0.14905111491680145,-0.13377949595451355,0.033597588539123535
1696081771415599600,24.240599609375,-0.15027284622192383,-0.12217304855585098,0.016493361443281174
1696081771425599700,24.250599853515624,-0.15027284622192383,-0.10506882518529892,-0.004886921960860491
1696081771435599600,24.260599609375,-0.1459967941045761,-0.08796459436416626,-0.02382374368607998
1696081771445599700,24.270599853515623,-0.14477506279945374,-0.08368854224681854,-0.036041051149368286
1696081771455599600,24.280599609375,-0.13744467496871948,-0.08368854224681854,-0.05009094998240471
1696081771465599700,24.290599853515626,-0.12950342893600464,-0.08002334833145142,-0.0659734457731247
1696081771475599600,24.300599609375,-0.12095131725072861,-0.08368854224681854,-0.07452555745840073
1696081771485599700,24.310599853515626,-0.11056660860776901,-0.10445795953273773,-0.06658431142568588
1696081771495599600,24.320599609375,-0.10445795953273773,-0.1319468915462494,-0.04581489413976669
1696081771505599700,24.330599853515626,-0.1014036312699318,-0.15454891324043274,-0.02321287989616394
1696081771515599600,24.340599609375,-0.09773843735456467,-0.17104226350784302,-0.012828170321881771
1696081771525599700,24.350599853515625,-0.09040805697441101,-0.1722639948129654,-0.018936822190880775
1696081771535599600,24.360599609375,-0.08674286305904388,-0.15393804013729095,-0.03176499158143997
1696081771545599700,24.370599853515625,-0.08979719132184982,-0.11728613078594208,-0.05192354694008827
1696081771555599600,24.380599609375,-0.0910189226269722,-0.08185594528913498,-0.06719517707824707
1696081771565599700,24.390599853515624,-0.08735372871160507,-0.056810468435287476,-0.08185594528913498
1696081771575599600,24.400599609375,-0.08002334833145142,-0.0354301854968071,-0.10323622822761536
1696081771585599700,24.410599853515624,-0.06963863968849182,-0.02015855349600315,-0.12767083942890167
1696081771595599600,24.420599609375,-0.05864306539297104,-0.00733038317412138,-0.15760323405265808
1696081771605599700,24.430599853515623,-0.051312681287527084,0.0006108652451075613,-0.19120082259178162
1696081771615599600,24.440599609375,-0.04642575979232788,0.01160643994808197,-0.21991148591041565
1696081771625599700,24.450599853515627,-0.042760565876960754,0.021380282938480377,-0.23640485107898712
1696081771635599600,24.460599609375,-0.036041051149368286,0.04214970022439957,-0.22418753802776337
1696081771645599700,24.470599853515626,-0.031154127791523933,0.07513642311096191,-0.182648703455925
1696081771655599600,24.480599609375,-0.02015855349600315,0.10934487730264664,-0.11545353382825851
1696081771665599700,24.490599853515626,-0.00366519158706069,0.17837265133857727,-0.02076941914856434
1696081771675599600,24.500599609375,0.00733038317412138,0.22418753802776337,0.09957103431224823
1696081771685599700,24.510599853515625,0.018936822190880775,0.22846360504627228,0.18325957655906677
1696081771695599600,24.520599609375,0.02932153269648552,0.23640485107898712,0.21563543379306793
1696081771705599700,24.530599853515625,0.031154127791523933,0.2974913716316223,0.22357667982578278
1696081771715599600,24.540599609375,0.02321287989616394,0.34147366881370544,0.23273965716362
1696081771725599700,24.550599853515624,0.00855211354792118,0.3738495409488678,0.252287358045578
1696081771735599600,24.560599609375,-0.0024434609804302454,0.394618958234787,0.26939156651496887
1696081771745599700,24.570599853515624,-0.01466076634824276,0.3933972120285034,0.2791654169559479
1696081771755599600,24.580599609375,-0.029932396486401558,0.3695734739303589,0.2767219543457031
1696081771765599700,24.590599853515624,-0.05009094998240471,0.36651915311813354,0.26450464129447937
1696081771775599600,24.600599609375,-0.07330382615327835,0.36224308609962463,0.23396138846874237
1696081771785599700,24.610599853515627,-0.08796459436416626,0.3335324227809906,0.1869247704744339
1696081771795599600,24.620599609375,-0.09712757170200348,0.313373863697052,0.14355333149433136
1696081771805599700,24.630599853515626,-0.1062905490398407,0.31520646810531616,0.10323622822761536
1696081771815599600,24.640599609375,-0.11301007121801376,0.32009339332580566,0.07330382615327835
1696081771825599700,24.650599853515626,-0.11728613078594208,0.27977627515792847,0.06780604273080826
1696081771835599600,24.660599609375,-0.12217304855585098,0.22357667982578278,0.09285151958465576
1696081771845599700,24.670599853515625,-0.1466076523065567,0.22968533635139465,0.07635815441608429
1696081771855599600,24.680599609375,-0.17898350954055786,0.16798794269561768,0.06658431142568588
1696081771865599700,24.690599853515625,-0.19425514340400696,0.08857546001672745,0.06108652427792549
1696081771875599600,24.700599609375,-0.19792033731937408,0.04337143152952194,0.051312681287527084
1696081771885599700,24.710599853515625,-0.19975294172763824,0.045204028487205505,0.0354301854968071
1696081771895599600,24.720599609375,-0.20341812074184418,0.0555887371301651,0.01038470957428217
1696081771905599700,24.730599853515624,-0.19792033731937408,0.021380282938480377,-0.015882495790719986
1696081771915599600,24.740599609375,-0.16554448008537292,-0.025656340643763542,-0.03237585723400116
1696081771925599700,24.750599853515624,-0.11301007121801376,-0.04948008432984352,-0.039706241339445114
1696081771935599600,24.760599609375,-0.05864306539297104,-0.02382374368607998,-0.042760565876960754
1696081771945599700,24.770599853515623,-0.025656340643763542,0.02321287989616394,-0.0555887371301651
1696081771955599600,24.780599609375,-0.007941247895359993,0.03420845419168472,-0.08796459436416626
1696081771965599700,24.790599853515626,0.0024434609804302454,-0.033597588539123535,-0.1264491081237793
1696081771975599600,24.800599609375,0.01160643994808197,-0.16310101747512817,-0.15332718193531036
1696081771985599700,24.810599853515626,0.021991148591041565,-0.2981022298336029,-0.16310101747512817
1696081771995599600,24.820599609375,0.03481931984424591,-0.38606682419776917,-0.16004669666290283
1696081772005599700,24.830599853515626,0.0403171069920063,-0.41599923372268677,-0.1514945775270462
1696081772015599600,24.840599609375,0.04886921867728233,-0.4050036668777466,-0.14294247329235077
1696081772025599700,24.850599853515625,0.06475171446800232,-0.38606682419776917,-0.1362229436635971
1696081772035599600,24.860599609375,0.07819075137376785,-0.3738495409488678,-0.1313360333442688
1696081772045599700,24.870599853515625,0.08796459436416626,-0.3628539443016052,-0.13439035415649414
1696081772055599600,24.880599609375,0.09224065393209457,-0.36590829491615295,-0.1466076523065567
1696081772065599700,24.890599853515624,0.0861319974064827,-0.37262779474258423,-0.17287486791610718
1696081772075599600,24.900599609375,0.07024950534105301,-0.3787364661693573,-0.20830504596233368
1696081772085599700,24.910599853515624,0.0555887371301651,-0.37201693654060364,-0.24617868661880493
1696081772095599600,24.920599609375,0.0507018156349659,-0.34147366881370544,-0.2742784917354584
1696081772105599700,24.930599853515623,0.06352998316287994,-0.2718350291252136,-0.27611109614372253
1696081772115599600,24.940599609375,0.07880161702632904,-0.19425514340400696,-0.251676470041275
1696081772125599700,24.950599853515627,0.09896016865968704,-0.12034045159816742,-0.21930062770843506
1696081772135599600,24.960599609375,0.12339477986097336,-0.056810468435287476,-0.192422553896904
1696081772145599700,24.970599853515626,0.14782938361167908,0.004886921960860491,-0.1814269721508026
1696081772155599600,24.980599609375,0.17043140530586243,0.09224065393209457,-0.18448130786418915
1696081772165599700,24.990599853515626,0.18325957655906677,0.13255776464939117,-0.18509216606616974
1696081772175599600,25.000599609375,0.19547687470912933,0.1918116807937622,-0.19120082259178162
1696081772185599700,25.010599853515625,0.19853121042251587,0.21074850857257843,-0.19547687470912933
1696081772195599600,25.020599609375,0.18814650177955627,0.17531833052635193,-0.19853121042251587
1696081772205599700,25.030599853515625,0.16859880089759827,0.10201449692249298,-0.19608774781227112
1696081772215599600,25.040599609375,0.1417207419872284,0.039095375686883926,-0.18814650177955627
1696081772225599700,25.050599853515624,0.1062905490398407,-0.06291911751031876,-0.16798794269561768
1696081772235599600,25.060599609375,0.08246681094169617,-0.1258382350206375,-0.1459967941045761
1696081772245599700,25.070599853515624,0.06841690838336945,-0.10751228034496307,-0.13866640627384186
1696081772255599600,25.080599609375,0.051312681287527084,-0.0757472887635231,-0.13927727937698364
1696081772265599700,25.090599853515624,0.03176499158143997,-0.06475171446800232,-0.14355333149433136
1696081772275599600,25.100599609375,0.006108652334660292,-0.08796459436416626,-0.15027284622192383
1696081772285599700,25.110599853515627,-0.016493361443281174,-0.16371189057826996,-0.15393804013729095
1696081772295599600,25.120599609375,-0.03237585723400116,-0.25961771607398987,-0.15332718193531036
1696081772305599700,25.130599853515626,-0.03848451003432274,-0.2834414839744568,-0.16004669666290283
1696081772315599600,25.140599609375,-0.036041051149368286,-0.2590068578720093,-0.16493362188339233
1696081772325599700,25.150599853515626,-0.02871066704392433,-0.2076941877603531,-0.15943582355976105
1696081772335599600,25.160599609375,-0.02626720629632473,-0.14538592100143433,-0.1466076523065567
1696081772345599700,25.170599853515625,-0.02626720629632473,-0.11545353382825851,-0.1258382350206375
1696081772355599600,25.180599609375,-0.02321287989616394,-0.12522737681865692,-0.10018189996480942
1696081772365599700,25.190599853515625,-0.018325956538319588,-0.14538592100143433,-0.08002334833145142
1696081772375599600,25.200599609375,-0.01038470957428217,-0.14355333149433136,-0.06230825558304787
1696081772385599700,25.210599853515625,-0.00366519158706069,-0.12339477986097336,-0.04214970022439957
1696081772395599600,25.220599609375,0.006108652334660292,-0.09224065393209457,-0.015882495790719986
1696081772405599700,25.230599853515624,0.012217304669320583,-0.07208210229873657,0.012828170321881771
1696081772415599600,25.240599609375,0.01771509274840355,-0.09040805697441101,0.04886921867728233
1696081772425599700,25.250599853515624,0.015882495790719986,-0.09529497474431992,0.08002334833145142
1696081772435599600,25.260599609375,0.0024434609804302454,-0.059864792972803116,0.09285151958465576
1696081772445599700,25.270599853515623,-0.009773843921720982,-0.02015855349600315,0.08979719132184982
1696081772455599600,25.280599609375,-0.01466076634824276,-0.001832595793530345,0.0708603709936142
1696081772465599700,25.290599853515626,-0.01466076634824276,-0.012217304669320583,0.04214970022439957
1696081772475599600,25.300599609375,-0.00855211354792118,-0.045204028487205505,0.015882495790719986
1696081772485599700,25.310599853515626,0.005497787147760391,-0.07696902006864548,-0.00366519158706069
1696081772495599600,25.320599609375,0.021991148591041565,-0.08124507963657379,-0.015271631069481373
1696081772505599700,25.330599853515626,0.03176499158143997,-0.06841690838336945,-0.01466076634824276
1696081772515599600,25.340599609375,0.03481931984424591,-0.0555887371301651,-0.004886921960860491
1696081772525599700,25.350599853515625,0.03237585723400116,-0.051312681287527084,0.00733038317412138
1696081772535599600,25.360599609375,0.03176499158143997,-0.05497787147760391,0.018936822190880775
1696081772545599700,25.370599853515625,0.02932153269648552,-0.051312681287527084,0.02321287989616394
1696081772555599600,25.380599609375,0.02321287989616394,-0.045204028487205505,0.02382374368607998
1696081772565599700,25.390599853515624,0.014049900695681572,-0.04337143152952194,0.02076941914856434
1696081772575599600,25.400599609375,0.018325956538319588,-0.02687807008624077,0.016493361443281174
1696081772585599700,25.410599853515624,0.03237585723400116,-0.006108652334660292,0.013439035043120384
