time,seconds_elapsed,z,y,x
1695713700360932400,0.201932373046875,9.146564483642578,4.124628067016602,3.1232316493988037
1695713700371132400,0.21213232421875,8.835497856140137,4.153341770172119,3.2715866565704346
1695713700381332500,0.22233251953125,8.495118141174316,4.2825541496276855,3.487539052963257
1695713700391532500,0.232532470703125,8.274978637695312,4.512265205383301,3.4779677391052246
1695713700401732400,0.242732421875,7.786244869232178,3.799204111099243,3.449253797531128
1695713700411932400,0.252932373046875,6.598806858062744,2.726621389389038,2.9461629390716553
1695713700422132500,0.263132568359375,6.872186660766602,3.425325632095337,2.1750757694244385
1695713700432332500,0.27333251953125,7.992625713348389,4.316053867340088,1.9884356260299683
1695713700442532400,0.283532470703125,8.136195182800293,3.4923245906829834,2.4675984382629395
1695713700452732400,0.293732421875,8.777471542358398,3.387040376663208,2.9653055667877197
1695713700462932500,0.303932373046875,9.970293998718262,3.276970624923706,2.9078776836395264
1695713700473132500,0.314132568359375,9.381061553955078,3.52103853225708,2.170290231704712
1695713700483332400,0.324332275390625,9.400203704833984,2.7314071655273438,3.281157970428467
1695713700493532400,0.334532470703125,7.796414375305176,2.6739792823791504,3.070589542388916
1695713700503732500,0.344732421875,7.025327205657959,3.434896945953369,2.520240545272827
1695713700513932500,0.3549326171875,4.999803066253662,2.4532413482666016,1.7060825824737549
1695713700524132400,0.36513232421875,3.644867181777954,2.0895323753356934,2.021935224533081
1695713700534332400,0.37533251953125,3.1657042503356934,1.6396816968917847,2.7451658248901367
1695713700544532500,0.385532470703125,3.1417760848999023,1.093519926071167,3.0418758392333984
1695713700554732500,0.395732666015625,3.3619158267974854,0.34636107087135315,2.7260231971740723
1695713700564932400,0.405932373046875,3.562912940979004,-0.3858426511287689,2.280359983444214
1695713700575081000,0.4160810546875,3.538984775543213,-1.2191431522369385,1.9310078620910645
1695713700585130000,0.4261298828125,3.25663161277771,-2.1194427013397217,1.730010747909546
1695713700595147800,0.436147705078125,3.1274192333221436,-3.0867412090301514,1.404586911201477
1695713700605183500,0.44618359375,3.4241292476654053,-4.097110748291016,0.9924231767654419
1695713700615204600,0.45620458984375,3.850649833679199,-4.9878387451171875,0.47557350993156433
1695713700625234000,0.46623388671875,2.7493531703948975,-6.8410797119140625,0.5282155871391296
1695713700635250000,0.47625,3.601198196411133,-6.495915412902832,-0.44386860728263855
1695713700645273900,0.48627392578125,2.8211379051208496,-7.894520282745361,0.26979073882102966
1695713700655341600,0.496341552734375,1.7868403196334839,-9.704092025756836,2.146361827850342
1695713700665384000,0.506384033203125,1.4943177700042725,-10.647462844848633,3.45882511138916
1695713700675384000,0.516384033203125,1.6002001762390137,-11.485548973083496,3.9565322399139404
1695713700685408500,0.526408447265625,1.4177473783493042,-12.400205612182617,4.986044406890869
1695713700695471000,0.53647119140625,2.864208698272705,-12.309277534484863,6.628716945648193
1695713700705511700,0.54651171875,4.908875465393066,-12.376276969909668,9.06580638885498
1695713700715499800,0.556499755859375,6.282954216003418,-13.171292304992676,12.173484802246094
1695713700725535000,0.566534912109375,6.790830612182617,-12.53420352935791,14.132010459899902
1695713700735592200,0.57659228515625,6.26859712600708,-11.638689041137695,16.36810302734375
1695713700745629700,0.586629638671875,5.042873859405518,-10.872387886047363,19.54277992248535
1695713700755656400,0.596656494140625,4.094717979431152,-9.460023880004883,22.41596221923828
1695713700765693000,0.60669287109375,4.214358806610107,-8.286943435668945,25.006193161010742
1695713700775725300,0.616725341796875,4.770092010498047,-6.495915412902832,26.102703094482422
1695713700785761300,0.62676123046875,5.540580749511719,-4.83469820022583,26.467010498046875
1695713700795768000,0.63676806640625,5.885745525360107,-3.3882367610931396,25.805994033813477
1695713700805801200,0.64680126953125,4.913661479949951,-1.4775680303573608,24.163320541381836
1695713700815850800,0.656850830078125,3.8841493129730225,-0.03170489892363548,23.411975860595703
1695713700826015700,0.667015625,2.5429723262786865,1.0121639966964722,23.378475189208984
1695713700836050400,0.677050537109375,0.8051848411560059,1.466800332069397,23.26840591430664
1695713700846085000,0.687085205078125,-2.5322046279907227,1.2658032178878784,22.722244262695312
1695713700855981600,0.696981689453125,-6.607181549072266,1.3519448041915894,21.534805297851562
1695713700866005800,0.707005859375,-10.993824005126953,2.606980323791504,18.6376953125
1695713700876036900,0.717036865234375,-24.223739624023438,4.383052825927734,15.084952354431152
1695713700886061600,0.7270615234375,-54.39543914794922,4.220340728759766,6.297909259796143
1695713700896118300,0.7371181640625,-0.6604190468788147,6.9930243492126465,13.902299880981445
1695713700906146300,0.747146240234375,4.999803066253662,-0.3762713670730591,15.032310485839844
1695713700916169700,0.757169677734375,1.4608181715011597,-5.337191104888916,7.93579626083374
1695713700926197200,0.767197265625,-0.8135597109794617,-6.395416736602783,2.0027925968170166
1695713700936237300,0.7772373046875,0.8578268885612488,-5.974279880523682,3.812962770462036
1695713700946266400,0.787266357421875,-0.21954147517681122,-6.677769660949707,4.789832592010498
1695713700956301800,0.7973017578125,0.07238288223743439,-7.51585578918457,5.532206058502197
1695713700966331400,0.807331298828125,0.4456632137298584,-8.967103004455566,5.905486106872559
1695713700976364000,0.817364013671875,0.2638086974620819,-9.144171714782715,5.096114158630371
1695713700986393900,0.827393798828125,0.6089733839035034,-11.155339241027832,6.441478729248047
1695713700996433000,0.837432861328125,0.5754738450050354,-8.674580574035645,5.862415313720703
1695713701006463500,0.84746337890625,0.19680966436862946,-8.45444107055664,8.01236629486084
1695713701016497200,0.8574970703125,-0.25782662630081177,-7.401000499725342,9.137591361999512
1695713701026528300,0.8675283203125,0.32123643159866333,-7.735995769500732,10.080962181091309
1695713701036560000,0.877559814453125,0.623330295085907,-6.567699909210205,10.114460945129395
1695713701046591000,0.887591064453125,0.4504488706588745,-5.231906890869141,10.325029373168945
1695713701056596200,0.89759619140625,0.3930211067199707,-4.786841869354248,10.665409088134766
1695713701066624500,0.90762451171875,0.33080771565437317,-5.069194793701172,10.952547073364258
1695713701076695000,0.917695068359375,0.5946164131164551,-5.763711452484131,11.330613136291504
1695713701086727700,0.927727783203125,1.0827522277832031,-6.668198585510254,11.464611053466797
1695713701096765700,0.937765625,0.8578268885612488,-7.118647575378418,11.048260688781738
1695713701106798800,0.947798828125,0.12502498924732208,-7.448856830596924,10.952547073364258
1695713701116823600,0.957823486328125,-0.018544375896453857,-8.751151084899902,14.653645515441895
1695713701126856000,0.96785595703125,-0.36311084032058716,-9.196813583374023,15.783656120300293
1695713701136897500,0.9778974609375,-1.0193424224853516,-6.52462911605835,15.348162651062012
1695713701146931000,0.987930908203125,-1.8335003852844238,-4.734199523925781,14.127224922180176
1695713701156953600,0.99795361328125,-3.451646566390991,-3.738187074661255,8.170292854309082
1695713701166985700,1.00798583984375,-2.000998020172119,-3.7429728507995605,14.045868873596191
1695713701177018600,1.0180185546875,3.19441819190979,0.14057832956314087,9.108877182006836
1695713701187050800,1.02805078125,2.466402053833008,0.4612165689468384,1.4763715267181396
1695713701197084400,1.03808447265625,-2.3503501415252686,-0.534795880317688,2.0554347038269043
1695713701207116800,1.04811669921875,-1.3208380937576294,2.913261651992798,1.8161523342132568
1695713701217137700,1.0581376953125,0.833898663520813,3.62153697013855,1.8352949619293213
1695713701227169000,1.0681689453125,1.6959130764007568,1.7306089401245117,3.228515863418579
1695713701237203000,1.078202880859375,2.475973129272461,2.2235305309295654,2.912663459777832
1695713701247234300,1.088234375,1.662413477897644,1.5433706045150757,4.214957237243652
1695713701257258200,1.09825830078125,-0.9571290612220764,1.3710874319076538,5.766702651977539
1695713701267288800,1.108288818359375,-5.496313571929932,0.9547362327575684,4.981258392333984
1695713701277333000,1.1183330078125,-6.387042045593262,-0.20398813486099243,4.555335998535156
1695713701287365000,1.128365234375,-5.678168296813965,0.39900317788124084,3.7220356464385986
1695713701297406200,1.13840625,-5.711667537689209,0.494716078042984,3.678964853286743
1695713701307439000,1.148439208984375,-3.988237142562866,1.5337992906570435,4.1144585609436035
1695713701317464800,1.15846484375,-1.9627127647399902,1.3471591472625732,6.595217227935791
1695713701327497000,1.1684970703125,1.1210373640060425,1.8646070957183838,7.653443336486816
1695713701337526500,1.178526611328125,3.8219358921051025,-1.26699960231781,12.709477424621582
1695713701347558400,1.188558349609375,1.0157532691955566,0.5240281820297241,11.153544425964355
1695713701357589000,1.198589111328125,-1.9722840785980225,-1.6217355728149414,10.756336212158203
1695713701367620900,1.208620849609375,-2.407777786254883,-0.534795880317688,9.118449211120605
1695713701377665000,1.2186650390625,-0.8662018179893494,-0.8171489238739014,9.4390869140625
1695713701387698000,1.228697998046875,2.4711875915527344,0.2315055876970291,12.068201065063477
1695713701397726700,1.238726806640625,5.454439163208008,-1.76051926612854,14.34736442565918
1695713701407759000,1.248759033203125,5.559723377227783,-2.4017956256866455,14.050654411315918
1695713701417784300,1.258784423828125,2.8929226398468018,-3.2829527854919434,12.75793170928955
1695713701427816000,1.26881591796875,0.373878538608551,-4.092324733734131,11.771491050720215
1695713701437851400,1.278851318359375,-0.33918261528015137,-4.786841869354248,12.2739839553833
1695713701447883500,1.288883544921875,-0.25304099917411804,-4.820341110229492,12.680763244628906
1695713701457883100,1.298883056640625,0.03888336941599846,-7.267002582550049,13.50449275970459
1695713701467912000,1.308911865234375,-0.25304099917411804,-10.307682037353516,12.474981307983398
1695713701477980000,1.31897998046875,-0.5455635786056519,-12.79741382598877,9.731609344482422
1695713701488012800,1.3290126953125,0.05802594870328903,-13.578072547912598,7.921439170837402
1695713701498027500,1.339027587890625,-0.6125625967979431,-14.387444496154785,8.61595630645752
1695713701508058400,1.349058349609375,-2.0679969787597656,-14.105091094970703,9.113663673400879
1695713701518110000,1.35910986328125,-2.527418851852417,-11.562119483947754,8.845666885375977
1695713701528143000,1.36914306640625,-2.8630123138427734,-10.834102630615234,9.118449211120605
1695713701538174200,1.37917431640625,-2.3120648860931396,-10.068399429321289,9.156734466552734
1695713701548207000,1.38920703125,-1.7665013074874878,-9.259027481079102,8.888737678527832
1695713701558251000,1.3992509765625,-0.8422735929489136,-8.803792953491211,8.984451293945312
1695713701568285000,1.409284912109375,0.21595224738121033,-8.60758113861084,9.061020851135254
1695713701578313700,1.419313720703125,1.7485551834106445,-8.641080856323242,8.860024452209473
1695713701588347100,1.42934716796875,3.659224033355713,-8.531010627746582,7.93579626083374
1695713701598385200,1.43938525390625,5.473581790924072,-8.00937557220459,6.997211456298828
1695713701608419000,1.449419189453125,5.578866004943848,-7.22871732711792,6.484549522399902
1695713701618447400,1.459447265625,2.571686029434204,-6.270989894866943,7.260422229766846
1695713701628480800,1.469480712890625,-5.237888813018799,-4.049253940582275,9.161520004272461
1695713701638506200,1.47950634765625,-7.560122966766357,-3.5222349166870117,10.914261817932129
1695713701648538600,1.48953857421875,-4.112663745880127,-4.724628448486328,11.378469467163086
1695713701658557700,1.4995576171875,-0.8662018179893494,-5.160121917724609,10.277173042297363
1695713701668588800,1.5095888671875,1.8394824266433716,-5.040481090545654,8.797810554504395
1695713701678641400,1.519641357421875,3.012563705444336,-4.4751763343811035,8.237292289733887
1695713701688674600,1.529674560546875,2.620140790939331,-3.8434712886810303,8.189435958862305
1695713701698706000,1.539705810546875,1.7629120349884033,-3.6227335929870605,8.673383712768555
1695713701708739000,1.549739013671875,0.03888336941599846,-3.4983067512512207,9.640682220458984
1695713701718771700,1.559771728515625,-0.9044869542121887,-3.2350962162017822,9.80817985534668
1695713701728804600,1.5698046875,-0.6173482537269592,-2.9383862018585205,9.798608779907227
1695713701738840000,1.579840087890625,0.03409772366285324,-3.2590243816375732,10.138389587402344
1695713701748873500,1.58987353515625,1.0396814346313477,-2.8522446155548096,10.195816993713379
1695713701758873300,1.599873291015625,0.5419743061065674,-2.397010087966919,10.152746200561523
1695713701768903200,1.609903076171875,0.024526432156562805,-2.5501506328582764,9.501300811767578
1695713701778946300,1.6199462890625,0.2925225794315338,-2.531008243560791,8.955737113952637
1695713701788977400,1.629977294921875,0.40737804770469666,-1.9040886163711548,8.85523796081543
1695713701799035400,1.640035400390625,0.2350948303937912,-2.349153518676758,9.142376899719238
1695713701809069300,1.6500693359375,-1.5314065217971802,-1.8370895385742188,9.884750366210938
1695713701819068400,1.660068359375,-1.9818553924560547,-1.6983058452606201,10.286744117736816
1695713701829098800,1.6700986328125,-1.5894324779510498,-2.0141584873199463,10.751550674438477
1695713701839164400,1.680164306640625,0.6711867451667786,-1.908874273300171,10.277173042297363
1695713701849198300,1.6901982421875,0.11066804826259613,-1.9950158596038818,10.277173042297363
1695713701859204600,1.70020458984375,0.537188708782196,-2.569293260574341,10.01874828338623
1695713701869235700,1.710235595703125,7.551748275756836,-5.773283004760742,6.734001159667969
1695713701879283000,1.720282958984375,-1.057627558708191,-0.5874379873275757,7.0546393394470215
1695713701889315600,1.730315673828125,-3.5090744495391846,-2.0811574459075928,9.223732948303223
1695713701899337000,1.7403369140625,-5.099104881286621,-2.4161527156829834,11.043475151062012
1695713701909368300,1.750368408203125,0.6999006271362305,-1.999801516532898,10.741978645324707
1695713701919389700,1.7603896484375,1.705484390258789,-3.115455150604248,9.659825325012207
1695713701929420300,1.770420166015625,1.1066805124282837,-3.776472330093384,8.773882865905762
1695713701939452000,1.780451904296875,-0.6747759580612183,-2.6368906497955322,7.327421188354492
1695713701949482500,1.790482421875,-1.4165509939193726,-2.5118656158447266,7.260422229766846
1695713701959550500,1.800550537109375,-0.3966103494167328,-2.9623143672943115,8.237292289733887
1695713701969585000,1.8105849609375,0.03409772366285324,-3.1345977783203125,8.538787841796875
1695713701979588900,1.8205888671875,-1.3639088869094849,-3.014956474304199,8.797810554504395
1695713701989620200,1.8306201171875,-0.6221339106559753,-2.8187451362609863,8.242077827453613
1695713701999645200,1.840645263671875,-2.417349100112915,-3.177668571472168,8.668598175048828
1695713702009675800,1.85067578125,-0.5210371017456055,-2.105085611343384,6.997211456298828
1695713702019717000,1.860717041015625,-1.3495519161224365,-6.026922225952148,8.534002304077148
1695713702029749000,1.8707490234375,-0.9188438653945923,-2.6943182945251465,10.286744117736816
1695713702039778600,1.880778564453125,-6.957131862640381,-3.0484559535980225,9.908679008483887
1695713702049810000,1.890809814453125,1.5278172492980957,-1.9854445457458496,11.612966537475586
1695713702059829000,1.9008291015625,1.810768485069275,-3.8386857509613037,9.343374252319336
1695713702069859000,1.910859130859375,-1.5074782371520996,-2.9766714572906494,6.743572235107422
1695713702079907300,1.9209072265625,-0.46360939741134644,-2.3922245502471924,8.323433876037598
1695713702089939500,1.930939453125,0.4265206456184387,-2.578864574432373,10.147960662841797
1695713702099974400,1.940974365234375,-0.3439682424068451,-2.2677977085113525,10.880763053894043
1695713702110006800,1.9510068359375,-0.8327022790908813,-2.2773690223693848,8.38564682006836
1695713702120034300,1.961034423828125,-0.8422735929489136,-2.6225335597991943,7.437490940093994
1695713702130066200,1.971066162109375,0.49351966381073,-3.1920254230499268,6.858428001403809
1695713702140102100,1.98110205078125,3.0029923915863037,-4.164109706878662,7.001997470855713
1695713702150134300,1.99113427734375,-0.052043892443180084,-4.77248477935791,5.733202934265137
1695713702160172800,2.0011728515625,-0.6939185857772827,-4.221537113189697,5.781059741973877
1695713702170205400,2.011205322265625,-0.5934200286865234,-4.19282341003418,6.518647193908691
1695713702180231200,2.021231201171875,0.029312077909708023,-4.173680782318115,7.40399169921875
1695713702190263300,2.03126318359375,-0.06161518394947052,-3.570091485977173,8.151150703430176
1695713702200323600,2.041323486328125,-0.8087740540504456,-3.014956474304199,8.476573944091797
1695713702210358500,2.051358642578125,-0.6317051649093628,-3.555734395980835,8.783453941345215
1695713702220394000,2.06139404296875,-0.8422735929489136,-4.049253940582275,8.917451858520508
1695713702230429000,2.071428955078125,-0.6269195079803467,-4.173680782318115,8.936594009399414
1695713702240456200,2.081456298828125,-0.35832518339157104,-4.197608947753906,8.467002868652344
1695713702250490400,2.091490478515625,-0.10468599200248718,-4.546961307525635,8.342576026916504
1695713702260480800,2.101480712890625,-0.1094716340303421,-4.695914268493652,8.151150703430176
1695713702270510300,2.11151025390625,-0.06640082597732544,-4.575675010681152,8.208578109741211
1695713702280590000,2.121590087890625,-0.47796630859375,-4.432105541229248,8.45743179321289
1695713702290624800,2.131624755859375,-0.39182472229003906,-4.355535507202148,9.722038269042969
1695713702300645600,2.141645751953125,0.029312077909708023,-4.168895244598389,11.416754722595215
1695713702310678800,2.1516787109375,0.10588239878416061,-3.8434712886810303,11.867203712463379
1695713702320712400,2.16171240234375,0.2638086974620819,-3.6083765029907227,12.20219898223877
1695713702330745600,2.17174560546875,0.129810631275177,-3.6323046684265137,13.322638511657715
1695713702340747300,2.181747314453125,0.19202402234077454,-3.0005996227264404,11.929417610168457
1695713702350777600,2.191777587890625,-0.06161518394947052,-3.6227335929870605,9.812965393066406
1695713702360842000,2.201842041015625,-0.267397940158844,-4.365106582641602,8.414361000061035
1695713702370875600,2.211875732421875,-0.6508477330207825,-5.107480049133301,8.237292289733887
1695713702380909800,2.221909912109375,-2.4747767448425293,-5.1840500831604,8.529216766357422
1695713702390943500,2.231943603515625,-2.101496458053589,-4.949553489685059,9.659825325012207
1695713702400972300,2.24197216796875,-2.1206390857696533,-4.9160542488098145,9.33858871459961
1695713702411005400,2.25200537109375,-2.173281192779541,-4.389034748077393,8.045866012573242
1695713702421033500,2.262033447265625,-0.5455635786056519,-3.738187074661255,9.027522087097168
1695713702431066400,2.27206640625,-1.0049854516983032,-2.9383862018585205,9.415159225463867
1695713702441096000,2.282095947265625,-1.2634103298187256,-2.699103832244873,9.482157707214355
1695713702451128000,2.292128173828125,-1.3543375730514526,-2.1098713874816895,9.784252166748047
1695713702461113000,2.302113037109375,-1.28255295753479,-1.9423737525939941,9.472586631774902
1695713702471140600,2.312140625,-1.210768222808838,-1.7796618938446045,8.94137954711914
1695713702481235700,2.322235595703125,-1.0432707071304321,-1.2526426315307617,8.26121997833252
1695713702491270100,2.332270263671875,0.7286145091056824,-1.932802438735962,9.970891952514648
1695713702501294000,2.342294189453125,-3.049652576446533,-0.15134602785110474,10.013962745666504
1695713702511327500,2.352327392578125,1.4225330352783203,-1.2191431522369385,11.258829116821289
1695713702521366300,2.3623662109375,-5.333601474761963,2.0416758060455322,11.426326751708984
1695713702531400200,2.372400146484375,-2.1206390857696533,1.8263218402862549,13.246068000793457
1695713702541425000,2.3824248046875,1.1210373640060425,1.466800332069397,13.016357421875
1695713702551458000,2.3924580078125,3.610769271850586,0.1740778535604477,12.178271293640137
1695713702561492700,2.40249267578125,-0.28654050827026367,1.9028922319412231,12.130414009094238
1695713702571526000,2.41252587890625,-3.025724172592163,2.8223342895507812,11.881561279296875
1695713702581562400,2.422562255859375,1.3698909282684326,2.6596224308013916,12.723834037780762
1695713702591596000,2.432595947265625,2.5094728469848633,2.108675003051758,11.718849182128906
1695713702601618400,2.442618408203125,0.388235479593277,2.008176326751709,8.1224365234375
1695713702611650600,2.452650634765625,4.8466620445251465,0.03529413416981697,2.4771697521209717
1695713702621688000,2.46268798828125,2.2127628326416016,-8.10987377166748,-1.6791633367538452
1695713702631720700,2.472720703125,-2.3982064723968506,-7.601997375488281,2.4436700344085693
1695713702641750800,2.482750732421875,-2.5082762241363525,-7.458428382873535,7.207779884338379
1695713702651783400,2.492783447265625,-3.8733816146850586,-5.485546112060547,7.537989616394043
1695713702661812000,2.50281201171875,-4.552943229675293,-5.854638576507568,6.4701924324035645
1695713702671843800,2.51284375,-4.821537494659424,-7.659425258636475,5.000401020050049
1695713702681859800,2.52285986328125,-4.261018753051758,-7.692924976348877,5.584847927093506
1695713702691890200,2.53289013671875,-2.2546372413635254,-7.8658061027526855,6.901498794555664
1695713702701946400,2.5429462890625,-1.1772687435150146,-9.378668785095215,9.003593444824219
1695713702711979500,2.5529794921875,2.1361923217773438,-6.577271461486816,9.956535339355469
1695713702722010400,2.56301025390625,4.314857482910156,-5.835496425628662,9.650253295898438
1695713702732043000,2.57304296875,2.620140790939331,-4.978267669677734,9.553942680358887
1695713702742087000,2.5830869140625,0.6137589812278748,-3.0245277881622314,11.158329963684082
1695713702752120800,2.593120849609375,-0.7992027401924133,-3.1728827953338623,12.307483673095703
1695713702762118000,2.603117919921875,-0.9475577473640442,-3.115455150604248,12.072986602783203
1695713702772148000,2.61314794921875,-0.641276478767395,-3.105883836746216,11.474183082580566
1695713702782177800,2.623177734375,-0.12382857501506805,-3.531806230545044,10.890334129333496
1695713702792208000,2.633207763671875,1.231107234954834,-3.9248273372650146,9.755537986755371
1695713702802245400,2.643245361328125,1.9926230907440186,-4.446462631225586,8.793025016784668
1695713702812276200,2.653276123046875,2.547757863998413,-4.753342151641846,8.09850788116455
1695713702822330000,2.663330078125,2.902493953704834,-4.992624282836914,6.891927242279053
1695713702832363300,2.67336328125,2.207977056503296,-5.203192710876465,6.187839508056641
1695713702842396000,2.68339599609375,1.0013962984085083,-5.715256690979004,5.97727108001709
1695713702852429000,2.693428955078125,0.21595224738121033,-6.242276191711426,5.795416355133057
1695713702862612000,2.703612060546875,-0.11425728350877762,-6.381059646606445,5.690132141113281
1695713702872643300,2.713643310546875,0.04366901144385338,-6.036493301391602,5.4795637130737305
1695713702882676500,2.723676513671875,0.19680966436862946,-5.835496425628662,5.647061347961426
1695713702892711000,2.7337109375,0.40259242057800293,-6.333203315734863,6.585646152496338
1695713702902744000,2.743744140625,0.537188708782196,-7.334001541137695,7.298707485198975
1695713702912754000,2.75375390625,0.6281159520149231,-8.368298530578613,8.175078392028809
1695713702922809600,2.7638095703125,0.45523449778556824,-9.163313865661621,9.472586631774902
1695713702932842800,2.7738427734375,0.17766708135604858,-9.503094673156738,10.545169830322266
1695713702942876700,2.783876708984375,-0.3535395562648773,-9.555737495422363,11.392827033996582
1695713702952912000,2.793911865234375,-1.34476637840271,-9.2255277633667,10.439885139465332
1695713702962945000,2.803945068359375,-1.3543375730514526,-3.972683906555176,6.422336101531982
1695713702972936400,2.8139365234375,-0.641276478767395,-3.105883836746216,3.985246181488037
1695713702982966500,2.823966552734375,-0.5694918036460876,-2.215155601501465,3.4205398559570312
1695713702992983300,2.8339833984375,-0.641276478767395,-1.262213945388794,3.9086756706237793
1695713703003000000,2.844,-0.5359922647476196,-1.3100703954696655,4.694119930267334
1695713703013016800,2.854016845703125,-0.6269195079803467,-3.077169895172119,5.450251579284668
1695713703023033900,2.864033935546875,0.03409772366285324,-2.895315408706665,5.206183910369873
1695713703033050600,2.874050537109375,0.11066804826259613,-1.8131613731384277,5.096114158630371
1695713703043067400,2.8840673828125,-0.30568310618400574,-1.4249259233474731,4.310669898986816
1695713703053084200,2.894084228515625,-0.97148597240448,-2.4017956256866455,3.70767879486084
1695713703063101200,2.90410107421875,0.4456632137298584,-2.0380866527557373,2.8073792457580566
1695713703073118000,2.914117919921875,0.3690928816795349,-3.4169507026672363,2.3186452388763428
1695713703083148800,2.924148681640625,0.11066804826259613,-3.3547372817993164,1.212562918663025
1695713703093184000,2.93418408203125,-0.372682124376297,-4.532604217529297,0.18783657252788544
1695713703103219200,2.94421923828125,0.9152546525001526,-6.730412006378174,-0.2715853750705719
1695713703113254100,2.954254150390625,1.2406785488128662,-8.157731056213379,-0.6305087804794312
1695713703123289300,2.964289306640625,0.8099704384803772,-10.269396781921387,0.015553346835076809
1695713703133324300,2.97432421875,1.211964726448059,-12.031710624694824,0.8584251403808594
1695713703143359500,2.984359375,1.0923235416412354,-14.660225868225098,1.7874385118484497
1695713703153394700,2.994394775390625,0.6376872062683105,-28.867610931396484,5.182255744934082
1695713703163429600,3.0044296875,-2.316850423812866,-36.337406158447266,4.875974178314209
1695713703173464800,3.01446484375,-4.29451847076416,-31.510482788085938,5.982056617736816
1695713703183496000,3.024495849609375,-2.647658348083496,-20.980867385864258,6.891927242279053
1695713703193527600,3.034527587890625,1.1784651279449463,-11.322836875915527,6.667002201080322
1695713703203559400,3.044559326171875,0.5467599630355835,-7.779066562652588,4.861617565155029
1695713703213591000,3.054591064453125,0.21595224738121033,-6.960721015930176,1.8113667964935303
1695713703223623000,3.064622802734375,-0.3487538993358612,-6.500700950622559,-0.30987054109573364
1695713703233654800,3.07465478515625,0.7525427341461182,-6.2566328048706055,-1.3441680669784546
1695713703243686400,3.084686279296875,0.9248259663581848,-6.644270420074463,-1.7222341299057007
1695713703253718300,3.09471826171875,0.1537388563156128,-7.539783954620361,-1.8855443000793457
1695713703263750000,3.10475,-0.7848458290100098,-9.220742225646973,-2.100898265838623
1695713703273781800,3.11478173828125,0.10588239878416061,-9.675378799438477,-1.5547364950180054
1695713703283812900,3.124812744140625,-0.1621137410402298,-9.694520950317383,-0.5395814776420593
1695713703293844200,3.13484423828125,-1.6037893295288086,-10.326824188232422,-0.4295116662979126
1695713703303875600,3.14487548828125,-2.2881367206573486,-11.097911834716797,-0.06580262631177902
1695713703313906700,3.15490673828125,-1.8478572368621826,-11.45683479309082,0.35114672780036926
1695713703323938000,3.16493798828125,-0.7322037220001221,-11.854043006896973,1.0067801475524902
1695713703333969400,3.174969482421875,0.41216370463371277,-11.040483474731445,1.7682958841323853
1695713703344000500,3.18500048828125,0.6424728631973267,-10.068399429321289,2.012363910675049
1695713703354031900,3.195031982421875,0.3116651475429535,-9.244669914245605,2.03629207611084
1695713703364063200,3.205063232421875,-0.01375873014330864,-8.885746955871582,1.97407865524292
1695713703374094600,3.215094482421875,-0.18125630915164948,-8.789435386657715,1.892722725868225
1695713703384126000,3.2251259765625,-0.16689938306808472,-8.760722160339355,1.3471591472625732
1695713703394158000,3.235157958984375,-0.19561325013637543,-8.885746955871582,0.7674978375434875
1695713703404190200,3.245190185546875,-0.21954147517681122,-9.306883811950684,0.020338991656899452
1695713703414222300,3.255222412109375,-0.7800601720809937,-9.254241943359375,-0.05623133108019829
1695713703424254200,3.265254150390625,-2.3264217376708984,-8.27258586883545,1.064207911491394
1695713703434286300,3.275286376953125,-1.6037893295288086,-8.751151084899902,1.2747762203216553
1695713703444318500,3.285318359375,-0.09032905846834183,-9.531808853149414,1.5337992906570435
1695713703454350600,3.2953505859375,-0.4253242313861847,-9.871589660644531,2.1607189178466797
1695713703464382700,3.3053828125,-1.4213366508483887,-11.10748291015625,1.6630117893218994
1695713703474414800,3.315414794921875,-1.2969099283218384,-11.33240795135498,1.797009825706482
1695713703484446200,3.3254462890625,-0.5934200286865234,-10.791031837463379,1.5672988891601562
1695713703494476500,3.3354765625,-0.47796630859375,-10.432108879089355,1.3471591472625732
1695713703504507100,3.345507080078125,-1.062413215637207,-9.80937671661377,1.4093725681304932
1695713703514537700,3.355537841796875,-1.2969099283218384,-9.072386741638184,1.4620146751403809
1695713703524568300,3.365568359375,-1.2011969089508057,-8.650651931762695,1.5337992906570435
1695713703534599000,3.375598876953125,-1.2442678213119507,-8.665008544921875,1.088136076927185
1695713703544629500,3.38562939453125,-1.210768222808838,-9.014959335327148,0.9349954724311829
1695713703554660000,3.39566015625,-1.4261223077774048,-9.522237777709961,0.8584251403808594
1695713703564690700,3.405690673828125,-1.368694543838501,-9.206384658813477,1.3184453248977661
1695713703574721300,3.41572119140625,-1.7521443367004395,-9.69930648803711,1.1264212131500244
1695713703584753700,3.425753662109375,-1.4261223077774048,-9.694520950317383,1.4141582250595093
1695713703594791000,3.435791015625,-1.2059825658798218,-9.78544807434082,1.212562918663025
1695713703604828400,3.445828369140625,-1.0289137363433838,-10.04447078704834,1.3232308626174927
1695713703614865700,3.45586572265625,-0.9379864931106567,-9.886545181274414,1.1359925270080566
1695713703624903200,3.465903076171875,-1.0145567655563354,-9.7998046875,0.9014959335327148
1695713703634940400,3.4759404296875,-1.0097711086273193,-9.94397258758545,0.6047859191894531
1695713703644978000,3.48597802734375,-0.7992027401924133,-9.503094673156738,1.212562918663025
1695713703655015400,3.496015380859375,-0.914058268070221,-9.407382011413574,1.217348575592041
1695713703665052700,3.506052734375,-0.8566305041313171,-9.460023880004883,1.0929217338562012
1695713703675090000,3.51608984375,-0.9236295223236084,-9.627521514892578,1.179063320159912
1695713703685122300,3.526122314453125,-1.0001999139785767,-9.694520950317383,1.1168500185012817
1695713703695154400,3.536154541015625,-0.5982056856155396,-9.56052303314209,1.2077772617340088
1695713703705186300,3.546186279296875,-0.8039883971214294,-9.273384094238281,1.2652050256729126
1695713703715218400,3.556218505859375,-0.8470591902732849,-9.273384094238281,0.9254241585731506
1695713703725250300,3.566250244140625,-0.9379864931106567,-9.555737495422363,0.5712863802909851
1695713703735282400,3.576282470703125,-0.6460621356964111,-9.7998046875,0.5042873620986938
1695713703745314300,3.586314208984375,-0.698704183101654,-9.570094108581543,0.37507495284080505
1695713703755346400,3.596346435546875,-1.0480563640594482,-9.675378799438477,0.4468596279621124
1695713703765378300,3.60637841796875,-1.0432707071304321,-9.939187049865723,0.4420739710330963
1695713703775410400,3.616410400390625,-0.9954141974449158,-9.857233047485352,0.5473581552505493
1695713703785442600,3.626442626953125,-0.7130611538887024,-9.78544807434082,0.9158528447151184
1695713703795474000,3.636473876953125,-0.6460621356964111,-9.814162254333496,1.1407781839370728
1695713703805505500,3.646505615234375,-0.7752745151519775,-9.488738059997559,1.490728497505188
1695713703815537000,3.656536865234375,-0.9523434042930603,-9.460023880004883,1.2699905633926392
1695713703825568500,3.666568603515625,-0.5886343717575073,-9.756733894348145,1.1982059478759766
1695713703835600000,3.676599853515625,-0.4253242313861847,-9.694520950317383,1.0402796268463135
1695713703845631500,3.686631591796875,-0.3152543902397156,-9.814162254333496,1.0354939699172974
1695713703855662800,3.696662841796875,-0.794417142868042,-9.479166984558105,0.9876375198364258
1695713703865694500,3.706694580078125,-0.8422735929489136,-9.818947792053223,0.8249256014823914
1695713703875725800,3.716725830078125,-0.8949156403541565,-9.622735977172852,1.1886346340179443
1695713703885757700,3.7267578125,-0.7322037220001221,-9.637093544006348,1.6199408769607544
1695713703895787300,3.736787353515625,-1.1341979503631592,-9.474381446838379,1.5672988891601562
1695713703905817000,3.746817138671875,-0.8231309652328491,-9.302098274230957,1.5864413976669312
1695713703915847000,3.756846923828125,-0.6173482537269592,-9.56052303314209,1.179063320159912
1695713703925876700,3.766876708984375,-0.4205385744571686,-9.613164901733398,0.9589236974716187
1695713703935906600,3.776906494140625,-0.641276478767395,-9.292527198791504,1.0115658044815063
1695713703945936400,3.786936279296875,-0.6317051649093628,-9.550951957702637,1.0929217338562012
1695713703955966200,3.79696630859375,-0.4061816334724426,-9.818947792053223,0.8679963946342468
1695713703965996000,3.80699609375,-0.30568310618400574,-9.747162818908691,0.8871390223503113
1695713703976025600,3.817025634765625,-0.3439682424068451,-9.627521514892578,0.8584251403808594
1695713703986057700,3.8270576171875,-0.2721835672855377,-9.651450157165527,0.6478567123413086
1695713703996091600,3.837091552734375,-0.15732808411121368,-9.589237213134766,0.6239284873008728
1695713704006125300,3.847125244140625,-0.2913261651992798,-9.761520385742188,0.40378883481025696
1695713704016159000,3.857158935546875,-0.46839502453804016,-9.45045280456543,0.37507495284080505
1695713704026192600,3.867192626953125,0.010169495828449726,-9.751948356628418,0.1256231814622879
1695713704036226600,3.8772265625,-0.33439695835113525,-9.828518867492676,0.02512463741004467
1695713704046260200,3.88726025390625,-0.4875376224517822,-9.934401512145996,-0.017946170642971992
1695713704056294000,3.8972939453125,-0.4492524564266205,-9.388239860534668,0.5330012440681458
1695713704066327800,3.907327880859375,-0.32961133122444153,-9.235098838806152,0.7387840151786804
1695713704076361500,3.917361572265625,-0.2961117923259735,-9.464810371398926,1.0019944906234741
1695713704086395100,3.92739501953125,-0.5742774605751038,-9.66102123260498,1.1647064685821533
1695713704096428000,3.937427978515625,-0.5838487148284912,-9.82373332977295,1.0737791061401367
1695713704106463500,3.94746337890625,-0.3008974492549896,-10.52782154083252,0.5234299302101135
1695713704116499000,3.9574990234375,-0.08075776696205139,-7.716853141784668,3.568894863128662
1695713704126534400,3.967534423828125,-2.6907291412353516,-5.657829284667969,2.4532413482666016
1695713704136569900,3.97756982421875,0.0005982056609354913,-10.479965209960938,-0.43908295035362244
1695713704146605300,3.987605224609375,0.7334001660346985,-11.988639831542969,-0.037088751792907715
1695713704156640800,3.997640869140625,-0.3439682424068451,-10.747961044311523,0.2841476798057556
1695713704166676200,4.00767626953125,-0.9906286001205444,-9.953543663024902,0.5856433510780334
1695713704176711700,4.017711669921875,-1.3543375730514526,-9.78544807434082,0.8392825126647949
1695713704186747100,4.0277470703125,-1.2969099283218384,-9.651450157165527,1.0019944906234741
1695713704196782600,4.037782470703125,-1.3543375730514526,-9.828518867492676,0.8679963946342468
1695713704206815000,4.04781494140625,-1.2059825658798218,-10.025328636169434,1.064207911491394
1695713704216845600,4.057845458984375,-0.914058268070221,-9.751948356628418,1.4476577043533325
1695713704226876400,4.06787646484375,-0.760917603969574,-9.503094673156738,1.4380863904953003
1695713704236907000,4.077906982421875,-0.7178468108177185,-9.756733894348145,1.3567304611206055
1695713704246937900,4.087937744140625,-0.6939185857772827,-9.948758125305176,1.2556337118148804
1695713704256968400,4.097968505859375,-0.7417750358581543,-10.010972023010254,1.1264212131500244
1695713704266999000,4.1079990234375,-0.9044869542121887,-9.996614456176758,1.0115658044815063
1695713704277030000,4.11802978515625,-0.9667003750801086,-9.92961597442627,1.0929217338562012
1695713704287060500,4.128060546875,-0.8183453679084778,-9.713663101196289,1.1216355562210083
1695713704297091300,4.13809130859375,-0.7561319470405579,-9.584450721740723,1.1168500185012817
1695713704307122000,4.148121826171875,-0.8662018179893494,-9.393025398254395,0.9110672473907471
1695713704317154000,4.158154052734375,-0.9379864931106567,-9.254241943359375,0.5377869009971619
1695713704327185400,4.168185302734375,-0.9858429431915283,-9.17288589477539,0.04426721855998039
1695713704337216500,4.178216552734375,-0.8757730722427368,-9.259027481079102,0.0011964113218709826
1695713704347247900,4.188247802734375,-0.7561319470405579,-9.340383529663086,0.3128615617752075
1695713704357279000,4.198279052734375,-0.6747759580612183,-9.531808853149414,0.5712863802909851
1695713704367310300,4.208310302734375,-0.7513462901115417,-9.747162818908691,0.7579265832901001
1695713704377341400,4.218341552734375,-0.698704183101654,-9.924830436706543,0.9589236974716187
1695713704387372800,4.228372802734375,-0.4253242313861847,-9.958329200744629,0.9302098155021667
1695713704397404000,4.23840380859375,-0.5982056856155396,-9.4121675491333,0.9110672473907471
1695713704407435300,4.248435302734375,-1.0097711086273193,-8.847461700439453,0.2069791555404663
1695713704417466600,4.258466552734375,-1.0145567655563354,-8.62193775177002,-0.49172505736351013
1695713704427499300,4.268499267578125,-0.9379864931106567,-7.846663475036621,0.22612173855304718
1695713704437534500,4.278534423828125,-0.23389841616153717,-9.641879081726074,0.15912270545959473
1695713704447569400,4.2885693359375,1.3938192129135132,-10.666604995727539,0.6430711150169373
1695713704457604600,4.2986044921875,0.8147560954093933,-11.093125343322754,1.1024930477142334
1695713704467639800,4.308639892578125,-0.6652047038078308,-10.106684684753418,1.064207911491394
1695713704477675000,4.318675048828125,-1.7330018281936646,-9.603593826293945,0.7387840151786804
1695713704487710200,4.328710205078125,-2.1206390857696533,-9.790233612060547,0.7962117195129395
1695713704497745200,4.3387451171875,-1.1820544004440308,-9.842875480651855,1.1072787046432495
1695713704507780400,4.3487802734375,-0.5407779216766357,-9.617950439453125,1.0689935684204102
1695713704517815600,4.358815673828125,-1.3208380937576294,-9.507881164550781,0.42771705985069275
1695713704527850800,4.368850830078125,-1.8191434144973755,-9.570094108581543,0.48514479398727417
1695713704537883400,4.37888330078125,-1.2538390159606934,-10.092328071594238,1.7204394340515137
1695713704547916500,4.38891650390625,-0.25304099917411804,-9.115457534790039,1.1982059478759766
1695713704557949400,4.398949462890625,-0.243469700217247,-9.206384658813477,1.3280165195465088
1695713704567982600,4.408982666015625,-0.4205385744571686,-9.316454887390137,1.2939188480377197
1695713704578015500,4.419015380859375,-0.18125630915164948,-9.991828918457031,1.150349497795105
1695713704588048600,4.429048583984375,-0.2147558331489563,-9.670592308044434,1.2556337118148804
1695713704598081500,4.43908154296875,-0.372682124376297,-9.541379928588867,0.6574280261993408
1695713704608114700,4.44911474609375,-0.24825534224510193,-9.33559799194336,0.5377869009971619
1695713704618147600,4.459147705078125,-0.018544375896453857,-9.17288589477539,0.3320041298866272
1695713704628180500,4.469180419921875,0.268594354391098,-9.42173957824707,-0.20937198400497437
1695713704638213600,4.479213623046875,0.27337998151779175,-9.306883811950684,-0.2715853750705719
1695713704648246000,4.48924609375,0.129810631275177,-9.110671997070312,-0.10408778488636017
1695713704658276900,4.49927685546875,-0.1621137410402298,-9.42173957824707,-0.16151553392410278
1695713704668307500,4.509307373046875,-0.41096729040145874,-9.852447509765625,-0.10408778488636017
1695713704678338300,4.51933837890625,-0.8614161610603333,-10.001399993896484,-0.381655216217041
1695713704688369000,4.529368896484375,-0.8135597109794617,-9.876375198364258,-0.26201409101486206
1695713704698399700,4.539399658203125,-0.6508477330207825,-9.708877563476562,-0.6927221417427063
1695713704708430600,4.5494306640625,-0.5407779216766357,-9.704092025756836,-0.6831508874893188
1695713704718461200,4.559461181640625,-0.698704183101654,-9.766305923461914,-0.33379876613616943
1695713704728492000,4.569491943359375,-0.9571290612220764,-10.087542533874512,0.07776673883199692
1695713704738523000,4.57952294921875,-1.1820544004440308,-10.274182319641113,0.4181457459926605
1695713704748553500,4.589553466796875,-1.2394821643829346,-10.27896785736084,0.5760720372200012
1695713704758585600,4.599585693359375,-1.038485050201416,-10.412965774536133,0.34636107087135315
1695713704768616200,4.6096162109375,-1.5798611640930176,-10.436894416809082,-0.11844471842050552
1695713704778647000,4.61964697265625,-1.1198409795761108,-10.537392616271973,-0.3002992272377014
1695713704788677600,4.629677734375,-1.2442678213119507,-10.221540451049805,-0.21415762603282928
1695713704798708500,4.63970849609375,-1.4931213855743408,-10.307682037353516,-0.2763710021972656
1695713704808739000,4.649739013671875,-1.2681959867477417,-10.082756042480469,0.494716078042984
1695713704818770000,4.65977001953125,-1.5409778356552124,-10.173684120178223,0.6478567123413086
1695713704828800500,4.669800537109375,-1.7138592004776,-10.580463409423828,0.4660021960735321
1695713704838831000,4.6798310546875,-1.866999864578247,-10.65224838256836,0.633499801158905
1695713704848862000,4.689862060546875,-1.8239290714263916,-10.307682037353516,0.7387840151786804
1695713704858892500,4.699892578125,-1.7042878866195679,-9.622735977172852,1.1359925270080566
1695713704868925000,4.709925048828125,-1.6947166919708252,-9.268598556518555,1.4380863904953003
1695713704878957800,4.719957763671875,-1.2394821643829346,-9.689735412597656,0.8919246196746826
1695713704888991000,4.729990966796875,-1.0145567655563354,-9.579665184020996,0.8105686902999878
1695713704899024000,4.74002392578125,0.268594354391098,-9.18724250793457,0.9780662655830383
1695713704909057000,4.75005712890625,0.06759724020957947,-9.06281566619873,0.5473581552505493
1695713704919090000,4.76008984375,0.7812566161155701,-9.06281566619873,0.8632107973098755
1695713704929123000,4.770123046875,-0.4013960063457489,-9.349954605102539,0.12083754688501358
1695713704939156000,4.780156005859375,-0.9475577473640442,-9.469595909118652,-0.02273181453347206
1695713704949189000,4.790189208984375,-1.2729816436767578,-8.986245155334473,0.3607180118560791
1695713704959222300,4.80022216796875,-1.6325032711029053,-9.244669914245605,-0.12323036789894104
1695713704969255200,4.810255126953125,-0.851844847202301,-10.149755477905273,-0.15194423496723175
1695713704979288000,4.8202880859375,-1.1820544004440308,-10.89153003692627,0.03469592705368996
1695713704989323500,4.830323486328125,-1.5649060010910034,-10.384251594543457,0.600000262260437
1695713704999359200,4.840359130859375,-1.4021940231323242,-9.670592308044434,0.9493523836135864
1695713705009394700,4.850394775390625,-1.709073543548584,-9.125029563903809,0.877567708492279
1695713705019430400,4.860430419921875,-1.6947166919708252,-8.81814956665039,0.7004988193511963
1695713705029465900,4.8704658203125,-1.8287147283554077,-8.516654014587402,0.9397810697555542
1695713705039501600,4.88050146484375,-2.7912275791168213,-8.669795036315918,0.3032902777194977
1695713705049537300,4.890537353515625,-2.623729944229126,-8.755936622619629,0.5186443328857422
1695713705059572700,4.90057275390625,-2.3647069931030273,-8.890532493591309,0.9493523836135864
1695713705069608400,4.9106083984375,-1.8335003852844238,-8.924032211303711,1.2891331911087036
1695713705079640300,4.920640380859375,-2.1445672512054443,-8.904889106750488,1.2795618772506714
1695713705089668400,4.93066845703125,-2.0297117233276367,-8.9910306930542,1.1024930477142334
1695713705099696600,4.940696533203125,-2.4221346378326416,-8.967103004455566,0.6813562512397766
1695713705109724700,4.950724609375,-2.99222469329834,-8.813364028930664,0.7435696125030518
1695713705119753000,4.9607529296875,-3.4707891941070557,-8.057231903076172,1.5960127115249634
1695713705129781000,4.970781005859375,-3.5617165565490723,-7.554141044616699,2.0554347038269043
1695713705139809300,4.980809326171875,-2.953939437866211,-6.860222339630127,2.568096876144409
1695713705149837300,4.99083740234375,-2.9970104694366455,-7.094718933105469,2.3234307765960693
1695713705159865300,5.000865234375,-3.1453654766082764,-8.124231338500977,0.8344969153404236
1695713705169893600,5.0108935546875,-3.2937204837799072,-8.96231746673584,-0.6927221417427063
1695713705179921700,5.020921630859375,-3.978665828704834,-9.249456405639648,-0.9613165259361267
1695713705189954300,5.030954345703125,-3.7250266075134277,-8.784649848937988,-0.8656035661697388
1695713705199989500,5.040989501953125,-3.73459792137146,-8.38265609741211,-0.4007977843284607
1695713705210025000,5.05102490234375,-4.237090587615967,-8.373085021972656,0.02512463741004467
1695713705220060200,5.06106005859375,-4.466801643371582,-8.535796165466309,0.42771705985069275
1695713705230095400,5.071095458984375,-4.60558557510376,-8.531010627746582,0.6095715761184692
1695713705240130600,5.081130615234375,-4.524229526519775,-8.157731056213379,1.088136076927185
1695713705250165800,5.091165771484375,-4.308875560760498,-7.87059211730957,1.241276741027832
1695713705260201000,5.101200927734375,-4.366302967071533,-7.9040913581848145,1.1312068700790405
1695713705270236400,5.111236328125,-4.519443988800049,-7.971090316772461,1.0546365976333618
1695713705280271600,5.121271728515625,-4.6199421882629395,-8.114660263061523,0.7818548083305359
1695713705290306800,5.131306884765625,-4.648656368255615,-8.286943435668945,0.5377869009971619
1695713705300339700,5.141339599609375,-4.490729808807373,-8.478368759155273,0.13998012244701385
1695713705310373600,5.15137353515625,-4.141377925872803,-8.531010627746582,-0.10408778488636017
1695713705320407800,5.16140771484375,-4.208376884460449,-8.282156944274902,-0.2476571500301361
1695713705330441700,5.171441650390625,-4.3280181884765625,-7.7838521003723145,-0.0849452018737793
1695713705340475600,5.1814755859375,-4.716253280639648,-7.482356548309326,-0.3768695592880249
1695713705350509800,5.191509765625,-5.338387489318848,-7.271788120269775,-0.4007977843284607
1695713705360543700,5.201543701171875,-5.755336761474609,-7.0995049476623535,0.06819544732570648
1695713705370578000,5.211577880859375,-6.190830230712891,-6.946363925933838,0.3080759048461914
1695713705380611800,5.22161181640625,-6.712465763092041,-6.730412006378174,0.40378883481025696
1695713705390646000,5.23164599609375,-7.0097737312316895,-6.754340171813965,0.29371899366378784
1695713705400678000,5.241677978515625,-6.784848690032959,-7.472784996032715,-0.2763710021972656
1695713705410707200,5.251707275390625,-6.358327865600586,-9.158528327941895,-1.5451651811599731
1695713705420736300,5.261736328125,-5.376672267913818,-11.45683479309082,-3.0203404426574707
1695713705430765300,5.271765380859375,-4.409373760223389,-13.769497871398926,-4.092923164367676
1695713705440794400,5.28179443359375,-4.289732933044434,-15.751951217651367,-4.021138668060303
1695713705450823400,5.291823486328125,-4.960321426391602,-17.145172119140625,-2.713460922241211
1695713705460852500,5.3018525390625,-4.3519463539123535,-17.643478393554688,-0.7890332937240601
1695713705470881800,5.3118818359375,-2.1445672512054443,-16.570894241333008,0.9684949517250061
1695713705480910800,5.321910888671875,-1.0767701864242554,-14.866008758544922,2.2229323387145996
1695713705490940000,5.33193994140625,-0.15732808411121368,-12.42413330078125,2.2995026111602783
1695713705500969000,5.341968994140625,2.0069799423217773,-9.043673515319824,0.786640465259552
1695713705511001300,5.35200146484375,3.5772697925567627,-6.093921184539795,-1.0235298871994019
1695713705521034800,5.36203466796875,3.7262229919433594,-4.226323127746582,-2.6560330390930176
1695713705531068400,5.372068359375,2.490330219268799,-3.22552490234375,-3.747758388519287
1695713705541101800,5.382101806640625,1.1497513055801392,-2.9479575157165527,-4.126422882080078
1695713705551135200,5.39213525390625,0.46002015471458435,-3.8147575855255127,-3.6807594299316406
1695713705561169000,5.4021689453125,0.8051848411560059,-5.595615863800049,-2.3641088008880615
1695713705571202300,5.412202392578125,1.9974087476730347,-8.440083503723145,-0.6448656916618347
1695713705581235700,5.422235595703125,3.2135608196258545,-11.112268447875977,0.8392825126647949
1695713705591269400,5.432269287109375,3.888935089111328,-12.682558059692383,1.576870083808899
1695713705601302800,5.442302734375,3.683152198791504,-13.180863380432129,1.954936146736145
1695713705611336400,5.45233642578125,3.0029923915863037,-12.802199363708496,2.266003131866455
1695713705621368800,5.462368896484375,2.4568307399749756,-11.892328262329102,2.4388844966888428
1695713705631402800,5.47240283203125,1.4464613199234009,-10.336395263671875,1.8113667964935303
1695713705641436400,5.4824365234375,1.144965648651123,-9.244669914245605,0.6382854580879211
1695713705651470000,5.492469970703125,1.5469598770141602,-8.487939834594727,-0.07058826833963394
1695713705661503700,5.502503662109375,1.7389838695526123,-8.038089752197266,-0.486939400434494
1695713705671537400,5.512537353515625,2.9312076568603516,-7.779066562652588,-0.7597211599349976
1695713705681571000,5.522571044921875,3.0077781677246094,-7.9280195236206055,-0.43908295035362244
1695713705691605000,5.53260498046875,2.2749760150909424,-8.334799766540527,-0.07058826833963394
1695713705701638700,5.542638671875,1.8059829473495483,-8.665008544921875,0.45164528489112854
1695713705711672300,5.55267236328125,0.5228317379951477,-9.10110092163086,0.9397810697555542
1695713705721706000,5.5627060546875,-0.4827519655227661,-9.483952522277832,1.4620146751403809
1695713705731738000,5.572738037109375,-0.7034898400306702,-9.689735412597656,1.7874385118484497
1695713705741768200,5.582768310546875,-0.6843472719192505,-9.641879081726074,1.8687944412231445
1695713705751798300,5.59279833984375,-0.372682124376297,-9.550951957702637,1.7826528549194336
1695713705761828000,5.602828125,0.33080771565437317,-9.512666702270508,1.7060825824737549
1695713705771858200,5.612858154296875,0.9822536706924438,-9.407382011413574,1.643869161605835
1695713705781888300,5.62288818359375,1.475175142288208,-9.4121675491333,1.648654818534851
1695713705791918300,5.63291845703125,1.5619150400161743,-9.259027481079102,1.557727575302124
1695713705801948400,5.642948486328125,1.054038405418396,-8.933603286743164,1.3758729696273804
1695713705811978500,5.652978515625,0.14895321428775787,-8.578866958618164,1.0115658044815063
1695713705822008300,5.66300830078125,-0.6891329288482666,-8.636295318603516,0.7148557901382446
1695713705832040400,5.67304052734375,-0.9332008361816406,-8.904889106750488,0.45164528489112854
1695713705842072600,5.683072509765625,-0.6747759580612183,-9.215956687927246,0.15912270545959473
1695713705852105000,5.69310498046875,-0.14297115802764893,-9.426525115966797,-0.07058826833963394
1695713705862137000,5.70313720703125,0.38344982266426086,-9.766305923461914,-0.1423729509115219
1695713705872169200,5.713169189453125,0.6664010882377625,-10.006186485290527,-0.22372891008853912
1695713705882201300,5.723201416015625,0.33080771565437317,-10.51346492767334,-0.013160524889826775
1695713705892233500,5.7332333984375,-0.09990034252405167,-11.002198219299316,0.50907301902771
1695713705902265300,5.743265380859375,-0.7369893789291382,-11.547761917114258,1.217348575592041
1695713705912297500,5.75329736328125,-1.2729816436767578,-12.07478141784668,1.978864312171936
1695713705922329900,5.763329833984375,-1.2490534782409668,-12.194422721862793,2.6398816108703613
1695713705932362000,5.773362060546875,-0.6173482537269592,-11.562119483947754,2.9892337322235107
1695713705942394600,5.78339453125,0.40259242057800293,-10.810174942016602,3.118446111679077
1695713705952430300,5.793430419921875,1.2646067142486572,-10.590034484863281,3.5736806392669678
1695713705962465800,5.8034658203125,1.3507484197616577,-10.465607643127441,3.7698919773101807
1695713705972501500,5.81350146484375,0.8961120843887329,-11.169695854187012,3.655036687850952
1695713705982537200,5.823537109375,0.268594354391098,-12.419347763061523,3.2715866565704346
1695713705992573000,5.833572998046875,-0.4731806814670563,-14.008780479431152,2.802593469619751
1695713706002608400,5.8436083984375,-1.7808582782745361,-15.345171928405762,2.2372891902923584
1695713706012644000,5.85364404296875,-2.8677978515625,-14.56929874420166,2.084148406982422
1695713706022679800,5.8636796875,-3.1788649559020996,-12.854841232299805,2.155933141708374
1695713706032715300,5.87371533203125,-2.7385854721069336,-12.32363510131836,2.1367905139923096
1695713706042748200,5.883748046875,-2.6039891242980957,-12.510274887084961,1.3710874319076538
1695713706052781300,5.89378125,-3.647858142852783,-12.553345680236816,-0.09451649338006973
1695713706062814500,5.903814453125,-4.012165546417236,-11.7056884765625,-1.602592945098877
1695713706072847600,5.91384765625,-2.503490686416626,-10.757532119750977,-2.87198543548584
1695713706082880500,5.923880615234375,0.29730820655822754,-10.398609161376953,-3.422334671020508
1695713706092913700,5.93391357421875,2.6009981632232666,-10.451251029968262,-3.34576416015625
1695713706102946800,5.94394677734375,3.476771354675293,-10.987841606140137,-2.9150562286376953
1695713706112980000,5.95397998046875,3.5676984786987305,-12.19920825958252,-2.172683000564575
1695713706123013000,5.96401318359375,3.476771354675293,-13.401002883911133,-1.8424733877182007
1695713706133046000,5.9740458984375,3.046063184738159,-13.879568099975586,-1.7700905799865723
1695713706143078700,5.98407861328125,2.3802602291107178,-13.415360450744629,-1.4973087310791016
1695713706153110000,5.994110107421875,2.9599215984344482,-12.8691987991333,-1.6791633367538452
1695713706163141600,6.0041416015625,2.715853691101074,-12.515060424804688,-1.7748762369155884
1695713706173173000,6.014173095703125,1.0875378847122192,-12.419347763061523,-1.9525432586669922
1695713706183204400,6.024204345703125,-1.5026925802230835,-12.639487266540527,-1.9956140518188477
1695713706193236000,6.034236083984375,-3.308077335357666,-13.02772331237793,-1.8424733877182007
1695713706203267300,6.044267333984375,-2.3742783069610596,-13.357932090759277,-1.76051926612854
1695713706213298700,6.054298583984375,-0.14297115802764893,-13.247862815856934,-1.4111671447753906
1695713706223330300,6.064330322265625,1.5086746215820312,-12.108281135559082,-1.3537393808364868
1695713706233361700,6.074361572265625,3.304488182067871,-10.819746017456055,-2.1774685382843018
1695713706243393300,6.084393310546875,4.109074592590332,-9.689735412597656,-1.602592945098877
1695713706253425200,6.094425048828125,3.778865098953247,-8.004590034484863,-1.0091729164123535
1695713706263454700,6.104454833984375,3.486342668533325,-6.381059646606445,-1.2340983152389526
1695713706273484500,6.114484619140625,3.0173492431640625,-5.08355188369751,-1.1479566097259521
1695713706283514000,6.12451416015625,2.6009981632232666,-3.958326816558838,-0.8512466549873352
1695713706293543700,6.134543701171875,2.207977056503296,-2.943171739578247,-0.7357929348945618
1695713706303573500,6.144573486328125,1.7341982126235962,-2.66560435295105,-0.5970092415809631
1695713706313603000,6.15460302734375,1.412961721420288,-2.641676187515259,-0.6592226624488831
1695713706323632600,6.164632568359375,1.3076776266098022,-2.3922245502471924,-0.8895317912101746
1695713706333662200,6.174662109375,1.140179991722107,-2.531008243560791,-1.4111671447753906
1695713706343692000,6.184692138671875,0.8386843204498291,-2.4879374504089355,-2.1056840419769287
1695713706353721600,6.1947216796875,0.5515456199645996,-2.4017956256866455,-2.770888566970825
1695713706363753700,6.204753662109375,0.24466611444950104,-2.4113669395446777,-3.1830523014068604
1695713706373787100,6.214787109375,-0.1621137410402298,-2.7038896083831787,-3.4031920433044434
1695713706383820300,6.2248203125,-0.5551348328590393,-3.263810157775879,-3.4031920433044434
1695713706393853700,6.234853759765625,-1.0719845294952393,-3.7812578678131104,-3.2165517807006836
1695713706403886800,6.244886962890625,-1.8478572368621826,-4.188037872314453,-2.982055187225342
1695713706413920300,6.254920166015625,-3.2889347076416016,-4.546961307525635,-2.837887763977051
1695713706423953400,6.264953369140625,-4.845465660095215,-4.968696117401123,-2.68953275680542
1695713706433986800,6.27498681640625,-6.343971252441406,-5.55733060836792,-2.699103832244873
1695713706444020000,6.28502001953125,-9.475577354431152,-6.764509677886963,-3.5371899604797363
1695713706454053400,6.295053466796875,-15.489937782287598,-8.583653450012207,-6.089733600616455
1695713706464086500,6.30508642578125,-17.668601989746094,-11.097911834716797,-8.679964065551758
1695713706474119200,6.315119140625,-17.247465133666992,-15.694523811340332,-9.862616539001465
1695713706484153300,6.3251533203125,-18.707685470581055,-21.55095672607422,-10.034899711608887
1695713706494187500,6.3351875,-13.464412689208984,-24.955345153808594,-6.616154670715332
1695713706504221700,6.3452216796875,-7.670193195343018,-22.551755905151367,-2.6081767082214355
1695713706514256100,6.355256103515625,-5.836692810058594,-16.618751525878906,-1.0187442302703857
1695713706524290300,6.365290283203125,-5.5968122482299805,-10.935199737548828,-0.7692924737930298
1695713706534324500,6.375324462890625,-4.701896667480469,-6.874579429626465,-2.4598217010498047
1695713706544358700,6.385358642578125,-2.939582586288452,-4.695914268493652,-5.337789058685303
1695713706554392800,6.395392822265625,-3.1453654766082764,-4.039682865142822,-7.124031066894531
1695713706564427000,6.405427001953125,-3.806382656097412,-5.093122959136963,-6.91765022277832
1695713706574461200,6.415461181640625,1.3268201351165771,-7.861020565032959,-4.327419757843018
1695713706584493300,6.425493408203125,6.163312911987305,-10.312467575073242,-1.6456637382507324
1695713706594523400,6.4355234375,5.411368370056152,-11.227124214172363,-1.119242787361145
1695713706604553500,6.445553466796875,3.4815568923950195,-11.767901420593262,-0.5587241053581238
1695713706614583600,6.45558349609375,2.475973129272461,-11.925827980041504,-0.43908295035362244
1695713706624613400,6.46561328125,1.7533408403396606,-10.901102066040039,-2.311466693878174
1695713706634643500,6.4756435546875,1.7772690057754517,-9.105886459350586,-4.5475592613220215
1695713706644673300,6.48567333984375,2.51425838470459,-7.190432071685791,-5.98444938659668
1695713706654703400,6.495703369140625,3.290131092071533,-5.715256690979004,-6.45822811126709
1695713706664733400,6.5057333984375,3.6879379749298096,-5.332405090332031,-6.022734642028809
1695713706674763300,6.51576318359375,3.3571300506591797,-6.103492259979248,-5.380859851837158
1695713706684795400,6.52579541015625,2.461616277694702,-8.13380241394043,-4.164707660675049
1695713706694827800,6.535827880859375,1.3794622421264648,-10.077970504760742,-3.005983352661133
1695713706704860000,6.54585986328125,1.6959130764007568,-11.13619613647461,-1.8376877307891846
1695713706714892300,6.555892333984375,2.1984057426452637,-11.710474014282227,-0.9373882412910461
1695713706724924400,6.56592431640625,2.011765718460083,-11.657832145690918,-0.6927221417427063
1695713706734956500,6.57595654296875,1.8490537405014038,-11.279766082763672,-0.6352944374084473
1695713706744988700,6.58598876953125,1.9256240129470825,-11.002198219299316,-0.25722843408584595
1695713706755021000,6.59602099609375,2.706282377243042,-10.580463409423828,0.18305093050003052
1695713706765053200,6.60605322265625,3.6640095710754395,-9.330811500549316,-0.2907279431819916
1695713706775085600,6.61608544921875,2.610569477081299,-8.698508262634277,-0.5204389095306396
1695713706785118000,6.626117919921875,1.6576279401779175,-8.210372924804688,-0.05144568532705307
1695713706795151600,6.636151611328125,1.2023934125900269,-8.100302696228027,0.1543370634317398
1695713706805185300,6.646185302734375,0.9152546525001526,-7.990232944488525,-0.05144568532705307
1695713706815219000,6.656218994140625,-0.3248256742954254,-8.253443717956543,-0.778863787651062
1695713706825252600,6.666252685546875,-2.063211441040039,-8.569295883178711,-1.2005987167358398
1695713706835286300,6.676286376953125,-2.8007988929748535,-8.569295883178711,-1.578664779663086
1695713706845320000,6.68631982421875,-2.9347970485687256,-8.416155815124512,-1.6456637382507324
1695713706855353600,6.696353515625,-2.6811578273773193,-8.306085586547852,-1.5068800449371338
1695713706865387000,6.706386962890625,-1.2394821643829346,-8.143373489379883,-1.2484551668167114
1695713706875420700,6.716420654296875,0.46002015471458435,-7.985447406768799,-1.2340983152389526
1695713706885452800,6.726452880859375,1.810768485069275,-7.597211837768555,-1.2867404222488403
1695713706895483600,6.736483642578125,2.5525436401367188,-7.338787078857422,-1.602592945098877
1695713706905514200,6.74651416015625,2.6153552532196045,-7.549355506896973,-2.1343977451324463
1695713706915544800,6.756544921875,2.2749760150909424,-8.253443717956543,-2.6799614429473877
1695713706925575700,6.76657568359375,1.576271891593933,-9.268598556518555,-2.943770170211792
1695713706935606300,6.776606201171875,0.12023933976888657,-10.3890380859375,-2.6081767082214355
1695713706945636900,6.786636962890625,-1.6277176141738892,-11.313265800476074,-1.430309772491455
1695713706955667700,6.796667724609375,-3.3415768146514893,-11.988639831542969,0.010767702013254166
1695713706965698300,6.8066982421875,-4.371088981628418,-12.893126487731934,1.3615161180496216
1695713706975729000,6.81672900390625,-4.227519512176514,-13.932209968566895,2.410170555114746
1695713706985761500,6.826761474609375,-3.159722328186035,-14.411372184753418,2.6494529247283936
1695713706995796200,6.836796142578125,-1.7186448574066162,-13.86521053314209,2.256431818008423
1695713707005830700,6.84683056640625,-0.6652047038078308,-13.11386489868164,1.5290136337280273
1695713707015865300,6.856865234375,-0.6221339106559753,-13.11386489868164,1.2891331911087036
1695713707025899800,6.866899658203125,-1.1054840087890625,-13.731212615966797,0.9110672473907471
1695713707035934500,6.8769345703125,-1.771286964416504,-14.215161323547363,0.13998012244701385
1695713707045969000,6.886968994140625,-2.733799934387207,-14.980864524841309,-1.0713863372802734
1695713707056003600,6.897003662109375,-3.3750762939453125,-15.330814361572266,-1.9812572002410889
1695713707066038000,6.9070380859375,-3.4085757732391357,-13.692927360534668,-1.9525432586669922
1695713707076072700,6.91707275390625,-4.452444553375244,-12.266206741333008,-1.1335997581481934
1695713707086107100,6.927107177734375,-4.6438703536987305,-11.80618667602539,-0.09930214285850525
1695713707096139500,6.937139404296875,-0.5162515044212341,-12.055638313293457,0.4372883439064026
1695713707106170400,6.94717041015625,3.3954153060913086,-12.194422721862793,-0.3720839321613312
1695713707116201200,6.957201171875,4.856233596801758,-11.93061351776123,-1.1383854150772095
1695713707126232000,6.967232177734375,4.7365922927856445,-12.577274322509766,-1.9860427379608154
1695713707136263000,6.977262939453125,3.9224345684051514,-13.74078369140625,-3.029911756515503
1695713707146293800,6.987293701171875,3.0556344985961914,-14.239089012145996,-4.030709743499756
1695713707156324600,6.99732470703125,2.1984057426452637,-14.210375785827637,-4.825126647949219
1695713707166355500,7.00735546875,1.7868403196334839,-13.965709686279297,-5.045864582061768
1695713707176386600,7.017386474609375,2.2271196842193604,-13.290933609008789,-5.232504844665527
1695713707186417400,7.02741748046875,2.5334010124206543,-12.725628852844238,-5.261219024658203
1695713707196448300,7.0374482421875,1.7676976919174194,-12.56291675567627,-5.529214859008789
1695713707206480600,7.047480712890625,0.8243274092674255,-12.663415908813477,-5.160720348358154
1695713707216513500,7.057513427734375,-1.0001999139785767,-12.376276969909668,-4.676771640777588
1695713707226546400,7.06754638671875,-2.633301258087158,-11.743973731994629,-3.6185460090637207
1695713707236579300,7.077579345703125,-1.0049854516983032,-10.805388450622559,-1.7030915021896362
1695713707246612200,7.0876123046875,1.211964726448059,-9.493523597717285,-0.39601215720176697
1695713707256645000,7.09764501953125,2.270190477371216,-8.712865829467773,0.7004988193511963
1695713707266678000,7.107677978515625,2.5094728469848633,-8.21994400024414,0.997208833694458
1695713707276711000,7.1177109375,2.7828526496887207,-7.247859954833984,0.8057830333709717
1695713707286743800,7.127743896484375,3.060420274734497,-6.361917018890381,0.7244270443916321
1695713707296776700,7.137776611328125,3.170490026473999,-5.050052165985107,0.5952146053314209
1695713707306809600,7.1478095703125,3.1274192333221436,-4.1593241691589355,0.24526432156562805
1695713707316842500,7.157842529296875,2.9072794914245605,-3.383451223373413,-0.10887342691421509
1695713707326877400,7.16787744140625,2.610569477081299,-2.9862427711486816,-0.38644084334373474
1695713707336912400,7.177912353515625,2.217548370361328,-2.885744094848633,-0.8129615187644958
1695713707346947300,7.187947265625,2.0548365116119385,-3.043670415878296,-1.2580264806747437
1695713707356982300,7.197982177734375,2.050050735473633,-3.3164522647857666,-1.852044701576233
1695713707367017200,7.208017333984375,1.8969101905822754,-3.5748770236968994,-2.531606435775757
1695713707377052200,7.21805224609375,1.6959130764007568,-3.617947816848755,-3.1304101943969727
1695713707387087000,7.228087158203125,1.4033905267715454,-3.5270206928253174,-3.580260992050171
1695713707397122000,7.2381220703125,0.8913264274597168,-3.311666488647461,-3.881756544113159
1695713707407157000,7.248156982421875,0.1585244983434677,-3.2063822746276855,-3.8769710063934326
1695713707417192000,7.25819189453125,-0.6364908218383789,-3.445664644241333,-3.675973892211914
1695713707427224300,7.268224365234375,-1.9244276285171509,-3.8865420818328857,-3.628117322921753
1695713707437255400,7.27825537109375,-3.5377883911132812,-4.302893161773682,-3.5850465297698975
1695713707447286300,7.288286376953125,-5.041677474975586,-4.901697158813477,-3.2309088706970215
1695713707457317000,7.298317138671875,-6.775277137756348,-5.581258773803711,-3.283550977706909
1695713707467348200,7.30834814453125,-11.687742233276367,-6.831508636474609,-4.882554531097412
1695713707477379000,7.318379150390625,-19.147964477539062,-9.110671997070312,-9.010173797607422
1695713707487410200,7.32841015625,-16.265810012817383,-12.596416473388672,-11.959925651550293
1695713707497441000,7.33844091796875,-15.489937782287598,-18.5772762298584,-13.070794105529785
1695713707507472100,7.34847216796875,-16.423736572265625,-23.75833511352539,-12.68315601348877
1695713707517503000,7.3585029296875,-11.36231803894043,-23.475982666015625,-10.006186485290527
1695713707527533800,7.368533935546875,-7.0959153175354,-17.227127075195312,-6.649653911590576
1695713707537566200,7.378566162109375,-5.041677474975586,-11.404192924499512,-2.392822742462158
1695713707547596800,7.3885966796875,-4.442873477935791,-6.912864685058594,-0.4055834412574768
1695713707557627600,7.398627685546875,-3.7537405490875244,-3.9774694442749023,-1.3489537239074707
1695713707567658500,7.408658447265625,-3.9690945148468018,-3.407379388809204,-3.7094733715057373
1695713707577689300,7.418689453125,-4.855037212371826,-4.801198482513428,-4.447061061859131
1695713707587720200,7.42872021484375,-0.9667003750801086,-7.630711555480957,-2.7038896083831787
1695713707597750800,7.438750732421875,6.096313953399658,-11.040483474731445,-0.592223584651947
1695713707607781600,7.44878173828125,8.294121742248535,-13.23829174041748,-0.5970092415809631
1695713707617812500,7.4588125,6.053243160247803,-14.124234199523926,-0.9230313301086426
1695713707627843300,7.46884326171875,3.630510091781616,-14.062020301818848,-0.875174880027771
1695713707637874200,7.478874267578125,2.816352367401123,-12.706486701965332,-1.8035900592803955
1695713707647906800,7.48890673828125,4.24785852432251,-11.112268447875977,-3.2069804668426514
1695713707657942800,7.49894287109375,5.358726501464844,-9.82373332977295,-4.078566074371338
1695713707667978500,7.508978515625,4.731806755065918,-7.980661869049072,-4.686343193054199
1695713707678014200,7.51901416015625,4.022933006286621,-6.404987812042236,-5.222933769226074
1695713707688050000,7.5290498046875,3.108276605606079,-6.223133563995361,-5.486144065856934
1695713707698085600,7.539085693359375,1.6767704486846924,-7.013363361358643,-5.270790100097656
1695713707708121600,7.54912158203125,1.077966570854187,-8.904889106750488,-3.9828531742095947
1695713707718157300,7.5591572265625,1.1832507848739624,-10.843673706054688,-2.7661030292510986
1695713707728193000,7.569193115234375,1.2215359210968018,-11.858829498291016,-2.00518536567688
1695713707738228700,7.579228759765625,1.4847464561462402,-11.935399055480957,-1.3441680669784546
1695713707748264400,7.589264404296875,1.6480566263198853,-11.298908233642578,-0.9613165259361267
1695713707758296800,7.599296875,1.968694806098938,-10.37946605682373,-0.4295116662979126
1695713707768327200,7.6093271484375,2.2510478496551514,-9.072386741638184,-0.3720839321613312
1695713707778357800,7.619357666015625,1.9016958475112915,-8.138587951660156,-0.3242274820804596
1695713707788388000,7.62938818359375,0.9391828775405884,-7.57806921005249,0.2745763957500458
1695713707798418400,7.63941845703125,0.6424728631973267,-7.420143127441406,0.6526423692703247
1695713707808448800,7.64944873046875,0.656829833984375,-7.482356548309326,0.6717849373817444
1695713707818479000,7.65947900390625,0.20159530639648438,-7.683353424072266,0.39900317788124084
1695713707828509700,7.669509765625,-1.0049854516983032,-8.018946647644043,-0.2907279431819916
1695713707838540000,7.6795400390625,-2.163709878921509,-8.435297966003418,-1.1718848943710327
1695713707848570400,7.6895703125,-3.0975089073181152,-8.286943435668945,-1.731805443763733
1695713707858600700,7.6996005859375,-3.0592236518859863,-7.908876895904541,-1.8711873292922974
1695713707868633300,7.70963330078125,-1.7617156505584717,-7.534998416900635,-1.9956140518188477
1695713707878667300,7.719667236328125,-0.4540380835533142,-7.439285755157471,-2.407179594039917
1695713707888701200,7.729701171875,0.6711867451667786,-7.424928665161133,-2.919841766357422
1695713707898735000,7.739735107421875,1.7629120349884033,-7.587640762329102,-3.4893336296081543
1695713707908768800,7.749768798828125,2.428116798400879,-8.042875289916992,-3.8865420818328857
1695713707918802700,7.759802734375,2.3467607498168945,-8.9910306930542,-3.518047571182251
1695713707928836600,7.769836669921875,1.638485312461853,-10.010972023010254,-2.68953275680542
1695713707938870500,7.77987060546875,0.3068794906139374,-10.872387886047363,-1.8424733877182007
1695713707948904400,7.789904541015625,-1.057627558708191,-11.274980545043945,-0.9326026439666748
1695713707958938000,7.799938232421875,-2.283350944519043,-11.44247817993164,0.09690931439399719
1695713707968970000,7.809969970703125,-3.0927233695983887,-11.815757751464844,1.1934202909469604
1695713707978998300,7.819998291015625,-2.93001127243042,-12.443276405334473,2.1272194385528564
1695713707989026300,7.8300263671875,-1.9579271078109741,-12.768699645996094,2.5298118591308594
1695713707999054600,7.8400546875,-1.0001999139785767,-12.505489349365234,2.289931297302246
1695713708009082600,7.85008251953125,-0.1094716340303421,-11.84447193145752,1.7635103464126587
1695713708019111000,7.86011083984375,0.6185446381568909,-11.877971649169922,1.7874385118484497
1695713708029139200,7.87013916015625,0.5563312768936157,-12.917055130004883,1.7682958841323853
1695713708039167200,7.880167236328125,-0.18125630915164948,-13.731212615966797,0.9397810697555542
1695713708049195500,7.890195556640625,-1.8909281492233276,-13.922638893127441,-0.5252245664596558
1695713708059223800,7.900223876953125,-4.3519463539123535,-14.550156593322754,-2.187039852142334
1695713708069256000,7.910255859375,-5.352744102478027,-14.799010276794434,-2.746960401535034
1695713708079289600,7.92028955078125,-5.017749309539795,-13.578072547912598,-1.8903298377990723
1695713708089323300,7.9303232421875,-5.1182475090026855,-12.749557495117188,-0.7022934556007385
1695713708099357000,7.94035693359375,-3.480360507965088,-12.452847480773926,0.22133609652519226
1695713708109390600,7.950390625,0.1010967567563057,-11.983854293823242,0.2021935135126114
1695713708119424300,7.96042431640625,2.4424736499786377,-11.385049819946289,-0.8799605369567871
1695713708129458000,7.9704580078125,3.941577196121216,-11.557332992553711,-1.856830358505249
1695713708139491600,7.98049169921875,4.18564510345459,-12.505489349365234,-2.737389087677002
1695713708149525200,7.990525146484375,3.376272678375244,-13.994422912597656,-3.9828531742095947
1695713708159559000,8.000558837890624,2.4185454845428467,-14.71765422821045,-4.911268711090088
1695713708169592600,8.010592529296876,1.2837493419647217,-14.727225303649902,-5.605785369873047
1695713708179625200,8.020625244140625,1.0875378847122192,-14.55494213104248,-5.9647088050842285
1695713708189659400,8.030659423828125,2.3611178398132324,-14.047663688659668,-5.60099983215332
1695713708199693800,8.04069384765625,3.050848960876465,-13.329218864440918,-5.371288776397705
1695713708209728300,8.050728271484376,2.222334146499634,-12.859626770019531,-5.577071189880371
1695713708219762700,8.0607626953125,1.0205388069152832,-12.663415908813477,-5.347360610961914
1695713708229797000,8.070797119140625,-0.4827519655227661,-12.203993797302246,-4.356133460998535
1695713708239831300,8.080831298828125,-2.1158533096313477,-11.60519027709961,-3.5850465297698975
1695713708249865700,8.09086572265625,-2.14935302734375,-11.011770248413086,-1.7988044023513794
1695713708259900200,8.100900146484374,0.4983053207397461,-9.842875480651855,-0.10887342691421509
1695713708269934600,8.1109345703125,2.2606191635131836,-8.86660385131836,1.1168500185012817
1695713708279966500,8.120966552734375,2.706282377243042,-8.339585304260254,1.5194423198699951
1695713708289995800,8.130995849609375,2.6967110633850098,-7.573283672332764,1.3710874319076538
1695713708300024800,8.14102490234375,3.2518460750579834,-6.333203315734863,1.1886346340179443
1695713708310054000,8.151053955078124,3.5294134616851807,-5.423332691192627,0.997208833694458
1695713708320083000,8.1610830078125,3.668795347213745,-4.298107624053955,0.7483552694320679
1695713708330112300,8.1711123046875,3.6544384956359863,-3.4983067512512207,0.4085744619369507
1695713708340141300,8.181141357421875,3.4432718753814697,-3.077169895172119,0.07776673883199692
1695713708350170600,8.191170654296876,2.825923442840576,-2.8043880462646484,-0.3720839321613312
1695713708360199700,8.20119970703125,2.4568307399749756,-2.943171739578247,-0.7549355626106262
1695713708370228700,8.211228759765625,2.404188632965088,-3.1968109607696533,-1.1335997581481934
1695713708380258000,8.221258056640625,2.3515465259552,-3.3690943717956543,-1.7413766384124756
1695713708390290200,8.231290283203125,1.9926230907440186,-3.469592809677124,-2.4598217010498047
1695713708400324600,8.24132470703125,1.6528422832489014,-3.4408788681030273,-3.0825538635253906
1695713708410358800,8.25135888671875,1.168893814086914,-3.1680972576141357,-3.3649067878723145
1695713708420393000,8.26139306640625,0.388235479593277,-2.9527430534362793,-3.494119167327881
1695713708430427400,8.271427490234375,-0.7800601720809937,-3.1585259437561035,-3.47019100189209
1695713708440461600,8.281461669921875,-2.2259232997894287,-3.570091485977173,-3.331407308578491
1695713708450495700,8.291495849609374,-3.9499518871307373,-4.202394962310791,-2.9389843940734863
1695713708460530200,8.3015302734375,-5.32403039932251,-5.136193752288818,-2.273181438446045
1695713708470564400,8.311564453125,-6.8757758140563965,-6.203990936279297,-2.359323024749756
1695713708480598500,8.3215986328125,-11.194820404052734,-7.678567886352539,-3.9828531742095947
1695713708490633000,8.331633056640625,-18.24826431274414,-9.608379364013672,-8.416753768920898
1695713708500665300,8.341665283203126,-16.658233642578125,-12.610773086547852,-11.706286430358887
1695713708510697700,8.35169775390625,-17.00279998779297,-18.687347412109375,-12.026925086975098
1695713708520730000,8.361730224609374,-17.01715660095215,-24.265613555908203,-10.145567893981934
1695713708530762800,8.3717626953125,-10.797014236450195,-24.75913429260254,-6.123233318328857
1695713708540795100,8.381795166015625,-6.233901023864746,-19.027128219604492,-3.565903902053833
1695713708550827500,8.39182763671875,-5.654240131378174,-12.917055130004883,-2.4502503871917725
1695713708560860000,8.40185986328125,-5.347958564758301,-8.282156944274902,-2.2923240661621094
1695713708570892500,8.411892578125,-4.337589263916016,-5.600401401519775,-4.131208419799805
1695713708580925000,8.421925048828125,-4.055236339569092,-4.499104976654053,-6.45822811126709
1695713708590957300,8.431957275390625,-4.304089546203613,-5.188836097717285,-6.7310099601745605
1695713708600990000,8.441989990234376,-1.4165509939193726,-7.759923934936523,-5.093721389770508
1695713708611022000,8.45202197265625,5.282155990600586,-10.700104713439941,-2.421536445617676
1695713708621053700,8.4620537109375,6.943971157073975,-12.002996444702148,-1.5308083295822144
1695713708631085000,8.4720849609375,5.813961029052734,-12.031710624694824,-0.7166503667831421
1695713708641116700,8.48211669921875,5.8474602699279785,-11.059626579284668,-0.1136590763926506
1695713708651148000,8.49214794921875,4.6163530349731445,-9.07717227935791,-1.1383854150772095
1695713708661179600,8.5021796875,2.7110681533813477,-7.549355506896973,-3.1304101943969727
1695713708671211300,8.512211181640625,2.0691933631896973,-6.548557281494141,-5.299503803253174
1695713708681242600,8.52224267578125,2.8450660705566406,-5.854638576507568,-6.601797580718994
1695713708691274200,8.532274169921875,3.745365619659424,-5.859424591064453,-6.606583118438721
1695713708701305600,8.5423056640625,3.7597224712371826,-6.725626468658447,-6.577869415283203
1695713708711337200,8.552337158203125,2.1744775772094727,-8.871390342712402,-5.644070625305176
1695713708721370000,8.5623701171875,1.164108157157898,-11.528619766235352,-4.006781578063965
1695713708731405300,8.5724052734375,1.4416756629943848,-13.180863380432129,-2.723032236099243
1695713708741440800,8.582440673828126,1.7341982126235962,-13.233505249023438,-1.7940187454223633
1695713708751476200,8.592476318359376,1.6432709693908691,-12.194422721862793,-1.210170030593872
1695713708761511700,8.60251171875,1.6767704486846924,-10.935199737548828,-0.8033902049064636
1695713708771547100,8.612547119140626,1.5469598770141602,-9.838089942932129,-0.3577269911766052
1695713708781582600,8.62258251953125,1.4943177700042725,-9.292527198791504,-0.17587246000766754
1695713708791618000,8.6326181640625,1.5469598770141602,-8.210372924804688,-0.07058826833963394
1695713708801653500,8.642653564453125,1.5954145193099976,-7.688138961791992,-0.4534398913383484
1695713708811689000,8.65268896484375,1.552343726158142,-7.827520847320557,-0.3433700501918793
1695713708821724200,8.66272412109375,1.168893814086914,-8.286943435668945,-0.1423729509115219
1695713708831756800,8.6727568359375,1.0013962984085083,-8.459226608276367,-0.04666004329919815
1695713708841788400,8.682788330078125,0.5180460810661316,-8.50708293914795,0.015553346835076809
1695713708851819800,8.69281982421875,-0.5599204897880554,-8.531010627746582,-0.0849452018737793
1695713708861851400,8.702851318359375,-1.4261223077774048,-8.550153732299805,-0.07058826833963394
1695713708871883000,8.712883056640624,-2.6668007373809814,-8.73200798034668,-0.41994038224220276
1695713708881914400,8.722914306640625,-2.939582586288452,-8.626724243164062,-0.49651068449020386
1695713708891946000,8.732946044921874,-1.709073543548584,-8.3300142288208,-0.5539384484291077
1695713708901977600,8.7429775390625,0.1010967567563057,-7.971090316772461,-0.6161518096923828
1695713708912009000,8.753009033203124,1.6528422832489014,-7.530212879180908,-0.8943174481391907
1695713708922040600,8.76304052734375,2.5573291778564453,-7.35314416885376,-1.3920245170593262
1695713708932072200,8.773072265625,2.59621262550354,-7.439285755157471,-2.1104695796966553
1695713708942104300,8.783104248046875,2.1505494117736816,-7.980661869049072,-2.7565317153930664
1695713708952135700,8.7931357421875,1.384247899055481,-9.024530410766602,-3.087339401245117
1695713708962166800,8.803166748046875,0.014955141581594944,-10.221540451049805,-2.7900311946868896
1695713708972198000,8.813197998046874,-1.6133606433868408,-10.848459243774414,-1.8664016723632812
1695713708982229000,8.82322900390625,-3.001796007156372,-11.303693771362305,-0.5826523303985596
1695713708992260400,8.83326025390625,-3.638286828994751,-11.873186111450195,0.600000262260437
1695713709002291500,8.84329150390625,-3.016152858734131,-12.629916191101074,1.404586911201477
1695713709012322600,8.853322509765626,-1.6995022296905518,-13.061222076416016,1.4859428405761719
1695713709022353700,8.863353759765625,-0.28175488114356995,-12.615559577941895,1.0977073907852173
1695713709032384800,8.873384765625,0.5563312768936157,-12.012567520141602,0.7722834944725037
1695713709042416000,8.883416015625,0.5706881880760193,-12.08913803100586,0.8679963946342468
1695713709052448300,8.8934482421875,-0.14297115802764893,-12.893126487731934,0.6861419081687927
1695713709062480100,8.903480224609375,-1.28255295753479,-13.47757339477539,-0.06580262631177902
1695713709072512000,8.913511962890626,-2.796013355255127,-13.85085391998291,-1.1048858165740967
1695713709082543900,8.9235439453125,-3.7633118629455566,-15.02872085571289,-1.8903298377990723
1695713709092575700,8.93357568359375,-3.456432342529297,-14.94257926940918,-1.8083757162094116
1695713709102607400,8.943607421875,-4.208376884460449,-13.85085391998291,-0.7549355626106262
1695713709112639200,8.95363916015625,-4.567300319671631,-13.463216781616211,0.4707878530025482
1695713709122671000,8.963671142578125,-2.8342983722686768,-13.429717063903809,1.332802176475525
1695713709132703000,8.973702880859374,-0.6939185857772827,-12.586845397949219,0.9541380405426025
1695713709142734800,8.98373486328125,0.8243274092674255,-11.906685829162598,-0.6305087804794312
1695713709152766700,8.9937666015625,2.9551360607147217,-11.873186111450195,-2.029113531112671
1695713709162799400,9.00379931640625,4.477569580078125,-12.945768356323242,-3.053839921951294
1695713709172835000,9.0138349609375,4.3483567237854,-14.277374267578125,-4.528416633605957
1695713709182870500,9.02387060546875,3.6879379749298096,-14.971293449401855,-5.55314302444458
1695713709192906200,9.03390625,2.428116798400879,-14.870794296264648,-6.276373863220215
1695713709202941700,9.043941650390625,1.211964726448059,-14.363515853881836,-6.45822811126709
1695713709212977400,9.053977294921875,1.5086746215820312,-13.75035572052002,-6.185446739196777
1695713709223013000,9.06401318359375,2.6871397495269775,-12.806984901428223,-5.787639617919922
1695713709233048600,9.074048583984375,2.4711875915527344,-12.117852210998535,-5.663212776184082
1695713709243084300,9.084084228515625,1.1784651279449463,-11.385049819946289,-5.285147190093994
1695713709253119700,9.09411962890625,-0.6939185857772827,-10.881958961486816,-4.403990268707275
1695713709263152000,9.104152099609376,-2.4364917278289795,-10.456036567687988,-3.6089746952056885
1695713709273182700,9.1141826171875,-1.3351950645446777,-9.718449592590332,-1.9046868085861206
1695713709283213300,9.12421337890625,1.6145570278167725,-8.904889106750488,0.005982056725770235
1695713709293243600,9.13424365234375,2.792423963546753,-8.420941352844238,1.2747762203216553
1695713709303274200,9.144274169921875,2.4185454845428467,-8.085946083068848,1.667797327041626
1695713709313304800,9.154304931640626,2.318047046661377,-7.439285755157471,1.5050854682922363
1695713709323335400,9.16433544921875,2.9551360607147217,-6.534200668334961,1.3758729696273804
1695713709333366000,9.174365966796875,3.2853455543518066,-5.365904808044434,1.0498509407043457
1695713709343396400,9.184396240234374,3.1034910678863525,-4.503890514373779,0.5186443328857422
1695713709353427000,9.194427001953125,2.806781053543091,-4.010969161987305,-0.22372891008853912
1695713709363457500,9.20445751953125,2.5190439224243164,-3.7908291816711426,-0.9278169870376587
1695713709373489200,9.2144892578125,2.3132612705230713,-3.7190446853637695,-1.4829518795013428
1695713709383518000,9.22451806640625,2.222334146499634,-3.786043643951416,-1.9525432586669922
1695713709393546800,9.234546630859375,2.0931215286254883,-3.723830223083496,-2.589034080505371
1695713709403575600,9.244575439453126,1.8490537405014038,-3.469592809677124,-3.259622573852539
1695713709413604400,9.254604248046874,1.384247899055481,-3.1250264644622803,-3.7429728507995605
1695713709423633200,9.264633056640625,0.8913264274597168,-2.6943182945251465,-3.906282901763916
1695713709433662000,9.274661865234375,0.4408775866031647,-2.3060827255249023,-3.896113395690918
1695713709443690800,9.284690673828125,0.08195417374372482,-2.435295343399048,-3.6424741744995117
1695713709453719600,9.294719482421876,-0.33439695835113525,-2.9144580364227295,-3.3744781017303467
1695713709463748400,9.304748291015626,-0.9762716293334961,-3.421736478805542,-3.092125177383423
1695713709473781000,9.314781005859375,-2.0967109203338623,-3.8626139163970947,-2.895913600921631
1695713709483818500,9.324818603515626,-3.638286828994751,-4.470390796661377,-2.344966173171997
1695713709493855700,9.334855712890626,-6.842276573181152,-5.509474277496338,-2.1583259105682373
1695713709503893000,9.34489306640625,-14.3599271774292,-7.372286796569824,-3.3026933670043945
1695713709513930200,9.35493017578125,-24.41037940979004,-9.613164901733398,-6.692724704742432
1695713709523967500,9.364967529296875,-21.47079849243164,-13.788640022277832,-9.283554077148438
1695713709534005000,9.3750048828125,-18.492332458496094,-21.852453231811523,-10.125826835632324
1695713709544042200,9.385042236328125,-15.42772388458252,-27.416362762451172,-9.159127235412598
1695713709554079500,9.39507958984375,-8.417351722717285,-25.57807731628418,-7.157530784606934
1695713709564116700,9.40511669921875,-4.78803825378418,-18.68256187438965,-5.969494342803955
1695713709574154000,9.415154052734374,-4.979464054107666,-12.371491432189941,-4.537988185882568
1695713709584186600,9.4251865234375,-5.424529075622559,-7.429714202880859,-3.9876389503479004
1695713709594217700,9.4352177734375,-5.774479389190674,-4.412963390350342,-4.993222713470459
1695713709604248800,9.445248779296875,-6.9236321449279785,-2.7565317153930664,-5.644070625305176
1695713709614280000,9.455280029296874,-6.004190444946289,-3.800400495529175,-4.308277130126953
1695713709624311000,9.46531103515625,5.109872817993164,-7.109076023101807,-1.0857433080673218
1695713709634342100,9.475342041015624,9.840482711791992,-9.273384094238281,0.8488538265228271
1695713709644373500,9.48537353515625,9.720842361450195,-9.866804122924805,0.37507495284080505
1695713709654404600,9.495404541015626,9.232706069946289,-10.269396781921387,0.2793620526790619
1695713709664435700,9.505435791015625,3.438486099243164,-10.52782154083252,-0.6113662123680115
1695713709674466800,9.515466796875,-1.301695466041565,-10.905887603759766,-2.6321048736572266
1695713709684498000,9.525497802734375,1.5134602785110474,-10.872387886047363,-5.1320061683654785
1695713709694530600,9.535530517578126,4.937589645385742,-10.412965774536133,-7.023532867431641
1695713709704564000,9.54556396484375,6.225526332855225,-9.886545181274414,-7.0857462882995605
1695713709714597400,9.555597412109375,5.358726501464844,-9.775876998901367,-6.860222339630127
1695713709724630800,9.565630859375,3.122633457183838,-10.561321258544922,-6.831508636474609
1695713709734664200,9.575664306640626,0.8817551732063293,-11.399407386779785,-5.859424591064453
1695713709744697900,9.58569775390625,0.32123643159866333,-11.327622413635254,-4.011567115783691
1695713709754731300,9.595731201171875,0.9822536706924438,-10.460822105407715,-2.407179594039917
1695713709764764700,9.6057646484375,1.4368900060653687,-9.483952522277832,-1.4638092517852783
1695713709774798000,9.615798095703125,1.5619150400161743,-8.837292671203613,-0.9326026439666748
1695713709784831500,9.62583154296875,1.5858432054519653,-8.550153732299805,-0.6400800347328186
1695713709794865000,9.635864990234374,1.6671991348266602,-8.60758113861084,-0.008374879136681557
1695713709804897000,9.64589697265625,0.9439685344696045,-9.058030128479004,-0.2667997181415558
1695713709814927400,9.65592724609375,0.3643072545528412,-8.38265609741211,-0.7310073375701904
1695713709824957400,9.66595751953125,0.8530412912368774,-7.966304779052734,-0.7405785918235779
1695713709834987500,9.675987548828125,1.1976077556610107,-8.13380241394043,-0.6352944374084473
1695713709845017900,9.686017822265624,0.9678967595100403,-8.420941352844238,-0.5970092415809631
1695713709855048000,9.6960478515625,0.9487541913986206,-8.569295883178711,-0.10887342691421509
1695713709865078000,9.706078125,0.6185446381568909,-8.83250617980957,0.1495514214038849
1695713709875108400,9.7161083984375,-0.20997019112110138,-9.096315383911133,-0.09930214285850525
1695713709885138400,9.726138427734375,-1.430907964706421,-9.33559799194336,-0.4534398913383484
1695713709895168500,9.73616845703125,-2.3886351585388184,-9.192028045654297,-0.6687939167022705
1695713709905201200,9.746201171875,-1.9914265871047974,-8.712865829467773,-0.6927221417427063
1695713709915234000,9.756234130859376,-0.8183453679084778,-8.27258586883545,-0.8703892230987549
1695713709925267000,9.766266845703125,0.714257538318634,-7.995018482208252,-1.1048858165740967
1695713709935299800,9.7762998046875,2.1266210079193115,-7.88494873046875,-1.3010972738265991
1695713709945332700,9.786332763671876,3.170490026473999,-7.961519241333008,-1.3728820085525513
1695713709955366000,9.796365966796875,3.366701364517212,-8.353941917419434,-1.339382529258728
1695713709965398800,9.806398681640625,2.7254250049591064,-8.952746391296387,-1.1623135805130005
1695713709975431700,9.816431640625,1.412961721420288,-9.694520950317383,-1.057029366493225
1695713709985464600,9.826464599609375,-0.4301098585128784,-10.523036003112793,-0.5826523303985596
1695713709995497500,9.83649755859375,-1.933998942375183,-11.011770248413086,-0.0849452018737793
1695713710005530600,9.846530517578126,-3.686741590499878,-11.547761917114258,0.3080759048461914
1695713710015563300,9.856563232421875,-5.170889854431152,-12.32363510131836,1.083350419998169
1695713710025598000,9.866597900390625,-4.60558557510376,-13.04207992553711,1.9214365482330322
1695713710035632600,9.876632568359375,-2.1158533096313477,-13.367504119873047,1.9884356260299683
1695713710045667300,9.886667236328124,0.7094719409942627,-13.056436538696289,0.7770691514015198
1695713710055702000,9.896701904296876,1.7389838695526123,-12.0604248046875,-0.8895317912101746
1695713710065737000,9.906737060546876,1.168893814086914,-11.131410598754883,-1.5930216312408447
1695713710075771600,9.916771728515625,-0.008973085321485996,-10.881958961486816,-1.0139585733413696
1695713710085806300,9.926806396484375,-1.2490534782409668,-11.145768165588379,-0.9182456731796265
1695713710095841000,9.936841064453125,-2.671586513519287,-11.624332427978516,-1.5355939865112305
1695713710105875700,9.946875732421875,-3.6675989627838135,-12.692129135131836,-2.2444677352905273
1695713710115910400,9.956910400390624,-2.8103702068328857,-13.735998153686523,-2.4119651317596436
1695713710125942800,9.96694287109375,-2.0057835578918457,-13.310075759887695,-2.0578274726867676
1695713710135974100,9.97697412109375,-3.183650493621826,-12.840484619140625,-0.9469595551490784
1695713710146005200,9.987005126953125,-4.174877166748047,-12.6347017288208,-0.037088751792907715
1695713710156036600,9.99703662109375,-1.2586246728897095,-12.261421203613281,0.2793620526790619
1695713710166068000,10.00706787109375,1.389033555984497,-11.7056884765625,-0.5874379873275757
1695713710176099000,10.01709912109375,3.2757742404937744,-11.542976379394531,-1.3728820085525513
1695713710186130400,10.02713037109375,4.3483567237854,-12.615559577941895,-1.8376877307891846
1695713710196161800,10.037161865234374,4.405784606933594,-14.282159805297852,-2.4981069564819336
1695713710206193000,10.04719287109375,3.754936933517456,-15.292529106140137,-3.34576416015625
1695713710216224300,10.057224365234376,2.7972097396850586,-15.326028823852539,-4.418346881866455
1695713710226256400,10.06725634765625,1.85383939743042,-14.937793731689453,-4.590630054473877
1695713710236287700,10.077287841796876,1.5906288623809814,-14.339588165283203,-4.183850288391113
1695713710246319000,10.087319091796875,1.144965648651123,-13.286148071289062,-4.011567115783691
1695713710256350200,10.09735009765625,1.2454642057418823,-12.739986419677734,-4.11206579208374
1695713710266381600,10.107381591796875,0.8817551732063293,-12.443276405334473,-4.011567115783691
1695713710276413000,10.117412841796876,-0.04247260093688965,-12.002996444702148,-3.6089746952056885
1695713710286444000,10.127444091796875,-0.9332008361816406,-11.58126163482666,-3.0969107151031494
1695713710296475400,10.137475341796875,-1.373480200767517,-10.978270530700684,-2.187039852142334
1695713710306506500,10.147506591796875,0.14416755735874176,-9.689735412597656,-1.0474581718444824
1695713710316537900,10.157537841796875,1.7437695264816284,-8.904889106750488,0.04905286431312561
1695713710326569200,10.1675693359375,2.38983154296875,-8.172087669372559,0.6717849373817444
1695713710336601600,10.1776015625,2.523829698562622,-6.936792850494385,0.4133601188659668
1695713710346634200,10.18763427734375,2.437688112258911,-5.696114540100098,0.22612173855304718
1695713710356667100,10.197667236328124,2.8450660705566406,-4.499104976654053,0.4899304509162903
1695713710366700000,10.207699951171875,3.500699520111084,-3.579662561416626,0.6957131624221802
1695713710376732700,10.217732666015625,3.0556344985961914,-3.1968109607696533,0.37028929591178894
1695713710386765600,10.227765625,2.4089741706848145,-2.9144580364227295,-0.02273181453347206
1695713710396798500,10.237798583984375,1.7676976919174194,-3.0867412090301514,-0.5156532526016235
1695713710406831000,10.2478310546875,1.2789636850357056,-3.5461630821228027,-1.114457130432129
1695713710416864000,10.257864013671876,1.384247899055481,-4.092324733734131,-1.607378602027893
1695713710426896600,10.267896728515625,1.8203397989273071,-4.393820762634277,-2.1774685382843018
1695713710436929500,10.277929443359374,1.7341982126235962,-4.542175769805908,-3.1064820289611816
1695713710446965000,10.287965087890624,1.3746765851974487,-4.503890514373779,-3.906282901763916
1695713710457019000,10.298018798828124,0.8434699773788452,-4.408177375793457,-4.183850288391113
1695713710467072800,10.30807275390625,-0.028115665540099144,-4.226323127746582,-4.202992916107178
1695713710477126700,10.318126708984375,-0.97148597240448,-4.149752616882324,-4.068994998931885
1695713710487180500,10.3281806640625,-1.9770697355270386,-4.05403995513916,-4.102494239807129
1695713710497234400,10.338234375,-3.1788649559020996,-4.106681823730469,-4.150351047515869
1695713710507288300,10.348288330078125,-4.213162422180176,-4.503890514373779,-3.7956149578094482
1695713710517323800,10.35832373046875,-5.798407554626465,-5.361119270324707,-3.580260992050171
1695713710527355400,10.36835546875,-11.204392433166504,-7.094718933105469,-3.896113395690918
1695713710537386800,10.37838671875,-20.129619598388672,-9.302098274230957,-5.529214859008789
1695713710547420700,10.388420654296874,-18.94696807861328,-12.605987548828125,-6.620940208435059
1695713710557473000,10.39847314453125,-17.620746612548828,-17.935401916503906,-7.880163192749023
1695713710567508500,10.408508544921874,-15.547365188598633,-23.413768768310547,-8.526823043823242
1695713710577542100,10.418542236328125,-9.379864692687988,-23.346172332763672,-6.673582553863525
1695713710587566300,10.42856640625,-5.687739372253418,-18.28535270690918,-5.031507968902588
1695713710597601800,10.438601806640625,-4.95074987411499,-12.81177043914795,-2.9006991386413574
1695713710607610400,10.4486103515625,-5.242674350738525,-8.320442199707031,-1.0713863372802734
1695713710617645800,10.458645751953124,-5.309673309326172,-4.815555572509766,-1.3489537239074707
1695713710627688000,10.46868798828125,-3.8877387046813965,-3.436093330383301,-3.36969256401062
1695713710637709300,10.478709228515624,-3.5569307804107666,-4.13060998916626,-5.069792747497559
1695713710647744500,10.48874462890625,-0.8374879360198975,-6.424130439758301,-4.686343193054199
1695713710657777400,10.49877734375,5.1768717765808105,-9.244669914245605,-3.5946178436279297
1695713710667818000,10.50881787109375,8.36590576171875,-11.68175983428955,-3.1926236152648926
1695713710677854000,10.51885400390625,6.920042991638184,-12.639487266540527,-2.809173822402954
1695713710687899600,10.528899658203125,3.8075790405273438,-12.725628852844238,-2.148754835128784
1695713710697935600,10.538935546875,1.8299111127853394,-11.825329780578613,-2.3162522315979004
1695713710707773400,10.5487734375,2.9312076568603516,-10.183255195617676,-2.919841766357422
1695713710717794000,10.5587939453125,4.645066738128662,-8.631509780883789,-3.321835994720459
1695713710727865900,10.568865966796874,4.975874900817871,-7.348358154296875,-3.8865420818328857
1695713710737891600,10.5788916015625,4.204787731170654,-6.055635929107666,-4.849055290222168
1695713710747932700,10.5889326171875,3.4002010822296143,-6.002993583679199,-5.505286693572998
1695713710757960000,10.5989599609375,2.279761791229248,-7.176074981689453,-5.687141418457031
1695713710767966700,10.608966796875,1.6959130764007568,-9.742377281188965,-4.58584451675415
1695713710777992000,10.618991943359376,1.4656038284301758,-11.906685829162598,-3.1830523014068604
1695713710788054500,10.629054443359376,1.0683952569961548,-13.022936820983887,-2.115255117416382
1695713710798083600,10.63908349609375,1.0253244638442993,-13.171292304992676,-1.3154542446136475
1695713710808110000,10.649110107421874,1.1593226194381714,-12.328420639038086,-1.0187442302703857
1695713710818138600,10.659138671875,1.4416756629943848,-11.011770248413086,-1.0761719942092896
1695713710828179200,10.66917919921875,1.4799607992172241,-9.871589660644531,-0.778863787651062
1695713710838209300,10.679209228515624,1.2263215780258179,-9.287740707397461,-0.2667997181415558
1695713710848249300,10.689249267578125,1.2023934125900269,-7.51585578918457,-0.33379876613616943
1695713710858280400,10.699280517578124,1.3938192129135132,-6.984649181365967,-0.6640082597732544
1695713710868315100,10.709315185546876,1.4991034269332886,-7.109076023101807,-0.6640082597732544
1695713710878346500,10.719346435546875,1.5086746215820312,-7.252645492553711,-1.1240284442901611
1695713710888377000,10.729377197265626,0.9343972206115723,-7.496713161468506,-1.602592945098877
1695713710898408400,10.739408447265625,-0.19561325013637543,-7.793423175811768,-2.029113531112671
1695713710908433000,10.749432861328126,-1.8287147283554077,-8.038089752197266,-2.335394859313965
1695713710918463200,10.759463134765625,-2.5800609588623047,-8.13380241394043,-2.3736801147460938
1695713710928502500,10.76950244140625,-2.4364917278289795,-8.191229820251465,-2.0721843242645264
1695713710938534000,10.779533935546874,-1.7042878866195679,-8.349156379699707,-1.688734531402588
1695713710948561700,10.789561767578125,-0.3678964674472809,-8.349156379699707,-1.51166570186615
1695713710958592800,10.7995927734375,0.9056833982467651,-8.27258586883545,-1.6791633367538452
1695713710968630300,10.80963037109375,1.7581263780593872,-8.167302131652832,-1.9334007501602173
1695713710978662000,10.819661865234375,2.2127628326416016,-8.100302696228027,-2.297109842300415
1695713710988701400,10.829701416015626,2.4424736499786377,-8.425726890563965,-2.5124638080596924
1695713710998733800,10.83973388671875,2.466402053833008,-9.182456970214844,-2.5603201389312744
1695713711008754200,10.849754150390625,1.810768485069275,-10.240682601928711,-2.368894338607788
1695713711018785300,10.859785400390624,0.40737804770469666,-11.10748291015625,-1.8759729862213135
1695713711028820500,10.869820556640626,-1.0480563640594482,-11.20798110961914,-1.0761719942092896
1695713711038852000,10.87985205078125,-2.589632272720337,-10.973484992980957,-0.12323036789894104
1695713711048887600,10.889887451171875,-4.036093711853027,-11.054841041564941,0.6813562512397766
1695713711058919400,10.89991943359375,-4.160520553588867,-11.643474578857422,1.3519448041915894
1695713711068981000,10.90998095703125,-2.5704896450042725,-12.194422721862793,1.8352949619293213
1695713711079016000,10.920015869140625,-0.36311084032058716,-12.452847480773926,1.9884356260299683
1695713711089042200,10.930042236328125,1.1832507848739624,-12.56291675567627,2.03629207611084
1695713711099076000,10.940076171875,1.8873388767242432,-13.228719711303711,2.266003131866455
1695713711109076000,10.950075927734375,1.5667005777359009,-14.215161323547363,2.1655044555664062
1695713711119106600,10.9601064453125,0.7334001660346985,-13.96092414855957,1.2269197702407837
1695713711129170200,10.970170166015626,-1.1629117727279663,-12.859626770019531,-0.44386860728263855
1695713711139204000,10.9802041015625,-4.4620161056518555,-13.089936256408691,-2.3497519493103027
1695713711149203700,10.99020361328125,-6.367899417877197,-13.630714416503906,-3.7573297023773193
1695713711159234300,11.000234375,-5.663811206817627,-13.099507331848145,-2.9006991386413574
1695713711169306400,11.010306396484374,-4.960321426391602,-12.342777252197266,-0.9421738982200623
1695713711179341300,11.02034130859375,-4.5098724365234375,-12.223135948181152,0.4468596279621124
1695713711189353700,11.030353759765624,-1.9627127647399902,-11.925827980041504,0.753140926361084
1695713711199386400,11.040386474609376,1.3794622421264648,-11.145768165588379,0.13519448041915894
1695713711209429200,11.05042919921875,3.3858439922332764,-10.829317092895508,-0.8895317912101746
1695713711219462700,11.060462646484375,4.400999069213867,-11.629117965698242,-2.0482561588287354
1695713711229462500,11.070462646484375,3.975076675415039,-12.92184066772461,-3.5946178436279297
1695713711239492600,11.08049267578125,3.108276605606079,-14.076377868652344,-4.930410861968994
1695713711249543700,11.090543701171875,2.4233310222625732,-14.325230598449707,-5.950351715087891
1695713711259575800,11.100575927734376,1.8729819059371948,-14.382658958435059,-6.415157318115234
1695713711269628000,11.1106279296875,1.4608181715011597,-14.301302909851074,-6.453442573547363
1695713711279662000,11.120662109375,2.179263114929199,-13.7647123336792,-6.252445697784424
1695713711289688600,11.1306884765625,2.964707374572754,-13.099507331848145,-5.897709846496582
1695713711299722000,11.140721923828124,1.9256240129470825,-12.42413330078125,-6.0849480628967285
1695713711309744000,11.150744140625,0.1824527233839035,-11.724830627441406,-5.806782245635986
1695713711319776500,11.160776611328124,-1.3399807214736938,-10.949556350708008,-4.849055290222168
1695713711329817000,11.170817138671875,-2.575275421142578,-10.436894416809082,-3.661616802215576
1695713711339850200,11.180850341796875,-2.197209358215332,-9.780662536621094,-2.014756679534912
1695713711349887200,11.19088720703125,0.7381857633590698,-9.2255277633667,-0.3720839321613312
1695713711359921000,11.2009208984375,2.5812573432922363,-8.909674644470215,0.8919246196746826
1695713711369940200,11.210940185546875,2.7972097396850586,-8.516654014587402,1.4428720474243164
1695713711379972400,11.220972412109376,2.6727828979492188,-7.9758758544921875,1.4333007335662842
1695713711389980400,11.23098046875,2.816352367401123,-7.003791809082031,1.212562918663025
1695713711400010000,11.241010009765626,3.146561861038208,-6.041278839111328,0.8105686902999878
1695713711410080500,11.25108056640625,3.1561331748962402,-5.059623718261719,0.4420739710330963
1695713711420114200,11.2611142578125,3.050848960876465,-4.13060998916626,-0.06580262631177902
1695713711430138400,11.271138427734375,2.864208698272705,-3.5461630821228027,-0.5826523303985596
1695713711440171300,11.281171142578126,2.5525436401367188,-3.421736478805542,-0.9708877801895142
1695713711450180600,11.2911806640625,2.294118642807007,-3.2685956954956055,-1.4781662225723267
1695713711460211000,11.3012109375,2.1744775772094727,-3.1345977783203125,-2.0865414142608643
1695713711470239000,11.311239013671875,1.8394824266433716,-2.9479575157165527,-3.0490541458129883
1695713711480269000,11.32126904296875,1.3363914489746094,-2.7038896083831787,-3.8626139163970947
1695713711490334200,11.331334228515624,0.8769695162773132,-2.4017956256866455,-4.265206336975098
1695713711500368000,11.341367919921876,0.46002015471458435,-2.3156540393829346,-4.327419757843018
1695713711510395000,11.351394775390625,-0.01375873014330864,-2.4879374504089355,-4.322634220123291
1695713711520427800,11.361427734375,-0.5790630578994751,-2.933600664138794,-4.183850288391113
1695713711530466800,11.371466796875,-1.4739787578582764,-3.4025938510894775,-4.025924205780029
1695713711540500500,11.38150048828125,-2.7768707275390625,-3.920041799545288,-3.7908291816711426
1695713711550531800,11.39153173828125,-4.299304008483887,-4.566103935241699,-3.518047571182251
1695713711560565200,11.401565185546875,-7.617550849914551,-5.61954402923584,-3.5946178436279297
1695713711570571800,11.41157177734375,-14.776278495788574,-7.6737823486328125,-5.620141983032227
1695713711580602400,11.421602294921875,-21.518653869628906,-10.479965209960938,-9.709476470947266
1695713711590634000,11.431634033203125,-16.921443939208984,-15.795022010803223,-12.381660461425781
1695713711600664600,11.44166455078125,-15.384653091430664,-23.67219352722168,-13.468600273132324
1695713711610716000,11.4517158203125,-13.182060241699219,-26.98086929321289,-12.884153366088867
1695713711620748500,11.46174853515625,-8.426922798156738,-22.101306915283203,-10.552348136901855
1695713711630785800,11.471785888671874,-5.625525951385498,-15.531811714172363,-6.491727828979492
1695713711640819000,11.48181884765625,-4.251447677612305,-10.058828353881836,-3.0729825496673584
1695713711650834000,11.491833984375,-3.844667673110962,-5.931209087371826,-1.4973087310791016
1695713711660865300,11.501865234375,-5.146961688995361,-3.2063822746276855,-2.0865414142608643
1695713711670940700,11.511940673828125,-6.9236321449279785,-2.775674343109131,-3.4606196880340576
1695713711680976600,11.5219765625,-6.784848690032959,-5.43290376663208,-3.7716867923736572
1695713711690984200,11.531984130859374,0.6616154313087463,-10.034899711608887,-1.3776676654815674
1695713711701017000,11.54201708984375,8.064410209655762,-13.40578842163086,1.0163514614105225
1695713711711048200,11.552048095703125,9.33320426940918,-13.908281326293945,1.3088740110397339
1695713711721080800,11.562080810546876,8.107481002807617,-12.615559577941895,0.844068169593811
1695713711731080700,11.572080810546876,6.383452415466309,-10.518250465393066,-0.05144568532705307
1695713711741110300,11.5821103515625,2.854637384414673,-8.7176513671875,-2.335394859313965
1695713711751179000,11.592178955078126,-0.4540380835533142,-7.616354465484619,-4.959722995758057
1695713711761212200,11.602212158203125,0.45523449778556824,-6.352345943450928,-7.042675018310547
1695713711771220700,11.612220703125,2.620140790939331,-5.676971912384033,-7.057032108306885
1695713711781251600,11.62225146484375,3.7980077266693115,-5.849853038787842,-6.764509677886963
1695713711791278600,11.632278564453125,3.8937206268310547,-7.142575740814209,-6.376872539520264
1695713711801309000,11.642308837890624,2.7397818565368652,-9.144171714782715,-5.237290382385254
1695713711811372300,11.652372314453125,1.0157532691955566,-11.006983757019043,-3.4845480918884277
1695713711821406000,11.662406005859374,0.6472585201263428,-11.906685829162598,-1.8472590446472168
1695713711831407000,11.672406982421874,1.29810631275177,-11.979068756103516,-0.9326026439666748
1695713711841437700,11.682437744140625,1.8634105920791626,-11.873186111450195,-0.12801600992679596
1695713711851484400,11.692484375,1.5906288623809814,-11.452049255371094,0.7387840151786804
1695713711861516500,11.7025166015625,1.1545369625091553,-11.13619613647461,0.3846462368965149
1695713711871531300,11.71253125,1.322034478187561,-9.584450721740723,0.19740787148475647
1695713711881561300,11.722561279296874,1.4464613199234009,-8.97667407989502,0.03469592705368996
1695713711891631000,11.732631103515626,1.7150555849075317,-8.138587951660156,-0.061016976833343506
1695713711901665300,11.742665283203126,2.2127628326416016,-7.664210796356201,0.020338991656899452
1695713711911686000,11.752685791015624,2.1266210079193115,-7.606783390045166,-0.2189432680606842
1695713711921718800,11.76271875,1.23589289188385,-7.759923934936523,-0.7262216806411743
1695713711931753500,11.77275341796875,0.373878538608551,-7.966304779052734,-0.9756734371185303
1695713711941786600,11.78278662109375,-0.7369893789291382,-8.25822925567627,-1.4829518795013428
1695713711951826200,11.792826171875,-2.268994092941284,-8.444869041442871,-1.9908283948898315
1695713711961860000,11.802860107421875,-3.1788649559020996,-8.588438987731934,-2.2444677352905273
1695713711971874300,11.812874267578126,-2.9587252140045166,-8.626724243164062,-2.1535403728485107
1695713711981906000,11.822906005859375,-1.5601203441619873,-8.483154296875,-1.8855443000793457
1695713711991953000,11.832952880859375,0.14895321428775787,-8.301300048828125,-1.832902193069458
1695713712001986000,11.842986083984375,1.4991034269332886,-8.10987377166748,-1.8711873292922974
1695713712012020000,11.85302001953125,2.523829698562622,-7.851449489593506,-2.210968017578125
1695713712022053400,11.863053466796876,2.8929226398468018,-7.923233985900879,-2.6847469806671143
1695713712032079600,11.87307958984375,2.6153552532196045,-8.617152214050293,-2.9868409633636475
1695713712042112300,11.8831123046875,1.5038890838623047,-9.723235130310059,-3.077768087387085
1695713712052120300,11.893120361328124,-0.28654050827026367,-10.695319175720215,-2.4263222217559814
1695713712062150400,11.903150390625,-2.053640127182007,-10.944770812988281,-1.3441680669784546
1695713712072198400,11.913198486328126,-3.806382656097412,-11.021341323852539,-0.20937198400497437
1695713712082230300,11.923230224609375,-4.802394866943359,-11.37069320678711,0.9254241585731506
1695713712092252200,11.933252197265626,-4.103092670440674,-12.07478141784668,1.9022940397262573
1695713712102283000,11.943282958984375,-2.292922258377075,-12.52463150024414,2.0985054969787598
1695713712112313900,11.95331396484375,-0.08554340898990631,-12.084352493286133,1.7156537771224976
1695713712122344700,11.9633447265625,1.3698909282684326,-11.653046607971191,1.4859428405761719
1695713712132384000,11.973384033203125,1.7341982126235962,-12.208779335021973,1.8448662757873535
1695713712142415600,11.98341552734375,0.98703932762146,-13.673785209655762,1.801795482635498
1695713712152441300,11.99344140625,0.13459627330303192,-14.607583999633789,0.6909275650978088
1695713712162472400,12.003472412109375,-1.1629117727279663,-14.92822265625,-1.0857433080673218
1695713712172499500,12.01349951171875,-3.0831520557403564,-14.617155075073242,-2.60339093208313
1695713712182530000,12.023530029296875,-4.629513740539551,-13.171292304992676,-2.8522446155548096
1695713712192576500,12.033576416015626,-4.442873477935791,-12.89791202545166,-1.3489537239074707
1695713712202608600,12.043608642578125,-3.4995031356811523,-13.544572830200195,0.010767702013254166
1695713712212631800,12.0536318359375,-2.1397817134857178,-13.300504684448242,0.17347964644432068
1695713712222663000,12.063662841796875,-0.38225340843200684,-12.40977668762207,-0.7070791125297546
1695713712232698000,12.073697998046875,1.9543378353118896,-12.002996444702148,-1.7748762369155884
1695713712242729700,12.083729736328126,3.5341989994049072,-12.385848045349121,-2.7900311946868896
1695713712252768300,12.093768310546874,3.927220106124878,-13.329218864440918,-4.145565032958984
1695713712262800400,12.10380029296875,3.1561331748962402,-13.807783126831055,-5.816353797912598
1695713712272828200,12.113828125,2.270190477371216,-13.573286056518555,-6.798008918762207
1695713712282860000,12.123860107421875,1.412961721420288,-13.137792587280273,-7.0857462882995605
1695713712292916500,12.13391650390625,0.8865407705307007,-12.840484619140625,-6.994220733642578
1695713712302951000,12.143950927734375,1.2502498626708984,-12.476775169372559,-6.391229152679443
1695713712312983600,12.153983642578124,2.485544443130493,-12.0604248046875,-6.1328043937683105
1695713712323017500,12.164017578125,2.485544443130493,-11.629117965698242,-6.065805435180664
1695713712333045500,12.17404541015625,0.8769695162773132,-11.327622413635254,-4.700700283050537
1695713712343079000,12.184078857421875,-0.12382857501506805,-10.786246299743652,-3.173480987548828
1695713712353113900,12.19411376953125,-2.197209358215332,-10.800602912902832,-1.9334007501602173
1695713712363147300,12.204147216796875,-0.9284151792526245,-10.580463409423828,-0.003589233849197626
1695713712373174800,12.2141748046875,1.3651052713394165,-10.082756042480469,1.6055840253829956
1695713712383208000,12.2242080078125,2.5573291778564453,-9.728020668029785,2.3330020904541016
1695713712393213200,12.234213134765625,2.9838497638702393,-9.369096755981445,2.0793628692626953
1695713712403243500,12.244243408203126,3.314059257507324,-8.516654014587402,1.5625132322311401
1695713712413308200,12.25430810546875,3.596412420272827,-7.372286796569824,1.1599208116531372
1695713712423341800,12.264341796875,3.596412420272827,-6.32363224029541,0.786640465259552
1695713712433375200,12.274375244140625,3.2853455543518066,-5.461617469787598,0.4372883439064026
1695713712443409000,12.284408935546875,2.950350284576416,-4.887340068817139,-0.08973085135221481
1695713712453435100,12.29443505859375,2.5812573432922363,-4.542175769805908,-0.6592226624488831
1695713712463468000,12.304468017578126,2.0548365116119385,-4.11625337600708,-1.272383451461792
1695713712473487000,12.314487060546876,1.9591234922409058,-3.786043643951416,-1.7222341299057007
1695713712483518500,12.3245185546875,1.810768485069275,-3.3643085956573486,-2.3018953800201416
1695713712493566200,12.334566162109375,1.3794622421264648,-2.9288148880004883,-3.0346972942352295
1695713712503599400,12.344599365234375,0.9104689955711365,-2.459223508834839,-3.4989049434661865
1695713712513627100,12.354627197265625,0.4743770956993103,-2.138585329055786,-3.8291144371032715
1695713712523659800,12.36465966796875,0.0771685317158699,-2.105085611343384,-4.030709743499756
1695713712533694500,12.374694580078126,-0.23389841616153717,-2.531008243560791,-3.930211305618286
1695713712543727000,12.38472705078125,-0.7657032608985901,-3.10109806060791,-3.723830223083496
1695713712553757700,12.3947578125,-1.5553346872329712,-3.6568312644958496,-3.4366915225982666
1695713712563790000,12.4047900390625,-2.8342983722686768,-4.144967079162598,-3.202194929122925
1695713712573798700,12.414798583984375,-4.4955153465271,-4.686343193054199,-2.8624141216278076
1695713712583828500,12.424828369140625,-6.052046775817871,-5.270191669464111,-2.8283164501190186
1695713712593886200,12.43488623046875,-11.089536666870117,-6.32363224029541,-3.857828378677368
1695713712603918800,12.4449189453125,-20.129619598388672,-8.861818313598633,-6.295516490936279
1695713712614103000,12.45510302734375,-19.402202606201172,-12.629916191101074,-8.737391471862793
1695713712624141300,12.465141357421874,-16.02114486694336,-18.74955940246582,-9.125627517700195
1695713712634174200,12.47517431640625,-17.23789405822754,-24.356542587280273,-8.656036376953125
1695713712644169700,12.485169677734374,-11.170892715454102,-24.802204132080078,-6.912864685058594
1695713712654249000,12.4952490234375,-5.6685967445373535,-19.300506591796875,-4.595416069030762
1695713712664281900,12.50528173828125,-5.194818019866943,-13.941781044006348,-1.8951154947280884
1695713712674307800,12.515307861328125,-5.736194133758545,-9.349954605102539,0.19740787148475647
1695713712684340700,12.5253408203125,-5.44845724105835,-5.700900077819824,-0.09930214285850525
1695713712694364000,12.535364013671876,-4.8502516746521,-4.020540237426758,-2.5220351219177246
1695713712704390100,12.54539013671875,-4.165306091308594,-4.95912504196167,-3.920639991760254
1695713712714422800,12.5554228515625,1.0875378847122192,-7.429714202880859,-3.3744781017303467
1695713712724436000,12.56543603515625,7.738388538360596,-9.613164901733398,-2.9006991386413574
1695713712734468900,12.57546875,8.26540756225586,-11.380264282226562,-3.7669010162353516
1695713712744502300,12.585502197265624,4.491926193237305,-12.620345115661621,-3.992424488067627
1695713712754535400,12.595535400390625,2.45204496383667,-12.893126487731934,-3.3649067878723145
1695713712764568800,12.60556884765625,2.3515465259552,-11.538190841674805,-3.360121250152588
1695713712774602000,12.61560205078125,2.8211379051208496,-9.761520385742188,-4.260420799255371
1695713712784635000,12.625634765625,2.365903377532959,-8.085946083068848,-5.021936416625977
1695713712794636300,12.63563623046875,2.3850460052490234,-6.567699909210205,-5.433502197265625
1695713712804561200,12.64556103515625,2.6249263286590576,-5.581258773803711,-5.859424591064453
1695713712814581500,12.65558154296875,2.667997360229492,-5.672185897827148,-5.816353797912598
1695713712824598800,12.665598876953124,2.160120725631714,-6.898507595062256,-5.1080780029296875
1695713712834619000,12.675618896484375,1.3698909282684326,-9.483952522277832,-3.7525441646575928
1695713712844662500,12.68566259765625,0.9296116232872009,-12.08913803100586,-2.5363919734954834
1695713712854685000,12.695684814453125,1.0061819553375244,-13.367504119873047,-2.0817556381225586
1695713712864747500,12.70574755859375,1.1784651279449463,-13.061222076416016,-2.115255117416382
1695713712874774000,12.71577392578125,1.5619150400161743,-11.96471118927002,-1.8424733877182007
1695713712884823800,12.72582373046875,1.85383939743042,-10.719246864318848,-1.6265212297439575
1695713712894852900,12.735852783203125,1.9974087476730347,-10.144969940185547,-1.1048858165740967
1695713712904885200,12.74588525390625,1.7198412418365479,-9.517452239990234,-0.8799605369567871
1695713712914914300,12.755914306640625,0.9822536706924438,-8.770293235778809,-0.9613165259361267
1695713712924938200,12.765938232421876,0.7812566161155701,-8.191229820251465,-0.9756734371185303
1695713712934966800,12.775966796875,0.7860422134399414,-8.172087669372559,-0.9134600162506104
1695713712945007900,12.7860078125,0.5515456199645996,-8.38265609741211,-0.8321040868759155
1695713712955037700,12.79603759765625,-0.22432711720466614,-8.511868476867676,-0.8273184299468994
1695713712965078500,12.80607861328125,-1.5074782371520996,-8.554939270019531,-1.1335997581481934
1695713712975109600,12.816109619140626,-2.709871530532837,-8.545368194580078,-1.3298112154006958
1695713712985110300,12.8261103515625,-2.4460630416870117,-8.047660827636719,-1.4015958309173584
1695713712995138000,12.836137939453126,-1.1389836072921753,-7.688138961791992,-1.4350954294204712
1695713713005350400,12.846350341796875,-0.22432711720466614,-7.7838521003723145,-1.3441680669784546
1695713713015399700,12.856399658203125,0.29730820655822754,-8.10987377166748,-1.3010972738265991
1695713713025427500,12.866427490234376,1.5278172492980957,-8.215158462524414,-1.3776676654815674
