time,seconds_elapsed,z,y,x
1695713700279332400,0.120332275390625,-0.3336038589477539,-0.21056818962097168,0.3592054843902588
1695713700289532400,0.130532470703125,-0.3054666519165039,0.01153564453125,0.3234531879425049
1695713700299732500,0.140732421875,-0.3821086883544922,0.17399883270263672,0.19810032844543457
1695713700309932500,0.1509326171875,-0.9191341400146484,0.874561071395874,-1.4789178371429443
1695713700320132400,0.16113232421875,-1.133732795715332,1.7620277404785156,-3.1027681827545166
1695713700330332400,0.17133251953125,-1.0784263610839844,0.35616064071655273,-1.4139044284820557
1695713700340532500,0.181532470703125,-0.6570844650268555,-0.7792630195617676,0.4783618450164795
1695713700350732500,0.191732666015625,-0.687169075012207,-0.583956241607666,0.8436832427978516
1695713700360932400,0.201932373046875,-0.741185188293457,-0.08046197891235352,0.5458693504333496
1695713700371132400,0.21213232421875,-0.9628887176513672,-0.05543947219848633,0.6206233501434326
1695713700381332500,0.22233251953125,-1.2069711685180664,0.0696115493774414,0.7642955780029297
1695713700391532500,0.232532470703125,-1.3326539993286133,0.2911686897277832,0.6884317398071289
1695713700401732400,0.242732421875,-1.710381031036377,-0.3767385482788086,0.6003613471984863
1695713700411932400,0.252932373046875,-2.7375779151916504,-1.3426239490509033,0.09428787231445312
1695713700422132500,0.263132568359375,-2.3493094444274902,-0.5897114276885986,-0.5935850143432617
1695713700432332500,0.27333251953125,-1.1877355575561523,0.3130040168762207,-0.7006471157073975
1695713700442532400,0.283532470703125,-1.0109033584594727,-0.44700074195861816,-0.202073335647583
1695713700452732400,0.293732421875,-0.3648557662963867,-0.49062609672546387,0.27501964569091797
1695713700462932500,0.303932373046875,0.7886905670166016,-0.5483291149139404,0.17569971084594727
1695713700473132500,0.314132568359375,0.20339202880859375,-0.28586912155151367,-0.5853846073150635
1695713700483332400,0.324332275390625,0.24376964569091797,-1.0496785640716553,0.428997278213501
1695713700493532400,0.334532470703125,-1.2515521049499512,-1.0859549045562744,0.0698399543762207
1695713700503732500,0.344732421875,-1.8741679191589355,-0.3565974235534668,-0.6140542030334473
1695713700513932500,0.3549326171875,-3.677342414855957,-1.3180549144744873,-1.5543174743652344
1695713700524132400,0.36513232421875,-4.788820743560791,-1.6234498023986816,-1.3574600219726562
1695713700534332400,0.37533251953125,-5.042036533355713,-1.9719587564468384,-0.7519421577453613
1695713700544532500,0.385532470703125,-4.868175983428955,-2.3779757022857666,-0.5627527236938477
1695713700554732500,0.395732666015625,-4.473422050476074,-2.952279806137085,-0.9713048934936523
1695713700564932400,0.405932373046875,-4.105605125427246,-3.490476608276367,-1.5097708702087402
1695713700575081000,0.4160810546875,-3.952272891998291,-4.110603332519531,-1.9705474376678467
1695713700585130000,0.4261298828125,-4.036369800567627,-4.778744697570801,-2.3055551052093506
1695713700595147800,0.436147705078125,-3.95540189743042,-5.48980712890625,-2.773346424102783
1695713700605183500,0.44618359375,-3.4497618675231934,-6.217777252197266,-3.3276209831237793
1695713700615204600,0.45620458984375,-2.812842607498169,-6.806506156921387,-3.989306688308716
1695713700625234000,0.46623388671875,-3.6527316570281982,-8.309890747070312,-4.105971813201904
1695713700635250000,0.47625,-2.5422677993774414,-7.61666202545166,-5.235617637634277
1695713700645273900,0.48627392578125,-3.0410654544830322,-8.626975059509277,-4.68651008605957
1695713700655341600,0.496341552734375,-3.77432918548584,-9.993367195129395,-2.9929111003875732
1695713700665384000,0.506384033203125,-3.7697324752807617,-10.455388069152832,-1.8560950756072998
1695713700675384000,0.516384033203125,-3.3774590492248535,-10.771890640258789,-1.5035655498504639
1695713700685408500,0.526408447265625,-3.2757792472839355,-11.113353729248047,-0.5936036109924316
1695713700695471000,0.53647119140625,-1.578094482421875,-10.422096252441406,0.9462471008300781
1695713700705511700,0.54651171875,0.6966762542724609,-9.880489349365234,3.266951560974121
1695713700715499800,0.556499755859375,2.3085691928863525,-10.063138961791992,6.220211029052734
1695713700725535000,0.566534912109375,3.073781728744507,-8.850497245788574,8.016111373901367
1695713700735592200,0.57659228515625,2.8213794231414795,-7.415800094604492,10.095355987548828
1695713700745629700,0.586629638671875,1.849719762802124,-6.143656253814697,13.117576599121094
1695713700755656400,0.596656494140625,1.1072945594787598,-4.2726149559021,15.852242469787598
1695713700765693000,0.60669287109375,1.350287914276123,-2.6918773651123047,18.31121063232422
1695713700775725300,0.616725341796875,1.9532020092010498,-0.5697574615478516,19.280912399291992
1695713700785761300,0.62676123046875,2.7133419513702393,1.3421950340270996,19.509204864501953
1695713700795768000,0.63676806640625,3.0259408950805664,2.9543275833129883,18.694683074951172
1695713700805801200,0.64680126953125,2.030465841293335,4.93949031829834,16.8897647857666
1695713700815850800,0.656850830078125,0.9936447143554688,6.386920928955078,15.952388763427734
1695713700826015700,0.667015625,-0.3343174457550049,7.365974426269531,15.696699142456055
1695713700836050400,0.677050537109375,-2.0409445762634277,7.69270133972168,15.327354431152344
1695713700846085000,0.687085205078125,-5.29158353805542,7.314056396484375,14.495095252990723
1695713700855981600,0.696981689453125,-9.191314697265625,7.182211875915527,13.012029647827148
1695713700866005800,0.707005859375,-13.302932739257812,8.179144859313965,9.853549003601074
1695713700876036900,0.717036865234375,-26.031578063964844,9.69601058959961,6.116300582885742
1695713700886061600,0.7270615234375,-55.30360412597656,9.426698684692383,-2.607722282409668
1695713700896118300,0.7371181640625,-1.515753149986267,12.084896087646484,4.959856986999512
1695713700906146300,0.747146240234375,4.116761684417725,4.6442108154296875,5.994394302368164
1695713700916169700,0.757169677734375,0.6488565802574158,-0.3646273612976074,-1.1220545768737793
1695713700926197200,0.767197265625,-1.4969305992126465,-1.44480562210083,-6.983288764953613
1695713700936237300,0.7772373046875,0.29358863830566406,-1.0343446731567383,-5.120852470397949
1695713700946266400,0.787266357421875,-0.6189950704574585,-1.7493152618408203,-4.112915515899658
1695713700956301800,0.7973017578125,-0.14164623618125916,-2.6010565757751465,-3.357072353363037
1695713700966331400,0.807331298828125,0.4181894063949585,-4.071548938751221,-2.9861717224121094
1695713700976364000,0.817364013671875,0.40468546748161316,-4.268754482269287,-3.784900188446045
1695713700986393900,0.827393798828125,0.886114239692688,-6.295167446136475,-2.4570960998535156
1695713700996433000,0.837432861328125,0.9447143077850342,-3.8709840774536133,-3.0498275756835938
1695713701006463500,0.84746337890625,0.5981783866882324,-3.7114105224609375,-0.9440383911132812
1695713701016497200,0.8574970703125,0.1339752972126007,-2.720059394836426,0.12806034088134766
1695713701026528300,0.8675283203125,0.6685444712638855,-3.091670036315918,1.0172967910766602
1695713701036560000,0.877559814453125,0.9101005792617798,-1.9432029724121094,1.0132780075073242
1695713701046591000,0.887591064453125,0.6997750997543335,-0.6083331108093262,1.2034015655517578
1695713701056596200,0.89759619140625,0.6474379897117615,-0.13711071014404297,1.5368385314941406
1695713701066624500,0.90762451171875,0.6305161118507385,-0.3586711883544922,1.832174301147461
1695713701076695000,0.917695068359375,0.9477725028991699,-0.9545135498046875,2.2310218811035156
1695713701086727700,0.927727783203125,1.4584686756134033,-1.7283244132995605,2.3970537185668945
1695713701096765700,0.937765625,1.216030478477478,-2.0319581031799316,2.0239458084106445
1695713701106798800,0.947798828125,0.45337244868278503,-2.2161359786987305,1.972799301147461
1695713701116823600,0.957823486328125,0.283169686794281,-3.3980088233947754,5.655376434326172
1695713701126856000,0.96785595703125,-0.07332968711853027,-3.7841296195983887,6.717179298400879
1695713701136897500,0.9778974609375,-0.7357637286186218,-1.1597089767456055,6.174853324890137
1695713701146931000,0.987930908203125,-1.572784662246704,0.5064654350280762,4.829817771911621
1695713701156953600,0.99795361328125,-3.2295432090759277,1.3487215042114258,-1.1923227310180664
1695713701166985700,1.00798583984375,-1.8587515354156494,1.1712079048156738,4.546159744262695
1695713701177018600,1.0180185546875,3.196610450744629,4.801421642303467,-0.48766231536865234
1695713701187050800,1.02805078125,2.3514022827148438,4.907937049865723,-8.109539985656738
1695713701197084400,1.03808447265625,-2.531473159790039,3.771947145462036,-7.494559288024902
1695713701207116800,1.04811669921875,-1.5574750900268555,7.083294868469238,-7.6791181564331055
1695713701217137700,1.0581376953125,0.5718721151351929,7.690248012542725,-7.589864730834961
1695713701227169000,1.0681689453125,1.4434630870819092,5.736525058746338,-6.135207176208496
1695713701237203000,1.078202880859375,2.240079164505005,6.1717305183410645,-6.384927749633789
1695713701247234300,1.088234375,1.439523696899414,5.446180820465088,-5.028357028961182
1695713701257258200,1.09825830078125,-1.1673519611358643,5.2091755867004395,-3.447734832763672
1695713701267288800,1.108288818359375,-5.675901889801025,4.711407661437988,-4.205092906951904
1695713701277333000,1.1183330078125,-6.538985252380371,3.4710092544555664,-4.604644298553467
1695713701287365000,1.128365234375,-5.804464817047119,3.985187530517578,-5.404884338378906
1695713701297406200,1.13840625,-5.7857255935668945,4.003479480743408,-5.411123275756836
1695713701307439000,1.148439208984375,-3.982743263244629,4.979843616485596,-4.934511661529541
1695713701317464800,1.15846484375,-1.835496187210083,4.748929023742676,-2.430286407470703
1695713701327497000,1.1684970703125,1.4121651649475098,5.234796524047852,-1.3485398292541504
1695713701337526500,1.178526611328125,4.258433818817139,2.0920510292053223,3.6848716735839844
1695713701347558400,1.188558349609375,1.5819685459136963,3.8432440757751465,2.115713119506836
1695713701357589000,1.198589111328125,-1.297537088394165,1.678415298461914,1.7077226638793945
1695713701367620900,1.208620849609375,-1.6400254964828491,2.744615077972412,0.07703590393066406
1695713701377665000,1.2186650390625,-0.016198277473449707,2.458923578262329,0.4083738327026367
1695713701387698000,1.228697998046875,3.379077434539795,3.4888761043548584,3.0235557556152344
1695713701397726700,1.238726806640625,6.382950305938721,1.4714925289154053,5.260219573974609
1695713701407759000,1.248759033203125,6.501354694366455,0.7727141380310059,4.910233497619629
1695713701417784300,1.258784423828125,3.8635170459747314,-0.1784360408782959,3.568685531616211
1695713701427816000,1.26881591796875,1.379624605178833,-1.0547962188720703,2.5402183532714844
1695713701437851400,1.278851318359375,0.6869114637374878,-1.8121747970581055,2.9951095581054688
1695713701447883500,1.288883544921875,0.7706305980682373,-1.917423963546753,3.34674072265625
1695713701457883100,1.298883056640625,1.0448881387710571,-4.428579330444336,4.104282379150391
1695713701467912000,1.308911865234375,0.712295651435852,-7.528596878051758,3.010408401489258
1695713701477980000,1.31897998046875,0.37108927965164185,-10.061437606811523,0.22434139251708984
1695713701488012800,1.3290126953125,0.9497065544128418,-10.848204612731934,-1.600954532623291
1695713701498027500,1.339027587890625,0.30263644456863403,-11.618431091308594,-0.9123449325561523
1695713701508058400,1.349058349609375,-1.118398904800415,-11.266461372375488,-0.4145193099975586
1695713701518110000,1.35910986328125,-1.5160934925079346,-8.650545120239258,-0.6708555221557617
1695713701528143000,1.36914306640625,-1.778723120689392,-7.837080001831055,-0.3811531066894531
1695713701538174200,1.37917431640625,-1.1790906190872192,-6.98226261138916,-0.3248472213745117
1695713701548207000,1.38920703125,-0.6228348016738892,-6.085124492645264,-0.5745258331298828
1695713701558251000,1.3992509765625,0.2595217227935791,-5.543153762817383,-0.46489620208740234
1695713701568285000,1.409284912109375,1.2197988033294678,-5.263329982757568,-0.3802480697631836
1695713701578313700,1.419313720703125,2.5982091426849365,-5.219128131866455,-0.5767021179199219
1695713701588347100,1.42934716796875,4.310861587524414,-5.035004138946533,-1.489941120147705
1695713701598385200,1.43938525390625,5.908794403076172,-4.4390106201171875,-2.4056100845336914
1695713701608419000,1.449419189453125,5.832001209259033,-3.5824503898620605,-2.8830747604370117
1695713701618447400,1.459447265625,2.7327775955200195,-2.5514779090881348,-2.0723791122436523
1695713701628480800,1.469480712890625,-5.039307117462158,-0.27852940559387207,-0.15055084228515625
1695713701638506200,1.47950634765625,-7.266200542449951,0.28186941146850586,1.605921745300293
1695713701648538600,1.48953857421875,-3.767477512359619,-0.8890371322631836,2.06640625
1695713701658557700,1.4995576171875,-0.5283561944961548,-1.2941882610321045,0.966583251953125
1695713701668588800,1.5095888671875,2.1397604942321777,-1.1336638927459717,-0.496612548828125
1695713701678641400,1.519641357421875,3.2830066680908203,-0.5119709968566895,-1.0273590087890625
1695713701688674600,1.529674560546875,2.8927958011627197,0.19139552116394043,-1.0358953475952148
1695713701698706000,1.539705810546875,2.065336227416992,0.496795654296875,-0.5080747604370117
1695713701708739000,1.549739013671875,0.3998056650161743,0.7115120887756348,0.5012302398681641
1695713701718771700,1.559771728515625,-0.4694361090660095,1.062258243560791,0.7112436294555664
1695713701728804600,1.5698046875,-0.11117810010910034,1.443190097808838,0.745182991027832
1695713701738840000,1.579840087890625,0.6089926958084106,1.2045936584472656,1.1262435913085938
1695713701748873500,1.58987353515625,1.6735692024230957,1.6813886165618896,1.2208948135375977
1695713701758873300,1.599873291015625,1.234521746635437,2.192044973373413,1.2106399536132812
1695713701768903200,1.609903076171875,0.7684448957443237,2.0876352787017822,0.59246826171875
1695713701778946300,1.6199462890625,1.062780499458313,2.1560347080230713,0.08220195770263672
1695713701788977400,1.629977294921875,1.180237889289856,2.8281197547912598,0.016160011291503906
1695713701799035400,1.640035400390625,1.0091559886932373,2.4296329021453857,0.3357839584350586
1695713701809069300,1.6500693359375,-0.7474505305290222,2.9761734008789062,1.1005496978759766
1695713701819068400,1.660068359375,-1.1897717714309692,3.1356654167175293,1.5155153274536133
1695713701829098800,1.6700986328125,-0.8058906197547913,2.8269541263580322,1.980137825012207
1695713701839164400,1.680164306640625,1.436690330505371,2.9216580390930176,1.500178337097168
1695713701849198300,1.6901982421875,0.8714092373847961,2.812861442565918,1.4881553649902344
1695713701859204600,1.70020458984375,1.2937965393066406,2.2097723484039307,1.2143564224243164
1695713701869235700,1.710235595703125,8.248040199279785,-1.002551555633545,-2.0666494369506836
1695713701879283000,1.720282958984375,-0.3713566064834595,4.158235549926758,-1.7357292175292969
1695713701889315600,1.730315673828125,-2.8184757232666016,2.6545708179473877,0.4333381652832031
1695713701899337000,1.7403369140625,-4.422327041625977,2.2978742122650146,2.2321548461914062
1695713701909368300,1.750368408203125,1.3102527856826782,2.6657919883728027,1.8973960876464844
1695713701919389700,1.7603896484375,2.2441208362579346,1.4975309371948242,0.783848762512207
1695713701929420300,1.770420166015625,1.5786521434783936,0.7785687446594238,-0.1321086883544922
1695713701939452000,1.780451904296875,-0.2700105607509613,1.8539674282073975,-1.599076271057129
1695713701949482500,1.790482421875,-1.068544626235962,1.92415452003479,-1.6802492141723633
1695713701959550500,1.800550537109375,-0.09551450610160828,1.4229745864868164,-0.7219476699829102
1695713701969585000,1.8105849609375,0.286418080329895,1.196061134338379,-0.44226551055908203
1695713701979588900,1.8205888671875,-1.1589754819869995,1.2533955574035645,-0.210174560546875
1695713701989620200,1.8306201171875,-0.47854310274124146,1.3793389797210693,-0.7915964126586914
1695713701999645200,1.840645263671875,-2.342634439468384,0.9449100494384766,-0.39621543884277344
1695713702009675800,1.85067578125,-0.5082002282142639,1.938615083694458,-2.086287498474121
1695713702019717000,1.860717041015625,-1.3663504123687744,-2.0381529331207275,-0.5752964019775391
1695713702029749000,1.8707490234375,-0.9318847060203552,1.2046701908111572,1.1349153518676758
1695713702039778600,1.880778564453125,-6.901890277862549,0.7585060596466064,0.7158069610595703
1695713702049810000,1.890809814453125,1.644413948059082,1.7135456800460815,2.3677978515625
1695713702059829000,1.9008291015625,1.9966638088226318,-0.23497939109802246,0.06101226806640625
1695713702069859000,1.910859130859375,-1.2300280332565308,0.5597076416015625,-2.547572135925293
1695713702079907300,1.9209072265625,-0.10951760411262512,1.1032519340515137,-0.9725627899169922
1695713702089939500,1.930939453125,0.849017858505249,0.8872654438018799,0.841130256652832
1695713702099974400,1.940974365234375,0.16257888078689575,1.1530778408050537,1.555068016052246
1695713702110006800,1.9510068359375,-0.24096155166625977,1.100154161453247,-0.9433135986328125
1695713702120034300,1.961034423828125,-0.17210912704467773,0.7235312461853027,-1.8861231803894043
1695713702130066200,1.971066162109375,1.2235488891601562,0.14266538619995117,-2.451101303100586
1695713702140102100,1.98110205078125,3.7640976905822754,-0.8215210437774658,-2.289841651916504
1695713702150134300,1.99113427734375,0.7328007817268372,-1.4028573036193848,-3.5307931900024414
1695713702160172800,2.0011728515625,0.08706635236740112,-0.8103346824645996,-3.4512929916381836
1695713702170205400,2.011205322265625,0.15739035606384277,-0.73093581199646,-2.6848249435424805
1695713702180231200,2.021231201171875,0.7341945767402649,-0.6585497856140137,-1.774167537689209
1695713702190263300,2.03126318359375,0.5960572957992554,-0.007028818130493164,-1.006662368774414
1695713702200323600,2.041323486328125,-0.18967854976654053,0.5867714881896973,-0.6641931533813477
1695713702210358500,2.051358642578125,-0.0424877405166626,0.08571457862854004,-0.34192943572998047
1695713702220394000,2.06139404296875,-0.2704569101333618,-0.3667891025543213,-0.19246673583984375
1695713702230429000,2.071428955078125,-0.06416982412338257,-0.4509713649749756,-0.15764236450195312
1695713702240456200,2.081456298828125,0.1985313892364502,-0.42749786376953125,-0.6054649353027344
1695713702250490400,2.091490478515625,0.4484516978263855,-0.716327428817749,-0.7025823593139648
1695713702260480800,2.101480712890625,0.4383939504623413,-0.7921860218048096,-0.8606338500976562
1695713702270510300,2.11151025390625,0.47582149505615234,-0.5886707305908203,-0.7641086578369141
1695713702280590000,2.121590087890625,0.056218475103378296,-0.3523979187011719,-0.4722900390625
1695713702290624800,2.131624755859375,0.12900829315185547,-0.18338441848754883,0.8293743133544922
1695713702300645600,2.141645751953125,0.5332947969436646,0.0777125358581543,2.5465917587280273
1695713702310678800,2.1516787109375,0.5927835702896118,0.4470221996307373,3.0033626556396484
1695713702320712400,2.16171240234375,0.7254175543785095,0.6976337432861328,3.330608367919922
1695713702330745600,2.17174560546875,0.5578710436820984,0.6631293296813965,4.424603462219238
1695713702340747300,2.181747314453125,0.5824892520904541,1.2595243453979492,3.0009098052978516
1695713702350777600,2.191777587890625,0.3041492700576782,0.6016550064086914,0.8638906478881836
1695713702360842000,2.201842041015625,0.09163177013397217,-0.16489744186401367,-0.5438060760498047
1695713702370875600,2.211875732421875,-0.28311264514923096,-0.9193801879882812,-0.725041389465332
1695713702380909800,2.221909912109375,-2.086129665374756,-0.9985394477844238,-0.4338083267211914
1695713702390943500,2.231943603515625,-1.6926496028900146,-0.7753477096557617,0.6865339279174805
1695713702400972300,2.24197216796875,-1.689616322517395,-0.7730402946472168,0.34862613677978516
1695713702411005400,2.25200537109375,-1.7107934951782227,-0.29523229598999023,-0.9616174697875977
1695713702421033500,2.262033447265625,-0.03473764657974243,0.2880086898803711,-0.0073795318603515625
1695713702431066400,2.27206640625,-0.42546314001083374,1.001014232635498,0.3467874526977539
1695713702441096000,2.282095947265625,-0.6041609048843384,1.1406307220458984,0.3768320083618164
1695713702451128000,2.292128173828125,-0.6265490651130676,1.6156387329101562,0.636357307434082
1695713702461113000,2.302113037109375,-0.5019075274467468,1.6594218015670776,0.2814779281616211
1695713702471140600,2.312140625,-0.3902645707130432,1.6926504373550415,-0.2922639846801758
1695713702481235700,2.322235595703125,-0.19205135107040405,2.0924787521362305,-1.0083189010620117
1695713702491270100,2.332270263671875,1.6099319458007812,1.302369236946106,0.6646814346313477
1695713702501294000,2.342294189453125,-2.1173980236053467,2.9673917293548584,0.6735820770263672
1695713702511327500,2.352327392578125,2.4023830890655518,1.783028244972229,1.880594253540039
1695713702521366300,2.3623662109375,-4.2719902992248535,4.910670280456543,2.0111007690429688
1695713702531400200,2.372400146484375,-0.9916621446609497,4.5517683029174805,3.7845897674560547
1695713702541425000,2.3824248046875,2.2902987003326416,4.038287162780762,3.507174491882324
1695713702551458000,2.3924580078125,4.781396389007568,2.5917062759399414,2.62310791015625
1695713702561492700,2.40249267578125,0.8702267408370972,4.14772891998291,2.525294303894043
1695713702571526000,2.41252587890625,-1.8743162155151367,4.875983238220215,2.2268686294555664
1695713702581562400,2.422562255859375,2.4990639686584473,4.502910614013672,3.0166168212890625
1695713702591596000,2.432595947265625,3.6396265029907227,3.7237918376922607,1.9665918350219727
1695713702601618400,2.442618408203125,1.5412546396255493,3.4014880657196045,-1.6510553359985352
1695713702611650600,2.452650634765625,5.970799446105957,1.2594692707061768,-7.287883758544922
1695713702621688000,2.46268798828125,3.233750820159912,-6.914970397949219,-11.412939071655273
1695713702631720700,2.472720703125,-1.447197437286377,-6.379326343536377,-7.266977310180664
1695713702641750800,2.482750732421875,-1.598158597946167,-6.194829940795898,-2.4947004318237305
1695713702651783400,2.492783447265625,-2.978137969970703,-4.19723653793335,-2.1568970680236816
1695713702661812000,2.50281201171875,-3.6967384815216064,-4.517884254455566,-3.2122373580932617
1695713702671843800,2.51284375,-4.052666187286377,-6.223659515380859,-4.661179065704346
1695713702681859800,2.52285986328125,-3.6466550827026367,-6.106386661529541,-4.052753448486328
1695713702691890200,2.53289013671875,-1.8341118097305298,-6.088198661804199,-2.70684814453125
1695713702701946400,2.5429462890625,-0.9498873949050903,-7.375913619995117,-0.5708656311035156
1695713702711979500,2.5529794921875,2.2101328372955322,-4.344396591186523,0.4248781204223633
1695713702722010400,2.56301025390625,4.43223237991333,-3.338416814804077,0.18047142028808594
1695713702732043000,2.57304296875,2.807864189147949,-2.218127727508545,0.15615081787109375
1695713702742087000,2.5830869140625,0.8085516095161438,-0.01336979866027832,1.8304920196533203
1695713702752120800,2.593120849609375,-0.653652012348175,0.07204461097717285,3.045379638671875
1695713702762118000,2.603117919921875,-0.884685754776001,0.34163379669189453,2.8758678436279297
1695713702772148000,2.61314794921875,-0.6769344806671143,0.5572693347930908,2.348830223083496
1695713702782177800,2.623177734375,-0.2789508104324341,0.3410923480987549,1.846303939819336
1695713702792208000,2.633207763671875,0.9486993551254272,0.16189122200012207,0.8059825897216797
1695713702802245400,2.643245361328125,1.6214556694030762,-0.14582347869873047,-0.052596092224121094
1695713702812276200,2.653276123046875,2.1200642585754395,-0.23627042770385742,-0.6343803405761719
1695713702822330000,2.663330078125,2.4749789237976074,-0.25192928314208984,-1.7159805297851562
1695713702832363300,2.67336328125,1.8290654420852661,-0.22249174118041992,-2.2774620056152344
1695713702842396000,2.68339599609375,0.6865369081497192,-0.4789462089538574,-2.3272132873535156
1695713702852429000,2.693428955078125,-0.0417361855506897,-0.7499232292175293,-2.3372201919555664
1695713707437255400,7.27825537109375,0.494840145111084,3.910033702850342,-0.7185778617858887
1695713707447286300,7.288286376953125,-1.2252874374389648,3.4179224967956543,-0.3946380615234375
1695713707457317000,7.298317138671875,-3.1867611408233643,2.84788179397583,-0.4843020439147949
1695713707467348200,7.30834814453125,-8.309288024902344,1.6998443603515625,-2.1138219833374023
1695713707477379000,7.318379150390625,-15.876570701599121,-0.521759033203125,-6.224895477294922
1695713707487410200,7.32841015625,-12.995935440063477,-4.017187118530273,-9.053059577941895
1695713707497441000,7.33844091796875,-12.163430213928223,-10.058259963989258,-9.925369262695312
1695713707507472100,7.34847216796875,-12.955784797668457,-15.340746879577637,-9.265459060668945
1695713707517503000,7.3585029296875,-7.706189155578613,-15.15680980682373,-6.418123722076416
1695713707527533800,7.368533935546875,-3.269357919692993,-8.978221893310547,-3.0092058181762695
1695713707537566200,7.378566162109375,-1.0905516147613525,-3.19728946685791,1.2268943786621094
1695713707547596800,7.3885966796875,-0.41707468032836914,1.2759475708007812,3.1586227416992188
1695713707557627600,7.398627685546875,0.2970280647277832,4.207396507263184,2.165508270263672
1695713707567658500,7.408658447265625,0.07561445236206055,4.772832870483398,-0.20571660995483398
1695713707577689300,7.418689453125,-0.804877758026123,3.360687732696533,-0.92071533203125
1695713707587720200,7.42872021484375,3.084951639175415,0.5174026489257812,0.8371918201446533
1695713707597750800,7.438750732421875,10.07398509979248,-2.853632926940918,2.924966335296631
1695713707607781600,7.44878173828125,12.10899829864502,-4.953415870666504,2.859508752822876
1695713707617812500,7.4588125,9.662283897399902,-5.711348533630371,2.448265552520752
1695713707627843300,7.46884326171875,7.06041145324707,-5.523978233337402,2.377556085586548
1695713707637874200,7.478874267578125,6.121586799621582,-4.066458702087402,1.3128514289855957
1695713707647906800,7.48890673828125,7.451220989227295,-2.3909053802490234,-0.2136068344116211
1695713707657942800,7.49894287109375,8.434248924255371,-1.0302343368530273,-1.176095724105835
1695713707667978500,7.508978515625,7.634364604949951,0.8846650123596191,-1.845663070678711
1695713707678014200,7.51901416015625,6.710412979125977,2.534071922302246,-2.432539701461792
1695713707688050000,7.5290498046875,5.542584419250488,2.7945709228515625,-2.7446703910827637
1695713707698085600,7.539085693359375,3.8339877128601074,2.0824975967407227,-2.5739753246307373
1695713707708121600,7.54912158203125,2.9465885162353516,0.26442718505859375,-1.3230392932891846
1695713707718157300,7.5591572265625,2.754464626312256,-1.605879783630371,-0.14318513870239258
1695713707728193000,7.569193115234375,2.493758201599121,-2.558786392211914,0.578272819519043
1695713707738228700,7.579228759765625,2.4607093334198,-2.5820541381835938,1.1931627988815308
1695713707748264400,7.589264404296875,2.3332626819610596,-1.9013252258300781,1.5208611488342285
1695713707758296800,7.599296875,2.3757450580596924,-0.9466361999511719,1.981866717338562
1695713707768327200,7.6093271484375,2.3922934532165527,0.38416004180908203,1.9672776460647583
1695713707778357800,7.619357666015625,1.796443223953247,1.328404426574707,1.9557543992996216
1695713707788388000,7.62938818359375,0.6215768456459045,1.8880424499511719,2.5110976696014404
1695713707798418400,7.63941845703125,0.14650747179985046,2.0387096405029297,2.859260082244873
1695713707808448800,7.64944873046875,0.0056191086769104,1.9654388427734375,2.85699200630188
1695713707818479000,7.65947900390625,-0.5941565036773682,1.7515287399291992,2.565415382385254
1695713707828509700,7.669509765625,-1.940288782119751,1.4038715362548828,1.8523017168045044
1695713707838540000,7.6795400390625,-3.2351059913635254,0.975346565246582,0.9426640272140503
1695713707848570400,7.6895703125,-4.296955108642578,1.110142707824707,0.3547482490539551
1695713707858600700,7.6996005859375,-4.373260498046875,1.4725375175476074,0.1942293643951416
1695713707868633300,7.70963330078125,-3.179739475250244,1.8280181884765625,0.05615389347076416
1695713707878667300,7.719667236328125,-1.9690775871276855,1.9037771224975586,-0.35795021057128906
1695713707888701200,7.729701171875,-0.9346171021461487,1.8957042694091797,-0.8585944175720215
1695713707898735000,7.739735107421875,0.06388735771179199,1.7066717147827148,-1.400527000427246
1695713707908768800,7.749768798828125,0.6236313581466675,1.219700813293457,-1.7524843215942383
1695713707918802700,7.759802734375,0.41852879524230957,0.23308658599853516,-1.3241815567016602
1695713707928836600,7.769836669921875,-0.42783379554748535,-0.8305091857910156,-0.4301412105560303
1695713707938870500,7.77987060546875,-1.8976917266845703,-1.7388219833374023,0.48508191108703613
1695713707948904400,7.789904541015625,-3.390282392501831,-2.188007354736328,1.4621539115905762
1695713707958938000,7.799938232421875,-4.728034973144531,-2.4008474349975586,2.5544676780700684
1695713707968970000,7.809969970703125,-5.6286725997924805,-2.8137073516845703,3.7040622234344482
1695713707978998300,7.819998291015625,-5.5293145179748535,-3.468240737915039,4.674968719482422
1695713707989026300,7.8300263671875,-4.590566635131836,-3.8068857192993164,5.097527980804443
1695713707999054600,7.8400546875,-3.6385226249694824,-3.544499397277832,4.8650617599487305
1695713708009082600,7.85008251953125,-2.7364673614501953,-2.8782033920288086,4.3380818367004395
1695713708019111000,7.86011083984375,-1.988598346710205,-2.9036874771118164,4.3637285232543945
1695713708029139200,7.87013916015625,-2.0236361026763916,-3.92940616607666,4.343727111816406
1695713708039167200,7.880167236328125,-2.730602979660034,-4.722525596618652,3.4984118938446045
1695713708049195500,7.890195556640625,-4.409279823303223,-4.886605262756348,1.9939191341400146
1695713708059223800,7.900223876953125,-6.8192973136901855,-5.476806640625,0.28114962577819824
1695713708069256000,7.910255859375,-7.71890115737915,-5.6746721267700195,-0.3344144821166992
1695713708079289600,7.92028955078125,-7.225851058959961,-4.392128944396973,0.46234631538391113
1695713708089323300,7.9303232421875,-7.100339412689209,-3.493208885192871,1.5894668102264404
1695713708099357000,7.94035693359375,-5.1668381690979,-3.1189117431640625,2.4518754482269287
1695713708109390600,7.950390625,-1.2511603832244873,-2.573617935180664,2.359088897705078
1695713708119424300,7.96042431640625,1.4281028509140015,-1.9093847274780273,1.192833662033081
1695713708129458000,7.9704580078125,3.243652105331421,-2.0289411544799805,0.12861120700836182
1695713708139491600,7.98049169921875,3.774144172668457,-2.934152603149414,-0.8414043188095093
1695713708149525200,7.990525146484375,3.2344369888305664,-4.387026786804199,-2.171147346496582
1695713708159559000,8.000558837890624,2.545718193054199,-5.08155632019043,-3.177255392074585
1695713708169592600,8.010592529296876,1.6866302490234375,-5.073274612426758,-3.9349422454833984
1695713708179625200,8.020625244140625,1.7729578018188477,-4.895589828491211,-4.337706565856934
1695713708189659400,8.030659423828125,3.3170549869537354,-4.394552230834961,-4.001386642456055
1695713708199693800,8.04069384765625,4.2464919090271,-3.691080093383789,-3.786695957183838
1695713708209728300,8.050728271484376,3.629427909851074,-3.242316246032715,-3.9904208183288574
1695713708219762700,8.0607626953125,2.6295883655548096,-3.0733776092529297,-3.737704277038574
1695713708229797000,8.070797119140625,1.3396517038345337,-2.651182174682617,-2.7091712951660156
1695713708239831300,8.080831298828125,-0.049629926681518555,-2.103086471557617,-1.8989739418029785
1695713708249865700,8.09086572265625,0.19520783424377441,-1.5729780197143555,-0.09790503978729248
1695713708259900200,8.100900146484374,3.1345410346984863,-0.4801349639892578,1.5736989974975586
1695713708269934600,8.1109345703125,5.174862861633301,0.4148845672607422,2.758486032485962
1695713708279966500,8.120966552734375,5.876010894775391,0.8580284118652344,3.108097553253174
1695713708289995800,8.130995849609375,6.103088855743408,1.5368537902832031,2.9101366996765137
1695713708300024800,8.14102490234375,6.877877712249756,2.6821165084838867,2.699054718017578
1695713708310054000,8.151053955078124,7.358339309692383,3.488834857940674,2.5141191482543945
1695713708320083000,8.1610830078125,7.686173915863037,4.501368999481201,2.3112666606903076
1695713708330112300,8.1711123046875,7.849623203277588,5.179587364196777,2.050631284713745
1695713708340141300,8.181141357421875,7.803305625915527,5.474251747131348,1.8250353336334229
1695713708350170600,8.191170654296876,7.330705642700195,5.620941162109375,1.4964741468429565
1695713708360199700,8.20119970703125,7.080205917358398,5.364193916320801,1.2409874200820923
1695713708370228700,8.211228759765625,7.109604835510254,5.009016036987305,0.9898937940597534
1695713708380258000,8.221258056640625,7.0953264236450195,4.757970809936523,0.5082817077636719
1695713708390290200,8.231290283203125,6.730729103088379,4.603954315185547,-0.08618021011352539
1695713708400324600,8.24132470703125,6.343582630157471,4.605063438415527,-0.5930769443511963
1695713708410358800,8.25135888671875,5.772357940673828,4.877573013305664,-0.7769415378570557
1695713708420393000,8.26139306640625,4.863795280456543,5.122384071350098,-0.8330695629119873
1695713708430427400,8.271427490234375,3.5309906005859375,4.974717140197754,-0.7659032344818115
1695713708440461600,8.281461669921875,1.8910527229309082,4.645432472229004,-0.6155133247375488
1695713708450495700,8.291495849609374,-0.046050310134887695,4.112387657165527,-0.24015259742736816
1695713708460530200,8.3015302734375,-1.6465191841125488,3.287214756011963,0.3851187229156494
1695713708470564400,8.311564453125,-3.4299843311309814,2.3301830291748047,0.24771857261657715
1695713708480598500,8.3215986328125,-7.957279205322266,0.9568271636962891,-1.4230802059173584
1695713708490633000,8.331633056640625,-15.125804901123047,-0.9108972549438477,-5.855581283569336
1695713708500665300,8.341665283203126,-13.535127639770508,-3.9179954528808594,-9.034555435180664
1695713708510697700,8.35169775390625,-13.792994499206543,-10.05506420135498,-9.12453842163086
1695713708520730000,8.361730224609374,-13.630980491638184,-15.742114067077637,-6.96156120300293
1695713708530762800,8.3717626953125,-7.215065956115723,-16.34500503540039,-2.732907772064209
1695713708540795100,8.381795166015625,-2.4886205196380615,-10.68485164642334,-0.1031498908996582
1695713708550827500,8.39182763671875,-1.7834587097167969,-4.6125946044921875,0.9951307773590088
1695713708560860000,8.40185986328125,-1.3929755687713623,0.0072078704833984375,1.0955088138580322
1695713708570892500,8.411892578125,-0.3431730270385742,2.686554431915283,-0.7981829643249512
1695713708580925000,8.421925048828125,-0.04308652877807617,3.783031940460205,-3.150094509124756
1695713708590957300,8.431957275390625,-0.2606387138366699,3.070864200592041,-3.414586305618286
1695713708600990000,8.441989990234376,2.6636641025543213,0.4716224670410156,-1.7596173286437988
1695713708611022000,8.45202197265625,9.327936172485352,-2.4578113555908203,0.9127814769744873
1695713708621053700,8.4620537109375,10.864628791809082,-3.696049690246582,1.7796928882598877
1695713708631085000,8.4720849609375,9.55729866027832,-3.6286983489990234,2.5456981658935547
1695713708641116700,8.48211669921875,9.401876449584961,-2.5487194061279297,3.062871217727661
1695713708651148000,8.49214794921875,7.998538970947266,-0.4624013900756836,1.9215577840805054
1695713708661179600,8.5021796875,5.946733474731445,1.1571321487426758,-0.19928812980651855
1695713708671211300,8.512211181640625,5.168684959411621,2.2364187240600586,-2.482048988342285
1695713708681242600,8.52224267578125,5.788458824157715,2.9998278617858887,-3.8640992641448975
1695713708691274200,8.532274169921875,6.496912956237793,3.062551975250244,-3.9209084510803223
1695713708701305600,8.5423056640625,6.2870378494262695,2.265212059020996,-3.927511692047119
1695713708711337200,8.552337158203125,4.458460807800293,0.19095420837402344,-3.0181868076324463
1695713708721370000,8.5623701171875,3.195286273956299,-2.3947315216064453,-1.4038112163543701
1695713708731405300,8.5724052734375,3.207655429840088,-3.97562313079834,-0.14750075340270996
1695713708741440800,8.582440673828126,3.224461078643799,-3.9603328704833984,0.7405519485473633
1695713708751476200,8.592476318359376,2.85400128364563,-2.8603315353393555,1.2693170309066772
1695713708761511700,8.60251171875,2.60791277885437,-1.5508451461791992,1.6154186725616455
1695713708771547100,8.612547119140626,2.2027809619903564,-0.4154233932495117,1.9969080686569214
1695713708781582600,8.62258251953125,1.8863284587860107,0.15938186645507812,2.113118886947632
1695713708791618000,8.6326181640625,1.6938621997833252,1.2610845565795898,2.146892547607422
1695713708801653500,8.642653564453125,1.5180346965789795,1.7924442291259766,1.7029768228530884
1695713708811689000,8.65268896484375,1.2713969945907593,1.6539945602416992,1.7718297243118286
1695713708821724200,8.66272412109375,0.7050480246543884,1.1884803771972656,1.9488699436187744
1695713708831756800,8.6727568359375,0.3708329200744629,1.0054454803466797,2.033045530319214
1695713708841788400,8.682788330078125,-0.2685070037841797,0.9429197311401367,2.0926008224487305
1695713708851819800,8.69281982421875,-1.4930663108825684,0.9011831283569336,1.9950487613677979
1695713708861851400,8.702851318359375,-2.5039865970611572,0.8621196746826172,2.0117886066436768
1695713708871883000,8.712883056640624,-3.8853979110717773,0.6590538024902344,1.6623235940933228
1695713708881914400,8.722914306640625,-4.290646553039551,0.7420330047607422,1.5854572057724
1695713708891946000,8.732946044921874,-3.184354782104492,1.014937400817871,1.5304181575775146
1695713708901977600,8.7429775390625,-1.4939134120941162,1.3477444648742676,1.4762310981750488
1695713708912009000,8.753009033203124,-0.06104457378387451,1.7586326599121094,1.2137486934661865
1695713708922040600,8.76304052734375,0.7231043577194214,1.9021682739257812,0.7406038045883179
1695713708932072200,8.773072265625,0.6373157501220703,1.777536392211914,0.06018829345703125
1695713708942104300,8.783104248046875,0.06302094459533691,1.1934456825256348,-0.5359828472137451
1695713708952135700,8.7931357421875,-0.8409829139709473,0.10309219360351562,-0.8105204105377197
1695713708962166800,8.803166748046875,-2.3544678688049316,-1.1424884796142578,-0.459308385848999
1695713708972198000,8.813197998046874,-4.123129367828369,-1.8189191818237305,0.5132904052734375
1695713708982229000,8.82322900390625,-5.636595726013184,-2.3205251693725586,1.8395984172821045
1695713708992260400,8.83326025390625,-6.368411540985107,-2.92873477935791,3.06019926071167
1695713709002291500,8.84329150390625,-5.805008411407471,-3.7101879119873047,3.895782470703125
1695713709012322600,8.853322509765626,-4.512913227081299,-4.151165008544922,3.9994053840637207
1695713709022353700,8.863353759765625,-3.0976192951202393,-3.7057409286499023,3.623882293701172
1695713709032384800,8.873384765625,-2.2527916431427,-3.0984230041503906,3.3046538829803467
1695713709042416000,8.883416015625,-2.2280795574188232,-3.17034912109375,3.4085659980773926
1695713709052448300,8.8934482421875,-2.9243268966674805,-3.965695381164551,3.232273578643799
1695713709062480100,8.903480224609375,-4.039149761199951,-4.533695220947266,2.4733943939208984
1695713709072512000,8.913511962890626,-5.513628005981445,-4.882052421569824,1.4120630025863647
1695713709082543900,8.9235439453125,-6.410665988922119,-6.019547462463379,0.5924417972564697
1695713709092575700,8.93357568359375,-6.000995635986328,-5.880337715148926,0.6250777244567871
1695713709102607400,8.943607421875,-6.612301826477051,-4.728215217590332,1.6190721988677979
1695713709112639200,8.95363916015625,-6.770586013793945,-4.269380569458008,2.7840075492858887
1695713709122671000,8.963671142578125,-4.772303104400635,-4.154543876647949,3.580413818359375
1695713709132703000,8.973702880859374,-2.3226187229156494,-3.2278060913085938,3.1198267936706543
1695713709142734800,8.98373486328125,-0.4745491147041321,-2.469411849975586,1.4382596015930176
1695713709152766700,8.9937666015625,1.9796209335327148,-2.3691787719726562,-0.060333967208862305
1695713709162799400,9.00379931640625,3.7965731620788574,-3.3865127563476562,-1.184053897857666
1695713709172835000,9.0138349609375,3.9361462593078613,-4.6713666915893555,-2.7511415481567383
1695713709182870500,9.02387060546875,3.529313564300537,-5.328686714172363,-3.8548026084899902
1695713709192906200,9.03390625,2.519014358520508,-5.202497482299805,-4.634546756744385
1695713709202941700,9.043941650390625,1.5605483055114746,-4.681426048278809,-4.850729465484619
1695713709212977400,9.053977294921875,2.123796224594116,-4.067358016967773,-4.593949794769287
1695713709223013000,9.06401318359375,3.556212902069092,-3.1345739364624023,-4.197820663452148
1695713709233048600,9.074048583984375,3.574859619140625,-2.4648094177246094,-4.057038307189941
1695713709243084300,9.084084228515625,2.5107874870300293,-1.7622137069702148,-3.641934633255005
1695713709253119700,9.09411962890625,0.8858727812767029,-1.3011817932128906,-2.712897300720215
1695713709263152000,9.104152099609376,-0.5698825120925903,-0.9304218292236328,-1.8786245584487915
1695713709273182700,9.1141826171875,0.8572638034820557,-0.26395606994628906,-0.16573548316955566
1695713709283213300,9.12421337890625,4.140170097351074,0.4654836654663086,1.7247778177261353
1695713709293243600,9.13424365234375,5.635463714599609,0.8571262359619141,2.9543261528015137
1695713709303274200,9.144274169921875,5.559350967407227,1.095468521118164,3.2995693683624268
1695713709313304800,9.154304931640626,5.737980842590332,1.6379098892211914,3.0962228775024414
1695713709323335400,9.16433544921875,6.634434700012207,2.4297332763671875,2.9492175579071045
1695713709333366000,9.174365966796875,7.203773498535156,3.4748787879943848,2.643052339553833
1695713709343396400,9.184396240234374,7.239937782287598,4.20631742477417,2.167341709136963
1695713709353427000,9.194427001953125,7.139399528503418,4.565862655639648,1.5087796449661255
1695713709363457500,9.20445751953125,7.0228118896484375,4.655922889709473,0.9013778567314148
1695713709373489200,9.2144892578125,6.954798698425293,4.608865737915039,0.44552600383758545
1695713709383518000,9.22451806640625,6.962311744689941,4.4413909912109375,0.07459962368011475
1695713709393546800,9.234546630859375,6.887468338012695,4.426529884338379,-0.46541476249694824
1695713709403575600,9.244575439453126,6.652542591094971,4.628406524658203,-1.0396900177001953
1695713709413604400,9.254604248046874,6.155788421630859,4.945516586303711,-1.4295504093170166
1695713709423633200,9.264633056640625,5.591991901397705,5.372897148132324,-1.508497953414917
1695713709433662000,9.274661865234375,5.033968448638916,5.781984329223633,-1.4316751956939697
1695713709443690800,9.284690673828125,4.530581951141357,5.699009895324707,-1.1309776306152344
1695713709453719600,9.294719482421876,3.9355812072753906,5.289875030517578,-0.8380231857299805
1695713709463748400,9.304748291015626,3.085754632949829,4.8699798583984375,-0.5496280193328857
1695713709473781000,9.314781005859375,1.7340080738067627,4.528214454650879,-0.36152005195617676
1695713709483818500,9.324818603515626,-0.056343793869018555,4.023353099822998,0.17447233200073242
1695713709493855700,9.334855712890626,-3.510951280593872,3.085411548614502,0.34713292121887207
1695713709503893000,9.34489306640625,-11.231091499328613,1.3079338073730469,-0.8045642375946045
1695713709513930200,9.35493017578125,-21.332305908203125,-0.8980302810668945,-4.170494079589844
1695713709523967500,9.364967529296875,-18.305513381958008,-5.101580619812012,-6.6552557945251465
1695713709534005000,9.3750048828125,-15.180517196655273,-13.233837127685547,-7.285527229309082
1695713709544042200,9.385042236328125,-11.908065795898438,-18.900920867919922,-6.073324203491211
1695713709554079500,9.39507958984375,-4.688385963439941,-17.162609100341797,-3.9052577018737793
1695713709564116700,9.40511669921875,-0.881094217300415,-10.342411041259766,-2.657625436782837
1695713709574154000,9.415154052734374,-0.9325332641601562,-4.084368705749512,-1.229372262954712
1695713709584186600,9.4251865234375,-1.293227195739746,0.8208208084106445,-0.6916117668151855
1695713709594217700,9.4352177734375,-1.611778736114502,3.809783458709717,-1.681429386138916
1695713709604248800,9.445248779296875,-2.7189064025878906,5.422697067260742,-2.296504497528076
1695713709614280000,9.455280029296874,-1.6979455947875977,4.3037309646606445,-0.9255385398864746
1695713709624311000,9.46531103515625,9.473514556884766,0.9390077590942383,2.31461763381958
1695713709634342100,9.475342041015624,14.141814231872559,-1.2028493881225586,4.227136135101318
1695713709644373500,9.48537353515625,13.856203079223633,-1.7054548263549805,3.699305295944214
1695713709654404600,9.495404541015626,13.128670692443848,-1.976837158203125,3.532763957977295
1695713709664435700,9.505435791015625,7.09739875793457,-2.0926551818847656,2.536328077316284
1695713709674466800,9.515466796875,2.1940877437591553,-2.3460521697998047,0.36907362937927246
1695713709684498000,9.525497802734375,4.885475158691406,-2.2108497619628906,-2.2760164737701416
1695713709694530600,9.535530517578126,8.153097152709961,-1.6609907150268555,-4.263994216918945
1695713709704564000,9.54556396484375,9.22833251953125,-1.0458345413208008,-4.3748674392700195
1695713709714597400,9.555597412109375,8.104795455932617,-0.8424549102783203,-4.186795234680176
1695713709724630800,9.565630859375,5.589046478271484,-1.5294570922851562,-4.205905914306641
1695713709734664200,9.575664306640626,3.065777540206909,-2.2724618911743164,-3.2914302349090576
1695713709744697900,9.58569775390625,2.226271629333496,-2.1158266067504883,-1.5058057308197021
1695713709754731300,9.595731201171875,2.6025960445404053,-1.1761999130249023,0.03506302833557129
1695713709764764700,9.6057646484375,2.7640371322631836,-0.13933372497558594,0.9211171865463257
1695713709774798000,9.615798095703125,2.5877573490142822,0.5549697875976562,1.4006896018981934
1695713709784831500,9.62583154296875,2.30810546875,0.8789463043212891,1.6433730125427246
1695713709794865000,9.635864990234374,2.084543228149414,0.8480243682861328,2.22607159614563
1695713709804897000,9.64589697265625,1.0687637329101562,0.416351318359375,1.915047287940979
1695713709814927400,9.65592724609375,0.2301168292760849,1.1006479263305664,1.3942434787750244
1695713709824957400,9.66595751953125,0.49945560097694397,1.5180230140686035,1.3354086875915527
1695713709834987500,9.675987548828125,0.6545605063438416,1.3451995849609375,1.404944896697998
1695713709845017900,9.686017822265624,0.2626416087150574,1.0475425720214844,1.4261629581451416
1695713709855048000,9.6960478515625,0.10345298051834106,0.885167121887207,1.9110438823699951
1695713709865078000,9.706078125,-0.3552853465080261,0.6063814163208008,2.1709797382354736
1695713709875108400,9.7161083984375,-1.3096115589141846,0.3269968032836914,1.9217309951782227
1695713709885138400,9.726138427734375,-2.6579835414886475,0.07045841217041016,1.565053105354309
1695713709895168500,9.73616845703125,-3.7396275997161865,0.19506454467773438,1.3471345901489258
1695713709905201200,9.746201171875,-3.462644100189209,0.6516637802124023,1.3250527381896973
1695713709915234000,9.756234130859376,-2.4077067375183105,1.0662002563476562,1.1586196422576904
1695713709925267000,9.766266845703125,-0.9917630553245544,1.3144125938415527,0.9454232454299927
1695713709935299800,9.7762998046875,0.3041360378265381,1.3912315368652344,0.7823368310928345
1695713709945332700,9.786332763671876,1.2268104553222656,1.276583194732666,0.756191611289978
1695713709955366000,9.796365966796875,1.295579195022583,0.8410196304321289,0.8463319540023804
1695713709965398800,9.806398681640625,0.5210330486297607,0.1954936981201172,1.0861953496932983
1695713709975431700,9.816431640625,-0.9286274909973145,-0.5968904495239258,1.2554916143417358
1695713709985464600,9.826464599609375,-2.9111056327819824,-1.476771354675293,1.7879555225372314
1695713709995497500,9.83649755859375,-4.553091049194336,-2.016993522644043,2.334240674972534
1695713710005530600,9.846530517578126,-6.435432434082031,-2.6031036376953125,2.765937328338623
1695713710015563300,9.856563232421875,-8.018451690673828,-3.419796943664551,3.576462984085083
1695713710025598000,9.866597900390625,-7.501547813415527,-4.162311553955078,4.44915771484375
1695713710035632600,9.876632568359375,-5.011448383331299,-4.493896484375,4.550597190856934
1695713710045667300,9.886667236328124,-2.1666464805603027,-4.175039291381836,3.356492042541504
1695713710055702000,9.896701904296876,-1.1262813806533813,-3.169365882873535,1.6888420581817627
1695713710065737000,9.906737060546876,-1.6936568021774292,-2.23504638671875,0.9812819957733154
1695713710075771600,9.916771728515625,-2.8594374656677246,-1.980534553527832,1.5604119300842285
1695713710085806300,9.926806396484375,-4.067261695861816,-2.2313690185546875,1.6525094509124756
1695713710095841000,9.936841064453125,-5.430782318115234,-2.6869583129882812,1.0238590240478516
1695713710105875700,9.946875732421875,-6.333192825317383,-3.7166929244995117,0.29636359214782715
1695713710115910400,9.956910400390624,-5.34457540512085,-4.706655502319336,0.1004180908203125
1695713710125942800,9.96694287109375,-4.3760528564453125,-4.21621036529541,0.4095144271850586
1695713710135974100,9.97697412109375,-5.347992420196533,-3.6749353408813477,1.4613864421844482
1695713710146005200,9.987005126953125,-6.068780899047852,-3.3885374069213867,2.3053581714630127
1695713710156036600,9.99703662109375,-2.830960750579834,-2.932466506958008,2.549156427383423
1695713710166068000,10.00706787109375,0.15286409854888916,-2.302485466003418,1.6015121936798096
1695713710176099000,10.01709912109375,2.3610832691192627,-2.0781631469726562,0.7306596040725708
1695713710186130400,10.02713037109375,3.724696159362793,-3.099285125732422,0.1758558750152588
1695713710196161800,10.037161865234374,4.046758651733398,-4.720407485961914,-0.5775159597396851
1695713710206193000,10.04719287109375,3.6462044715881348,-5.692906379699707,-1.5098676681518555
1695713710216224300,10.057224365234376,2.9350697994232178,-5.699454307556152,-2.646115779876709
1695713710226256400,10.06725634765625,2.240157127380371,-5.296628952026367,-2.8591482639312744
1695713710236287700,10.077287841796876,2.223907709121704,-4.693195343017578,-2.482846260070801
1695713710246319000,10.087319091796875,2.020021438598633,-3.644402503967285,-2.336439847946167
1695713710256350200,10.09735009765625,2.3538193702697754,-3.1116628646850586,-2.4526076316833496
1695713710266381600,10.107381591796875,2.216970443725586,-2.836186408996582,-2.352635622024536
1695713710276413000,10.117412841796876,1.5272319316864014,-2.427133560180664,-1.9373440742492676
1695713710286444000,10.127444091796875,0.8868557810783386,-2.049072265625,-1.4009120464324951
1695713710296475400,10.137475341796875,0.7205331325531006,-1.5023517608642578,-0.47040045261383057
1695713710306506500,10.147506591796875,2.526437282562256,-0.2848787307739258,0.6754509210586548
1695713710316537900,10.157537841796875,4.408848762512207,0.42137718200683594,1.7597148418426514
1695713710326569200,10.1675693359375,5.322037220001221,1.0710382461547852,2.3526036739349365
1695713710336601600,10.1776015625,5.703653335571289,2.2182655334472656,2.06384015083313
1695713710346634200,10.18763427734375,5.849782943725586,3.3622660636901855,1.8626199960708618
1695713710356667100,10.197667236328124,6.477173328399658,4.453052043914795,2.1341166496276855
1695713710366700000,10.207699951171875,7.337082862854004,5.256434440612793,2.383795976638794
1695713710376732700,10.217732666015625,7.078555583953857,5.51622200012207,2.1426475048065186
1695713710386765600,10.227765625,6.599042892456055,5.671756744384766,1.8660578727722168
1695713710396798500,10.237798583984375,6.101478099822998,5.374423027038574,1.507256031036377
1695713710406831000,10.2478310546875,5.7291789054870605,4.800031661987305,1.0444484949111938
1695713710416864000,10.257864013671876,5.9160380363464355,4.157336235046387,0.6773276329040527
1695713710426896600,10.267896728515625,6.390046119689941,3.7828850746154785,0.22336030006408691
1695713710436929500,10.277929443359374,6.295253753662109,3.588601589202881,-0.5950250625610352
1695713710446965000,10.287965087890624,5.884664535522461,3.6055855751037598,-1.2874574661254883
1695713710457019000,10.298018798828124,5.2628173828125,3.702357769012451,-1.4634933471679688
1695713710467072800,10.30807275390625,4.266839504241943,3.907766342163086,-1.3972020149230957
1695713710477126700,10.318126708984375,3.16986346244812,4.030205726623535,-1.2040817737579346
1695713710487180500,10.3281806640625,1.9853250980377197,4.190606117248535,-1.2040221691131592
1695713710497234400,10.338234375,0.5859720706939697,4.213693618774414,-1.234358310699463
1695713710507288300,10.348288330078125,-0.6584784984588623,3.8957066535949707,-0.8680086135864258
1695713710517323800,10.35832373046875,-2.4599688053131104,3.1178927421569824,-0.6402859687805176
1695713710527355400,10.36835546875,-8.058399200439453,1.456925392150879,-0.9407846927642822
1695713710537386800,10.37838671875,-17.06728744506836,-0.7125844955444336,-2.540703535079956
1695713710547420700,10.388420654296874,-15.848516464233398,-4.029004096984863,-3.5558958053588867
1695713710557473000,10.39847314453125,-14.427742004394531,-9.40472412109375,-4.671274185180664
1695713710567508500,10.408508544921874,-12.2144193649292,-14.95642375946045,-5.126633644104004
1695713710577542100,10.418542236328125,-5.913006782531738,-14.961943626403809,-3.1159210205078125
1695713710587566300,10.42856640625,-2.1100196838378906,-9.945881843566895,-1.4104199409484863
1695713710597601800,10.438601806640625,-1.2745225429534912,-4.498970985412598,0.7098045349121094
1695713710607610400,10.4486103515625,-1.4841105937957764,-0.03027629852294922,2.5041651725769043
1695713710617645800,10.458645751953124,-1.4893360137939453,3.448784351348877,2.199648857116699
1695713710627688000,10.46868798828125,-0.039168596267700195,4.801732063293457,0.18108177185058594
1695713710637709300,10.478709228515624,0.30167317390441895,4.079668998718262,-1.4867355823516846
1695713710647744500,10.48874462890625,3.015834331512451,1.7669239044189453,-1.0695805549621582
1695713710657777400,10.49877734375,8.962162017822266,-1.0365772247314453,0.03782844543457031
1695713710667818000,10.50881787109375,12.00330638885498,-3.4124507904052734,0.43999481201171875
1695713710677854000,10.51885400390625,10.35596752166748,-4.278429985046387,0.8070588111877441
1695713710687899600,10.528899658203125,7.053916931152344,-4.266185760498047,1.4193508625030518
1695713710697935600,10.538935546875,4.941208362579346,-3.2807388305664062,1.1741790771484375
1695713710707773400,10.5487734375,5.948215007781982,-1.5748176574707031,0.49234437942504883
1695713710717794000,10.5587939453125,7.560410022735596,0.030803680419921875,0.024583101272583008
1695713710727865900,10.568865966796874,7.751029014587402,1.3691301345825195,-0.5885210037231445
1695713710737891600,10.5788916015625,6.798155784606934,2.7204527854919434,-1.5857737064361572
1695713710747932700,10.5889326171875,5.772946357727051,2.8369431495666504,-2.270374059677124
1695713710757960000,10.5989599609375,4.405280113220215,1.7298259735107422,-2.4747612476348877
1695713710767966700,10.608966796875,3.5571420192718506,-0.7684926986694336,-1.396017074584961
1695713710777992000,10.618991943359376,3.0491065979003906,-2.862421989440918,-0.025290966033935547
1695713710788054500,10.629054443359376,2.368558645248413,-3.908841133117676,0.9955859184265137
1695713710798083600,10.63908349609375,2.051307201385498,-3.9925804138183594,1.7304035425186157
1695713710808110000,10.649110107421874,1.9245692491531372,-3.092264175415039,1.94643235206604
1695713710818138600,10.659138671875,1.9582761526107788,-1.7276372909545898,1.8003922700881958
1695713710828179200,10.66917919921875,1.7600899934768677,-0.5522556304931641,2.0123188495635986
1695713710838209300,10.679209228515624,1.2899420261383057,0.05790901184082031,2.443431854248047
1695713710848249300,10.689249267578125,1.0751738548278809,1.845315933227539,2.2973642349243164
1695713710858280400,10.699280517578124,1.0987826585769653,2.382894515991211,1.9055430889129639
1695713710868315100,10.709315185546876,1.048977255821228,2.2570133209228516,1.8629660606384277
1695713710878346500,10.719346435546875,0.9075717329978943,2.1061840057373047,1.3758784532546997
1695713710888377000,10.729377197265626,0.18228662014007568,1.8505783081054688,0.8794300556182861
1695713710898408400,10.739408447265625,-1.0940922498703003,1.5403861999511719,0.43805932998657227
1695713710908433000,10.749432861328126,-2.8613882064819336,1.282144546508789,0.11654376983642578
1695713710918463200,10.759463134765625,-3.7350540161132812,1.1715898513793945,0.06425070762634277
1695713710928502500,10.76950244140625,-3.704892158508301,1.098017692565918,0.3547203540802002
1695713710938534000,10.779533935546874,-3.077601909637451,0.9229888916015625,0.7304563522338867
1695713710948561700,10.789561767578125,-1.8386220932006836,0.9047937393188477,0.9065299034118652
1695713710958592800,10.7995927734375,-0.6562731266021729,0.960942268371582,0.7477221488952637
1695713710968630300,10.80963037109375,0.1076359748840332,1.0424489974975586,0.5148627758026123
1695713710978662000,10.819661865234375,0.47239232063293457,1.0810346603393555,0.18535256385803223
1695713710988701400,10.829701416015626,0.6029200553894043,0.7216835021972656,0.01677989959716797
1695713710998733800,10.83973388671875,0.509650468826294,-0.07406997680664062,0.023346662521362305
1695713711008754200,10.849754150390625,-0.2830761671066284,-1.1764860153198242,0.2715301513671875
1695713711018785300,10.859785400390624,-1.8324697017669678,-2.0907421112060547,0.8187563419342041
1695713711028820500,10.869820556640626,-3.43190336227417,-2.240229606628418,1.6647721529006958
1695713711038852000,10.87985205078125,-5.105402946472168,-2.0528202056884766,2.652123212814331
1695713711048887600,10.889887451171875,-6.656478404998779,-2.1747570037841797,3.4821224212646484
1695713711058919400,10.89991943359375,-6.846791744232178,-2.792971611022949,4.177608013153076
1695713711068981000,10.90998095703125,-5.282950401306152,-3.359612464904785,4.688036918640137
1695713711079016000,10.920015869140625,-3.071566581726074,-3.6212778091430664,4.862950325012207
1695713711089042200,10.930042236328125,-1.5062962770462036,-3.726311683654785,4.9253339767456055
1695713711099076000,10.940076171875,-0.7805520296096802,-4.382081031799316,5.164164066314697
1695713711109076000,10.950075927734375,-1.0797772407531738,-5.35328483581543,5.062758445739746
1695713711119106600,10.9601064453125,-1.899320363998413,-5.081482887268066,4.105869293212891
1695713711129170200,10.970170166015626,-3.7974140644073486,-3.962413787841797,2.3939623832702637
1695713711139204000,10.9802041015625,-7.0865020751953125,-4.166389465332031,0.43104028701782227
1695713711149203700,10.99020361328125,-8.927080154418945,-4.664945602416992,-1.0338451862335205
1695713711159234300,11.000234375,-8.095433235168457,-4.079819679260254,-0.2208561897277832
1695713711169306400,11.010306396484374,-7.2089667320251465,-3.2624597549438477,1.6997265815734863
1695713711179341300,11.02034130859375,-6.515471458435059,-3.0727052688598633,3.0490267276763916
1695713711189353700,11.030353759765624,-3.6732096672058105,-2.6998634338378906,3.3071024417877197
1695713711199386400,11.040386474609376,-0.01862156391143799,-1.8470611572265625,2.6269116401672363
1695713711209429200,11.05042919921875,2.2889671325683594,-1.4664192199707031,1.5224454402923584
1695713711219462700,11.060462646484375,3.581244468688965,-2.2080554962158203,0.26999616622924805
1695713711229462500,11.070462646484375,3.412912130355835,-3.4480600357055664,-1.3767516613006592
1695713711239492600,11.08049267578125,2.802765369415283,-4.555643081665039,-2.806640386581421
1695713711249543700,11.090543701171875,2.379829168319702,-4.768926620483398,-3.903557300567627
1695713711259575800,11.100575927734376,2.094698190689087,-4.803247451782227,-4.421964645385742
1695713711269628000,11.1106279296875,1.951770305633545,-4.711398124694824,-4.492205619812012
1695713711279662000,11.120662109375,2.930368185043335,-4.177126884460449,-4.304622650146484
1695713711289688600,11.1306884765625,3.9479706287384033,-3.5229883193969727,-3.9491422176361084
1695713711299722000,11.140721923828124,3.117845058441162,-2.8672142028808594,-4.116611957550049
1695713711309744000,11.150744140625,1.5834133625030518,-2.1979894638061523,-3.7982985973358154
1695713711319776500,11.160776611328124,0.28971731662750244,-1.4651546478271484,-2.7872514724731445
1695713711329817000,11.170817138671875,-0.6820956468582153,-1.0076799392700195,-1.5565779209136963
1695713711339850200,11.180850341796875,-0.0014896392822265625,-0.4180450439453125,0.09766888618469238
1695713711349887200,11.19088720703125,3.2483885288238525,0.061532020568847656,1.7097896337509155
1695713711359921000,11.2009208984375,5.387338638305664,0.2980976104736328,2.9203553199768066
1695713711369940200,11.210940185546875,5.871481418609619,0.6097745895385742,3.409064531326294
1695713711379972400,11.220972412109376,5.99252462387085,1.0651793479919434,3.349544048309326
1695713711389980400,11.23098046875,6.363827228546143,1.9426498413085938,3.1050305366516113
1695713711400010000,11.241010009765626,6.9055657386779785,2.7999653816223145,2.7148501873016357
1695713711410080500,11.25108056640625,7.109780311584473,3.6665663719177246,2.396479845046997
1695713711420114200,11.2611142578125,7.1800761222839355,4.473481178283691,1.9723236560821533
1695713711430138400,11.271138427734375,7.148123741149902,4.9334564208984375,1.56022047996521
1695713711440171300,11.281171142578126,6.965394020080566,4.93900203704834,1.2881059646606445
1695713711450180600,11.2911806640625,6.801458358764648,4.9856672286987305,0.9002851247787476
1695713711460211000,11.3012109375,6.734814643859863,5.032537460327148,0.41216301918029785
1695713711470239000,11.311239013671875,6.4063825607299805,5.1563005447387695,-0.43064332008361816
1695713711480269000,11.32126904296875,5.8671064376831055,5.36143684387207,-1.1272168159484863
1695713711490334200,11.331334228515624,5.3304362297058105,5.6485795974731445,-1.4221293926239014
1695713711500368000,11.341367919921876,4.798305988311768,5.746762275695801,-1.3967211246490479
1695713711510395000,11.351394775390625,4.173476696014404,5.611945152282715,-1.3273952007293701
1695713711520427800,11.361427734375,3.426548480987549,5.226727485656738,-1.1474947929382324
1695713711530466800,11.371466796875,2.3238396644592285,4.835091590881348,-0.970548152923584
1695713711540500500,11.38150048828125,0.7939422130584717,4.406826972961426,-0.7331852912902832
1695713711550531800,11.39153173828125,-0.9746413230895996,3.8548178672790527,-0.46442389488220215
1695713711560565200,11.401565185546875,-4.545828342437744,2.89595365524292,-0.5459840297698975
1695713711570571800,11.41157177734375,-11.909793853759766,0.9209194183349609,-2.56589937210083
1695713711580602400,11.421602294921875,-18.71486473083496,-1.857187271118164,-6.6031646728515625
1695713711590634000,11.431634033203125,-14.0667085647583,-7.205752372741699,-9.126733779907227
1695713711600664600,11.44166455078125,-12.412482261657715,-15.154854774475098,-9.982925415039062
1695713711610716000,11.4517158203125,-10.03231430053711,-18.55099868774414,-9.189414978027344
1695713711620748500,11.46174853515625,-5.07635498046875,-13.753507614135742,-6.743557453155518
1695713711630785800,11.471785888671874,-2.0930793285369873,-7.253994941711426,-2.6435327529907227
1695713711640819000,11.48181884765625,-0.5840737819671631,-1.8284978866577148,0.7607946395874023
1695713711650834000,11.491833984375,-0.10501956939697266,2.2730422019958496,2.3046417236328125
1695713711660865300,11.501865234375,-1.3792495727539062,4.982001304626465,1.693756341934204
1695713711670940700,11.511940673828125,-3.1152169704437256,5.388640403747559,0.30934572219848633
1695713711680976600,11.5219765625,-2.9072790145874023,2.6923813819885254,0.00421452522277832
1695713711690984200,11.531984130859374,4.559049606323242,-1.9252586364746094,2.4043173789978027
1695713711701017000,11.54201708984375,11.864751815795898,-5.244611740112305,4.772592067718506
1695713711711048200,11.552048095703125,12.94565486907959,-5.6351470947265625,4.991395950317383
1695713711721080800,11.562080810546876,11.496282577514648,-4.204653739929199,4.4125823974609375
1695713711731080700,11.572080810546876,9.56386947631836,-1.9748411178588867,3.3737974166870117
1695713711741110300,11.5821103515625,5.872439384460449,-0.06405162811279297,0.9415662288665771
1695713711751179000,11.592178955078126,2.4622488021850586,1.1161565780639648,-1.8110179901123047
1695713711761212200,11.602212158203125,3.2932441234588623,2.42887020111084,-3.9728012084960938
1695713711771220700,11.612220703125,5.348165512084961,3.141014575958252,-4.018741607666016
1695713711781251600,11.62225146484375,6.362657070159912,3.012960910797119,-3.7395029067993164
1695713711791278600,11.632278564453125,6.237805366516113,1.776545524597168,-3.3554482460021973
1695713711801309000,11.642308837890624,4.818869590759277,-0.16091346740722656,-2.213338851928711
1695713711811372300,11.652372314453125,2.8073511123657227,-1.9564714431762695,-0.46515345573425293
1695713711821406000,11.662406005859374,2.1514267921447754,-2.7908802032470703,1.1467268466949463
1695713711831407000,11.672406982421874,2.520045757293701,-2.8007993698120117,2.014425039291382
1695713711841437700,11.682437744140625,2.79754638671875,-2.639706611633301,2.7610390186309814
1695713711851484400,11.692484375,2.236499309539795,-2.1698036193847656,3.557690382003784
1695713711861516500,11.7025166015625,1.5282701253890991,-1.8127079010009766,3.122879981994629
1695713711871531300,11.71253125,1.4507479667663574,-0.2324075698852539,2.8538386821746826
1695713711881561300,11.722561279296874,1.3622950315475464,0.3931713104248047,2.620591163635254
1695713711891631000,11.732631103515626,1.4487602710723877,1.2358942031860352,2.4778923988342285
1695713711901665300,11.742665283203126,1.7886048555374146,1.704615592956543,2.5360283851623535
1695713711911686000,11.752685791015624,1.5576801300048828,1.7506351470947266,2.2894349098205566
1695713711921718800,11.76271875,0.5288378000259399,1.582442283630371,1.7836055755615234
1695713711931753500,11.77275341796875,-0.4702262282371521,1.3606476783752441,1.5344057083129883
1695713711941786600,11.78278662109375,-1.7234169244766235,1.0527067184448242,1.0197275876998901
1695713711951826200,11.792826171875,-3.4012436866760254,0.8489923477172852,0.5005711317062378
1695713711961860000,11.802860107421875,-4.454202651977539,0.6864356994628906,0.23530888557434082
1695713711971874300,11.812874267578126,-4.367225646972656,0.6270675659179688,0.31992435455322266
1695713711981906000,11.822906005859375,-3.0898995399475098,0.7474269866943359,0.5900421142578125
1695713711991953000,11.832952880859375,-1.4903098344802856,0.9039039611816406,0.6547038555145264
1695713712001986000,11.842986083984375,-0.24148988723754883,1.0674867630004883,0.6387054920196533
1695713712012020000,11.85302001953125,0.6826436519622803,1.2941617965698242,0.3317592144012451
1695713712022053400,11.863053466796876,0.9414829015731812,1.1838583946228027,-0.09514641761779785
1695713712032079600,11.87307958984375,0.5363156795501709,0.4442605972290039,-0.3397207260131836
1695713712042112300,11.8831123046875,-0.7207446098327637,-0.7126064300537109,-0.3714280128479004
1695713712052120300,11.893120361328124,-2.6645145416259766,-1.7379417419433594,0.33382463455200195
1695713712062150400,11.903150390625,-4.577308654785156,-2.0406436920166016,1.462117075920105
1695713712072198400,11.913198486328126,-6.45583963394165,-2.16794490814209,2.63604474067688
1695713712082230300,11.923230224609375,-7.541984558105469,-2.558765411376953,3.8053205013275146
1695713712092252200,11.933252197265626,-6.888862609863281,-3.288236618041992,4.812198638916016
1695713712102283000,11.943282958984375,-5.082047462463379,-3.7462596893310547,5.032565116882324
1695713712112313900,11.95331396484375,-2.8519186973571777,-3.3021059036254883,4.6663055419921875
1695713712122344700,11.9633447265625,-1.3695998191833496,-2.86429500579834,4.4478607177734375
1695713712132384000,11.973384033203125,-0.9826651811599731,-3.411876678466797,4.815798282623291
1695713712142415600,11.98341552734375,-1.7033435106277466,-4.8611650466918945,4.769618988037109
1695713712152441300,11.99344140625,-2.5228183269500732,-5.766146659851074,3.630976676940918
1695713712162472400,12.003472412109375,-3.7828245162963867,-6.047098159790039,1.800449252128601
1695713712172499500,12.01349951171875,-5.6516313552856445,-5.687774658203125,0.21033573150634766
1695713712182530000,12.023530029296875,-7.105578422546387,-4.187016487121582,-0.11249232292175293
1695713712192576500,12.033576416015626,-6.759686470031738,-3.848231315612793,1.327015995979309
1695713712202608600,12.043608642578125,-5.584205627441406,-4.414292335510254,2.6244473457336426
1695713712212631800,12.0536318359375,-3.9329209327697754,-4.081123352050781,2.712714672088623
1695713712222663000,12.063662841796875,-1.8502223491668701,-3.104315757751465,1.7464020252227783
1695713712232698000,12.073697998046875,0.8123608827590942,-2.6224117279052734,0.5897417068481445
1695713712242729700,12.083729736328126,2.695556402206421,-2.9427947998046875,-0.5166726112365723
1695713712252768300,12.093768310546874,3.3670477867126465,-3.831827163696289,-1.9672319889068604
1695713712262800400,12.10380029296875,2.860426664352417,-4.265525817871094,-3.728921413421631
1695713712272828200,12.113828125,2.233703851699829,-3.997884750366211,-4.784834384918213
1695713712282860000,12.123860107421875,1.6333438158035278,-3.5417585372924805,-5.127349376678467
1695713712292916500,12.13391650390625,1.364814281463623,-3.2358474731445312,-5.075743675231934
1695713712302951000,12.143950927734375,1.9828965663909912,-2.8725662231445312,-4.504498481750488
1695713712312983600,12.153983642578124,3.454237699508667,-2.4646711349487305,-4.270718097686768
1695713712323017500,12.164017578125,3.6634020805358887,-2.0508737564086914,-4.204772472381592
1695713712333045500,12.17404541015625,2.2587125301361084,-1.7762041091918945,-2.8161253929138184
1695713712343079000,12.184078857421875,1.4774270057678223,-1.2729616165161133,-1.2550616264343262
1695713712353113900,12.19411376953125,-0.3391944169998169,-1.335698127746582,0.010047674179077148
1695713712363147300,12.204147216796875,1.223186731338501,-1.1752891540527344,1.9336602687835693
1695713712373174800,12.2141748046875,3.8205513954162598,-0.7463693618774414,3.5033862590789795
1695713712383208000,12.2242080078125,5.306472301483154,-0.46506500244140625,4.161585807800293
1695713712393213200,12.234213134765625,6.010017395019531,-0.18311786651611328,3.8254165649414062
1695713712403243500,12.244243408203126,6.602114677429199,0.5831279754638672,3.237800121307373
1695713712413308200,12.25430810546875,7.130710601806641,1.6294097900390625,2.7977423667907715
1695713712423341800,12.264341796875,7.360960960388184,2.5682506561279297,2.4275646209716797
1695713712433375200,12.274375244140625,7.268219470977783,3.3086628913879395,2.1214139461517334
1695713712443409000,12.284408935546875,7.139655113220215,3.7531208992004395,1.6672958135604858
1695713712453435100,12.29443505859375,6.961775779724121,3.965050220489502,1.1833763122558594
1695713712463468000,12.304468017578126,6.601431846618652,4.263322830200195,0.6600515842437744
1695713712473487000,12.314487060546876,6.635147571563721,4.480770111083984,0.2963571548461914
1695713712483518500,12.3245185546875,6.569273471832275,4.8122358322143555,-0.19880008697509766
1695713712493566200,12.334566162109375,6.170004844665527,5.185276985168457,-0.8455193042755127
1695713712503599400,12.344599365234375,5.686640739440918,5.619370460510254,-1.2305183410644531
1695713712513627100,12.354627197265625,5.196125507354736,5.93232536315918,-1.495436668395996
1695713712523659800,12.36465966796875,4.706131935119629,5.985507011413574,-1.6509299278259277
1695713712533694500,12.374694580078126,4.263464450836182,5.607217788696289,-1.526207447052002
1695713712543727000,12.38472705078125,3.5624184608459473,5.110313415527344,-1.3136491775512695
1695713712553757700,12.3947578125,2.5696158409118652,4.646823883056641,-1.0345418453216553
1695713712563790000,12.4047900390625,1.0637779235839844,4.261477470397949,-0.8185122013092041
1695713712573798700,12.414798583984375,-0.839970588684082,3.8256068229675293,-0.498093843460083
1695713712583828500,12.424828369140625,-2.646034002304077,3.3408799171447754,-0.4714224338531494
1695713712593886200,12.43488623046875,-7.910905838012695,2.370795249938965,-1.4808540344238281
1695713712603918800,12.4449189453125,-17.07349395751953,-0.12230491638183594,-3.8572769165039062
1695713712614103000,12.45510302734375,-16.327341079711914,-3.905938148498535,-6.169063091278076
1695713712624141300,12.465141357421874,-12.859134674072266,-10.081367492675781,-6.341405868530273
1695713712634174200,12.47517431640625,-13.914480209350586,-15.77474594116211,-5.625249862670898
1695713712644169700,12.485169677734374,-7.656974792480469,-16.313278198242188,-3.6943371295928955
1695713712654249000,12.4952490234375,-2.001204252243042,-10.886992454528809,-1.2714970111846924
1695713712664281900,12.50528173828125,-1.4148309230804443,-5.578645706176758,1.4644668102264404
1695713712674307800,12.515307861328125,-1.8703899383544922,-1.0161571502685547,3.5360207557678223
1695713712684340700,12.5253408203125,-1.5197670459747314,2.6120619773864746,3.1964175701141357
1695713712694364000,12.535364013671876,-0.8775806427001953,4.2707109451293945,0.7505571842193604
1695713712704390100,12.54539013671875,-0.151031494140625,3.3008627891540527,-0.6383035182952881
1695713712714422800,12.5554228515625,5.117901802062988,0.8121805191040039,-0.08785748481750488
1695713712724436000,12.56543603515625,11.706918716430664,-1.3427677154541016,0.361893892288208
1695713712734468900,12.57546875,12.097097396850586,-3.0380868911743164,-0.5390098094940186
1695713712744502300,12.585502197265624,8.173125267028809,-4.19239616394043,-0.8060693740844727
1695713712754535400,12.595535400390625,6.019416809082031,-4.388917922973633,-0.23992609977722168
1695713712764568800,12.60556884765625,5.8418121337890625,-2.975961685180664,-0.30200767517089844
1695713712774602000,12.61560205078125,6.243382453918457,-1.154092788696289,-1.2599539756774902
1695713712784635000,12.625634765625,5.704816818237305,0.5657014846801758,-2.0684783458709717
1695713712794636300,12.63563623046875,5.6026177406311035,2.1367692947387695,-2.5270142555236816
1695713712804561200,12.64556103515625,5.670497417449951,3.19218111038208,-3.0080454349517822
1695713712814581500,12.65558154296875,5.4963555335998535,3.1830315589904785,-3.0258567333221436
1695713712824598800,12.665598876953124,4.745146751403809,2.041309356689453,-2.371157169342041
1695713712834619000,12.675618896484375,3.698368549346924,-0.46235179901123047,-1.0567264556884766
1695713712844662500,12.68566259765625,2.993541717529297,-2.987386703491211,0.12540626525878906
1695713712854685000,12.695684814453125,2.8052587509155273,-4.190378189086914,0.5430819988250732
1695713712864747500,12.70574755859375,2.718034505844116,-3.8163671493530273,0.4657554626464844
1695713712874774000,12.71577392578125,2.850520372390747,-2.6625194549560547,0.6883909702301025
1695713712884823800,12.72582373046875,2.8973984718322754,-1.3711814880371094,0.8531529903411865
1695713712894852900,12.735852783203125,2.8031110763549805,-0.7585468292236328,1.3212493658065796
1695713712904885200,12.74588525390625,2.296839952468872,-0.09975910186767578,1.4845168590545654
1695713712914914300,12.755914306640625,1.347658634185791,0.6705541610717773,1.3409903049468994
1695713712924938200,12.765938232421876,0.9527565836906433,1.2644433975219727,1.2727999687194824
1695713712934966800,12.775966796875,0.7769931554794312,1.2907123565673828,1.294480800628662
1695713712945007900,12.7860078125,0.37260934710502625,1.081705093383789,1.3463811874389648
1695713712955037700,12.79603759765625,-0.5628314018249512,0.950322151184082,1.3273286819458008
1695713712965078500,12.80607861328125,-1.9967544078826904,0.9017858505249023,1.0021973848342896
1695713712975109600,12.816109619140626,-3.3380303382873535,0.9027471542358398,0.7930368185043335
1695713712985110300,12.8261103515625,-3.2060341835021973,1.3884334564208984,0.7128423452377319
1695713712995138000,12.836137939453126,-2.0333144664764404,1.7310523986816406,0.6771358251571655
1695713713005350400,12.846350341796875,-1.2624320983886719,1.6145009994506836,0.7734478712081909
1695713713015399700,12.856399658203125,-0.8773630261421204,1.2661495208740234,0.8284493684768677
1695713713025427500,12.866427490234376,0.22691059112548828,1.1357612609863281,0.7742630243301392
1695713713035456300,12.876456298828124,1.2718905210494995,1.1221990585327148,0.8128196001052856
1695713713045474800,12.886474853515624,1.4458410739898682,1.2585515975952148,1.0277537107467651
1695713713055502800,12.8965029296875,0.49533891677856445,1.3963956832885742,1.0348256826400757
1695713713065542100,12.906542236328125,-0.800503134727478,1.3961982727050781,0.8845633268356323
1695713713075560400,12.916560546875,-1.7454890012741089,0.9084205627441406,0.8387491703033447
1695713713085588500,12.92658837890625,-1.9216291904449463,0.22894763946533203,1.0879789590835571
1695713713095640800,12.936640869140625,-2.377485990524292,-0.4447975158691406,1.5810105800628662
1695713713105670400,12.94667041015625,-3.1234726905822754,-1.0764541625976562,2.148263454437256
1695713713115711000,12.9567109375,-4.232314109802246,-1.8784618377685547,2.806074857711792
1695713713125751800,12.966751708984376,-5.358905792236328,-2.69815731048584,3.746760129928589
1695713713135792400,12.97679248046875,-5.663477897644043,-3.5499725341796875,4.741281509399414
1695713713145822200,12.986822265625,-4.531908988952637,-4.219622611999512,5.235296249389648
1695713713155832300,12.996832275390625,-2.6989967823028564,-4.166450500488281,4.579016208648682
1695713713165726500,13.0067265625,-2.0490615367889404,-3.241901397705078,3.244415760040283
1695713713175741400,13.016741455078124,-2.516306161880493,-2.51094913482666,2.966920852661133
1695713713185941500,13.02694140625,-3.024024486541748,-2.7139816284179688,3.212700128555298
1695713713195956500,13.03695654296875,-3.0985443592071533,-3.5046234130859375,2.8233232498168945
1695713713205993500,13.046993408203125,-3.105011463165283,-4.311676025390625,1.938054084777832
1695713713216046800,13.057046875,-3.5011253356933594,-4.980034828186035,0.8251985311508179
1695713713226061800,13.067061767578124,-4.280144691467285,-4.705175399780273,-0.20121026039123535
1695713713236092200,13.077092041015625,-5.127938270568848,-3.4930877685546875,-0.037679195404052734
1695713713246162000,13.087161865234375,-5.5026960372924805,-2.952366828918457,1.3244107961654663
1695713713256177000,13.097177001953124,-4.968295097351074,-3.051547050476074,2.7176785469055176
1695713713266201300,13.107201416015625,-3.9406371116638184,-2.985403060913086,3.393068790435791
1695713713276255200,13.117255126953125,-2.621453285217285,-2.481363296508789,3.2655446529388428
1695713713286270200,13.127270263671875,-1.488171100616455,-1.815439224243164,1.9711025953292847
1695713713296285200,13.13728515625,0.4538118839263916,-1.963491439819336,0.7607862949371338
1695713713306303200,13.14730322265625,2.616647481918335,-2.619826316833496,-0.3855783939361572
1695713713316355300,13.157355224609375,3.3708159923553467,-3.5327634811401367,-1.542433738708496
1695713713326407400,13.167407470703125,3.0608153343200684,-3.970184326171875,-2.690800666809082
1695713713336425500,13.177425537109375,2.6437976360321045,-3.9914026260375977,-3.6722264289855957
1695713713346435000,13.18743505859375,1.9274368286132812,-3.817567825317383,-3.7502121925354004
1695713713356444400,13.1974443359375,2.1650946140289307,-3.5875024795532227,-3.5817384719848633
1695713713366376400,13.20737646484375,3.3568410873413086,-3.227773666381836,-2.7428433895111084
1695713713376386300,13.21738623046875,3.46645188331604,-2.7361974716186523,-2.189715623855591
1695713713386580000,13.227580078125,3.4660606384277344,-2.5096969604492188,-1.5787616968154907
1695713713396608300,13.237608154296876,2.2445058822631836,-2.328479766845703,-0.7603296041488647
1695713713406674200,13.247674072265625,0.16510796546936035,-2.32965087890625,0.03491663932800293
1695713713416684000,13.25768408203125,-0.12051534652709961,-2.504960060119629,1.2080304622650146
1695713713426720300,13.26772021484375,2.2336373329162598,-1.8601179122924805,2.1584320068359375
1695713713436743200,13.2777431640625,3.9887025356292725,-1.1997289657592773,3.016491413116455
1695713713446802200,13.28780224609375,4.742872714996338,-0.4733295440673828,3.0155587196350098
1695713713456812000,13.29781201171875,5.6737165451049805,0.44341468811035156,2.74348783493042
1695713713466835500,13.30783544921875,6.076181411743164,1.8257360458374023,2.3056867122650146
1695713713476849700,13.317849609375,6.277710914611816,2.863844394683838,2.025102138519287
1695713713486887200,13.32788720703125,6.338264465332031,3.6211609840393066,1.7562298774719238
1695713713496924400,13.33792431640625,6.483222007751465,3.929203510284424,1.3728241920471191
1695713713506961700,13.347961669921874,6.503796577453613,3.935560703277588,1.1092056035995483
1695713713516999200,13.357999267578125,6.239891529083252,3.9592862129211426,0.9662867784500122
1695713713527036400,13.368036376953125,5.996763706207275,4.07228422164917,0.7584124803543091
1695713713537051000,13.37805078125,5.838305950164795,4.190486907958984,0.576052188873291
1695713713547064600,13.388064697265625,5.757956504821777,4.353919982910156,0.2226564884185791
1695713713556983000,13.397983154296876,5.638605117797852,4.4460554122924805,-0.665764331817627
1695713713567147000,13.40814697265625,5.117713928222656,4.5839738845825195,-1.3278803825378418
1695713713577190400,13.4181904296875,4.808156967163086,4.670431137084961,-1.5923209190368652
1695713713587242000,13.428241943359374,4.304192066192627,4.782050132751465,-1.7453312873840332
1695713713597246200,13.43824609375,3.545377731323242,4.8083953857421875,-1.585421085357666
1695713713607291100,13.448291015625,2.6827409267425537,4.666632652282715,-1.3881664276123047
1695713713617348400,13.458348388671874,1.665992021560669,4.518067359924316,-1.269207239151001
1695713713627352600,13.4683525390625,0.2977464199066162,4.316495895385742,-1.1521565914154053
1695713713637381000,13.478381103515625,-0.7961845397949219,3.9460396766662598,-1.0214800834655762
1695713713647422500,13.48842236328125,-2.556863307952881,3.330991268157959,-0.95285964012146
1695713713657476000,13.49847607421875,-7.621623992919922,1.7452640533447266,-1.578887939453125
1695713713667485400,13.5084853515625,-14.153932571411133,-0.8067073822021484,-2.907796621322632
1695713713677517600,13.518517578125,-14.410136222839355,-4.267386436462402,-3.9524006843566895
1695713713687549700,13.5285498046875,-12.947885513305664,-9.019232749938965,-4.590436935424805
1695713713697581600,13.53858154296875,-12.769535064697266,-13.306963920593262,-4.758967399597168
1695713713707613700,13.54861376953125,-7.993416786193848,-13.703397750854492,-2.3846282958984375
1695713713717645800,13.558645751953126,-3.3167688846588135,-9.511422157287598,0.09612250328063965
1695713713727677700,13.568677734375,-2.1613781452178955,-4.765388488769531,1.884178638458252
1695713713737709800,13.578709716796874,-1.466965913772583,-0.4672889709472656,2.9694721698760986
1695713713747742000,13.588741943359375,-0.1824502944946289,2.7451653480529785,2.3651933670043945
1695713713757751300,13.598751220703125,0.7818949222564697,3.804260730743408,-0.11936259269714355
1695713713767746800,13.608746826171876,-0.19864940643310547,3.1382393836975098,-0.9817092418670654
1695713713777685800,13.618685791015626,-0.9411220550537109,0.9323911666870117,0.7357375621795654
1695713713787859200,13.628859130859375,3.045728921890259,-2.3515233993530273,3.2110509872436523
1695713713797930200,13.63893017578125,9.637702941894531,-5.042021751403809,4.527660846710205
1695713713807963400,13.64896337890625,10.286630630493164,-5.7630205154418945,3.54120135307312
1695713713817964800,13.65896484375,5.634885787963867,-4.997910499572754,1.7810765504837036
1695713713828012500,13.669012451171875,3.990138530731201,-2.7265052795410156,-0.21796560287475586
1695713713838059500,13.6790595703125,4.377825736999512,0.036126136779785156,-2.7409183979034424
1695713713848061000,13.68906103515625,4.998950481414795,2.267550468444824,-4.587746620178223
1695713713858082000,13.69908203125,6.03395938873291,4.09963846206665,-5.076276779174805
1695713713868152800,13.70915283203125,6.7310895919799805,4.750419616699219,-4.629720687866211
1695713713878200600,13.71920068359375,6.201480388641357,4.669925689697266,-4.233288764953613
1695713713888207000,13.72920703125,5.292585372924805,3.7299513816833496,-3.3697752952575684
1695713713898236400,13.739236328125,5.096491813659668,1.7673444747924805,-1.9704968929290771
1695713713908266000,13.749265869140626,5.03865909576416,-0.8160018920898438,-0.2753486633300781
1695713713918295300,13.75929541015625,3.93687105178833,-3.0518112182617188,1.4107458591461182
1695713713928324600,13.76932470703125,2.288295269012451,-4.228793144226074,1.9262404441833496
1695713713938354200,13.779354248046875,1.9660056829452515,-4.299055099487305,1.7630490064620972
1695713713948383500,13.789383544921876,2.45599627494812,-3.945230484008789,1.7995715141296387
1695713713958390300,13.799390380859375,2.2687103748321533,-3.312056541442871,2.109165668487549
1695713713968405000,13.809405029296874,1.895185947418213,-1.7214326858520508,2.5011327266693115
1695713713978321000,13.81932080078125,1.5556918382644653,0.15068435668945312,2.3391106128692627
1695713713988318700,13.829318603515626,0.8420884609222412,1.1180305480957031,1.8335111141204834
1695713713998397400,13.8393974609375,0.5552313923835754,1.622300148010254,1.5100367069244385
1695713714008403500,13.849403564453125,0.3682621419429779,1.741896629333496,1.0819634199142456
1695713714018433500,13.85943359375,0.1516265869140625,1.7464866638183594,0.7124197483062744
1695713714028441900,13.86944189453125,-0.7525216341018677,1.6568670272827148,0.19965767860412598
1695713714038529500,13.879529541015625,-2.082414150238037,1.3491835594177246,-0.01599431037902832
1695713714048546000,13.889546142578125,-2.9123687744140625,1.2401847839355469,0.36485719680786133
1695713714058566400,13.89956640625,-3.4413986206054688,1.0139074325561523,0.5676965713500977
1695713714068583200,13.909583251953125,-3.1144943237304688,0.6183509826660156,0.8873746395111084
1695713714078640600,13.919640625,-1.6880676746368408,0.33159732818603516,1.209063172340393
1695713714088661500,13.92966162109375,-0.13708257675170898,0.1967487335205078,1.3828507661819458
1695713714098719700,13.9397197265625,0.9830056428909302,0.3807649612426758,1.4866130352020264
1695713714108744400,13.949744384765625,1.4263564348220825,0.7294902801513672,1.462910532951355
1695713714118779400,13.959779296875,1.0873419046401978,1.1360015869140625,1.2627638578414917
1695713714128805000,13.96980517578125,0.2824620008468628,1.1166605949401855,1.1519235372543335
1695713714138858800,13.979858642578124,-0.4112180471420288,0.8248386383056641,0.9909722805023193
1695713714148887300,13.98988720703125,-1.3694279193878174,0.017569541931152344,1.010582685470581
1695713715744022500,15.5850224609375,-4.584278106689453,2.9543209075927734,-1.286463737487793
1695713715754052000,15.595052001953125,-4.814823150634766,2.3134541511535645,-1.0736069679260254
1695713715764084000,15.605083984375,-4.7971649169921875,1.7341012954711914,-0.9149864912033081
1695713715774116900,15.615116943359375,-4.548426628112793,1.366476058959961,-0.9137952327728271
1695713715784149800,15.625149658203124,-4.3713788986206055,1.2265186309814453,-1.1262688636779785
1695713715794182700,15.6351826171875,-4.267578125,1.1941585540771484,-1.5080013275146484
1695713715804215600,15.645215576171875,-3.640684127807617,1.1705689430236816,-1.5205492973327637
1695713715814248400,15.65524853515625,-2.9127044677734375,1.1501426696777344,-1.267292857170105
1695713715824281300,15.66528125,-2.142000198364258,1.11676025390625,-0.8181540966033936
1695713715834314200,15.675314208984375,-1.090073585510254,0.9927859306335449,-0.37236952781677246
1695713715844347100,15.68534716796875,-0.2451457977294922,0.7871303558349609,-0.13649487495422363
1695713715854380000,15.695380126953125,0.48877954483032227,0.4896106719970703,0.07909107208251953
1695713715864413000,15.705412841796875,1.010119915008545,0.15070009231567383,0.17553293704986572
1695713715874445000,15.715445068359376,1.419785976409912,-0.0488886833190918,0.3566162586212158
1695713715884478500,15.725478515625,1.836998462677002,-0.17727160453796387,0.6178348064422607
1695713715894511900,15.735511962890625,2.204151153564453,-0.25905275344848633,0.8830608129501343
1695713715904545300,15.745545166015624,2.5056095123291016,-0.3443176746368408,1.1354817152023315
1695713715914578700,15.75557861328125,2.530266761779785,-0.4122445583343506,1.375192642211914
1695713715924612000,15.765612060546875,2.6512460708618164,-0.3734447956085205,1.549267292022705
1695713715934645500,15.7756455078125,2.853837013244629,-0.2753310203552246,1.5889663696289062
1695713715944679000,15.785678955078126,2.9760875701904297,-0.15588736534118652,1.512803554534912
1695713715954712300,15.79571240234375,3.129016876220703,-0.057891130447387695,1.5239746570587158
1695713715964745700,15.805745849609375,3.276116371154785,-0.05965232849121094,1.7108726501464844
1695713715974779100,15.815779052734374,3.108499526977539,-0.037598609924316406,1.9008265733718872
1695713715984811800,15.825811767578125,2.3158273696899414,0.002508401870727539,2.00431227684021
1695713715994845200,15.83584521484375,1.3511481285095215,-0.14107108116149902,1.8650063276290894
1695713716004878800,15.84587890625,0.6426239013671875,-0.2968473434448242,1.5136702060699463
1695713716014912500,15.85591259765625,0.29797840118408203,-0.43503236770629883,1.1630446910858154
1695713716024946000,15.86594580078125,0.06755256652832031,-0.45638084411621094,0.7281965017318726
1695713716034979600,15.8759794921875,-0.4118328094482422,-0.51556396484375,0.25977253913879395
1695713716045013200,15.88601318359375,-0.7106304168701172,-0.7011778354644775,-0.007920503616333008
1695713716055046700,15.896046630859376,-0.5092258453369141,-0.9073166847229004,-0.11383390426635742
1695713716065080300,15.906080322265625,-0.012885093688964844,-1.1232166290283203,-0.24797987937927246
1695713716075113700,15.91611376953125,0.5178070068359375,-1.2553730010986328,-0.5224885940551758
1695713716085145300,15.926145263671875,0.8603687286376953,-1.1542088985443115,-0.7887322902679443
1695713716095171800,15.936171875,1.1357970237731934,-0.9314858913421631,-0.9507008790969849
1695713716105198300,15.9461982421875,1.1487984657287598,-0.8766262531280518,-1.149649739265442
1695713716115225000,15.95622509765625,0.7524013519287109,-0.9644179344177246,-1.4284075498580933
1695713716125251600,15.96625146484375,0.014634132385253906,-1.1275379657745361,-1.6767842769622803
1695713716135278300,15.9762783203125,-0.9643726348876953,-1.182844877243042,-1.9147449731826782
1695713716145304800,15.986304931640625,-2.1482315063476562,-1.1627438068389893,-2.0513315200805664
1695713716155331300,15.996331298828125,-2.998419761657715,-0.9748191833496094,-1.964906930923462
1695713716165358000,16.006358154296876,-2.9422121047973633,-0.804227352142334,-1.889245629310608
1695713716175384600,16.016384521484376,-2.1601409912109375,-0.6399297714233398,-1.7033157348632812
1695713716185416700,16.026416748046874,-0.5065975189208984,-0.17351984977722168,-1.2681792974472046
1695713716195452400,16.036452392578123,6.937478065490723,0.8612320423126221,1.8853998184204102
1695713716205487900,16.04648779296875,8.044984817504883,1.682713508605957,3.3272504806518555
1695713716215523600,16.056523681640623,-2.6333484649658203,1.594127893447876,-1.3659744262695312
1695713716225559000,16.06655908203125,-9.751538276672363,2.311577081680298,-3.3316102027893066
1695713716235594800,16.0765947265625,-12.707036972045898,2.999544382095337,-1.728371024131775
1695713716245630200,16.086630126953125,-8.241501808166504,2.171721935272217,4.099032402038574
1695713716255665700,16.096665771484375,-1.1964731216430664,2.140965223312378,4.395317554473877
1695713716265701400,16.106701416015625,1.7672762870788574,2.705334186553955,0.18382978439331055
1695713716275736800,16.11673681640625,1.3854222297668457,2.171363115310669,-1.3347301483154297
1695713716285769500,16.12676953125,0.41277217864990234,0.9568121433258057,-0.016118764877319336
1695713716295803600,16.1368037109375,0.812589168548584,0.2922849655151367,1.3476457595825195
1695713716305837600,16.146837646484375,1.6886658668518066,0.1363658905029297,2.091170072555542
1695713716315871500,16.15687158203125,2.0666065216064453,0.011907577514648438,2.0944783687591553
1695713716325905700,16.16690576171875,1.8566679954528809,-0.21834206581115723,1.8078376054763794
1695713716335939600,16.176939697265624,1.5213465690612793,-0.40729451179504395,1.5174152851104736
1695713716345973800,16.186973876953125,1.3251490592956543,-0.45497798919677734,1.2999181747436523
1695713716356007700,16.197007568359375,1.2803339958190918,-0.34892964363098145,0.9879974126815796
1695713716366041900,16.207041748046876,1.185518741607666,-0.27713537216186523,0.5816528797149658
1695713716376075800,16.21707568359375,1.3230071067810059,-0.18259930610656738,0.3084878921508789
1695713716386110000,16.22710986328125,1.6643147468566895,-0.0025653839111328125,0.3001527786254883
1695713716396142600,16.237142578125,1.865492343902588,0.10135746002197266,0.4124891757965088
1695713716406176000,16.247176025390626,1.8502802848815918,0.13411569595336914,0.5839266777038574
1695713716416209700,16.257209716796876,1.7140650749206543,0.2096705436706543,0.7729002237319946
1695713716426243000,16.2672431640625,1.6767325401306152,0.34189558029174805,0.8743282556533813
1695713716436276700,16.27727685546875,1.6660609245300293,0.5304265022277832,0.9181522130966187
1695713716446310100,16.28731005859375,1.6388888359069824,0.6461288928985596,0.809386134147644
1695713716456343800,16.29734375,1.5196948051452637,0.633528470993042,0.657201886177063
1695713716466377200,16.307377197265627,1.2706427574157715,0.4885225296020508,0.5332189798355103
1695713716476411000,16.317410888671876,1.064256191253662,0.5228753089904785,0.47125399112701416
1695713716486444300,16.3274443359375,0.8912453651428223,0.5175299644470215,0.4856746196746826
1695713716496478000,16.33747802734375,0.6327495574951172,0.5311942100524902,0.3989114761352539
1695713716506510000,16.347510009765625,0.32256031036376953,0.621392011642456,0.1250215768814087
1695713716516540200,16.3575400390625,0.051436424255371094,0.525252103805542,0.028075695037841797
1695713716526570000,16.367570068359374,-0.2615547180175781,0.33585476875305176,0.009108424186706543
1695713716536599800,16.377599853515626,-0.4916105270385742,0.2748229503631592,0.006692767143249512
1695713716546629600,16.387629638671875,-0.8204555511474609,0.3189969062805176,-0.254036545753479
1695713716556659700,16.39765966796875,-1.210820198059082,0.46079421043395996,-0.5517297983169556
1695713716566689500,16.407689453125,-1.346602439880371,0.4534034729003906,-0.5469906330108643
1695713716576719400,16.41771923828125,-1.6536865234375,0.3999040126800537,-0.5167099237442017
1695713716586749200,16.427749267578125,-1.8064851760864258,0.3247249126434326,-0.509631872177124
1695713716596779300,16.437779296875,-1.944382667541504,0.18463873863220215,-0.34244096279144287
1695713716606809000,16.44780908203125,-2.0247926712036133,-0.011365890502929688,-0.13940107822418213
1695713716616841500,16.457841552734376,-1.789393424987793,-0.07634568214416504,-0.0073004961013793945
1695713716626875100,16.467875244140625,-1.5776281356811523,0.014034271240234375,-0.10439956188201904
1695713716636908800,16.47790869140625,-1.3658447265625,0.05327749252319336,-0.20087862014770508
1695713716646942500,16.4879423828125,-1.135624885559082,0.04498791694641113,-0.03324759006500244
1695713716656976100,16.49797607421875,-0.863438606262207,0.05092978477478027,0.2217036485671997
1695713716667009800,16.508009765625,-0.5204448699951172,0.09059500694274902,0.3482249975204468
1695713716677043200,16.518043212890625,-0.2020254135131836,0.14994597434997559,0.3887730836868286
1695713716687076900,16.528076904296874,0.06804370880126953,0.2764854431152344,0.3668404817581177
1695713716697110500,16.538110595703124,0.30399513244628906,0.3833608627319336,0.3635222911834717
1695713716707144200,16.548144287109373,0.5726318359375,0.49902939796447754,0.3264983892440796
1695713716717177900,16.558177734375,0.8594751358032227,0.5323407649993896,0.35583019256591797
1695713716727210500,16.56821044921875,1.0980591773986816,0.589040994644165,0.4501304626464844
1695713716737243600,16.57824365234375,1.2360692024230957,0.6260709762573242,0.58011794090271
1695713716747277000,16.588277099609375,1.3451876640319824,0.6146905422210693,0.6891587972640991
1695713716757310500,16.598310546875,1.3442511558532715,0.5306956768035889,0.709857702255249
1695713716767343900,16.60834375,1.3239989280700684,0.44080042839050293,0.6670540571212769
1695713716777377000,16.618376953125,1.313035488128662,0.35388970375061035,0.6079758405685425
1695713716787410400,16.628410400390624,1.3254961967468262,0.2741873264312744,0.5277360677719116
1695713716797443800,16.63844384765625,1.2657761573791504,0.1781613826751709,0.46053433418273926
1695713716807477200,16.648477294921875,1.1577773094177246,0.15681719779968262,0.39308393001556396
1695713716817510400,16.658510498046876,1.0633645057678223,0.1144094467163086,0.3316851854324341
1695713716827542500,16.66854248046875,0.9919629096984863,0.06595110893249512,0.3351614475250244
1695713716837571800,16.67857177734375,0.8337936401367188,0.07898736000061035,0.3752002716064453
1695713716847601200,16.68860107421875,0.6563816070556641,0.1437375545501709,0.4352473020553589
1695713716857630500,16.69863037109375,0.5079641342163086,0.19297361373901367,0.39350974559783936
1695713716867659500,16.708659423828124,0.3651599884033203,0.21346354484558105,0.39277660846710205
1695713716877688800,16.718688720703124,0.1658315658569336,0.21969270706176758,0.42845892906188965
1695713716887718100,16.72871826171875,-0.04241371154785156,0.2015678882598877,0.433929443359375
1695713716897747500,16.73874755859375,-0.22647476196289062,0.3642439842224121,0.40557312965393066
1695713716907776800,16.74877685546875,-0.4772624969482422,0.46877098083496094,0.29672324657440186
1695713716917805800,16.758805908203126,-0.7325363159179688,0.5109755992889404,0.1275855302810669
1695713716927838200,16.768838134765623,-0.7820062637329102,0.5098955631256104,-0.002306699752807617
1695713716937872000,16.778871826171876,-0.6111955642700195,0.5434203147888184,-0.09363281726837158
1695713716947905500,16.788905517578126,-0.5064373016357422,0.5556292533874512,-0.1092524528503418
1695713716957939200,16.798939208984375,-0.48650074005126953,0.5709061622619629,-0.07795560359954834
1695713716967972900,16.808972900390625,-0.5178031921386719,0.5415515899658203,0.005349159240722656
1695713716978006500,16.819006591796875,-0.5860967636108398,0.5437660217285156,0.007146358489990234
1695713716988040200,16.829040283203124,-0.6056289672851562,0.4715852737426758,-0.02461838722229004
1695713716998073900,16.839073974609374,-0.5197467803955078,0.3863818645477295,-0.12246859073638916
1695713717008107300,16.849107177734375,-0.3623676300048828,0.35962748527526855,-0.2139723300933838
1695713717018141000,16.859140869140624,-0.2340850830078125,0.343519926071167,-0.21724677085876465
1695713717028174600,16.869174560546874,-0.09654521942138672,0.2951328754425049,-0.23777782917022705
1695713717038207000,16.87920703125,0.054866790771484375,0.27120471000671387,-0.19011175632476807
1695713717048239400,16.8892392578125,0.2535409927368164,0.27097487449645996,-0.13293957710266113
1695713717058271700,16.899271728515625,0.4037456512451172,0.2557523250579834,-0.02842891216278076
1695713717068304400,16.909304443359375,0.572479248046875,0.2398080825805664,0.07535040378570557
1695713717078336800,16.919336669921876,0.7930068969726562,0.21788477897644043,0.1829015016555786
1695713717088369200,16.929369140625,0.9553713798522949,0.2089860439300537,0.29389750957489014
1695713717098401500,16.939401611328126,1.1076245307922363,0.17969655990600586,0.3743525743484497
1695713717108434200,16.94943408203125,1.187760829925537,0.20646929740905762,0.48611879348754883
1695713717118466600,16.959466552734376,1.2245774269104004,0.27045702934265137,0.544028639793396
1695713717128499000,16.9694990234375,1.2039780616760254,0.2956047058105469,0.5484566688537598
1695713717138531300,16.97953125,1.092648983001709,0.30547451972961426,0.46546363830566406
1695713717148563700,16.989563720703124,0.9288859367370605,0.24229812622070312,0.419230580329895
1695713717158596000,16.99959619140625,0.7171812057495117,0.2680480480194092,0.539447546005249
1695713717168628200,17.009628173828126,0.5533342361450195,0.30633068084716797,0.6200425624847412
1695713717178660600,17.01966064453125,0.47553062438964844,0.3332540988922119,0.6559023857116699
1695713717188693000,17.02969287109375,0.3454618453979492,0.35907483100891113,0.6797685623168945
1695713717198725400,17.039725341796874,0.26406002044677734,0.3034324645996094,0.6668968200683594
1695713717208757500,17.049757568359375,0.1597156524658203,0.2914772033691406,0.608384370803833
1695713717218790000,17.059789794921876,0.0800790786743164,0.24692511558532715,0.543790340423584
1695713717228822300,17.069822265625,-0.02807903289794922,0.2658555507659912,0.5057369470596313
1695713717238854700,17.079854736328127,-0.13561344146728516,0.3807985782623291,0.28533756732940674
1695713717248886800,17.08988671875,-0.24303436279296875,0.37662768363952637,0.2630418539047241
1695713717258919000,17.0999189453125,-0.1971569061279297,0.3833737373352051,0.21371197700500488
1695713717268949500,17.109949462890626,-0.4665203094482422,0.3772003650665283,0.09018290042877197
1695713717278980400,17.11998046875,-0.31907176971435547,0.3686683177947998,0.07851517200469971
1695713717289011200,17.13001123046875,-0.5153217315673828,0.3860509395599365,-0.0706338882446289
1695713717299041800,17.140041748046876,-0.4620990753173828,0.27600646018981934,0.0002543926239013672
1695713717309072600,17.15007275390625,-0.5900440216064453,0.3502819538116455,-0.279866099357605
1695713717319103200,17.160103271484374,-0.44483280181884766,0.3388199806213379,-0.1890174150466919
1695713717329133800,17.1701337890625,-0.40972900390625,0.3426799774169922,-0.17356538772583008
1695713717339164700,17.18016455078125,-0.3459300994873047,0.3656783103942871,-0.17333102226257324
1695713717349195500,17.190195556640624,-0.24580955505371094,0.4026036262512207,-0.12889516353607178
1695713717359226000,17.20022607421875,-0.11949729919433594,0.3867652416229248,-0.046213507652282715
1695713717369258800,17.2102587890625,0.018533706665039062,0.3943796157836914,0.06419539451599121
1695713717379293200,17.220293212890624,0.19196414947509766,0.3876309394836426,0.1723310947418213
1695713717389328000,17.230327880859374,0.2968740463256836,0.38106870651245117,0.24424278736114502
1695713717399362600,17.240362548828124,0.3156900405883789,0.35602617263793945,0.33672165870666504
1695713717409397200,17.250397216796873,0.37688541412353516,0.3881261348724365,0.37922096252441406
1695713717419432000,17.260431884765627,0.39488887786865234,0.36325883865356445,0.37283432483673096
1695713717429466600,17.270466552734376,0.5210762023925781,0.32486391067504883,0.32811105251312256
1695713717439501300,17.280501220703126,0.6266622543334961,0.2874464988708496,0.25457072257995605
1695713717449535700,17.29053564453125,0.6931047439575195,0.25576114654541016,0.22372400760650635
1695713717459570400,17.3005703125,0.6971826553344727,0.21030092239379883,0.24960827827453613
1695713717469602800,17.310602783203127,0.7293367385864258,0.20328140258789062,0.27555298805236816
1695713717479635000,17.320635009765624,0.5675172805786133,0.16695952415466309,0.26761293411254883
1695713717489666800,17.330666748046873,0.5637531280517578,0.17333269119262695,0.2497081756591797
1695713717499698700,17.34069873046875,0.45152759552001953,0.16518735885620117,0.22321927547454834
1695713717509730600,17.35073046875,0.2749652862548828,0.10950946807861328,0.2727499008178711
1695713717519762700,17.3607626953125,0.2894582748413086,0.14397954940795898,0.3315528631210327
1695713717529794600,17.370794677734374,0.05881214141845703,0.07465696334838867,0.23499774932861328
1695713717539826400,17.380826416015626,-0.003421783447265625,0.038402557373046875,0.24245715141296387
1695713717549858600,17.390858642578124,-0.013129234313964844,0.06392383575439453,0.20437979698181152
1695713717559890400,17.400890380859376,-0.12695693969726562,0.07309269905090332,0.18577468395233154
1695713717569922600,17.410922607421874,-0.11251354217529297,0.05253410339355469,0.2303168773651123
1695713717579953700,17.42095361328125,-0.17923927307128906,0.04548978805541992,0.19747710227966309
1695713717589984800,17.43098486328125,-0.1890430450439453,0.08395242691040039,0.17970144748687744
1695713717600015600,17.441015625,-0.18552875518798828,0.12950682640075684,0.1268543004989624
1695713717610046700,17.451046630859373,-0.22509193420410156,0.13089537620544434,0.1048816442489624
1695713717620077800,17.461077880859374,-0.22202205657958984,0.1927623748779297,0.07951557636260986
1695713717630109000,17.47110888671875,-0.1812734603881836,0.24960017204284668,0.09830987453460693
1695713717640139800,17.481139892578124,-0.15013504028320312,0.27407264709472656,0.06086409091949463
1695713717650171000,17.4911708984375,-0.17558670043945312,0.24765729904174805,0.10446608066558838
1695713717660202000,17.501201904296874,-0.19078445434570312,0.18035173416137695,0.12364685535430908
1695713717670234000,17.511234130859375,-0.14885711669921875,0.09148526191711426,0.14687561988830566
1695713717680266500,17.5212666015625,-0.11182975769042969,0.07105445861816406,0.1123666763305664
1695713717690298600,17.531298583984373,-0.0752115249633789,0.060730695724487305,0.08259856700897217
1695713717700331000,17.5413310546875,-0.10996055603027344,0.09253859519958496,0.09079384803771973
1695713717710363100,17.551363037109375,-0.12094306945800781,0.12311720848083496,0.05712127685546875
1695713717720395500,17.5613955078125,-0.07559394836425781,0.15722370147705078,0.04356098175048828
1695713717730427600,17.571427734375,0.03953742980957031,0.15297174453735352,0.05878496170043945
1695713717740460000,17.5814599609375,0.1526947021484375,0.1815354824066162,0.12067747116088867
1695713717750492200,17.5914921875,0.20260143280029297,0.16213202476501465,0.17685472965240479
1695713717760524500,17.601524658203125,0.20450115203857422,0.10979461669921875,0.2555100917816162
1695713717770556700,17.611556640625,0.1450185775756836,0.08639121055603027,0.29565608501434326
1695713717780589800,17.62158984375,0.1613931655883789,0.1472322940826416,0.3360833525657654
1695713717790627600,17.631627685546874,0.16286277770996094,0.1681530475616455,0.34322017431259155
1695713717800665300,17.641665283203125,0.24892234802246094,0.1740891933441162,0.2745708227157593
1695713717810703000,17.651703125,0.31017017364501953,0.12366580963134766,0.22538304328918457
1695713717820740900,17.661740966796874,0.31404781341552734,0.08868074417114258,0.17716634273529053
1695713717830778600,17.671778564453124,0.25666236877441406,0.054576873779296875,0.12569975852966309
1695713717840816000,17.681816162109374,0.1907482147216797,0.11526989936828613,0.09453368186950684
1695713717850854000,17.69185400390625,0.19177627563476562,0.1655259132385254,0.09733855724334717
1695713717860891600,17.7018916015625,0.1975574493408203,0.1538701057434082,0.1188499927520752
1695713717870929400,17.711929443359374,0.21262264251708984,0.14217138290405273,0.1678922176361084
1695713717880961500,17.72196142578125,0.1803293228149414,0.12567949295043945,0.2296808958053589
1695713717890990000,17.731989990234375,0.16266441345214844,0.10920906066894531,0.2853342294692993
1695713717901018400,17.742018310546875,0.09833145141601562,0.17309951782226562,0.2639881372451782
1695713717911046700,17.752046630859375,0.06332111358642578,0.1933450698852539,0.17657876014709473
1695713717921075000,17.762074951171876,0.05230140686035156,0.24092602729797363,0.06181812286376953
1695713717931103200,17.772103271484376,-0.029062271118164062,0.17446279525756836,-0.03351104259490967
1695713717941131500,17.782131591796876,-0.07596969604492188,0.08113312721252441,-0.0709911584854126
1695713717951159800,17.792159912109376,-0.14078998565673828,0.04150032997131348,-0.07495570182800293
1695713717961188000,17.80218798828125,-0.16215801239013672,0.040235280990600586,-0.05046272277832031
1695713717971216400,17.81221630859375,-0.103057861328125,0.08648943901062012,-0.06814825534820557
1695713717981244700,17.82224462890625,-0.0070133209228515625,0.07607007026672363,-0.08577299118041992
1695713717991276800,17.83227685546875,0.03127002716064453,0.05225729942321777,-0.07575356960296631
1695713718001307100,17.84230712890625,-0.04385948181152344,0.01985025405883789,-0.02871227264404297
1695713718011337700,17.852337646484376,-0.1318349838256836,0.0351104736328125,0.003336787223815918
1695713718021368300,17.862368408203125,-0.1667184829711914,-0.011456489562988281,-0.049681901931762695
1695713718031399000,17.87239892578125,-0.1919269561767578,-0.01564621925354004,-0.04510498046875
1695713718041429200,17.88242919921875,-0.13222694396972656,0.02202153205871582,-0.04500985145568848
1695713718051459800,17.8924599609375,-0.05474376678466797,0.03528952598571777,-0.035698533058166504
1695713718061490400,17.902490478515624,0.012135505676269531,0.06736898422241211,0.001498103141784668
1695713718071521000,17.91252099609375,0.05901050567626953,0.03764653205871582,0.0053490400314331055
1695713718081551400,17.92255126953125,0.05803394317626953,0.0179135799407959,0.04218924045562744
1695713718091582000,17.93258203125,0.07592964172363281,0.05031466484069824,0.021794676780700684
1695713718101614600,17.942614501953123,0.08407402038574219,0.07258248329162598,0.039197444915771484
1695713718111650600,17.952650634765625,0.10157012939453125,0.0993201732635498,0.018500447273254395
1695713718121686500,17.9626865234375,0.14240741729736328,0.11147022247314453,0.006908774375915527
1695713718131722500,17.972722412109373,0.19687938690185547,0.11438679695129395,-0.01892077922821045
1695713718141758500,17.982758544921875,0.2271881103515625,0.10839724540710449,-0.03543055057525635
1695713718151794400,17.99279443359375,0.2290201187133789,0.11237740516662598,-0.033580780029296875
1695713718161830400,18.002830322265623,0.15111160278320312,0.10284590721130371,-0.013477921485900879
1695713718171866400,18.012866455078125,0.06519126892089844,0.08867096900939941,-0.004122734069824219
1695713718181902300,18.02290234375,0.05595684051513672,0.03182172775268555,0.03249645233154297
1695713718191938000,18.03293798828125,0.056046485900878906,-0.0013227462768554688,0.07282698154449463
1695713718201974000,18.04297412109375,0.032172203063964844,0.04507899284362793,0.037264347076416016
1695713718212006100,18.053006103515624,0.05073738098144531,0.014772415161132812,-0.025220155715942383
1695713718222036000,18.063035888671877,0.012249946594238281,-0.02951192855834961,-0.06239724159240723
1695713718232065800,18.073065673828125,0.02600383758544922,-0.06876111030578613,-0.05160176753997803
1695713718242095400,18.083095458984374,0.07238578796386719,-0.10771465301513672,-0.02710580825805664
1695713718252125200,18.093125244140627,0.0942068099975586,-0.08996701240539551,-0.02134990692138672
1695713718262154800,18.10315478515625,0.05423450469970703,-0.04472827911376953,0.022258639335632324
1695713718272184600,18.1131845703125,0.05245399475097656,0.018246173858642578,0.051084280014038086
1695713718282214400,18.12321435546875,0.05532264709472656,0.08481550216674805,0.09399783611297607
1695713718292244000,18.133243896484377,0.034820556640625,0.1038980484008789,0.10356259346008301
1695713718302273800,18.143273681640625,-0.04172039031982422,0.10864567756652832,0.09822225570678711
1695713718312303400,18.153303466796874,-0.10312843322753906,0.07944893836975098,0.20068395137786865
1695713718322336000,18.1633359375,-0.08842945098876953,0.11138796806335449,0.3016841411590576
1695713718332370200,18.1733701171875,-0.007962226867675781,0.11475300788879395,0.29726386070251465
1695713718342404400,18.183404296875,0.047881126403808594,0.19388246536254883,0.193417489528656
1695713718352438300,18.193438232421876,0.009001731872558594,0.23483037948608398,0.06247413158416748
1695713718362472400,18.203472412109374,-0.1186361312866211,0.21848344802856445,-0.015285134315490723
1695713718372506600,18.213506591796875,-0.08415603637695312,0.20218729972839355,0.030749917030334473
1695713718382540800,18.223540771484377,-0.021920204162597656,0.17705249786376953,0.10923349857330322
1695713718392575000,18.233574951171875,0.044101715087890625,0.1387176513671875,0.11164474487304688
1695713718402609200,18.243609130859376,0.07159233093261719,0.11122512817382812,0.043868064880371094
1695713718412643300,18.253643310546874,0.11768627166748047,0.1318964958190918,0.010258197784423828
1695713718422677200,18.26367724609375,0.0501251220703125,0.13371658325195312,-0.055710673332214355
1695713718432710000,18.2737099609375,-0.025824546813964844,0.1166377067565918,-0.11052548885345459
1695713718442742500,18.283742431640626,-0.05821418762207031,0.10924935340881348,-0.06493079662322998
1695713718452775200,18.293775146484375,-0.0900888442993164,0.054911136627197266,-0.06696021556854248
1695713718462807800,18.303807861328124,-0.04619121551513672,-0.003298521041870117,0.030463337898254395
1695713718472840400,18.31384033203125,-0.04552268981933594,-0.04652714729309082,0.10331201553344727
1695713718482873000,18.323873046875,-0.012101173400878906,-0.09421992301940918,0.1703057885169983
1695713718492905700,18.33390576171875,0.02058124542236328,-0.06618690490722656,0.15161055326461792
1695713718502938400,18.3439384765625,0.03373908996582031,-0.04357314109802246,0.15715938806533813
1695713718512971000,18.353970947265626,0.051301002502441406,-0.026195526123046875,0.1534009575843811
1695713718523003600,18.364003662109376,0.09218502044677734,0.005124330520629883,0.11650115251541138
1695713718533036300,18.374036376953125,0.08073616027832031,0.007963180541992188,0.08939003944396973
1695713718543068400,18.384068359375,0.008265495300292969,0.03901863098144531,0.1051444411277771
1695713718553099000,18.39409912109375,-0.020752906799316406,0.03631782531738281,0.12082284688949585
1695713718563129900,18.4041298828125,-0.0023593902587890625,0.014548301696777344,0.1507384181022644
1695713718573160400,18.414160400390625,0.03458690643310547,0.021464109420776367,0.14721494913101196
1695713718583191000,18.42419091796875,0.042786598205566406,0.03326559066772461,0.10602432489395142
1695713718593222000,18.434221923828126,0.055667877197265625,0.06392812728881836,-0.010000824928283691
1695713718603252500,18.44425244140625,0.030838966369628906,0.12285685539245605,-0.17091572284698486
1695713718613283000,18.454282958984376,0.011247634887695312,0.20003509521484375,-0.3193932771682739
1695713718623314000,18.46431396484375,0.001392364501953125,0.2713344097137451,-0.37550222873687744
1695713718633344500,18.474344482421873,0.057625770568847656,0.2756514549255371,-0.3078794479370117
1695713718643375000,18.484375,0.06577587127685547,0.2845449447631836,-0.14222419261932373
1695713718653407500,18.494407470703123,0.06899738311767578,0.18010759353637695,0.03961586952209473
1695713718663441200,18.504441162109377,0.05327033996582031,0.12433385848999023,0.22309601306915283
1695713718673474800,18.514474853515626,0.10861492156982422,0.08379244804382324,0.3131769895553589
1695713718683508500,18.524508544921876,0.15875244140625,0.0682077407836914,0.2782696485519409
1695713718693542100,18.534542236328125,0.189727783203125,0.06795549392700195,0.1769425868988037
1695713718703575600,18.544575439453126,0.126373291015625,0.054561614990234375,0.0916714072227478
1695713718713609200,18.554609130859376,0.07834911346435547,0.04183316230773926,0.04100441932678223
1695713718723643000,18.564642822265625,0.07842350006103516,-0.007675886154174805,0.05754983425140381
1695713718733676500,18.574676513671875,0.07422447204589844,-0.07892537117004395,0.14403921365737915
1695713718743710200,18.584710205078125,0.042263031005859375,-0.11979389190673828,0.14863109588623047
1695713720469245400,20.310245361328125,-0.12430953979492188,-0.1509566307067871,0.1290982961654663
1695713720479278600,20.320278564453126,-0.13681316375732422,-0.16384053230285645,0.13102692365646362
1695713720489311700,20.330311767578124,-0.13963699340820312,-0.18584394454956055,0.11386460065841675
1695713720499344100,20.34034423828125,-0.09520149230957031,-0.16023659706115723,0.11044257879257202
1695713720509377800,20.350377685546874,-0.13139820098876953,-0.1677556037902832,0.0971190333366394
1695713720519411500,20.360411376953124,-0.17642879486083984,-0.13759303092956543,0.0837554931640625
1695713720529445400,20.3704453125,-0.20207691192626953,-0.09417247772216797,0.09475243091583252
1695713720539479000,20.38047900390625,-0.2322540283203125,-0.06135201454162598,0.07800334692001343
1695713720549512700,20.3905126953125,-0.21032333374023438,-0.0529024600982666,0.04824638366699219
1695713720559546400,20.40054638671875,-0.2595233917236328,-0.07305002212524414,-0.0322306752204895
1695713720569580000,20.410580078125,-0.3129701614379883,-0.05595731735229492,-0.06841033697128296
1695713720579613700,20.42061376953125,-0.23423194885253906,-0.054541826248168945,-0.051761746406555176
1695713720589647400,20.4306474609375,-0.08649253845214844,-0.016178607940673828,0.012069940567016602
1695713720599681000,20.440680908203124,0.058753013610839844,-0.02096843719482422,0.027472376823425293
1695713720609713400,20.45071337890625,0.11227703094482422,0.012202978134155273,0.041758954524993896
1695713720619745000,20.4607451171875,0.07071971893310547,-0.011961936950683594,0.040616631507873535
1695713720629777000,20.47077685546875,0.10516738891601562,0.0016732215881347656,0.024432718753814697
1695713720639808500,20.48080859375,0.25249767303466797,0.015902996063232422,-0.025769352912902832
1695713720649840400,20.49084033203125,0.4123077392578125,0.036341190338134766,-0.07164263725280762
1695713720659872300,20.500872314453126,0.40558433532714844,0.025426149368286133,-0.038272976875305176
1695713720669904000,20.51090380859375,0.2957916259765625,0.04853558540344238,-0.006055355072021484
1695713720679935700,20.520935791015624,0.2682523727416992,0.10053753852844238,-0.02579587697982788
1695713720689967400,20.53096728515625,0.2510719299316406,0.1482679843902588,-0.10595321655273438
1695713720699999200,20.540999267578126,0.10750007629394531,0.18229460716247559,-0.17023861408233643
1695713720710031000,20.551031005859375,-0.15632915496826172,0.20599961280822754,-0.20892268419265747
1695713720720063200,20.561063232421876,-0.2941474914550781,0.19943737983703613,-0.17462193965911865
1695713720730095400,20.571095458984374,-0.20420074462890625,0.1448502540588379,-0.11602699756622314
1695713720740127700,20.581127685546875,-0.035854339599609375,0.10509514808654785,-0.08594948053359985
1695713720750160000,20.591159912109376,0.06845760345458984,0.02363300323486328,-0.09381872415542603
