time,seconds_elapsed,z,y,x
1696082904601842000,0.008842041015625,8.10706615447998,4.915595531463623,0.15322890877723694
1696082904611841800,0.018841796875,8.059182167053223,4.946720123291016,0.1628057211637497
1696082904621842000,0.028842041015625,8.145373344421387,4.97545051574707,0.20350714027881622
1696082904631841800,0.038841796875,8.23156452178955,5.06643009185791,0.09816227108240128
1696082904641841700,0.048841552734375,8.336909294128418,5.104737281799316,0.040701430290937424
1696082904651841800,0.058841796875,8.4015531539917,5.035305500030518,0.014365210197865963
1696082904661841700,0.068841552734375,8.384793281555176,4.980238914489746,0.06464344263076782
1696082904671841800,0.078841796875,8.4015531539917,4.867412090301514,0.3016694188117981
1696082904681841700,0.088841552734375,8.372822761535645,4.841075897216797,0.28730419278144836
1696082904691841800,0.098841796875,8.300996780395508,4.922778129577637,0.1173158809542656
1696082904701841700,0.108841552734375,8.403946876525879,4.985027313232422,0.1149216815829277
1696082904711841800,0.118841796875,8.583512306213379,5.047276496887207,0.05746084079146385
1696082904721841700,0.128841552734375,8.736741065979004,5.061641693115234,-0.023942016065120697
1696082904731841800,0.138841796875,8.803778648376465,5.0376996994018555,-0.033518824726343155
1696082904741841700,0.148841552734375,8.722375869750977,4.922778129577637,0.08619125932455063
1696082904751841800,0.158841796875,8.643367767333984,4.843470096588135,0.20111294090747833
1696082904761841700,0.168841552734375,8.43746566772461,4.857835292816162,0.2298433631658554
1696082904771841800,0.178841796875,8.243535995483398,4.793191909790039,0.19393034279346466
1696082904781841700,0.188841552734375,8.145373344421387,4.788403511047363,0.26336219906806946
1696082904791841800,0.198841796875,8.154950141906738,4.759673118591309,0.26815059781074524
1696082904801841700,0.208841552734375,8.238747596740723,4.750096321105957,0.2322375625371933
1696082904811841800,0.218841796875,8.25311279296875,4.750096321105957,0.2585737705230713
1696082904821841700,0.228841552734375,8.217199325561523,4.795586109161377,0.22266076505184174
1696082904831841800,0.238841796875,8.186075210571289,4.733336925506592,0.19393034279346466
1696082904841842000,0.248842041015625,9.038411140441895,3.8762125968933105,0.9457096457481384
1696082904851841800,0.258841796875,8.336909294128418,3.7421371936798096,0.8786720037460327
1696082904861842000,0.268842041015625,7.817368030548096,3.928884983062744,0.8355764150619507
1696082904871841800,0.278841796875,7.10150146484375,4.039018154144287,0.5578489899635315
1696082904881841700,0.288841552734375,6.725611686706543,4.07014274597168,0.05027823522686958
1696082904891841800,0.298841796875,6.795043468475342,3.6391866207122803,-0.2585737705230713
1696082904901841700,0.308841552734375,6.610690116882324,3.4763808250427246,-0.2585737705230713
1696082904911841800,0.318841796875,6.507739543914795,3.8570590019226074,-0.4836287498474121
1696082904921841700,0.328841552734375,6.0528411865234375,3.914519786834717,-1.3335703611373901
1696082904931841800,0.338841796875,5.6554036140441895,3.8570590019226074,-1.8962076902389526
1696082904941841700,0.348841552734375,5.47344446182251,3.6822822093963623,-2.0853497982025146
1696082904951841800,0.358841796875,5.475838661193848,3.2130186557769775,-2.056619167327881
1696082904961841700,0.368841552734375,5.4135894775390625,2.937685489654541,-2.33913516998291
1696082904971841800,0.378841796875,5.696105003356934,2.7724854946136475,-2.296039342880249
1696082904981841700,0.388841552734375,6.019322395324707,2.7269957065582275,-1.9177556037902832
1696082904991841800,0.398841796875,6.332962989807129,2.6575639247894287,-1.6735470294952393
1696082905001841700,0.408841552734375,6.682516098022461,2.5953147411346436,-1.4389152526855469
1696082905011841800,0.418841796875,6.862081527709961,2.518700122833252,-1.072602391242981
1696082905021841700,0.428841552734375,6.5173163414001465,2.382230758666992,-0.545877993106842
1696082905031841800,0.438841796875,6.177339553833008,2.3247697353363037,0.16759411990642548
1696082905041841700,0.448841552734375,6.093542575836182,2.4133553504943848,0.6871358752250671
1696082905051841800,0.458841796875,6.4742207527160645,2.52109432220459,1.0007762908935547
1696082905061841700,0.468841552734375,7.0248870849609375,2.5665841102600098,1.259350061416626
1696082905071841800,0.478841796875,7.525275230407715,2.583343744277954,1.5729905366897583
1696082905081842000,0.488842041015625,7.76948356628418,2.647987127304077,1.886630892753601
1696082905091841800,0.498841796875,7.93707799911499,2.604891538619995,2.1068975925445557
1696082905101842000,0.508842041015625,7.862857818603516,2.561795711517334,2.5115175247192383
1696082905111841800,0.518841796875,7.668927192687988,2.451662540435791,2.851494312286377
1696082905121842000,0.528842041015625,7.070376873016357,2.4205379486083984,3.3925838470458984
1696082905131841800,0.538841796875,5.494992256164551,2.7533318996429443,3.995922565460205
1696082905141841700,0.548841552734375,5.607519626617432,3.445256233215332,4.151545524597168
1696082905151841800,0.558841796875,4.575319290161133,3.1962592601776123,4.671087741851807
1696082905161841700,0.568841552734375,1.1875240802764893,2.8371291160583496,5.360917091369629
1696082905171841800,0.578841796875,3.5003228187561035,1.3551181554794312,6.9147539138793945
1696082905181841700,0.588841552734375,3.663128614425659,-0.004788403399288654,6.969820499420166
1696082905191841800,0.598841796875,3.909731388092041,-0.9169792532920837,5.765536785125732
1696082905201841700,0.608841552734375,3.514688014984131,-1.5059528350830078,5.966650009155273
1696082905211841800,0.618841796875,3.155557870864868,-1.7477672100067139,6.000168800354004
1696082905221841700,0.628841552734375,2.5785553455352783,-1.9321208000183105,5.614702224731445
1696082905231841800,0.638841796875,2.650381326675415,-3.0813376903533936,5.916371822357178
1696082905241842000,0.648842041015625,3.3949780464172363,-5.231629848480225,7.245153427124023
1696082905251841800,0.658841796875,3.7014358043670654,-6.3425397872924805,8.245929718017578
1696082905261842000,0.668842041015625,3.466804027557373,-6.639420509338379,8.166921615600586
1696082905271841800,0.678841796875,2.8850131034851074,-6.711246490478516,7.419930458068848
1696082905281841400,0.68884130859375,2.2385785579681396,-6.330568790435791,6.854898929595947
1696082905291841300,0.69884130859375,1.7860745191574097,-5.782296180725098,6.656179904937744
1696082905301841000,0.7088408203125,1.9608511924743652,-5.949890613555908,6.8932061195373535
1696082905311841000,0.718841064453125,2.3582887649536133,-6.26592493057251,7.427113056182861
1696082905321841000,0.7288408203125,3.201047658920288,-6.555623531341553,7.958625793457031
1696082905331841000,0.738841064453125,3.7014358043670654,-6.747159481048584,8.86363410949707
1696082905341841000,0.7488408203125,3.734954595565796,-6.749553680419922,9.991303443908691
1696082905351841000,0.758841064453125,3.112462282180786,-6.689698696136475,11.051934242248535
1696082905361841000,0.7688408203125,2.6839001178741455,-6.4071831703186035,12.337620735168457
1696082905371841000,0.778841064453125,3.2992098331451416,-6.115090370178223,14.403817176818848
1696082905381841000,0.7888408203125,5.7631425857543945,-6.26592493057251,17.653047561645508
1696082905391840800,0.7988408203125,8.873210906982422,-6.5388641357421875,21.711219787597656
1696082905401840600,0.808840576171875,11.042357444763184,-7.264307022094727,25.61167335510254
1696082905411840800,0.8188408203125,11.933000564575195,-7.779060363769531,28.702587127685547
1696082905421840600,0.828840576171875,11.435006141662598,-7.71202278137207,30.610767364501953
1696082905431840800,0.8388408203125,10.020033836364746,-6.799831867218018,31.34339141845703
1696082905441840600,0.848840576171875,8.95700740814209,-5.423166275024414,31.101577758789062
1696082905451840800,0.8588408203125,8.542811393737793,-4.752490520477295,29.99545669555664
1696082905461840600,0.868840576171875,8.011298179626465,-4.477157115936279,28.374582290649414
1696082905471840800,0.8788408203125,7.5540056228637695,-3.5936968326568604,26.59090232849121
1696082905481840600,0.888840576171875,7.506121635437012,-2.808398485183716,24.95805549621582
1696082905491840800,0.8988408203125,7.235576629638672,-2.7437551021575928,23.468563079833984
1696082905501840600,0.908840576171875,6.361693382263184,-2.9089550971984863,22.470182418823242
1696082905511840800,0.9188408203125,4.8937482833862305,-3.1531636714935303,20.45665740966797
1696082905521840600,0.928840576171875,3.4955344200134277,-2.9688100814819336,18.354549407958984
1696082905531840800,0.9388408203125,2.2577321529388428,-2.5306711196899414,16.218921661376953
1696082905541840600,0.948840576171875,1.2689268589019775,-2.1954829692840576,13.886669158935547
1696082905551840500,0.958840576171875,0.7781155705451965,-1.8579005002975464,10.999261856079102
1696082905561840600,0.968840576171875,0.6703764796257019,-1.5179238319396973,8.102277755737305
1696082905571840500,0.978840576171875,1.0295066833496094,-1.1252747774124146,5.3226094245910645
1696082905581841200,0.988841064453125,1.6112977266311646,-0.40701428055763245,2.248155355453491
1696082905591841000,0.998841064453125,1.623268723487854,0.5315127968788147,-0.7254431247711182
1696082905601841400,1.00884130859375,1.941697597503662,1.4700398445129395,-3.6511576175689697
1696082905611841500,1.018841552734375,2.765302896499634,2.3487119674682617,-6.160580158233643
1696082905621841400,1.02884130859375,3.5745432376861572,3.0765492916107178,-8.300996780395508
1696082905631841500,1.038841552734375,4.0533833503723145,3.509899616241455,-10.067917823791504
1696082905641841400,1.04884130859375,4.129997730255127,3.1914708614349365,-11.133337020874023
1696082905651841300,1.05884130859375,3.620033025741577,2.580949544906616,-11.571475982666016
1696082905661841200,1.068841064453125,2.451662540435791,2.142810583114624,-10.850821495056152
1696082905671841300,1.07884130859375,1.0630255937576294,1.6041151285171509,-8.86602783203125
1696082905681841200,1.088841064453125,0.22744916379451752,0.7948749661445618,-6.191704750061035
1696082905691841300,1.09884130859375,-1.0869675874710083,0.2322375625371933,-3.780444383621216
1696082905701841400,1.10884130859375,-2.027888774871826,0.20111294090747833,-1.1420341730117798
1696082905711841300,1.11884130859375,-2.0470423698425293,-0.2992752194404602,1.37906014919281
1696082905721841400,1.12884130859375,-2.7988216876983643,-1.8387469053268433,3.4739866256713867
1696082905731841300,1.13884130859375,-4.376600742340088,-3.4332852363586426,5.159803867340088
1696082905741841400,1.14884130859375,-6.567594528198242,-3.914519786834717,7.058405876159668
1696082905751841300,1.15884130859375,-8.461407661437988,-3.399766445159912,10.065523147583008
1696082905761841400,1.16884130859375,-9.22515869140625,-3.4189200401306152,13.015179634094238
1696082905771841500,1.178841552734375,-9.557952880859375,-3.952826976776123,15.409680366516113
1696082905781841400,1.18884130859375,-9.862015724182129,-4.49870491027832,17.41362762451172
1696082905791841500,1.198841552734375,-9.909899711608887,-4.714183330535889,18.431163787841797
1696082905801841400,1.20884130859375,-8.911518096923828,-4.0078935623168945,19.752761840820312
1696082905811841300,1.21884130859375,-6.823774337768555,-3.584120035171509,20.540454864501953
1696082905821841400,1.22884130859375,-5.20289945602417,-2.6216509342193604,19.319412231445312
1696082905831841300,1.23884130859375,-3.6727054119110107,-2.58813214302063,18.88606071472168
1696082905841841400,1.24884130859375,-1.5705963373184204,-3.050212860107422,18.354549407958984
1696082905851841500,1.258841552734375,-1.6160861253738403,-3.2776620388031006,17.55009651184082
1696082905861840600,1.268840576171875,0.3471592366695404,-2.6216509342193604,16.26201629638672
1696082905871840500,1.278840576171875,2.2146365642547607,-2.3271639347076416,15.292365074157715
1696082905881840600,1.288840576171875,5.997774600982666,-2.52109432220459,12.378321647644043
1696082905891840500,1.298840576171875,2.5713725090026855,-0.4405331015586853,8.940248489379883
1696082905901840600,1.308840576171875,1.0678139925003052,-2.2649147510528564,9.047987937927246
1696082905911840800,1.3188408203125,2.607285737991333,-3.1507694721221924,9.519645690917969
1696082905921840600,1.328840576171875,1.278503656387329,-2.513911724090576,8.983344078063965
1696082905931840800,1.3388408203125,-0.2992752194404602,-1.965639591217041,8.399158477783203
1696082905941840600,1.348840576171875,-1.3311761617660522,-2.5498247146606445,8.722375869750977
1696082905951841000,1.358841064453125,-0.3016694188117981,-1.4460978507995605,9.10066032409668
1696082905961841200,1.368841064453125,0.17956513166427612,-1.1899182796478271,7.649773597717285
1696082905971841000,1.378841064453125,-1.139639973640442,-0.09816227108240128,5.600337028503418
1696082905981841200,1.388841064453125,-1.5442601442337036,1.460463047027588,3.7253777980804443
1696082905991841000,1.398841064453125,-1.941697597503662,0.43335050344467163,2.9688100814819336
1696082906001841200,1.408841064453125,-1.4053963422775269,0.9289502501487732,2.8395233154296875
1696082906011841000,1.418841064453125,-1.5873557329177856,0.871489405632019,3.071760892868042
1696082906021841200,1.428841064453125,-3.4189200401306152,0.9457096457481384,4.323928356170654
1696082906031841000,1.438841064453125,-3.136404275894165,-1.2545616626739502,7.376834869384766
1696082906041841200,1.448841064453125,-2.7892448902130127,-2.250549554824829,11.834837913513184
1696082906051841000,1.458841064453125,-2.4396915435791016,-2.676717519760132,13.992013931274414
1696082906061841200,1.468841064453125,-2.2242133617401123,-3.44765043258667,13.005602836608887
1696082906071841000,1.478841064453125,-1.8555063009262085,-3.002328872680664,7.970596790313721
1696082906081841200,1.488841064453125,1.0965443849563599,-2.80361008644104,4.2544965744018555
1696082906091841000,1.498841064453125,4.917989730834961,-4.225766181945801,2.070984363555908
1696082906101841200,1.508841064453125,4.666299343109131,-8.88757610321045,4.271255970001221
1696082906111841000,1.518841064453125,1.2234370708465576,-9.241917610168457,2.4636335372924805
1696082906121841400,1.52884130859375,-2.6455929279327393,-9.462183952331543,1.5825673341751099
1696082906131841300,1.53884130859375,-2.449268341064453,-12.780548095703125,5.490203857421875
1696082906141841400,1.54884130859375,-2.8347349166870117,-13.333608627319336,7.7287821769714355
1696082906151841300,1.55884130859375,-1.9776105880737305,-14.827889442443848,8.992920875549316
1696082906161842700,1.5688427734375,0.33997663855552673,-13.786112785339355,7.525275230407715
1696082906171842600,1.578842529296875,-0.24181437492370605,-16.649877548217773,11.784560203552246
1696082906181842400,1.588842529296875,4.077325344085693,-13.625700950622559,6.5819597244262695
1696082906191842600,1.598842529296875,7.934683799743652,-11.4757080078125,3.2154128551483154
1696082906201843000,1.608843017578125,10.479720115661621,-12.500426292419434,7.020098686218262
1696082906211842600,1.618842529296875,12.23227596282959,-12.134113311767578,6.783072471618652
1696082906221842700,1.6288427734375,10.743082046508789,-11.760618209838867,6.852504730224609
1696082906231842600,1.638842529296875,8.320150375366211,-10.896310806274414,6.426336765289307
1696082906241842700,1.6488427734375,5.198111057281494,-8.86363410949707,6.230011940002441
1696082906251842600,1.658842529296875,2.7676970958709717,-7.922712802886963,6.826168537139893
1696082906261842700,1.6688427734375,0.395043283700943,-7.2667012214660645,6.974608898162842
1696082906271842600,1.678842529296875,-1.0582371950149536,-6.215646743774414,6.340145587921143
1696082906281842700,1.6888427734375,-1.3096283674240112,-5.2555718421936035,5.449502468109131
1696082906291842600,1.698842529296875,-0.8188169598579407,-5.494992256164551,5.715258598327637
1696082906301842700,1.7088427734375,-0.2322375625371933,-5.454290866851807,5.2555718421936035
1696082906311842600,1.718842529296875,0.5937620401382446,-5.521328449249268,4.400542736053467
1696082906321842700,1.7288427734375,2.032677173614502,-5.2124762535095215,3.6080620288848877
1696082906331842800,1.7388427734375,2.161964178085327,-4.637568473815918,2.671929121017456
1696082906341842700,1.7488427734375,1.9512743949890137,-4.67827033996582,2.056619167327881
1696082906351842800,1.7588427734375,1.4700398445129395,-4.793191909790039,1.3431471586227417
1696082906361842700,1.7688427734375,1.2880805730819702,-4.6471452713012695,1.1348515748977661
1696082906371842800,1.7788427734375,0.7254431247711182,-4.434061527252197,1.501164436340332
1696082906381842700,1.7888427734375,0.42856210470199585,-4.843470096588135,1.9608511924743652
1696082906391842800,1.7988427734375,0.3208230137825012,-5.2555718421936035,1.9704279899597168
1696082906401842700,1.8088427734375,0.43335050344467163,-5.5883660316467285,1.702277421951294
1696082906411842800,1.8188427734375,0.16998831927776337,-5.736806392669678,1.3623007535934448
1696082906421842400,1.828842529296875,-1.0319008827209473,-5.547664642333984,1.0773907899856567
1696082906431842600,1.838842529296875,-1.3287819623947144,-5.653009414672852,1.1085153818130493
1696082906441842000,1.848842041015625,-2.3702597618103027,-5.269937038421631,1.2497732639312744
1696082906451842000,1.858842041015625,-2.9664158821105957,-4.850652694702148,1.5945383310317993
1696082906461841700,1.868841552734375,-0.47405192255973816,-6.3640875816345215,2.0805611610412598
1696082906471841500,1.878841552734375,2.3750481605529785,-12.861950874328613,3.9647979736328125
1696082906481841700,1.888841552734375,3.3446998596191406,-18.969858169555664,4.508281707763672
1696082906491841500,1.898841552734375,2.073378562927246,-23.138164520263672,3.663128614425659
1696082906501841400,1.90884130859375,0.10055647045373917,-26.45682716369629,2.4684219360351562
1696082906511841300,1.91884130859375,-1.3670891523361206,-27.60843849182129,1.5275006294250488
1696082906521841200,1.928841064453125,-1.4748282432556152,-26.112062454223633,1.1994950771331787
1696082906531841300,1.93884130859375,-1.3551181554794312,-22.293010711669922,0.6799532771110535
1696082906541841200,1.948841064453125,-0.8451532125473022,-15.689802169799805,-0.3519476354122162
1696082906551841300,1.95884130859375,-0.24899697303771973,-11.104606628417969,-1.4867992401123047
1696082906561841200,1.968841064453125,-0.26575639843940735,-8.1046724319458,-2.279279947280884
1696082906571841300,1.97884130859375,0.016759412363171577,-6.376058578491211,-2.7892448902130127
1696082906581841200,1.988841064453125,0.5434837937355042,-5.669768810272217,-3.224989652633667
1696082906591841300,1.99884130859375,0.15083470940589905,-5.578789234161377,-3.2154128551483154
1696082906601841200,2.008841064453125,-0.038307227194309235,-6.462249755859375,-2.6623523235321045
1696082906611841300,2.01884130859375,-0.07422025501728058,-8.475772857666016,-1.0893617868423462
1696082906621841200,2.028841064453125,-0.2513911724090576,-10.043975830078125,0.35673606395721436
1696082906631841300,2.03884130859375,-0.38067805767059326,-10.970531463623047,1.0893617868423462
1696082906641841200,2.048841064453125,-0.44532153010368347,-11.1381254196167,1.1109095811843872
1696082906651841300,2.05884130859375,-0.4189853072166443,-10.814908027648926,1.0031704902648926
1696082906661841200,2.068841064453125,-0.5147533416748047,-10.32170295715332,1.161187767982483
1696082906671841300,2.07884130859375,-0.5746083855628967,-9.78061294555664,1.501164436340332
1696082906681841200,2.088841064453125,-0.5530605912208557,-9.414299964904785,1.3958195447921753
1696082906691841300,2.09884130859375,-0.5602431893348694,-9.265859603881836,1.048660397529602
1696082906701841200,2.108841064453125,-0.6991068720817566,-9.416694641113281,0.646434485912323
1696082906711841300,2.11884130859375,-0.8307880163192749,-9.687239646911621,0.38067805767059326
1696082906721841200,2.128841064453125,-0.8619126081466675,-9.885957717895508,0.181959331035614
1696082906731841300,2.13884130859375,-0.7661445140838623,-9.981725692749023,0.040701430290937424
1696082906741841700,2.148841552734375,-0.5841852426528931,-9.931447982788086,-0.031124621629714966
1696082906751841500,2.158841552734375,-0.3998316824436188,-9.778219223022461,-0.05506663769483566
1696082906761841700,2.168841552734375,-0.31124621629714966,-9.65611457824707,-0.09816227108240128
1696082906771841800,2.178841796875,-0.272938996553421,-9.62259578704834,-0.11013327538967133
1696082906781841700,2.188841552734375,-0.28730419278144836,-9.658509254455566,-0.11971008777618408
1696082906791841800,2.198841796875,-0.45489832758903503,-9.67766284942627,-0.15083470940589905
1696082906801841700,2.208841552734375,-0.6272808313369751,-9.687239646911621,-0.20350714027881622
1696082906811841800,2.218841796875,-0.7541735172271729,-9.701604843139648,-0.31364041566848755
1696082906821842000,2.228842041015625,-0.7876923680305481,-9.687239646911621,-0.43335050344467163
1696082906831841800,2.238841796875,-0.7374141216278076,-9.682451248168945,-0.47405192255973816
1696082906841842000,2.248842041015625,-0.5961562395095825,-9.658509254455566,-0.4644751250743866
1696082906851841800,2.258841796875,-0.5027823448181152,-9.593865394592285,-0.4405331015586853
1696082906861842000,2.268842041015625,-0.5267243981361389,-9.502885818481445,-0.3519476354122162
1696082906871841800,2.278841796875,-0.6368576288223267,-9.522039413452148,-0.26096799969673157
1696082906881842000,2.288842041015625,-0.8331822156906128,-9.639355659484863,-0.14844051003456116
1696082906891841800,2.298841796875,-1.0965443849563599,-9.706393241882324,-0.06224924325942993
1696082906901842000,2.308842041015625,-1.3766659498214722,-9.581894874572754,-0.009576806798577309
1696082906911841800,2.318841796875,-1.434126853942871,-9.44303035736084,0.11013327538967133
1696082906921842000,2.328842041015625,-1.2401964664459229,-9.486125946044922,0.3208230137825012
1696082906931841800,2.338841796875,-0.9624691009521484,-9.792584419250488,0.5817909836769104
1696082906941842000,2.348842041015625,-0.7781155705451965,-10.144532203674316,0.7852981686592102
1696082906951841800,2.358841796875,-0.667982280254364,-10.297760963439941,0.8690952062606812
1696082906961842000,2.368842041015625,-0.6344634294509888,-10.05115795135498,0.8667010068893433
1696082906971841800,2.378841796875,-0.6416460275650024,-9.632172584533691,0.7924807667732239
1696082906981842000,2.388842041015625,-0.5746083855628967,-9.416694641113281,0.7445967197418213
1696082906991841800,2.398841796875,-0.47884035110473633,-9.483732223510742,0.5578489899635315
1696082907001842000,2.408842041015625,-0.42856210470199585,-9.613018989562988,0.31124621629714966
1696082907011841800,2.418841796875,-0.4836287498474121,-9.665691375732422,0.014365210197865963
1696082907021842000,2.428842041015625,-0.5195417404174805,-9.773430824279785,-0.33039984107017517
1696082907031841800,2.438841796875,-0.3447650372982025,-9.914688110351562,-0.6751648783683777
1696082907041841700,2.448841552734375,0.0454898327589035,-9.957783699035645,-0.8619126081466675
1696082907051841800,2.458841796875,0.33279404044151306,-9.917082786560059,-0.9481038451194763
1696082907061841700,2.468841552734375,0.43335050344467163,-9.87159252166748,-0.9313444495201111
1696082907071841800,2.478841796875,0.26336219906806946,-9.727940559387207,-0.5770025849342346
1696082907081841700,2.488841552734375,-0.17477671802043915,-9.692028045654297,-0.14365209639072418
1696082907091841800,2.498841796875,-0.7110779285430908,-9.756670951843262,0.2849099934101105
1696082907101841700,2.508841552734375,-1.1348515748977661,-9.862015724182129,0.6344634294509888
1696082907111841800,2.518841796875,-1.4724340438842773,-9.943418502807617,0.8690952062606812
1696082907121841700,2.528841552734375,-1.5418659448623657,-9.931447982788086,1.0199298858642578
1696082907131841800,2.538841796875,-1.3838485479354858,-9.850045204162598,1.1109095811843872
1696082907141841700,2.548841552734375,-1.1827356815338135,-9.811738014221191,1.2234370708465576
1696082907151841800,2.558841796875,-1.05105459690094,-9.771036148071289,1.3120225667953491
1696082907161841700,2.568841552734375,-0.933738648891449,-9.696816444396973,1.2425906658172607
1696082907171841800,2.578841796875,-0.9576807022094727,-9.557952880859375,1.0342950820922852
1696082907181841700,2.588841552734375,-1.0534487962722778,-9.490914344787598,0.7110779285430908
1696082907191841800,2.598841796875,-1.173158884048462,-9.526827812194824,0.38307225704193115
1696082907201841700,2.608841552734375,-1.3096283674240112,-9.603442192077637,0.10055647045373917
1696082907211841800,2.618841796875,-1.3862427473068237,-9.68005657196045,-0.181959331035614
1696082907221842000,2.628842041015625,-1.3431471586227417,-9.706393241882324,-0.38546648621559143
1696082907231841800,2.638841796875,-1.2282254695892334,-9.660902976989746,-0.5171475410461426
1696082907241842000,2.648842041015625,-1.0749965906143188,-9.62020206451416,-0.5602431893348694
1696082907251841800,2.658841796875,-0.9457096457481384,-9.648932456970215,-0.4620809257030487
1696082907261842000,2.668842041015625,-0.828393816947937,-9.881169319152832,-0.3423708379268646
1696082907271841800,2.678841796875,-0.7637503147125244,-10.134955406188965,-0.26096799969673157
1696082907281842000,2.688842041015625,-0.6823474764823914,-10.259453773498535,-0.22744916379451752
1696082907291841800,2.698841796875,-0.5482721924781799,-10.281001091003418,-0.2082955539226532
1696082907301842000,2.708842041015625,-0.35434186458587646,-10.257059097290039,-0.11971008777618408
1696082907311841800,2.718841796875,-0.21547815203666687,-10.218751907348633,-0.0071826050989329815
1696082907321842000,2.728842041015625,-0.16519992053508759,-10.154109001159668,0.06703764945268631
1696082907331841800,2.738841796875,-0.06703764945268631,-10.113407135009766,0.05267243832349777
1696082907341842000,2.748842041015625,0.08619125932455063,-10.07509994506836,-0.038307227194309235
1696082907351841800,2.758841796875,0.27054479718208313,-10.099041938781738,-0.11013327538967133
1696082907361842000,2.768842041015625,0.3926490843296051,-10.13974380493164,-0.2322375625371933
1696082907371841800,2.778841796875,0.5099649429321289,-10.144532203674316,-0.3208230137825012
1696082907381842000,2.788842041015625,0.6631938815116882,-10.23072338104248,-0.33039984107017517
1696082907391841800,2.798841796875,0.7110779285430908,-10.436624526977539,-0.1604115068912506
1696082907401842000,2.808842041015625,0.6655880808830261,-10.733505249023438,0.014365210197865963
1696082907411841800,2.818841796875,0.6488286852836609,-10.939406394958496,0.17477671802043915
1696082907421842000,2.828842041015625,0.8188169598579407,-10.944194793701172,0.3208230137825012
1696082907431841800,2.838841796875,1.1899182796478271,-10.577882766723633,0.4908113479614258
1696082907441842000,2.848842041015625,1.623268723487854,-10.19720458984375,0.7829039692878723
1696082907451841800,2.858841796875,1.8195933103561401,-10.103830337524414,1.2641384601593018
1696082907461842000,2.868842041015625,1.6041151285171509,-10.374375343322754,1.7860745191574097
1696082907471841800,2.878841796875,1.0797849893569946,-10.963348388671875,2.274491548538208
1696082907481842000,2.888842041015625,0.5099649429321289,-11.612177848815918,2.7461493015289307
1696082907491841800,2.898841796875,0.040701430290937424,-12.17720890045166,3.2106244564056396
1696082907501842000,2.908842041015625,-0.16519992053508759,-12.59380054473877,3.665522813796997
1696082907511841800,2.918841796875,-0.07900865375995636,-12.847585678100586,4.132391929626465
1696082907521841700,2.928841552734375,0.21787235140800476,-12.919411659240723,4.613626480102539
1696082907531841800,2.938841796875,0.7948749661445618,-12.806883811950684,4.884171485900879
1696082907541841700,2.948841552734375,1.8076223134994507,-12.541128158569336,4.630385875701904
1696082907551841800,2.958841796875,3.2178070545196533,-11.918635368347168,3.667917013168335
1696082907561841700,2.968841552734375,4.865017890930176,-11.13573169708252,2.425326347351074
1696082907571841800,2.978841796875,6.122272968292236,-10.44859504699707,1.173158884048462
1696082907581842000,2.988842041015625,6.383241176605225,-9.976937294006348,-0.14365209639072418
1696082907591841800,2.998841796875,5.387253284454346,-10.213963508605957,-1.2234370708465576
1696082907601842000,3.008842041015625,3.6128504276275635,-11.245864868164062,-1.9728221893310547
1696082907611842300,3.01884228515625,1.5442601442337036,-12.126931190490723,-2.913743495941162
1696082907621842400,3.028842529296875,-0.023942016065120697,-12.737452507019043,-3.801992416381836
1696082907631842300,3.03884228515625,-1.4700398445129395,-13.11573600769043,-4.062960147857666
1696082907641842400,3.048842529296875,-2.516305923461914,-13.56584644317627,-4.091690540313721
1696082907651842300,3.05884228515625,-3.294421434402466,-13.75977611541748,-3.88818359375
1696082907661842400,3.068842529296875,-3.8570590019226074,-13.647249221801758,-3.576937437057495
1696082907671842300,3.07884228515625,-4.05817174911499,-13.352762222290039,-2.832340717315674
1696082907681842400,3.088842529296875,-3.576937437057495,-12.830825805664062,-1.9967641830444336
1696082907691842300,3.09884228515625,-2.492363929748535,-12.23466968536377,-0.8667010068893433
1696082907701842400,3.108842529296875,-1.4197616577148438,-11.949759483337402,0.45250412821769714
1696082907711842300,3.11884228515625,0.1149216815829277,-11.739069938659668,1.6735470294952393
1696082907721842400,3.128842529296875,1.316810965538025,-11.427824020385742,2.403778553009033
1696082907731842300,3.13884228515625,1.9943699836730957,-11.032780647277832,2.6240451335906982
1696082907741842400,3.148842529296875,1.9752163887023926,-10.563517570495605,2.3343467712402344
1696082907751842300,3.15884228515625,1.5083470344543457,-10.271424293518066,1.8291701078414917
1696082907761842400,3.168842529296875,0.6847416758537292,-9.80455493927002,0.993593692779541
1696082907771842300,3.17884228515625,0.2298433631658554,-9.38556957244873,-0.07422025501728058
1696082907781842400,3.188842529296875,0.09816227108240128,-8.966584205627441,-1.237802267074585
1696082907791842300,3.19884228515625,-0.18914192914962769,-8.487744331359863,-1.9632453918457031
1696082907801842400,3.208842529296875,-0.5817909836769104,-7.915530204772949,-2.1763293743133545
1696082907811842300,3.21884228515625,-0.8667010068893433,-7.448660850524902,-2.2577321529388428
1696082907821842400,3.228842529296875,-0.667982280254364,-7.0248870849609375,-2.4636335372924805
1696082907831842600,3.238842529296875,-0.4381389021873474,-6.708852291107178,-2.5761611461639404
1696082907841842400,3.248842529296875,-0.24181437492370605,-6.529287338256836,-2.540247917175293
1696082907851842600,3.258842529296875,-0.29209262132644653,-6.526893138885498,-2.403778553009033
1696082907861842400,3.268842529296875,-0.4381389021873474,-6.6489973068237305,-2.126051187515259
1696082907871842300,3.27884228515625,-0.5626373887062073,-6.761524677276611,-1.6328455209732056
1696082907881842400,3.288842529296875,-0.47405192255973816,-6.862081527709961,-0.9409212470054626
1696082907891842300,3.29884228515625,-0.3495534360408783,-6.84053373336792,-0.4429273009300232
1696082907901842400,3.308842529296875,-0.28730419278144836,-6.732794284820557,-0.2537853717803955
1696082907911841800,3.318841796875,-0.4141969084739685,-6.572382926940918,-0.3711012601852417
1696082907921842000,3.328842041015625,-0.6871358752250671,-6.447884559631348,-0.6105214357376099
1696082907931841800,3.338841796875,-0.9050082564353943,-6.232406139373779,-1.113303780555725
1696082907941842000,3.348842041015625,-0.993593692779541,-5.851728439331055,-1.625662922859192
1696082907951841800,3.358841796875,-0.849941611289978,-5.480627059936523,-1.9081788063049316
1696082907961842000,3.368842041015625,-0.47644615173339844,-5.183745861053467,-1.9081788063049316
1696082907971841800,3.378841796875,0.10773907601833344,-4.884171485900879,-1.8315643072128296
1696082907981842000,3.388842041015625,0.9888052940368652,-4.697423934936523,-1.678335428237915
1696082907991841800,3.398841796875,2.0590133666992188,-4.7189717292785645,-1.1252747774124146
1696082908001842000,3.408842041015625,3.203441858291626,-5.076006889343262,0.2992752194404602
1696082908011841800,3.418841796875,4.4532151222229,-5.801449775695801,2.5306711196899414
1696082908021842000,3.428842041015625,5.909189224243164,-6.835745334625244,4.788403511047363
1696082908031841800,3.438841796875,8.233959197998047,-8.154950141906738,6.8501105308532715
1696082908041841700,3.448841552734375,9.905111312866211,-9.771036148071289,8.68167495727539
1696082908051841800,3.458841796875,10.249876976013184,-11.363180160522461,9.311349868774414
1696082908061841700,3.468841552734375,10.599430084228516,-13.072640419006348,9.706393241882324
1696082908071841800,3.478841796875,11.62175464630127,-15.167866706848145,9.771036148071289
1696082908081841700,3.488841552734375,11.700762748718262,-17.147871017456055,8.801384925842285
1696082908091841800,3.498841796875,10.575488090515137,-17.90204429626465,6.598719120025635
1696082908101841700,3.508841552734375,8.473379135131836,-16.424821853637695,3.488351821899414
1696082908111841800,3.518841796875,6.653785705566406,-13.869909286499023,1.3862427473068237
1696082908121841700,3.528841552734375,5.238812446594238,-11.609783172607422,-0.26815059781074524
1696082908131841800,3.538841796875,3.9264907836914062,-11.22671127319336,-1.9512743949890137
1696082908141841700,3.548841552734375,3.7014358043670654,-11.468525886535645,-3.756502389907837
1696082908151841800,3.558841796875,4.824316501617432,-11.559505462646484,-5.617096424102783
1696082908161841700,3.568841552734375,5.408801078796387,-11.437400817871094,-6.869264125823975
1696082908171841800,3.578841796875,5.38246488571167,-10.913070678710938,-6.7351884841918945
1696082908181841700,3.588841552734375,4.302380561828613,-10.53478717803955,-5.0592474937438965
1696082908191841800,3.598841796875,1.9369091987609863,-9.89553451538086,-3.469198226928711
1696082908201841700,3.608841552734375,-3.3207578659057617,-7.889194011688232,-2.96162748336792
1696082908211842300,3.61884228515625,-7.592312812805176,-5.770325183868408,-1.8148049116134644
1696082908221842200,3.62884228515625,-8.7391357421875,-5.135861873626709,-0.569819986820221
1696082908231842300,3.63884228515625,-7.690474987030029,-6.026504993438721,-0.14365209639072418
1696082908241842200,3.64884228515625,-6.481403350830078,-7.779060363769531,-0.646434485912323
1696082908251842300,3.65884228515625,-6.12945556640625,-9.466972351074219,-1.2186486721038818
1696082908261842200,3.66884228515625,-6.143820762634277,-10.68562126159668,-1.8483237028121948
1696082908271842300,3.67884228515625,-6.313809394836426,-11.50922679901123,-2.255337953567505
1696082908281842200,3.68884228515625,-6.014533996582031,-12.311284065246582,-2.1380221843719482
1696082908291842300,3.69884228515625,-4.742913722991943,-12.823643684387207,-1.525106430053711
1696082908301842200,3.70884228515625,-2.387019157409668,-13.012785911560059,-0.7038952708244324
1696082908311842300,3.71884228515625,0.10055647045373917,-12.553098678588867,0.24181437492370605
1696082908321842200,3.72884228515625,2.049436569213867,-11.59781265258789,1.1492167711257935
1696082908331842300,3.73884228515625,2.985569477081299,-10.403105735778809,1.6950948238372803
1696082908341842200,3.74884228515625,3.268085241317749,-9.359233856201172,1.8411411046981812
1696082908351842300,3.75884228515625,3.071760892868042,-8.729558944702148,1.7836803197860718
1696082908361842200,3.76884228515625,2.5019407272338867,-8.566753387451172,1.5107412338256836
1696082908371842300,3.77884228515625,1.53707754611969,-8.607454299926758,0.9840168952941895
1696082908381842200,3.78884228515625,0.6416460275650024,-8.657732963562012,0.2825157940387726
1696082908391842300,3.79884228515625,-0.13407529890537262,-8.703222274780273,-0.10295066982507706
1696082908401842200,3.80884228515625,-0.5889736413955688,-8.691251754760742,-0.06703764945268631
1696082908411842300,3.81884228515625,-0.9097966551780701,-8.731952667236328,0.27054479718208313
1696082908421842200,3.82884228515625,-1.0031704902648926,-8.763077735900879,0.3495534360408783
1696082908431842300,3.83884228515625,-0.790086567401886,-8.844480514526367,0.35673606395721436
1696082908441842200,3.84884228515625,-0.4357447028160095,-8.798990249633789,0.15801730751991272
1696082908451842300,3.85884228515625,-0.43335050344467163,-8.791808128356934,0
1696082908461842200,3.86884228515625,-0.8738836050033569,-8.98813247680664,-0.05985504388809204
1696082908471842300,3.87884228515625,-0.9600749015808105,-9.10305404663086,0.15083470940589905
1696082908481842200,3.88884228515625,-0.828393816947937,-9.088688850402832,0.31124621629714966
1696082908491842300,3.89884228515625,-0.0694318488240242,-9.725546836853027,0.6751648783683777
1696082908501842200,3.90884228515625,0.9672574996948242,-10.688015937805176,1.3024457693099976
1696082908511841800,3.918841796875,2.185906171798706,-11.322479248046875,1.6639702320098877
1696082908521841700,3.928841552734375,3.3231520652770996,-11.018415451049805,1.4484920501708984
1696082908531841800,3.938841796875,3.3303346633911133,-10.010457038879395,1.460463047027588
1696082908541841700,3.948841552734375,2.049436569213867,-9.04319953918457,1.6065093278884888
1696082908551841800,3.958841796875,0.06464344263076782,-8.37761116027832,1.113303780555725
1696082908561841700,3.968841552734375,-1.7118542194366455,-8.183680534362793,0.043095629662275314
1696082908571841800,3.978841796875,-2.5091233253479004,-8.538022994995117,-1.036689281463623
1696082908581842000,3.988842041015625,-2.0183119773864746,-9.325715065002441,-1.7980455160140991
1696082908591841800,3.998841796875,-0.8379706144332886,-10.223540306091309,-2.2912509441375732
1696082908601842000,4.008842041015625,0.6224924325942993,-11.207557678222656,-2.406172752380371
1696082908611841800,4.018841796875,2.1499931812286377,-11.911452293395996,-1.9919757843017578
1696082908621842000,4.028842041015625,3.5649664402008057,-12.239458084106445,-1.0893617868423462
1696082908631841800,4.038841796875,4.4939165115356445,-12.102989196777344,0.047884032130241394
1696082908641842000,4.048842041015625,4.417302131652832,-11.71273422241211,1.1516109704971313
1696082908651841800,4.058841796875,3.40216064453125,-11.310507774353027,1.922544002532959
1696082908661842000,4.068842041015625,2.2002713680267334,-11.109395027160645,2.360682964324951
1696082908671841800,4.078841796875,1.5418659448623657,-11.162067413330078,2.734178304672241
1696082908681841700,4.088841552734375,1.3263877630233765,-11.576264381408691,3.112462282180786
1696082908691841800,4.098841796875,1.256955862045288,-12.256217956542969,3.5410242080688477
1696082908701841700,4.108841552734375,1.0965443849563599,-12.701539039611816,3.892971992492676
1696082908711841800,4.118841796875,0.8906430602073669,-12.833220481872559,4.292803764343262
1696082908721841700,4.128841552734375,0.7924807667732239,-12.972084045410156,4.793191909790039
1696082908731841800,4.138841796875,0.8690952062606812,-13.245022773742676,5.425560474395752
1696082908741842000,4.148842041015625,1.3718775510787964,-13.429376602172852,5.789478778839111
1696082908751841800,4.158841796875,2.456450939178467,-13.426982879638672,5.681739807128906
1696082908761841700,4.168841552734375,3.711012601852417,-13.333608627319336,5.02094030380249
1696082908771841800,4.178841796875,4.752490520477295,-13.20432186126709,4.309563159942627
1696082908781842000,4.188842041015625,4.462791919708252,-13.292906761169434,3.8953661918640137
1696082908791841800,4.198841796875,3.1076738834381104,-13.060669898986816,2.853888511657715
1696082908801842000,4.208842041015625,2.6192567348480225,-12.581829071044922,0.9241618514060974
1696082908811841800,4.218841796875,2.434903144836426,-12.462119102478027,-0.9145850539207458
1696082908821842000,4.228842041015625,0.9648633003234863,-12.99123764038086,-2.4468741416931152
1696082908831841800,4.238841796875,0.10295066982507706,-13.977648735046387,-4.23773717880249
1696082908841842000,4.248842041015625,-0.4118026793003082,-15.29715347290039,-5.569212436676025
1696082908851841800,4.258841796875,-1.6065093278884888,-16.25722885131836,-5.930737018585205
1696082908861842000,4.268842041015625,-4.015076160430908,-16.558897018432617,-6.3425397872924805
1696082908871841800,4.278841796875,-5.46147346496582,-15.93161678314209,-6.52449893951416
1696082908881841700,4.288841552734375,-5.849334239959717,-14.815918922424316,-6.282684326171875
1696082908891841800,4.298841796875,-5.241206645965576,-13.628095626831055,-4.939537525177002
1696082908901841700,4.308841552734375,-1.6855180263519287,-12.409446716308594,-3.7469255924224854
1696082908911841800,4.318841796875,1.647210717201233,-11.514015197753906,-1.7525556087493896
1696082908921841700,4.328841552734375,4.151545524597168,-10.666467666625977,0.5626373887062073
1696082908931841800,4.338841796875,4.402936935424805,-10.151714324951172,1.1635819673538208
1696082908941841700,4.348841552734375,2.3319525718688965,-9.687239646911621,1.3072341680526733
1696082908951841800,4.358841796875,0.38307225704193115,-9.143755912780762,0.8475474119186401
1696082908961841700,4.368841552734375,-0.5147533416748047,-8.46859073638916,0.05267243832349777
1696082908971841800,4.378841796875,-1.2234370708465576,-7.8221564292907715,-0.6919242739677429
1696082908981841700,4.388841552734375,-1.7932571172714233,-7.1350202560424805,-1.0606313943862915
1696082908991841800,4.398841796875,-2.233790159225464,-6.605901718139648,-1.0414776802062988
1696082909001841700,4.408841552734375,-1.7118542194366455,-6.426336765289307,-1.237802267074585
1696082909011841800,4.418841796875,-0.9888052940368652,-6.371270179748535,-1.702277421951294
1696082909021841700,4.428841552734375,-0.9097966551780701,-6.43351936340332,-2.0661959648132324
1696082909031841800,4.438841796875,-1.2521674633026123,-6.541258335113525,-2.3343467712402344
1696082909041841700,4.448841552734375,-1.3335703611373901,-6.665756702423096,-2.410961151123047
1696082909051841800,4.458841796875,-1.2114660739898682,-6.7806782722473145,-2.274491548538208
1696082909061841700,4.468841552734375,-1.1827356815338135,-6.811803340911865,-2.0183119773864746
1696082909071841800,4.478841796875,-1.2210428714752197,-6.759130477905273,-1.7573440074920654
1696082909081841700,4.488841552734375,-1.1540051698684692,-6.728005886077881,-1.53707754611969
1696082909091841800,4.498841796875,-1.1563993692398071,-6.584353923797607,-1.5466543436050415
1696082909101841700,4.508841552734375,-1.2114660739898682,-6.275501728057861,-1.9249382019042969
1696082909111841800,4.518841796875,-1.2976573705673218,-5.866093635559082,-2.4636335372924805
1696082909121841700,4.528841552734375,-1.3934253454208374,-5.289090633392334,-2.9328970909118652
1696082909131841800,4.538841796875,-1.5179238319396973,-4.661510944366455,-3.318363666534424
1696082909141841700,4.548841552734375,-1.5442601442337036,-4.0964789390563965,-3.4787750244140625
1696082909151841800,4.558841796875,-1.2689268589019775,-3.5625722408294678,-3.4141316413879395
1696082909161841700,4.568841552734375,-0.7613561153411865,-3.1651346683502197,-3.2585084438323975
1696082909171841800,4.578841796875,-0.1149216815829277,-3.1459810733795166,-2.868253707885742
1696082909181841700,4.588841552734375,0.4141969084739685,-3.821146011352539,-1.1228805780410767
1696082909191841800,4.598841796875,1.2114660739898682,-5.011363506317139,1.7597382068634033
1696082909201841700,4.608841552734375,4.824316501617432,-6.924330711364746,4.817133903503418
1696082909211841800,4.618841796875,10.666467666625977,-10.010457038879395,8.511686325073242
1696082909221841700,4.628841552734375,12.993632316589355,-13.620912551879883,11.008838653564453
1696082909231841800,4.638841796875,13.374309539794922,-16.81028938293457,10.692804336547852
1696082909241841700,4.648841552734375,14.42297077178955,-19.61629295349121,9.26107120513916
1696082909251841800,4.658841796875,16.2644100189209,-22.027254104614258,8.734347343444824
1696082909261841700,4.668841552734375,12.806883811950684,-22.199636459350586,7.604283809661865
1696082909271841800,4.678841796875,7.494150638580322,-19.475034713745117,4.422090530395508
1696082909281841700,4.688841552734375,4.702212333679199,-14.442124366760254,0.9959878921508789
1696082909291841800,4.698841796875,3.8498764038085938,-9.285013198852539,-0.8834604024887085
1696082909301841700,4.708841552734375,3.3877954483032227,-5.147832870483398,-1.235408067703247
1696082909311841800,4.718841796875,3.359065055847168,-2.008735179901123,-1.1803414821624756
1696082909321841700,4.728841552734375,5.0376996994018555,-0.7757213711738586,-1.6639702320098877
1696082909331841800,4.738841796875,4.551377296447754,-3.5194764137268066,-2.497152328491211
1696082909341842000,4.748842041015625,1.3407529592514038,-7.925107002258301,-2.516305923461914
1696082909351841800,4.758841796875,-2.762908697128296,-11.435006141662598,-2.403778553009033
1696082909361842000,4.768842041015625,-6.028899192810059,-13.144466400146484,-1.577778935432434
1696082909371841800,4.778841796875,-6.749553680419922,-13.685556411743164,0.586579442024231
1696082909381842000,4.788842041015625,-4.072536945343018,-13.762170791625977,2.2840683460235596
1696082909391841800,4.798841796875,2.31758713722229,-14.715362548828125,2.935291290283203
1696082909401842000,4.808842041015625,8.552388191223145,-16.08245086669922,3.1220390796661377
1696082909411841800,4.818841796875,7.743147373199463,-14.81113052368164,0.9888052940368652
1696082909421842000,4.828842041015625,1.6950948238372803,-12.01919174194336,-1.7381904125213623
1696082909431841800,4.838841796875,-3.134010076522827,-9.07911205291748,-4.07014274597168
1696082909441841700,4.848841552734375,-5.2986674308776855,-6.900388717651367,-5.485415458679199
1696082909451841800,4.858841796875,-5.825392246246338,-6.361693382263184,-6.483797550201416
1696082909461841700,4.868841552734375,-5.578789234161377,-7.084742069244385,-6.335357189178467
1696082909471841800,4.878841796875,-5.844545841217041,-8.152556419372559,-4.9275665283203125
1696082909481841700,4.888841552734375,-5.583577632904053,-9.256282806396484,-3.2537200450897217
1696082909491841800,4.898841796875,-5.930737018585205,-10.132560729980469,-2.3582887649536133
1696082909501841700,4.908841552734375,-6.203675746917725,-10.491691589355469,-1.5873557329177856
1696082909511841800,4.918841796875,-5.72244119644165,-10.395922660827637,-1.1755530834197998
1696082909521841700,4.928841552734375,-4.819528102874756,-10.151714324951172,-0.8643068075180054
1696082909531842000,4.938842041015625,-3.050212860107422,-10.043975830078125,-0.2106897532939911
1696082909541842200,4.94884228515625,0.004788403399288654,-10.211569786071777,0.8786720037460327
1696082909551842000,4.958842041015625,3.4955344200134277,-10.328885078430176,2.1811177730560303
1696082909561842200,4.96884228515625,6.3640875816345215,-10.070311546325684,3.0765492916107178
1696082909571842000,4.978842041015625,7.54203462600708,-9.40711784362793,3.138798475265503
1696082909581842200,4.98884228515625,6.704063892364502,-8.664915084838867,2.3582887649536133
1696082909591842300,4.99884228515625,4.666299343109131,-8.109460830688477,1.2401964664459229
1696082909601842200,5.00884228515625,2.367865562438965,-7.8221564292907715,0.45489832758903503
1696082909611842300,5.01884228515625,0.07900865375995636,-7.925107002258301,-0.23942017555236816
1696082909621842200,5.02884228515625,-2.1547815799713135,-8.28663158416748,-0.6871358752250671
1696082909631842000,5.038842041015625,-3.584120035171509,-8.688857078552246,-0.790086567401886
1696082909641842200,5.04884228515625,-3.883395195007324,-9.019257545471191,-0.9576807022094727
1696082909651842000,5.058842041015625,-3.7445313930511475,-9.323320388793945,-0.8427590131759644
1696082909661842200,5.06884228515625,-3.270479440689087,-9.969755172729492,-0.1149216815829277
1696082909671842000,5.078842041015625,-2.5258827209472656,-10.541969299316406,0.7182605266571045
1696082909681842200,5.08884228515625,-0.8427590131759644,-10.848426818847656,1.0055646896362305
1696082909691842000,5.098842041015625,1.7693150043487549,-10.96813678741455,1.280897855758667
1696082909701842200,5.10884228515625,3.5865142345428467,-10.805331230163574,1.800439715385437
1696082909711842000,5.118842041015625,4.1874589920043945,-10.352827072143555,2.3487119674682617
1696082909721842200,5.12884228515625,3.6942532062530518,-9.823708534240723,2.382230758666992
1696082909731842000,5.138842041015625,2.3535003662109375,-9.481337547302246,1.6328455209732056
1696082909741842200,5.14884228515625,0.5267243981361389,-9.52922248840332,0.10773907601833344
1696082909751842000,5.158842041015625,-0.8259995579719543,-9.96257209777832,-1.4700398445129395
1696082909761842200,5.16884228515625,-1.1635819673538208,-10.637737274169922,-2.676717519760132
1696082909771842300,5.17884228515625,-0.33039984107017517,-11.300930976867676,-3.136404275894165
1696082909781842200,5.18884228515625,1.1994950771331787,-11.547533988952637,-3.069366693496704
1696082909791842300,5.19884228515625,2.8179752826690674,-11.341632843017578,-2.473210334777832
1696082909801842200,5.20884228515625,3.9863457679748535,-11.032780647277832,-1.3742717504501343
1696082909811842300,5.21884228515625,4.194641590118408,-10.77660083770752,0
1696082909821842200,5.22884228515625,3.383007049560547,-10.673650741577148,1.2856862545013428
1696082909831841800,5.238841796875,2.0015525817871094,-10.544363975524902,2.1787235736846924
1696082909841842000,5.248842041015625,0.730231523513794,-10.388740539550781,2.7485435009002686
1696082909851841800,5.258841796875,-0.019153613597154617,-10.328885078430176,3.2417490482330322
1696082909861842000,5.268842041015625,-0.2801215946674347,-10.589853286743164,3.7181951999664307
1696082909871841800,5.278841796875,-0.37828385829925537,-11.049540519714355,4.381389141082764
1696082909881841700,5.288841552734375,-0.45250412821769714,-11.446977615356445,5.119102478027344
1696082909891841800,5.298841796875,-0.1388636976480484,-11.456554412841797,5.59794282913208
1696082909901841700,5.308841552734375,0.9552865028381348,-11.200374603271484,5.578789234161377
1696082909911841800,5.318841796875,2.518700122833252,-11.08066463470459,5.087977886199951
1696082909921841700,5.328841552734375,3.794809579849243,-11.360786437988281,4.345476150512695
1696082909931841800,5.338841796875,3.8738183975219727,-11.87075138092041,3.6750996112823486
1696082909941842000,5.348842041015625,3.3662476539611816,-12.146084785461426,3.1866824626922607
1696082909951841800,5.358841796875,3.315969467163086,-12.079047203063965,2.6886885166168213
1696082909961842000,5.368842041015625,3.8379054069519043,-11.664850234985352,1.8531121015548706
1696082909971841800,5.378841796875,5.083189487457275,-11.399093627929688,0.8259995579719543
1696082909981842000,5.388842041015625,5.109525680541992,-11.3176908493042,0.22026655077934265
1696082909991841800,5.398841796875,3.375824451446533,-12.071864128112793,0.3495534360408783
1696082910001842000,5.408842041015625,-0.06224924325942993,-13.144466400146484,0.8451532125473022
1696082910011841800,5.418841796875,-1.6735470294952393,-14.36072063446045,0.23942017555236816
1696082910021842000,5.428842041015625,-1.8579005002975464,-15.572486877441406,-0.6727706789970398
1696082910031841800,5.438841796875,-2.1068975925445557,-17.05689239501953,-2.762908697128296
1696082910041841700,5.448841552734375,-2.7533318996429443,-18.33778953552246,-4.6734819412231445
1696082910051841800,5.458841796875,-3.974374771118164,-19.393632888793945,-6.601113319396973
1696082910061842000,5.468842041015625,-4.901230335235596,-19.582775115966797,-6.97700309753418
1696082910071841800,5.478841796875,-5.664980411529541,-18.783111572265625,-6.172551155090332
1696082910081842000,5.488842041015625,-5.5021748542785645,-16.63551139831543,-5.02094030380249
1696082910091841800,5.498841796875,-2.0829553604125977,-14.427759170532227,-4.022258758544922
1696082910101842000,5.508842041015625,2.0685901641845703,-12.708722114562988,-2.075772762298584
1696082910111841800,5.518841796875,4.795586109161377,-11.32966136932373,-0.21787235140800476
1696082910121842000,5.528842041015625,4.084507942199707,-10.319308280944824,0.7350199222564697
1696082910131841800,5.538841796875,2.2457611560821533,-9.433453559875488,0.5770025849342346
1696082910141842000,5.548842041015625,0.49320554733276367,-8.576330184936523,-0.002394201699644327
1696082910151841800,5.558841796875,-0.8403648138046265,-7.860463619232178,-0.2346317619085312
1696082910161841000,5.5688408203125,-1.4173674583435059,-7.194875240325928,0.1628057211637497
1696082910171841000,5.578841064453125,-1.4269442558288574,-6.591536521911621,0.5722141861915588
1696082910181841000,5.5888408203125,-1.1540051698684692,-5.925948619842529,0.5578489899635315
1696082910191841000,5.598841064453125,-0.9552865028381348,-5.633855819702148,0.18914192914962769
1696082910201841000,5.6088408203125,-0.9361328482627869,-5.607519626617432,-0.38546648621559143
1696082910211841000,5.618841064453125,-1.0271124839782715,-5.732017993927002,-1.0414776802062988
1696082910221841000,5.6288408203125,-1.1300631761550903,-5.897218227386475,-1.601720929145813
1696082910231841000,5.638841064453125,-1.3623007535934448,-6.112696170806885,-1.9776105880737305
1696082910241841000,5.6488408203125,-1.7477672100067139,-6.22043514251709,-2.1140801906585693
1696082910251841000,5.658841064453125,-1.8794482946395874,-6.273107528686523,-1.9752163887023926
1696082910261841000,5.6688408203125,-1.9057846069335938,-6.277895927429199,-1.9823989868164062
1696082910271841000,5.678841064453125,-1.8818424940109253,-6.191704750061035,-2.276885747909546
1696082910281840600,5.688840576171875,-1.9033904075622559,-5.892429828643799,-2.9017724990844727
1696082910291840800,5.6988408203125,-1.8411411046981812,-5.447108268737793,-3.507505416870117
1696082910301840600,5.708840576171875,-1.6280571222305298,-4.920383930206299,-4.034229755401611
1696082910311840800,5.7188408203125,-1.314416766166687,-4.3191399574279785,-4.299986362457275
1696082910321840600,5.728840576171875,-0.8355764150619507,-3.708618402481079,-4.371812343597412
1696082910331840800,5.7388408203125,-0.24660277366638184,-3.2106244564056396,-4.357447147369385
1696082910341840600,5.748840576171875,0.304063618183136,-2.9951462745666504,-4.072536945343018
1696082910351840800,5.7588408203125,0.7398083209991455,-3.3423056602478027,-3.050212860107422
1696082910361840600,5.768840576171875,1.2401964664459229,-4.094084739685059,-0.7852981686592102
1696082910371840800,5.7788408203125,2.691082715988159,-4.97545051574707,2.190694570541382
1696082910381840600,5.788840576171875,6.397606372833252,-6.69448709487915,5.162198066711426
1696082910391840800,5.7988408203125,10.635343551635742,-9.431059837341309,8.07115364074707
1696082910401840600,5.808840576171875,10.261847496032715,-12.074258804321289,11.176432609558105
1696082910411840800,5.8188408203125,8.700828552246094,-14.197915077209473,11.178827285766602
1696082910421840600,5.828840576171875,9.89314079284668,-15.814300537109375,9.483732223510742
1696082910431840500,5.838840576171875,11.291354179382324,-17.291522979736328,7.683292388916016
1696082910441840600,5.848840576171875,10.8412446975708,-18.313846588134766,6.007351398468018
1696082910451840500,5.858840576171875,9.22515869140625,-17.89965057373047,4.575319290161133
1696082910461841400,5.86884130859375,7.49654483795166,-15.273211479187012,2.499546527862549
1696082910471841500,5.878841552734375,6.1845221519470215,-11.882721900939941,1.161187767982483
1696082910481841400,5.88884130859375,5.303455829620361,-8.643367767333984,0.4596867263317108
1696082910491841500,5.898841552734375,5.052064895629883,-7.352892875671387,-0.47644615173339844
1696082910501562000,5.90856201171875,3.8738183975219727,-9.273042678833008,-1.1779472827911377
1696082910511562000,5.91856201171875,2.806004285812378,-11.700762748718262,-1.213860273361206
1696082910521561900,5.928561767578125,1.0127472877502441,-13.228263854980469,-0.5051765441894531
1696082910531562000,5.93856201171875,-2.27209734916687,-13.903428077697754,1.4460978507995605
1696082910541561900,5.948561767578125,-2.205059766769409,-13.529932975769043,3.4835634231567383
1696082910551562000,5.95856201171875,1.8507179021835327,-12.184391975402832,3.773261785507202
1696082910561561900,5.968561767578125,3.315969467163086,-10.419864654541016,2.410961151123047
1696082910571562000,5.97856201171875,1.158793568611145,-8.700828552246094,-0.11971008777618408
1696082910581562400,5.988562255859375,-2.4468741416931152,-7.333739280700684,-1.8794482946395874
1696082910591562200,5.998562255859375,-4.651933670043945,-7.187692642211914,-3.117250680923462
1696082910601562400,6.008562255859375,-5.59794282913208,-8.075942039489746,-4.321534156799316
1696082910611562200,6.018562255859375,-6.136638164520264,-9.342473983764648,-5.56442403793335
1696082910621562400,6.028562255859375,-6.107907772064209,-10.261847496032715,-6.335357189178467
1696082910631562200,6.038562255859375,-5.751171588897705,-10.755053520202637,-5.935525417327881
1696082910641562400,6.048562255859375,-5.286696434020996,-10.963348388671875,-5.2986674308776855
1696082910651562200,6.058562255859375,-4.211400985717773,-10.862792015075684,-4.553771495819092
1696082910661562400,6.068562255859375,-2.8203697204589844,-10.668862342834473,-3.3494882583618164
1696082910671562200,6.078562255859375,-1.3670891523361206,-10.328885078430176,-1.941697597503662
1696082910681562400,6.088562255859375,-0.05267243832349777,-9.933841705322266,-0.7805097699165344
1696082910691562200,6.098562255859375,0.9672574996948242,-9.706393241882324,-0.026336219161748886
1696082910701562400,6.108562255859375,1.522712230682373,-9.5531644821167,0.6009446382522583
1696082910711562200,6.118562255859375,1.6711528301239014,-9.445425033569336,1.0319008827209473
1696082910721562400,6.128562255859375,1.45806884765625,-9.361627578735352,1.3000515699386597
1696082910731562200,6.138562255859375,1.1037269830703735,-9.344868659973145,1.534683346748352
1696082910741562400,6.148562255859375,0.8906430602073669,-9.354445457458496,1.7142484188079834
1696082910751562200,6.158562255859375,0.8667010068893433,-9.26107120513916,1.723825216293335
1696082910761562400,6.168562255859375,0.8427590131759644,-9.055170059204102,1.659181833267212
1696082910771562500,6.1785625,0.7374141216278076,-8.700828552246094,1.436521053314209
1696082910781562400,6.188562255859375,0.43335050344467163,-8.461407661437988,1.1085153818130493
1696082910791562500,6.1985625,0.05027823522686958,-8.315361976623535,0.8068459630012512
1696082910801562400,6.208562255859375,-0.6943184733390808,-8.277054786682129,0.31124621629714966
1696082910811562500,6.2185625,-1.381454348564148,-8.277054786682129,-0.5027823448181152
1696082910821562400,6.228562255859375,-1.6927006244659424,-8.490138053894043,-0.7422025203704834
1696082910831562500,6.2385625,-1.6735470294952393,-8.571541786193848,-0.48602294921875
1696082910841562400,6.248562255859375,-1.4963760375976562,-8.983344078063965,0.08619125932455063
1696082910851562500,6.2585625,-0.8547300100326538,-9.62020206451416,0.36152446269989014
1696082910861562400,6.268562255859375,0.9576807022094727,-10.304943084716797,0.16759411990642548
1696082910871562500,6.2785625,2.7533318996429443,-10.853215217590332,0.3495534360408783
1696082910881562400,6.288562255859375,3.4524388313293457,-10.83166790008545,0.912190854549408
1696082910891562200,6.298562255859375,2.9759926795959473,-10.16368579864502,1.290474772453308
1696082910901562400,6.308562255859375,1.5275006294250488,-9.361627578735352,1.647210717201233
1696082910911562200,6.318562255859375,-0.038307227194309235,-8.928277015686035,1.6639702320098877
1696082910921562400,6.328562255859375,-0.9002198576927185,-9.17009162902832,1.0319008827209473
1696082910931562200,6.338562255859375,-0.6727706789970398,-10.036792755126953,-0.014365210197865963
1696082910941562400,6.348562255859375,0.5817909836769104,-10.790966033935547,-1.1180921792984009
1696082910951562200,6.358562255859375,2.2649147510528564,-11.250653266906738,-1.867477297782898
1696082910961562400,6.368562255859375,3.531447410583496,-11.552322387695312,-1.8507179021835327
1696082910971562200,6.378562255859375,3.804386615753174,-11.703157424926758,-1.161187767982483
1696082910981562400,6.388562255859375,2.9688100814819336,-11.547533988952637,-0.15322890877723694
1696082910991562200,6.398562255859375,1.6879122257232666,-11.121366500854492,0.8475474119186401
1696082911001562400,6.408562255859375,0.6344634294509888,-10.68562126159668,1.558625340461731
1696082911011562200,6.418562255859375,0.002394201699644327,-10.527604103088379,2.121262788772583
1696082911021562400,6.428562255859375,-0.40462008118629456,-10.757447242736816,3.0166940689086914
1696082911031562200,6.438562255859375,-0.8930372595787048,-11.248258590698242,4.0964789390563965
1696082911041562400,6.448562255859375,-1.137245774269104,-11.628936767578125,5.135861873626709
1696082911051562200,6.458562255859375,-0.5841852426528931,-11.6337251663208,5.9642558097839355
1696082911061562400,6.468562255859375,1.1085153818130493,-11.26023006439209,6.366481781005859
1696082911071562200,6.478562255859375,3.2752678394317627,-10.9585599899292,5.933131217956543
1696082911081562400,6.488562255859375,4.8722004890441895,-11.300930976867676,5.061641693115234
1696082911091562200,6.498562255859375,5.401618480682373,-12.241852760314941,4.07014274597168
1696082911101562400,6.508562255859375,5.162198066711426,-13.163619995117188,2.937685489654541
1696082911111562200,6.518562255859375,4.888959884643555,-13.790901184082031,1.8483237028121948
1696082911121562400,6.528562255859375,5.064035892486572,-13.630489349365234,0.6392518281936646
1696082911131562200,6.538562255859375,5.109525680541992,-13.20432186126709,-0.3471592366695404
1696082911141562400,6.548562255859375,2.920926094055176,-13.110947608947754,-0.36152446269989014
1696082911151562200,6.558562255859375,-0.035913024097681046,-13.709498405456543,0.4692635238170624
1696082911161562400,6.568562255859375,-1.659181833267212,-14.657602310180664,0.545877993106842
1696082911171562200,6.578562255859375,-0.8427590131759644,-15.720927238464355,-0.5722141861915588
1696082911181562400,6.588562255859375,-0.5099649429321289,-17.032949447631836,-2.1763293743133545
1696082911191562200,6.598562255859375,-1.5275006294250488,-18.244415283203125,-3.9815573692321777
1696082911201562400,6.608562255859375,-2.9544448852539062,-18.87887954711914,-5.765536785125732
1696082911211562200,6.618562255859375,-3.9169139862060547,-19.17336654663086,-7.020098686218262
1696082911221562400,6.628562255859375,-4.745307922363281,-18.598756790161133,-6.91954231262207
1696082911231562200,6.638562255859375,-5.040093898773193,-16.716915130615234,-5.978621006011963
1696082911241562400,6.648562255859375,-3.3638534545898438,-14.171579360961914,-4.958691120147705
1696082911251562200,6.658562255859375,0.7398083209991455,-12.074258804321289,-3.4165258407592773
1696082911261562400,6.668562255859375,3.0885202884674072,-10.606613159179688,-1.403002142906189
1696082911271562200,6.678562255859375,4.383783340454102,-9.40711784362793,0.09816227108240128
1696082911281562400,6.688562255859375,3.8714241981506348,-8.52365779876709,0.36152446269989014
1696082911291562200,6.698562255859375,1.8363527059555054,-7.922712802886963,0.035913024097681046
1696082911301562400,6.708562255859375,0.17477671802043915,-7.441478252410889,-0.4141969084739685
1696082911311562200,6.718562255859375,-0.5363011956214905,-7.012916088104248,-1.036689281463623
1696082911321562400,6.728562255859375,-1.7094600200653076,-6.498162746429443,-0.9552865028381348
1696082911331562200,6.738562255859375,-2.0877439975738525,-5.966650009155273,-0.6248866319656372
1696082911341562400,6.748562255859375,-1.6112977266311646,-5.499780654907227,-0.4596867263317108
1696082911351562200,6.758562255859375,-0.9792284965515137,-5.2364182472229,-0.42856210470199585
1696082911361562400,6.768562255859375,-0.8140285611152649,-5.289090633392334,-0.6823474764823914
1696082911371562500,6.7785625,-1.0103530883789062,-5.538087844848633,-1.0342950820922852
1696082911381562400,6.788562255859375,-1.3120225667953491,-5.916371822357178,-1.5729905366897583
1696082911391562200,6.798562255859375,-1.357512354850769,-6.285078525543213,-2.03507137298584
1696082911401562400,6.808562255859375,-1.2737152576446533,-6.601113319396973,-2.250549554824829
1696082911411562200,6.818562255859375,-1.335964560508728,-6.854898929595947,-2.2649147510528564
1696082911421562400,6.828562255859375,-1.4628572463989258,-6.945878505706787,-2.1811177730560303
1696082911431562200,6.838562255859375,-1.501164436340332,-6.8070149421691895,-2.1763293743133545
1696082911441562400,6.848562255859375,-1.5131354331970215,-6.4071831703186035,-2.255337953567505
1696082911451562200,6.858562255859375,-1.50355863571167,-5.909189224243164,-2.631227731704712
1696082911461562400,6.868562255859375,-1.5466543436050415,-5.358522891998291,-3.0597896575927734
1696082911471562200,6.878562255859375,-1.5729905366897583,-4.809951305389404,-3.3686418533325195
1696082911481562400,6.888562255859375,-1.434126853942871,-4.326322555541992,-3.5649664402008057
1696082911491562200,6.898562255859375,-1.1348515748977661,-3.866635799407959,-3.7612907886505127
1696082911501562400,6.908562255859375,-0.5961562395095825,-3.4955344200134277,-3.804386615753174
1696082911511562200,6.918562255859375,0.0694318488240242,-3.383007049560547,-3.423708438873291
1696082911521562400,6.928562255859375,0.7709329724311829,-3.8163576126098633,-2.121262788772583
1696082911531562200,6.938562255859375,1.4700398445129395,-4.522646903991699,0.5913678407669067
1696082911541563000,6.94856298828125,3.045424461364746,-5.837363243103027,3.6798880100250244
1696082911551562800,6.958562744140625,7.810185432434082,-8.267477989196777,6.646603107452393
1696082911561563100,6.968563232421875,12.81167221069336,-11.478102684020996,9.65372085571289
1696082911571563000,6.97856298828125,11.916240692138672,-14.274529457092285,11.109395027160645
1696082911581563100,6.988563232421875,10.977714538574219,-16.56368637084961,10.886734008789062
1696082911591563000,6.99856298828125,12.7853364944458,-18.87169647216797,10.13974380493164
1696082911601563100,7.008563232421875,14.284106254577637,-20.22681427001953,10.44859504699707
1696082911611563000,7.01856298828125,11.741464614868164,-19.85331916809082,8.753500938415527
1696082911621563100,7.028563232421875,7.525275230407715,-17.23406219482422,4.1180267333984375
1696082911631563000,7.03856298828125,5.040093898773193,-13.177985191345215,0.6368576288223267
1696082911641563100,7.048563232421875,3.9264907836914062,-8.660126686096191,-0.304063618183136
1696082911651563000,7.05856298828125,3.4404678344726562,-4.398148536682129,-0.6368576288223267
1696082911661563100,7.068563232421875,5.313032627105713,-1.5729905366897583,-0.950498104095459
1696082911671563000,7.07856298828125,3.6727054119110107,-1.7908629179000854,-1.381454348564148
1696082911681563100,7.088563232421875,0.9768342971801758,-5.176563262939453,-2.760514497756958
1696082911691563000,7.09856298828125,-2.319981336593628,-9.699210166931152,-3.536235809326172
1696082911701563100,7.108563232421875,-5.578789234161377,-13.304878234863281,-3.5865142345428467
1696082911711563000,7.11856298828125,-6.409577369689941,-16.245256423950195,-2.8155810832977295
1696082911721563100,7.128563232421875,-2.9233202934265137,-19.010560989379883,-1.3192051649093628
1696082911731563000,7.13856298828125,1.8962076902389526,-20.787057876586914,-0.1364694982767105
1696082911741563100,7.148563232421875,4.937143325805664,-19.333776473999023,0.10773907601833344
1696082911751563000,7.15856298828125,4.980238914489746,-15.500659942626953,-0.21308395266532898
1696082911761563100,7.168563232421875,1.4532804489135742,-11.037569046020508,-1.9919757843017578
1696082911771563500,7.1785634765625,-2.6144683361053467,-6.830956935882568,-3.8977603912353516
1696082911781563600,7.188563720703125,-5.846940040588379,-4.039018154144287,-4.565742492675781
1696082911791563500,7.1985634765625,-6.9602437019348145,-3.9887399673461914,-4.347870349884033
1696082911801563600,7.208563720703125,-6.632237911224365,-5.308244228363037,-4.393360137939453
1696082911811563500,7.2185634765625,-5.811026573181152,-6.957849502563477,-4.019864559173584
1696082911821563600,7.228563720703125,-5.109525680541992,-8.655338287353516,-3.6535518169403076
1696082911831563500,7.2385634765625,-4.7405195236206055,-10.077494621276855,-3.0573954582214355
1696082911841563100,7.248563232421875,-4.833893299102783,-11.039963722229004,-2.049436569213867
1696082911851563000,7.25856298828125,-5.176563262939453,-11.413458824157715,-1.3096283674240112
1696082911861563000,7.26856298828125,-5.049670696258545,-11.406275749206543,-1.115697979927063
1696082911871563300,7.278563232421875,-3.5865142345428467,-11.11178970336914,-0.5267243981361389
1696082911881563400,7.2885634765625,-0.5770025849342346,-10.848426818847656,0.727837324142456
1696082911891563300,7.298563232421875,2.7700912952423096,-10.455778121948242,1.9800047874450684
1696082911901563400,7.3085634765625,5.72244119644165,-9.845256805419922,2.738966703414917
1696082911911563300,7.318563232421875,7.680898189544678,-9.007286071777344,2.8802247047424316
1696082911921563400,7.3285634765625,7.348104476928711,-8.341697692871094,2.319981336593628
1696082911931563300,7.338563232421875,5.356128692626953,-8.1046724319458,1.3024457693099976
1696082911941563400,7.3485634765625,2.889801502227783,-8.109460830688477,0.35434186458587646
1696082911951563300,7.358563232421875,0.9600749015808105,-8.463802337646484,-0.3232172429561615
1696082911961563400,7.3685634765625,-0.8307880163192749,-8.842085838317871,-0.9313444495201111
1696082911971563300,7.378563232421875,-3.1699230670928955,-9.069535255432129,-1.316810965538025
1696082911981563400,7.3885634765625,-4.829104900360107,-9.323320388793945,-1.3838485479354858
1696082911991563300,7.398563232421875,-4.654327869415283,-9.06714153289795,-1.280897855758667
1696082912001563400,7.4085634765625,-4.668693542480469,-8.964190483093262,-0.6368576288223267
1696082912011563300,7.418563232421875,-3.8331170082092285,-9.158121109008789,0.42856210470199585
1696082912021563400,7.4285634765625,-1.800439715385437,-9.799766540527344,0.9241618514060974
1696082912031563300,7.438563232421875,0.912190854549408,-10.405499458312988,1.2234370708465576
1696082912041563400,7.4485634765625,3.248931646347046,-10.903493881225586,1.721431016921997
1696082912051563300,7.458563232421875,4.4508209228515625,-10.975319862365723,2.5043349266052246
1696082912061563400,7.4685634765625,4.292803764343262,-10.726323127746582,3.1196448802948
1696082912071562800,7.478562744140625,3.1196448802948,-10.340856552124023,3.2321722507476807
1696082912081562600,7.488562744140625,1.522712230682373,-10.010457038879395,2.5282769203186035
1696082912091562800,7.498562744140625,0.2322375625371933,-10.029610633850098,0.993593692779541
1696082912101562600,7.508562744140625,-0.2561795711517334,-10.094253540039062,-0.45489832758903503
1696082912111562800,7.518562744140625,0.13168109953403473,-10.278607368469238,-1.3527239561080933
1696082912121562600,7.528562744140625,1.1875240802764893,-10.484508514404297,-1.6879122257232666
1696082912131562800,7.538562744140625,2.5977089405059814,-10.704774856567383,-1.7286136150360107
1696082912141562600,7.548562744140625,4.110844135284424,-10.905887603759766,-1.4724340438842773
1696082912151562800,7.558562744140625,4.92996072769165,-11.02320384979248,-0.9409212470054626
1696082912161562600,7.568562744140625,4.3861775398254395,-10.946589469909668,-0.10534487664699554
1696082912171562200,7.578562255859375,2.6408045291900635,-10.676044464111328,1.05105459690094
1696082912181562400,7.588562255859375,0.646434485912323,-10.44620132446289,2.0254945755004883
1696082912191562200,7.598562255859375,-0.8762778043746948,-10.434229850769043,2.671929121017456
1696082912201562400,7.608562255859375,-1.6136919260025024,-10.407894134521484,3.162740468978882
1696082912211562200,7.618562255859375,-1.41257905960083,-10.5252103805542,3.711012601852417
1696082912221562400,7.628562255859375,-0.4381389021873474,-10.814908027648926,4.422090530395508
1696082912231562200,7.638562255859375,1.2258312702178955,-11.063905715942383,4.833893299102783
1696082912241562400,7.648562255859375,3.2369606494903564,-11.360786437988281,4.793191909790039
1696082912251562200,7.658562255859375,4.771644115447998,-12.153266906738281,4.553771495819092
1696082912261562400,7.668562255859375,5.356128692626953,-13.144466400146484,4.3622355461120605
1696082912271562200,7.678562255859375,5.394435882568359,-13.65682601928711,4.048594951629639
1696082912281562400,7.688562255859375,4.89644193649292,-13.628095626831055,3.332728862762451
1696082912291562200,7.698562255859375,3.995922565460205,-13.199533462524414,2.3582887649536133
1696082912301562400,7.708562255859375,3.3710360527038574,-13.18277359008789,1.5705963373184204
1696082912311562200,7.718562255859375,1.8794482946395874,-13.312060356140137,1.1061211824417114
1696082912321562400,7.728562255859375,-0.12928688526153564,-14.06383991241455,0.8954314589500427
1696082912331562200,7.738562255859375,-0.8930372595787048,-14.935628890991211,0.5434837937355042
1696082912341562400,7.748562255859375,-0.8930372595787048,-16.0297794342041,-0.6224924325942993
1696082912351562200,7.758562255859375,-1.2545616626739502,-17.195755004882812,-2.250549554824829
1696082912361562400,7.768562255859375,-2.7461493015289307,-18.33300018310547,-4.532223701477051
1696082912371561700,7.778561767578125,-4.532223701477051,-19.046472549438477,-6.816591739654541
1696082912381561900,7.788561767578125,-5.341763496398926,-18.974647521972656,-7.436689853668213
1696082912391561700,7.798561767578125,-5.686528205871582,-17.78472900390625,-7.051223278045654
1696082912401561900,7.808561767578125,-5.466261863708496,-15.579668998718262,-5.494992256164551
1696082912411561700,7.818561767578125,-3.203441858291626,-13.520356178283691,-4.1874589920043945
1696082912421561900,7.828561767578125,1.501164436340332,-11.9306058883667,-3.026270866394043
1696082912431561700,7.838561767578125,4.532223701477051,-10.733505249023438,-1.3623007535934448
1696082912441561900,7.848561767578125,4.611232280731201,-9.972148895263672,0.040701430290937424
1696082912451561700,7.858561767578125,2.8395233154296875,-9.433453559875488,0.43335050344467163
1696082912461561900,7.868561767578125,0.849941611289978,-8.842085838317871,0.3495534360408783
1696082912471561700,7.878561767578125,-0.5003881454467773,-8.140584945678711,-0.07422025501728058
1696082912481561900,7.888561767578125,-1.41257905960083,-7.398382663726807,-0.035913024097681046
1696082912491561700,7.898561767578125,-2.1811177730560303,-6.558017730712891,0.2968810200691223
1696082912501561900,7.908561767578125,-2.360682964324951,-5.90200662612915,0.2537853717803955
1696082912511561700,7.918561767578125,-1.9991583824157715,-5.401618480682373,0.090979665517807
1696082912521561900,7.928561767578125,-1.3670891523361206,-5.2124762535095215,-0.4620809257030487
1696082912531561700,7.938561767578125,-1.1061211824417114,-5.329792022705078,-1.094150185585022
1696082912541561900,7.948561767578125,-1.2066776752471924,-5.710470199584961,-1.5682021379470825
1696082912551561700,7.958561767578125,-1.3479355573654175,-6.232406139373779,-1.8483237028121948
1696082912561561900,7.968561767578125,-1.3215993642807007,-6.555623531341553,-2.0829553604125977
1696082912571561700,7.978561767578125,-1.4101848602294922,-6.73997688293457,-2.1787235736846924
1696082912581561900,7.988561767578125,-1.723825216293335,-6.778284072875977,-2.1308395862579346
1696082912591561700,7.998561767578125,-1.941697597503662,-6.6920928955078125,-2.1092917919158936
1696082912601561900,8.008561767578126,-1.968033790588379,-6.4071831703186035,-2.0877439975738525
1696082912611561700,8.018561767578126,-1.9033904075622559,-5.9427080154418945,-2.1140801906585693
1696082912621561900,8.028561767578125,-1.9297266006469727,-5.353734493255615,-2.315192937850952
1696082912631561700,8.038561767578125,-2.0614075660705566,-4.786009311676025,-2.691082715988159
1696082912641561900,8.048561767578125,-2.073378562927246,-4.247313976287842,-3.117250680923462
1696082912651561700,8.058561767578125,-1.8124107122421265,-3.8498764038085938,-3.3901896476745605
1696082912661561900,8.068561767578124,-1.3982137441635132,-3.49314022064209,-3.579331636428833
1696082912671562200,8.078562255859374,-0.8547300100326538,-3.2154128551483154,-3.6343982219696045
1696082912681562400,8.088562255859374,-0.19393034279346466,-3.268085241317749,-3.3854012489318848
1696082912691562200,8.098562255859376,0.9002198576927185,-3.8522706031799316,-2.387019157409668
1696082912701562400,8.108562255859376,2.252943754196167,-4.742913722991943,-0.4189853072166443
1696082912711562200,8.118562255859375,3.780444383621216,-6.239588737487793,1.8962076902389526
1696082912721562400,8.128562255859375,8.942642211914062,-8.892364501953125,4.541800498962402
1696082912731562000,8.13856201171875,16.125547409057617,-12.423811912536621,7.862857818603516
1696082912741561900,8.148561767578125,14.93802261352539,-16.008230209350586,10.443806648254395
1696082912751562000,8.15856201171875,12.081440925598145,-19.288288116455078,11.324872970581055
1696082912761561900,8.168561767578124,11.408670425415039,-21.332935333251953,11.123760223388672
1696082912771562000,8.17856201171875,11.628936767578125,-21.19646644592285,10.427047729492188
1696082912781561900,8.188561767578125,9.13417911529541,-19.020137786865234,7.743147373199463
1696082912791562000,8.19856201171875,6.505345344543457,-15.471929550170898,3.821146011352539
1696082912801561900,8.208561767578125,4.925172328948975,-11.707945823669434,1.4676456451416016
1696082912811562000,8.21856201171875,4.616020679473877,-8.815750122070312,0.3064578175544739
1696082912821561900,8.228561767578125,4.067748546600342,-9.091083526611328,-1.4652514457702637
1696082912831562000,8.23856201171875,3.332728862762451,-11.435006141662598,-3.7421371936798096
1696082912841561900,8.248561767578124,3.313575267791748,-13.383886337280273,-4.728548526763916
1696082912851562000,8.25856201171875,1.1228805780410767,-14.226645469665527,-2.7030537128448486
1696082912861561900,8.268561767578126,-2.5234885215759277,-14.346355438232422,-0.3902548849582672
1696082912871562000,8.27856201171875,-2.741360902786255,-13.448530197143555,1.4269442558288574
1696082912881561900,8.288561767578125,-1.6879122257232666,-11.150096893310547,0.5889736413955688
1696082912891562000,8.29856201171875,-1.4508862495422363,-8.19804573059082,-1.3120225667953491
1696082912901561900,8.308561767578125,-1.623268723487854,-5.4566850662231445,-2.655169725418091
1696082912911562000,8.31856201171875,-2.779668092727661,-4.086902141571045,-3.181894063949585
1696082912921561900,8.328561767578124,-4.10366153717041,-4.800374507904053,-3.9815573692321777
1696082912931561500,8.3385615234375,-4.577713489532471,-6.929119110107422,-4.845864295959473
1696082912941561600,8.3485615234375,-5.162198066711426,-8.619425773620605,-5.2771196365356445
1696082912951561500,8.3585615234375,-5.504569053649902,-9.89314079284668,-4.951508522033691
1696082912961561600,8.3685615234375,-5.674557209014893,-11.092636108398438,-4.213795185089111
1696082912971561500,8.3785615234375,-5.765536785125732,-11.774983406066895,-3.971980571746826
1696082912981561600,8.3885615234375,-5.217264652252197,-11.717522621154785,-2.7940332889556885
1696082912991561500,8.3985615234375,-4.728548526763916,-11.375151634216309,-1.6376339197158813
1696082913001561600,8.4085615234375,-4.311957359313965,-10.783783912658691,-0.8762778043746948
1696082913011561500,8.4185615234375,-3.5266590118408203,-10.182839393615723,-0.42616790533065796
1696082913021561600,8.4285615234375,-2.3032219409942627,-9.787796020507812,0.07661445438861847
1696082913031562000,8.43856201171875,-0.33758243918418884,-9.627384185791016,1.0630255937576294
1696082913041561900,8.448561767578125,2.4229321479797363,-9.613018989562988,2.3726539611816406
1696082913051562000,8.45856201171875,4.747702121734619,-9.5316162109375,3.442862033843994
1696082913061561900,8.468561767578125,5.590760231018066,-9.414299964904785,3.912125587463379
1696082913071562000,8.47856201171875,5.1023430824279785,-9.26107120513916,3.6942532062530518
1696082913081561900,8.488561767578124,3.7684733867645264,-9.13657283782959,2.9257144927978516
1696082913091562000,8.49856201171875,2.008735179901123,-8.98813247680664,1.8914192914962769
1696082913101561900,8.508561767578126,0.3926490843296051,-8.715193748474121,0.8044517636299133
1696082913111562000,8.51856201171875,-0.7589619159698486,-8.430283546447754,-0.47405192255973816
1696082913121561900,8.528561767578125,-1.6879122257232666,-8.312967300415039,-1.5825673341751099
1696082913131562000,8.53856201171875,-2.2649147510528564,-8.391976356506348,-2.1140801906585693
1696082913141561900,8.548561767578125,-2.559401512145996,-8.698433876037598,-2.499546527862549
1696082913151562000,8.55856201171875,-2.6599581241607666,-8.70561695098877,-2.6024973392486572
1696082913161561900,8.568561767578124,-2.233790159225464,-8.789413452148438,-1.968033790588379
1696082913171562000,8.57856201171875,-1.235408067703247,-9.047987937927246,-1.644816517829895
1696082913181561900,8.588561767578126,0.363918662071228,-9.548376083374023,-1.742978811264038
1696082913191562000,8.59856201171875,2.300827741622925,-10.247482299804688,-1.7357962131500244
1696082913201561900,8.608561767578125,3.2082302570343018,-10.630555152893066,-1.0462661981582642
1696082913211562000,8.61856201171875,2.8395233154296875,-10.44859504699707,0.06464344263076782
1696082913221561900,8.628561767578125,1.8507179021835327,-9.885957717895508,1.259350061416626
1696082913231562200,8.638562255859375,0.6943184733390808,-9.280224800109863,1.867477297782898
1696082913241562000,8.64856201171875,-0.3256114423274994,-9.062353134155273,1.8052281141281128
1696082913251562200,8.658562255859374,-0.8403648138046265,-9.244312286376953,1.235408067703247
1696082913261562000,8.66856201171875,-0.3998316824436188,-9.852438926696777,0.38307225704193115
1696082913271562200,8.678562255859376,0.6416460275650024,-10.549152374267578,-0.4213795065879822
1696082913281562000,8.68856201171875,2.0470423698425293,-11.159673690795898,-0.6368576288223267
1696082913291562200,8.698562255859375,3.1244332790374756,-11.695974349975586,-0.33997663855552673
1696082913301562000,8.70856201171875,3.3901896476745605,-11.810895919799805,0.13407529890537262
1696082913311562200,8.718562255859375,2.9281086921691895,-11.581052780151367,0.667982280254364
1696082913321562000,8.72856201171875,2.073378562927246,-11.217134475708008,1.2306196689605713
1696082913331562200,8.738562255859375,1.381454348564148,-10.86758041381836,1.7046716213226318
1696082913341562400,8.748562255859374,0.9624691009521484,-10.673650741577148,2.2385785579681396
1696082913351562200,8.758562255859376,0.5722141861915588,-10.800542831420898,2.892195701599121
1696082913361562400,8.768562255859376,0.10773907601833344,-11.075876235961914,3.708618402481079
1696082913371562200,8.778562255859375,-0.2825157940387726,-11.255441665649414,4.49870491027832
1696082913381562000,8.78856201171875,-0.040701430290937424,-11.174038887023926,5.097554683685303
1696082913391562200,8.798562255859375,1.3910311460494995,-10.788572311401367,5.423166275024414
1696082913401562000,8.80856201171875,3.8786067962646484,-10.362403869628906,4.934749126434326
1696082913411562200,8.818562255859375,6.452672958374023,-10.47014331817627,3.971980571746826
1696082913421562000,8.82856201171875,7.747935771942139,-11.494861602783203,3.0621838569641113
1696082913431562200,8.838562255859374,7.8867998123168945,-12.651261329650879,1.9488801956176758
1696082913441562000,8.84856201171875,7.9083476066589355,-13.32882022857666,0.7254431247711182
1696082913451562200,8.858562255859376,7.582736015319824,-13.2617826461792,-0.14365209639072418
1696082913461562000,8.86856201171875,5.90200662612915,-12.452542304992676,-0.35673606395721436
1696082913471562200,8.878562255859375,1.53707754611969,-11.703157424926758,0.49799394607543945
1696082913481562000,8.88856201171875,-2.2361843585968018,-12.239458084106445,2.518700122833252
1696082913491562200,8.898562255859375,-3.620033025741577,-14.264952659606934,4.350264549255371
1696082913501562000,8.90856201171875,-2.9544448852539062,-16.87493133544922,4.553771495819092
1696082913511562200,8.918562255859374,-2.832340717315674,-19.044078826904297,2.80361008644104
1696082913521562000,8.92856201171875,-3.294421434402466,-20.782268524169922,-0.7493851184844971
1696082913531562200,8.938562255859376,-4.132391929626465,-22.252309799194336,-4.383783340454102
1696082913541562000,8.94856201171875,-5.279513835906982,-22.501306533813477,-6.823774337768555
1696082913551562200,8.958562255859375,-5.76793098449707,-21.55799102783203,-7.5109100341796875
1696082913561562000,8.96856201171875,-6.359299182891846,-18.89563751220703,-6.811803340911865
1696082913571562200,8.978562255859375,-4.2544965744018555,-15.285181999206543,-5.475838661193848
1696082913581562400,8.988562255859375,-0.16998831927776337,-12.438177108764648,-3.734954595565796
1696082913591562200,8.998562255859374,4.8602294921875,-10.656890869140625,-1.7764976024627686
1696082913601562400,9.008562255859376,6.093542575836182,-9.648932456970215,-1.3479355573654175
1696082913611562200,9.018562255859376,4.189853191375732,-9.17009162902832,-0.8858546018600464
1696082913621562400,9.028562255859375,1.5682021379470825,-9.086295127868652,-1.2330138683319092
1696082913631562200,9.038562255859375,-0.3663128614425659,-8.86363410949707,-1.6543933153152466
1696082913641562000,9.04856201171875,-1.259350061416626,-8.272266387939453,-1.7764976024627686
1696082913651562200,9.058562255859375,-1.2713210582733154,-7.309797286987305,-1.3958195447921753
1696082913661562000,9.06856201171875,-1.0534487962722778,-6.112696170806885,-1.1300631761550903
1696082913671562200,9.078562255859374,-1.256955862045288,-5.030517101287842,-0.8236053586006165
1696082913681562000,9.08856201171875,-1.216254472732544,-4.153939723968506,-0.5626373887062073
1696082913691562200,9.098562255859376,-1.1348515748977661,-3.955221176147461,-0.6775590777397156
1696082913701562000,9.10856201171875,-0.9959878921508789,-4.0533833503723145,-1.2401964664459229
1696082913711562200,9.118562255859375,-1.0749965906143188,-4.113238334655762,-1.8555063009262085
1696082913721562000,9.12856201171875,-1.3503297567367554,-4.264073371887207,-2.2577321529388428
1696082913731562200,9.138562255859375,-1.5179238319396973,-4.592078685760498,-2.300827741622925
1696082913741562000,9.14856201171875,-1.357512354850769,-4.956296920776367,-2.185906171798706
1696082913751562200,9.158562255859374,-1.1659762859344482,-5.243600845336914,-2.099714994430542
1696082913761562000,9.16856201171875,-1.2497732639312744,-5.33697509765625,-2.126051187515259
1696082913771562200,9.178562255859376,-1.3934253454208374,-5.219658851623535,-2.454056739807129
1696082913781562400,9.188562255859376,-1.5753847360610962,-4.879383087158203,-2.9735984802246094
1696082913791562200,9.198562255859375,-1.7812861204147339,-4.41969633102417,-3.5721490383148193
1696082913801562400,9.208562255859375,-1.8148049116134644,-3.9408559799194336,-4.163516521453857
1696082913811562200,9.218562255859375,-1.5729905366897583,-3.450044631958008,-4.565742492675781
1696082913821562400,9.228562255859375,-1.1827356815338135,-2.985569477081299,-4.7405195236206055
1696082913831562200,9.238562255859375,-0.790086567401886,-2.738966703414917,-4.572925090789795
1696082913841562400,9.248562255859374,-0.19632454216480255,-3.1004912853240967,-3.600879430770874
1696082913851562200,9.258562255859376,1.1563993692398071,-4.094084739685059,-1.5729905366897583
1696082913861562400,9.268562255859376,3.07415509223938,-5.554847240447998,1.381454348564148
1696082913871562200,9.278562255859375,7.094318866729736,-7.9083476066589355,4.620809078216553
1696082913881562400,9.288562255859375,14.384662628173828,-11.8132905960083,8.456619262695312
1696082913891561500,9.2985615234375,15.143924713134766,-16.372150421142578,12.727875709533691
1696082913901561600,9.3085615234375,11.971307754516602,-20.727203369140625,14.576199531555176
1696082913911561500,9.3185615234375,11.44218921661377,-22.39596176147461,12.890681266784668
1696082913921561600,9.3285615234375,11.300930976867676,-20.81339454650879,10.846033096313477
1696082913931561500,9.3385615234375,9.366415977478027,-17.755998611450195,10.431836128234863
1696082913941561600,9.3485615234375,6.883629322052002,-14.592958450317383,7.66653299331665
1696082913951561500,9.3585615234375,4.764461517333984,-11.44458293914795,4.551377296447754
1696082913961561600,9.3685615234375,3.6343982219696045,-8.202834129333496,2.33913516998291
1696082913971561500,9.3785615234375,3.5913026332855225,-5.1909284591674805,0.5027823448181152
1696082913981561600,9.3885615234375,4.534617900848389,-4.062960147857666,-1.335964560508728
1696082913991561500,9.3985615234375,2.1499931812286377,-6.476614952087402,-2.205059766769409
1696082914001561600,9.4085615234375,0.31124621629714966,-10.819696426391602,-2.8371291160583496
1696082914011561500,9.4185615234375,-2.2385785579681396,-14.557045936584473,-3.2800562381744385
1696082914021561600,9.4285615234375,-3.7852327823638916,-16.795923233032227,-2.7509377002716064
1696082914031561500,9.4385615234375,-3.064578056335449,-17.442358016967773,-0.871489405632019
1696082914041561600,9.4485615234375,0.5506663918495178,-16.736068725585938,0.17717093229293823
1696082914051561500,9.4585615234375,1.0079588890075684,-15.546150207519531,-0.7996633648872375
1696082914061561600,9.4685615234375,-0.42856210470199585,-12.823643684387207,-2.456450939178467
1696082914071561500,9.4785615234375,-1.9967641830444336,-10.180444717407227,-3.627215623855591
1696082914081561600,9.4885615234375,-3.4093432426452637,-7.7527241706848145,-4.067748546600342
1696082914091561500,9.4985615234375,-4.807557106018066,-5.983409404754639,-4.3861775398254395
1696082914101561600,9.5085615234375,-5.46147346496582,-5.705681800842285,-4.812345504760742
1696082914111561500,9.5185615234375,-5.782296180725098,-6.553229331970215,-5.1909284591674805
1696082914121561600,9.5285615234375,-5.803843975067139,-7.781454563140869,-5.0592474937438965
1696082914131561500,9.5385615234375,-5.935525417327881,-9.024045944213867,-4.474762916564941
1696082914141561600,9.5485615234375,-5.8086323738098145,-10.283395767211914,-3.9480385780334473
1696082914151561500,9.5585615234375,-5.521328449249268,-10.89870548248291,-3.1938650608062744
1696082914161561600,9.5685615234375,-5.131073474884033,-11.250653266906738,-2.22660756111145
1696082914171561500,9.5785615234375,-4.599261283874512,-11.075876235961914,-1.3718775510787964
1696082914181561600,9.5885615234375,-2.985569477081299,-10.613795280456543,-0.5817909836769104
1696082914191562200,9.598562255859376,-0.849941611289978,-10.027215957641602,0.17238251864910126
1696082914201562000,9.60856201171875,1.1971008777618408,-9.47654914855957,1.0462661981582642
1696082914211562200,9.618562255859375,3.160346269607544,-8.942642211914062,1.7501614093780518
1696082914221562000,9.62856201171875,4.639962673187256,-8.626607894897461,2.363077163696289
1696082914231562200,9.638562255859375,5.071218490600586,-8.389581680297852,2.5474305152893066
1696082914241562000,9.64856201171875,4.414907932281494,-8.475772857666016,2.229001760482788
1696082914251562200,9.658562255859374,3.160346269607544,-8.74152946472168,1.4628572463989258
1696082914261562000,9.66856201171875,1.5442601442337036,-8.837297439575195,0.5937620401382446
1696082914271562200,9.678562255859376,-0.37828385829925537,-8.856451034545898,-0.2513911724090576
1696082914281562000,9.68856201171875,-1.3000515699386597,-9.024045944213867,-1.1037269830703735
1696082914291562200,9.698562255859375,-1.2330138683319092,-9.220370292663574,-1.8100165128707886
1696082914301562000,9.70856201171875,-0.47165772318840027,-9.387964248657227,-1.534683346748352
1696082914311562200,9.718562255859375,0.8020575642585754,-9.833285331726074,-0.7398083209991455
1696082914321562000,9.72856201171875,1.4891934394836426,-10.450989723205566,0.016759412363171577
1696082914331562200,9.738562255859375,1.3838485479354858,-11.085453033447266,0.7996633648872375
1696082914341562400,9.748562255859374,0.5602431893348694,-11.212346076965332,1.699883222579956
1696082914351562200,9.758562255859376,-0.2992752194404602,-10.575488090515137,2.070984363555908
1696082914361562400,9.768562255859376,-0.9385270476341248,-9.5531644821167,1.946485996246338
1696082914371562200,9.778562255859375,-1.2952631711959839,-8.731952667236328,1.558625340461731
1696082914381562000,9.78856201171875,-1.2401964664459229,-8.277054786682129,1.0319008827209473
1696082914391562200,9.798562255859375,-0.8379706144332886,-8.506897926330566,0.4141969084739685
1696082914401562000,9.80856201171875,-0.1388636976480484,-9.404723167419434,-0.2968810200691223
1696082914411562200,9.818562255859375,0.48602294921875,-10.369586944580078,-0.8259995579719543
1696082914421562000,9.82856201171875,0.7230489253997803,-11.061511039733887,-0.9720458984375
1696082914431562200,9.838562255859374,0.8523358106613159,-11.504438400268555,-0.790086567401886
1696082914441562000,9.84856201171875,1.5298948287963867,-11.604994773864746,-0.40222588181495667
1696082914451562200,9.858562255859376,2.5522189140319824,-11.059117317199707,0.038307227194309235
1696082914461562000,9.86856201171875,3.0837318897247314,-10.331279754638672,0.47165772318840027
1696082914471562200,9.878562255859375,2.80361008644104,-9.888352394104004,0.9385270476341248
1696082914481562000,9.88856201171875,1.9369091987609863,-9.646537780761719,1.4772224426269531
1696082914491562200,9.898562255859375,0.9864110946655273,-9.438241958618164,1.9584569931030273
1696082914501562000,9.90856201171875,0.3758896589279175,-9.423876762390137,2.3750481605529785
1696082914511562200,9.918562255859374,0.1604115068912506,-9.601048469543457,2.6599581241607666
1696082914521562000,9.92856201171875,0.15562310814857483,-9.972148895263672,2.8419175148010254
1696082914531562200,9.938562255859376,0.10295066982507706,-10.350433349609375,2.937685489654541
1696082914541562000,9.94856201171875,0.2082955539226532,-10.443806648254395,2.9017724990844727
1696082914551562200,9.958562255859375,0.8355764150619507,-10.237905502319336,2.6862943172454834
1696082914561562000,9.96856201171875,2.1547815799713135,-9.83807373046875,2.2218191623687744
1696082914571562200,9.978562255859375,3.6750996112823486,-9.660902976989746,1.7549498081207275
1696082914581562400,9.988562255859375,4.23773717880249,-10.630555152893066,1.9081788063049316
1696082914591562200,9.998562255859374,3.5673606395721436,-12.639289855957031,2.4803929328918457
1696082914601562400,10.008562255859376,2.999934673309326,-14.442124366760254,2.760514497756958
1696082914611562200,10.018562255859376,2.7700912952423096,-15.213356018066406,2.5330653190612793
1696082914621562400,10.028562255859375,2.896984100341797,-14.880561828613281,2.454056739807129
1696082914631562200,10.038562255859375,2.676717519760132,-14.583381652832031,2.8443117141723633
1696082914641562000,10.04856201171875,1.7094600200653076,-14.231433868408203,2.6360161304473877
1696082914651562200,10.058562255859375,0.2825157940387726,-14.2122802734375,2.0925323963165283
1696082914661562000,10.06856201171875,-0.14844051003456116,-14.700997352600098,1.0749965906143188
1696082914671562200,10.078562255859374,-0.646434485912323,-15.407286643981934,-0.2992752194404602
1696082914681562000,10.08856201171875,-1.2018892765045166,-16.657060623168945,-2.1715409755706787
1696082914691562200,10.098562255859376,-2.2361843585968018,-17.837400436401367,-3.8762125968933105
1696082914701562000,10.10856201171875,-3.6607344150543213,-18.447921752929688,-5.396830081939697
1696082914711562200,10.118562255859375,-4.575319290161133,-18.412010192871094,-6.122272968292236
1696082914721562000,10.12856201171875,-4.855441093444824,-17.4351749420166,-6.105513572692871
1696082914731562200,10.138562255859375,-4.218583583831787,-15.878944396972656,-5.887641429901123
1696082914741562000,10.14856201171875,-2.1571757793426514,-14.20988655090332,-4.980238914489746
1696082914751562200,10.158562255859374,-0.040701430290937424,-13.118130683898926,-3.4524388313293457
1696082914761562000,10.16856201171875,1.5442601442337036,-12.102989196777344,-1.9057846069335938
1696082914771562200,10.178562255859376,1.6687586307525635,-11.310507774353027,-0.6847416758537292
1696082914781562000,10.18856201171875,1.479616641998291,-10.496479988098145,-0.3256114423274994
1696082914791562200,10.198562255859375,1.2066776752471924,-9.536404609680176,-0.5793967843055725
1696082914801562000,10.20856201171875,-0.13407529890537262,-8.729558944702148,-0.7230489253997803
1696082914811562200,10.218562255859375,-1.1540051698684692,-7.759906768798828,-0.3256114423274994
1696082914821562000,10.22856201171875,-1.4987702369689941,-6.986579895019531,-0.2322375625371933
1696082914831562200,10.238562255859375,-1.625662922859192,-6.440701961517334,-0.12689268589019775
1696082914841562400,10.248562255859374,-1.5179238319396973,-5.863699436187744,-0.31842881441116333
1696082914851562200,10.258562255859376,-1.7286136150360107,-5.3920416831970215,-0.6991068720817566
1696082914861562400,10.268562255859376,-1.7405846118927002,-5.272331237792969,-1.0534487962722778
1696082914871562200,10.278562255859375,-1.7142484188079834,-5.42795467376709,-1.3862427473068237
1696082914881562000,10.28856201171875,-1.86508309841156,-5.691316604614258,-1.6424223184585571
1696082914891562200,10.298562255859375,-1.7956513166427612,-5.885247230529785,-1.8148049116134644
1696082914901562000,10.30856201171875,-1.6041151285171509,-5.985803604125977,-1.9728221893310547
1696082914911562200,10.318562255859375,-1.5155296325683594,-6.026504993438721,-2.075772762298584
1696082914921562000,10.32856201171875,-1.5825673341751099,-5.957073211669922,-2.075772762298584
1696082914931562200,10.338562255859374,-1.8483237028121948,-5.825392246246338,-2.1547815799713135
1696082914941562000,10.34856201171875,-2.183511972427368,-5.6434326171875,-2.3726539611816406
1696082914951562200,10.358562255859376,-2.3127987384796143,-5.411195278167725,-2.7246015071868896
1696082914961562000,10.36856201171875,-2.248155355453491,-5.092766284942627,-3.1004912853240967
1696082914971562200,10.378562255859375,-2.0015525817871094,-4.587290287017822,-3.3494882583618164
1696082914981562000,10.38856201171875,-1.5682021379470825,-4.005499362945557,-3.3877954483032227
1696082914991562200,10.398562255859375,-0.9696516990661621,-3.6367924213409424,-3.332728862762451
1696082915001562000,10.40856201171875,-0.12210428714752197,-3.3854012489318848,-3.354276657104492
1696082915011562200,10.418562255859374,0.9289502501487732,-3.557783842086792,-2.8347349166870117
1696082915021562000,10.42856201171875,1.8052281141281128,-4.220977783203125,-1.5538369417190552
1696082915031562200,10.438562255859376,2.9496564865112305,-5.092766284942627,0.9552865028381348
1696082915041562000,10.44856201171875,6.028899192810059,-6.672939300537109,3.8762125968933105
1696082915051562200,10.458562255859375,10.862792015075684,-9.399934768676758,7.556399822235107
1696082915061562000,10.46856201171875,10.01524543762207,-12.14369010925293,11.42064094543457
1696082915071562200,10.478562255859375,8.873210906982422,-14.983512878417969,12.05031681060791
1696082915081562400,10.488562255859375,11.073482513427734,-16.95154571533203,11.166855812072754
1696082915091562200,10.498562255859374,14.173973083496094,-18.172590255737305,10.278607368469238
1696082915101562400,10.508562255859376,14.523527145385742,-19.261951446533203,8.777442932128906
1696082915111562200,10.518562255859376,11.435006141662598,-18.969858169555664,5.811026573181152
1696082915121562400,10.528562255859375,7.561188220977783,-15.828665733337402,2.406172752380371
1696082915131562200,10.538562255859375,4.9275665283203125,-11.075876235961914,0.09576806426048279
1696082915141562000,10.54856201171875,4.46518611907959,-6.821380138397217,-0.4381389021873474
1696082915151562200,10.558562255859375,5.660192012786865,-4.077325344085693,-1.4317326545715332
1696082915161562000,10.56856201171875,5.15740966796875,-4.961085319519043,-2.7676970958709717
1696082915171562200,10.578562255859374,4.20421838760376,-8.868422508239746,-4.675876140594482
1696082915181562000,10.58856201171875,1.556231141090393,-13.400646209716797,-6.222829341888428
1696082915191562200,10.598562255859376,-4.113238334655762,-16.178218841552734,-6.191704750061035
1696082915201562000,10.60856201171875,-7.206846237182617,-17.597980499267578,-5.454290866851807
1696082915211562200,10.618562255859375,-5.044882297515869,-16.74325180053711,-3.4548330307006836
1696082915221562000,10.62856201171875,-2.2242133617401123,-14.57380485534668,-1.0247182846069336
1696082915231562200,10.638562255859375,-0.11252748221158981,-12.275371551513672,0.3711012601852417
1696082915241562000,10.64856201171875,0.19393034279346466,-9.198822021484375,-0.08619125932455063
1696082915251562200,10.658562255859374,-1.3934253454208374,-7.211634635925293,-0.9983820915222168
1696082915261562000,10.66856201171875,-4.041412353515625,-6.098330974578857,-1.8507179021835327
1696082915271562200,10.678562255859376,-5.918766021728516,-6.289866924285889,-2.631227731704712
1696082915281562000,10.68856201171875,-6.962637901306152,-7.558794021606445,-3.3063924312591553
1696082915291562200,10.698562255859375,-7.173327445983887,-9.088688850402832,-3.773261785507202
1696082915301562000,10.70856201171875,-6.778284072875977,-10.647314071655273,-3.9695863723754883
1696082915311562200,10.718562255859375,-5.621884822845459,-11.83723258972168,-3.464409828186035
1696082915321562000,10.72856201171875,-4.963479518890381,-12.308890342712402,-2.341529369354248
1696082915331562200,10.738562255859375,-4.398148536682129,-12.138901710510254,-1.1683704853057861
1696082915341562400,10.748562255859374,-3.227383852005005,-11.456554412841797,-0.2585737705230713
1696082915351562200,10.758562255859376,-1.6735470294952393,-10.503662109375,0.4596867263317108
1696082915361562400,10.768562255859376,-0.08619125932455063,-9.610625267028809,1.0630255937576294
1696082915371562200,10.778562255859375,1.6543933153152466,-8.909123420715332,1.6950948238372803
1696082915381562000,10.78856201171875,3.3470940589904785,-8.473379135131836,2.1380221843719482
1696082915391562200,10.798562255859375,4.594472885131836,-8.308178901672363,2.4181437492370605
1696082915401562000,10.80856201171875,4.901230335235596,-8.28663158416748,2.4444799423217773
1696082915411562200,10.818562255859375,4.288015365600586,-8.418312072753906,2.0470423698425293
1696082915421562000,10.82856201171875,2.980781078338623,-8.521263122558594,1.4293384552001953
1696082915431562200,10.838562255859374,1.501164436340332,-8.619425773620605,0.5219359993934631
1696082915441562000,10.84856201171875,0.2059013396501541,-8.693645477294922,-0.5219359993934631
1696082915451562200,10.858562255859376,-0.9840168952941895,-8.791808128356934,-1.525106430053711
1696082915461562000,10.86856201171875,-1.965639591217041,-8.801384925842285,-2.0422539710998535
1696082915471562200,10.878562255859375,-2.537853717803955,-8.480561256408691,-2.2361843585968018
1696082915481562000,10.88856201171875,-2.5282769203186035,-8.415918350219727,-1.9393033981323242
1696082915491562200,10.898562255859375,-2.2146365642547607,-8.858845710754395,-1.4915876388549805
1696082915501562000,10.90856201171875,-1.0582371950149536,-9.639355659484863,-1.2306196689605713
1696082915511562200,10.918562255859374,0.5506663918495178,-10.427047729492188,-0.8188169598579407
1696082915521562000,10.92856201171875,2.0877439975738525,-10.941801071166992,-0.28969839215278625
1696082915531562200,10.938562255859376,2.7078421115875244,-11.032780647277832,0.4429273009300232
1696082915541562000,10.94856201171875,2.056619167327881,-10.75265884399414,1.3766659498214722
1696082915551562200,10.958562255859375,1.048660397529602,-10.29057788848877,1.9728221893310547
1696082915561562000,10.96856201171875,0.2513911724090576,-9.974543571472168,2.097320795059204
1696082915571562200,10.978562255859375,-0.1867477297782898,-9.92665958404541,1.7525556087493896
1696082915581562400,10.988562255859375,-0.2561795711517334,-10.087071418762207,1.1851298809051514
1696082915591562200,10.998562255859374,0.4884171485900879,-10.252270698547363,0.47884035110473633
1696082915601562400,11.008562255859376,2.121262788772583,-10.474931716918945,-0.12689268589019775
1696082915611562200,11.018562255859376,3.957615375518799,-10.692804336547852,-0.2346317619085312
1696082915621562400,11.028562255859375,5.11191987991333,-10.846033096313477,0.10534487664699554
1696082915631562200,11.038562255859375,4.886565685272217,-10.819696426391602,0.7757213711738586
1696082915641562000,11.04856201171875,3.3686418533325195,-10.714351654052734,1.5610195398330688
1696082915651562200,11.058562255859375,1.2976573705673218,-10.532392501831055,2.0638017654418945
1696082915661562000,11.06856201171875,-0.47405192255973816,-10.462960243225098,2.315192937850952
1696082915671562200,11.078562255859374,-1.4844050407409668,-10.632948875427246,2.671929121017456
1696082915681562000,11.08856201171875,-1.678335428237915,-10.992079734802246,3.3039982318878174
1696082915691562200,11.098562255859376,-1.1971008777618408,-11.396698951721191,3.9193081855773926
1696082915701562000,11.10856201171875,-0.2801215946674347,-11.727099418640137,4.505887508392334
1696082915711562200,11.118562255859375,1.05105459690094,-11.662455558776855,4.69024133682251
1696082915721562000,11.12856201171875,2.765302896499634,-11.26023006439209,4.20421838760376
1696082915731562200,11.138562255859375,4.501099109649658,-10.836456298828125,3.268085241317749
1696082915741562000,11.14856201171875,5.51893424987793,-10.910676002502441,2.580949544906616
1696082915751562200,11.158562255859374,5.0807952880859375,-11.789348602294922,2.2242133617401123
1696082915761562000,11.16856201171875,3.84269380569458,-12.48127269744873,1.6328455209732056
1696082915771562200,11.178562255859376,2.9041666984558105,-12.404658317565918,0.9217676520347595
1696082915781562000,11.18856201171875,2.4875755310058594,-11.796530723571777,0.727837324142456
1696082915791562200,11.198562255859375,2.650381326675415,-11.705551147460938,1.5466543436050415
1696082915801562000,11.20856201171875,1.941697597503662,-12.428600311279297,2.3989901542663574
1696082915811562200,11.218562255859375,0.5219359993934631,-13.776535987854004,2.942473888397217
1696082915821562000,11.22856201171875,-0.45250412821769714,-15.318700790405273,2.252943754196167
1696082915831562200,11.238562255859375,-0.7493851184844971,-16.115970611572266,0.1604115068912506
1696082915841562400,11.248562255859374,-0.5913678407669067,-16.88450813293457,-2.3127987384796143
1696082915851562200,11.258562255859376,-1.039083480834961,-17.806276321411133,-4.125209331512451
1696082915861562400,11.268562255859376,-2.389413356781006,-18.431163787841797,-6.019322395324707
1696082915871562200,11.278562255859375,-3.397372245788574,-18.617910385131836,-7.5109100341796875
1696082915881562000,11.28856201171875,-3.866635799407959,-18.32581901550293,-8.114249229431152
1696082915891562200,11.298562255859375,-3.9911341667175293,-16.94915199279785,-7.884405612945557
1696082915901562000,11.30856201171875,-2.715024709701538,-14.90211009979248,-7.123049259185791
1696082915911562200,11.318562255859375,-0.1604115068912506,-13.041516304016113,-6.093542575836182
1696082915921562000,11.32856201171875,2.030282974243164,-11.581052780151367,-4.800374507904053
1696082915931562200,11.338562255859374,2.6862943172454834,-10.563517570495605,-3.7852327823638916
1696082915941562000,11.34856201171875,1.3886369466781616,-9.845256805419922,-2.734178304672241
1696082915951562200,11.358562255859376,-1.7405846118927002,-9.323320388793945,-1.6759412288665771
1696082915961562000,11.36856201171875,-2.5953147411346436,-8.851662635803223,-0.6392518281936646
1696082915971562200,11.378562255859375,-1.644816517829895,-7.958625793457031,0.08140286058187485
1696082915981562000,11.38856201171875,-0.8427590131759644,-6.979397296905518,0.9265560507774353
1696082915991562200,11.398562255859375,0.47644615173339844,-6.071994781494141,1.601720929145813
1696082916001562000,11.40856201171875,0.7565677165985107,-5.389647483825684,1.7621324062347412
1696082916011562200,11.418562255859374,0.043095629662275314,-5.090372085571289,1.4748282432556152
1696082916021562000,11.42856201171875,-0.912190854549408,-5.1693806648254395,1.482010841369629
1696082916031562200,11.438562255859376,-1.6304513216018677,-5.547664642333984,1.4676456451416016
1696082916041562000,11.44856201171875,-1.558625340461731,-6.186916351318359,0.7469909191131592
1696082916051562200,11.458562255859375,-1.2665326595306396,-6.586748123168945,-0.5003881454467773
1696082916061562000,11.46856201171875,-1.2401964664459229,-6.749553680419922,-1.4437036514282227
1696082916071562200,11.478562255859375,-1.5107412338256836,-6.852504730224609,-1.946485996246338
1696082916081562000,11.48856201171875,-1.778891921043396,-6.945878505706787,-2.2218191623687744
1696082916091562200,11.498562255859374,-1.6950948238372803,-6.881235122680664,-2.5977089405059814
1696082916101562000,11.50856201171875,-1.5610195398330688,-6.555623531341553,-2.918531894683838
1696082916111562200,11.518562255859376,-1.8124107122421265,-6.103119373321533,-3.064578056335449
1696082916121562000,11.52856201171875,-2.0422539710998535,-5.605125427246094,-3.1004912853240967
1696082916131562200,11.538562255859375,-2.073378562927246,-4.985027313232422,-3.138798475265503
1696082916141562000,11.54856201171875,-1.7525556087493896,-4.323928356170654,-3.2178070545196533
1696082916151562200,11.558562255859375,-1.2832920551300049,-3.713406801223755,-3.308786630630493
1696082916161562000,11.56856201171875,-0.7206547260284424,-3.2609026432037354,-3.4117374420166016
1696082916171562200,11.578562255859374,-0.05027823522686958,-3.1459810733795166,-3.2632968425750732
1696082916181562000,11.58856201171875,0.7805097699165344,-3.4787750244140625,-2.691082715988159
1696082916191562200,11.598562255859376,1.659181833267212,-4.323928356170654,-1.2545616626739502
1696082916201562000,11.60856201171875,3.2130186557769775,-5.360917091369629,1.0606313943862915
1696082916211562200,11.618562255859375,6.086359977722168,-7.015310287475586,3.6583402156829834
1696082916221562000,11.62856201171875,10.678439140319824,-9.58907699584961,6.610690116882324
1696082916231562200,11.638562255859375,13.11334228515625,-12.835614204406738,9.991303443908691
1696082916241562000,11.64856201171875,12.35916805267334,-16.290746688842773,12.32325553894043
1696082916251562200,11.658562255859374,11.561899185180664,-18.900426864624023,13.233052253723145
1696082916261562000,11.66856201171875,10.59224796295166,-19.352930068969727,11.705551147460938
1696082916271562200,11.678562255859376,9.007286071777344,-18.251598358154297,9.47415542602539
1696082916281562000,11.68856201171875,7.012916088104248,-16.63311767578125,6.969820499420166
1696082916291562200,11.698562255859375,5.693710803985596,-13.977648735046387,4.14915132522583
1696082916301562000,11.70856201171875,4.606443881988525,-10.587459564208984,2.279279947280884
1696082916311562200,11.718562255859375,4.0964789390563965,-6.9363017082214355,0.9959878921508789
1696082916321562000,11.72856201171875,3.892971992492676,-3.794809579849243,-0.12210428714752197
1696082916331562200,11.738562255859375,3.952826976776123,-2.248155355453491,-1.2258312702178955
1696082916341562000,11.74856201171875,2.559401512145996,-4.113238334655762,-2.2242133617401123
1696082916351562200,11.758562255859376,0.5386953949928284,-8.212410926818848,-3.138798475265503
1696082916361562000,11.76856201171875,-2.2002713680267334,-12.814066886901855,-3.799597978591919
1696082916371562200,11.778562255859375,-4.817133903503418,-16.477495193481445,-3.397372245788574
1696082916381562000,11.78856201171875,-4.726154327392578,-19.463064193725586,-2.1954829692840576
1696082916391562200,11.798562255859375,0.33039984107017517,-21.136611938476562,-0.33039984107017517
1696082916401562000,11.80856201171875,6.1414265632629395,-20.729597091674805,0.4596867263317108
1696082916411562200,11.818562255859375,6.3209919929504395,-15.677831649780273,-0.912190854549408
1696082916421562000,11.82856201171875,2.2361843585968018,-10.292972564697266,-3.07415509223938
1696082916431562200,11.838562255859374,-1.501164436340332,-6.452672958374023,-4.537012100219727
1696082916441562000,11.84856201171875,-4.479551315307617,-3.801992416381836,-5.820603370666504
1696082916451562200,11.858562255859376,-6.644208908081055,-3.5960910320281982,-6.663362503051758
1696082916461562000,11.86856201171875,-7.209240436553955,-4.886565685272217,-6.711246490478516
1696082916471562200,11.878562255859375,-6.902782917022705,-6.809409141540527,-5.360917091369629
1696082916481562000,11.88856201171875,-6.818985939025879,-8.966584205627441,-4.752490520477295
1696082916491562200,11.898562255859375,-6.862081527709961,-10.795754432678223,-5.1023430824279785
1696082916501562000,11.90856201171875,-6.40000057220459,-11.827655792236328,-3.9001545906066895
1696082916511562200,11.918562255859374,-5.585971832275391,-12.251429557800293,-2.913743495941162
1696082916521562000,11.92856201171875,-4.7836151123046875,-11.923423767089844,-2.0901381969451904
1696082916531562200,11.938562255859376,-3.7205893993377686,-11.063905715942383,-1.4748282432556152
1696082916541562000,11.94856201171875,-1.8555063009262085,-10.395922660827637,-0.6871358752250671
1696082916551562200,11.958562255859375,0.586579442024231,-10.05115795135498,0.5027823448181152
1696082916561562000,11.96856201171875,3.4404678344726562,-9.885957717895508,1.7046716213226318
1696082916571562200,11.978562255859375,6.08396577835083,-9.703998565673828,2.846705913543701
1696082916581562000,11.98856201171875,7.32655668258667,-9.457395553588867,3.4739866256713867
1696082916591562200,11.998562255859374,6.677727699279785,-9.007286071777344,3.5482068061828613
1696082916601562000,12.00856201171875,4.951508522033691,-8.588300704956055,3.1483752727508545
1696082916611562200,12.018562255859376,2.717418909072876,-8.293813705444336,2.5498247146606445
1696082916621562000,12.02856201171875,0.3711012601852417,-8.025663375854492,1.821987509727478
1696082916631562200,12.038562255859375,-1.6136919260025024,-7.841310024261475,0.950498104095459
1696082916641562000,12.04856201171875,-2.8203697204589844,-7.90355920791626,0.17956513166427612
1696082916651562200,12.058562255859375,-3.804386615753174,-8.224382400512695,-0.3998316824436188
1696082916661562400,12.068562255859375,-4.185064792633057,-8.724770545959473,-0.5123591423034668
1696082916671562200,12.078562255859374,-3.0789434909820557,-9.237129211425781,-0.545877993106842
1696082916681562400,12.088562255859374,-1.5753847360610962,-10.242693901062012,-0.49559974670410156
1696082916691562200,12.098562255859376,0.36152446269989014,-11.4757080078125,-0.3758896589279175
1696082916701562400,12.108562255859376,2.1954829692840576,-12.112565994262695,-0.28969839215278625
1696082916711562200,12.118562255859375,3.265691041946411,-11.822867393493652,0.272938996553421
1696082916721562400,12.128562255859375,3.0789434909820557,-10.910676002502441,1.2497732639312744
1696082916731562200,12.138562255859375,1.9991583824157715,-9.739912033081055,2.0638017654418945
1696082916741562400,12.148562255859375,0.608127236366272,-8.787019729614258,2.126051187515259
1696082916751562200,12.158562255859374,-0.5841852426528931,-8.571541786193848,1.41257905960083
1696082916761562400,12.168562255859374,-1.237802267074585,-9.095871925354004,0.3232172429561615
1696082916771562200,12.178562255859376,-1.213860273361206,-9.92665958404541,-0.5554547905921936
1696082916781562400,12.188562255859376,-0.7230489253997803,-10.800542831420898,-1.139639973640442
1696082916791562200,12.198562255859375,0.16759411990642548,-11.4972562789917,-1.5514427423477173
1696082916801562400,12.208562255859375,1.3527239561080933,-11.71273422241211,-1.7166426181793213
1696082916811562200,12.218562255859375,2.8347349166870117,-11.542745590209961,-1.4748282432556152
1696082916821562400,12.228562255859375,4.242525577545166,-10.992079734802246,-0.8834604024887085
1696082916831562200,12.238562255859375,4.8482584953308105,-10.178050994873047,-0.1388636976480484
1696082916841562400,12.248562255859374,4.094084739685059,-9.452607154846191,0.6823474764823914
1696082916851562200,12.258562255859376,2.363077163696289,-9.251494407653809,1.314416766166687
1696082916861562400,12.268562255859376,0.45010992884635925,-9.603442192077637,1.8483237028121948
1696082916871562200,12.278562255859375,-0.9648633003234863,-10.369586944580078,2.406172752380371
1696082916881562400,12.288562255859375,-1.7046716213226318,-11.116578102111816,3.0334534645080566
1696082916891562200,12.298562255859375,-2.1164743900299072,-11.542745590209961,3.8522706031799316
1696082916901562400,12.308562255859375,-1.9752163887023926,-11.557110786437988,4.558559894561768
1696082916911562200,12.318562255859375,-0.9840168952941895,-11.186009407043457,4.980238914489746
1696082916921562400,12.328562255859374,0.912190854549408,-10.541969299316406,4.73573112487793
1696082916931562200,12.338562255859374,2.734178304672241,-10.393528938293457,4.32871675491333
1696082916941562400,12.348562255859376,3.5697548389434814,-11.35120964050293,4.113238334655762
1696082916951562200,12.358562255859376,3.3039982318878174,-12.763788223266602,3.60566782951355
1696082916961562000,12.36856201171875,2.6384103298187256,-14.075811386108398,2.784456491470337
1696082916971562200,12.378562255859375,2.3343467712402344,-14.8374662399292,1.8531121015548706
1696082916981562000,12.38856201171875,2.612074136734009,-14.911686897277832,1.1109095811843872
1696082916991562200,12.398562255859375,2.7964274883270264,-14.308048248291016,0.5746083855628967
1696082917001562000,12.40856201171875,2.7916390895843506,-13.36473274230957,-0.08858546614646912
1696082917011562200,12.418562255859374,2.8802247047424316,-12.730269432067871,-0.8188169598579407
1696082917021562000,12.42856201171875,2.652775526046753,-12.969690322875977,-1.5969325304031372
1696082917031562200,12.438562255859376,1.9704279899597168,-13.687950134277344,-2.5234885215759277
1696082917041562000,12.44856201171875,-0.0694318488240242,-14.691121101379395,-3.600879430770874
1696082917051562200,12.458562255859375,-2.425326347351074,-15.68262004852295,-5.116708278656006
1696082917061562000,12.46856201171875,-3.957615375518799,-16.49664878845215,-6.280290126800537
1696082917071562200,12.478562255859375,-4.807557106018066,-16.44158172607422,-7.393594264984131
1696082917081562000,12.48856201171875,-4.8051629066467285,-15.747262954711914,-7.776666164398193
1696082917091562200,12.498562255859374,-3.5936968326568604,-14.638448715209961,-6.826168537139893
1696082917101562000,12.50856201171875,-1.8507179021835327,-13.637672424316406,-5.2555718421936035
1696082917111562200,12.518562255859376,-0.26815059781074524,-12.730269432067871,-3.098097085952759
1696082917121562000,12.52856201171875,2.078166961669922,-11.81568431854248,-1.7860745191574097
1696082917131562200,12.538562255859375,2.8371291160583496,-11.121366500854492,-0.608127236366272
1696082917141562000,12.54856201171875,2.075772762298584,-10.575488090515137,0.11252748221158981
1696082917151562200,12.558562255859375,0.6727706789970398,-10.065523147583008,0.15801730751991272
1696082917161562000,12.56856201171875,-0.36152446269989014,-9.581894874572754,-0.10534487664699554
1696082917171562200,12.578562255859374,-1.1252747774124146,-9.124602317810059,-0.30885201692581177
1696082917181562000,12.58856201171875,-1.4844050407409668,-8.602665901184082,-0.3926490843296051
1696082917191562200,12.598562255859376,-1.4676456451416016,-8.097489356994629,-0.4572925269603729
1696082917201562000,12.60856201171875,-2.049436569213867,-7.597101211547852,-0.2944868206977844
1696082917211562200,12.618562255859375,-2.319981336593628,-7.118260860443115,-0.395043283700943
