time,seconds_elapsed,z,y,x
1696082904601842000,0.008842041015625,7.965808391571045,5.018546104431152,0.2322375625371933
1696082904611841800,0.018841796875,7.917924404144287,5.049670696258545,0.24181437492370605
1696082904621842000,0.028842041015625,8.004115104675293,5.0784010887146,0.2825157940387726
1696082904631841800,0.038841796875,8.090307235717773,5.1693806648254395,0.17717093229293823
1696082904641841700,0.048841552734375,8.19565200805664,5.207687854766846,0.11971008777618408
1696082904651841800,0.058841796875,8.260294914245605,5.138256072998047,0.0933738648891449
1696082904661841700,0.068841552734375,8.243535995483398,5.083189487457275,0.14365209639072418
1696082904671841800,0.078841796875,8.260294914245605,4.9706621170043945,0.38067805767059326
1696082904681841700,0.088841552734375,8.23156452178955,4.944325923919678,0.3663128614425659
1696082904691841800,0.098841796875,8.159738540649414,5.025728702545166,0.19632454216480255
1696082904701841700,0.108841552734375,8.262689590454102,5.087977886199951,0.19393034279346466
1696082904711841800,0.118841796875,8.442254066467285,5.150227069854736,0.1364694982767105
1696082904721841700,0.128841552734375,8.595483779907227,5.164592266082764,0.05506663769483566
1696082904731841800,0.138841796875,8.662521362304688,5.140650272369385,0.0454898327589035
1696082904741841700,0.148841552734375,8.5811185836792,5.025728702545166,0.16519992053508759
1696082904751841800,0.158841796875,8.50210952758789,4.946720123291016,0.2801215946674347
1696082904761841700,0.168841552734375,8.296208381652832,4.961085319519043,0.30885201692581177
1696082904771841800,0.178841796875,8.102277755737305,4.89644193649292,0.272938996553421
1696082904781841700,0.188841552734375,8.004115104675293,4.891354084014893,0.3423708379268646
1696082904791841800,0.198841796875,8.013691902160645,4.862623691558838,0.3471592366695404
1696082904801841700,0.208841552734375,8.097489356994629,4.853046894073486,0.31124621629714966
1696082904811841800,0.218841796875,8.111854553222656,4.853046894073486,0.33758243918418884
1696082904821841700,0.228841552734375,8.075942039489746,4.898836135864258,0.3016694188117981
1696082904831841800,0.238841796875,8.044816970825195,4.836287498474121,0.272938996553421
1696082904841842000,0.248842041015625,8.8971529006958,3.97916316986084,1.0247182846069336
1696082904851841800,0.258841796875,8.19565200805664,3.845088005065918,0.9576807022094727
1696082904861842000,0.268842041015625,7.676109790802002,4.031835556030273,0.9145850539207458
1696082904871841800,0.278841796875,6.9602437019348145,4.141968727111816,0.6368576288223267
1696082904881841700,0.288841552734375,6.584353923797607,4.173093795776367,0.12928688526153564
1696082904891841800,0.298841796875,6.653785705566406,3.7421371936798096,-0.17956513166427612
1696082904901841700,0.308841552734375,6.469432353973389,3.579331636428833,-0.17956513166427612
1696082904911841800,0.318841796875,6.366481781005859,3.9600095748901367,-0.40462008118629456
1696082904921841700,0.328841552734375,5.911583423614502,4.017470359802246,-1.2545616626739502
1696082904931841800,0.338841796875,5.514145851135254,3.9600095748901367,-1.8171991109848022
1696082904941841700,0.348841552734375,5.332186222076416,3.7852327823638916,-2.006340980529785
1696082904951841800,0.358841796875,5.334580898284912,3.315969467163086,-1.9776105880737305
1696082904961841700,0.368841552734375,5.272331237792969,3.0406360626220703,-2.2601263523101807
1696082904971841800,0.378841796875,5.554847240447998,2.875436305999756,-2.2170307636260986
1696082904981841700,0.388841552734375,5.8780646324157715,2.829946517944336,-1.8387469053268433
1696082904991841800,0.398841796875,6.191704750061035,2.760514497756958,-1.5945383310317993
1696082905001841700,0.408841552734375,6.541258335113525,2.698265314102173,-1.359906554222107
1696082905011841800,0.418841796875,6.720823287963867,2.6216509342193604,-0.993593692779541
1696082905021841700,0.428841552734375,6.376058578491211,2.4851813316345215,-0.4668693244457245
1696082905031841800,0.438841796875,6.036081790924072,2.427720546722412,0.24660277366638184
1696082905041841700,0.448841552734375,5.952284812927246,2.516305923461914,0.7661445140838623
1696082905051841800,0.458841796875,6.332962989807129,2.6240451335906982,1.0797849893569946
1696082905061841700,0.468841552734375,6.883629322052002,2.669534921646118,1.338358759880066
1696082905071841800,0.478841796875,7.384017467498779,2.6862943172454834,1.6519991159439087
1696082905081842000,0.488842041015625,7.628225803375244,2.7509377002716064,1.965639591217041
1696082905091841800,0.498841796875,7.795820236206055,2.7078421115875244,2.185906171798706
1696082905101842000,0.508842041015625,7.721599578857422,2.6647465229034424,2.5905263423919678
1696082905111841800,0.518841796875,7.527669429779053,2.5546131134033203,2.9305028915405273
1696082905121842000,0.528842041015625,6.929119110107422,2.5234885215759277,3.471592426300049
1696082905131841800,0.538841796875,5.353734493255615,2.8562827110290527,4.0749311447143555
1696082905141841700,0.548841552734375,5.466261863708496,3.5482068061828613,4.230554580688477
1696082905151841800,0.558841796875,4.434061527252197,3.2992098331451416,4.750096321105957
1696082905161841700,0.568841552734375,1.0462661981582642,2.940079689025879,5.439925670623779
1696082905171841800,0.578841796875,3.359065055847168,1.45806884765625,6.993762493133545
1696082905181841700,0.588841552734375,3.5218706130981445,0.09816227108240128,7.048829078674316
1696082905191841800,0.598841796875,3.7684733867645264,-0.8140285611152649,5.844545841217041
1696082905201841700,0.608841552734375,3.3734302520751953,-1.403002142906189,6.045658588409424
1696082905211841800,0.618841796875,3.0142998695373535,-1.644816517829895,6.079177379608154
1696082905221841700,0.628841552734375,2.4372973442077637,-1.8291701078414917,5.693710803985596
1696082905231841800,0.638841796875,2.5091233253479004,-2.978386878967285,5.995380401611328
1696082905241842000,0.648842041015625,3.2537200450897217,-5.128679275512695,7.324162483215332
1696082905251841800,0.658841796875,3.56017804145813,-6.239588737487793,8.324938774108887
1696082905261842000,0.668842041015625,3.3255462646484375,-6.53646993637085,8.245929718017578
1696082905271841800,0.678841796875,2.7437551021575928,-6.608295917510986,7.498939037322998
1696082905281841400,0.68884130859375,2.097320795059204,-6.2276177406311035,6.933907508850098
1696082905291841300,0.69884130859375,1.644816517829895,-5.679345607757568,6.7351884841918945
1696082905301841000,0.7088408203125,1.8195933103561401,-5.846940040588379,6.972214698791504
1696082905311841000,0.718841064453125,2.2170307636260986,-6.1629743576049805,7.506121635437012
1696082905321841000,0.7288408203125,3.0597896575927734,-6.452672958374023,8.03763484954834
1696082905331841000,0.738841064453125,3.56017804145813,-6.644208908081055,8.942642211914062
1696082905341841000,0.7488408203125,3.5936968326568604,-6.646603107452393,10.070311546325684
1696082905351841000,0.758841064453125,2.9712042808532715,-6.586748123168945,11.130943298339844
1696082905361841000,0.7688408203125,2.542642116546631,-6.304232120513916,12.41662883758545
1696082905371841000,0.778841064453125,3.157952070236206,-6.012139797210693,14.48282527923584
1696082905381841000,0.7888408203125,5.621884822845459,-6.1629743576049805,17.7320556640625
1696082905391840800,0.7988408203125,8.731952667236328,-6.435913562774658,21.79022789001465
1696082905401840600,0.808840576171875,10.90109920501709,-7.161356449127197,25.69068145751953
1696082905411840800,0.8188408203125,11.791742324829102,-7.676109790802002,28.781597137451172
1696082905421840600,0.828840576171875,11.29374885559082,-7.609072208404541,30.689775466918945
1696082905431840800,0.8388408203125,9.878775596618652,-6.696881294250488,31.422401428222656
1696082905441840600,0.848840576171875,8.815750122070312,-5.320215225219727,31.180585861206055
1696082905451840800,0.8588408203125,8.4015531539917,-4.649539470672607,30.074464797973633
1696082905461840600,0.868840576171875,7.870040416717529,-4.37420654296875,28.453590393066406
1696082905471840800,0.8788408203125,7.412747859954834,-3.490746021270752,26.669910430908203
1696082905481840600,0.888840576171875,7.364863872528076,-2.7054479122161865,25.037065505981445
1696082905491840800,0.8988408203125,7.094318866729736,-2.6408045291900635,23.54757308959961
1696082905501840600,0.908840576171875,6.22043514251709,-2.806004285812378,22.549190521240234
1696082905511840800,0.9188408203125,4.752490520477295,-3.050212860107422,20.535667419433594
1696082905521840600,0.928840576171875,3.354276657104492,-2.8658595085144043,18.433557510375977
1696082905531840800,0.9388408203125,2.1164743900299072,-2.427720546722412,16.297929763793945
1696082905541840600,0.948840576171875,1.1276689767837524,-2.0925323963165283,13.965678215026855
1696082905551840500,0.958840576171875,0.6368576288223267,-1.7549498081207275,11.07827091217041
1696082905561840600,0.968840576171875,0.5291185975074768,-1.414973258972168,8.181286811828613
1696082905571840500,0.978840576171875,0.8882488012313843,-1.0223240852355957,5.401618480682373
1696082905581841200,0.988841064453125,1.4700398445129395,-0.304063618183136,2.3271639347076416
1696082905591841000,0.998841064453125,1.482010841369629,0.6344634294509888,-0.646434485912323
1696082905601841400,1.00884130859375,1.800439715385437,1.5729905366897583,-3.5721490383148193
1696082905611841500,1.018841552734375,2.6240451335906982,2.451662540435791,-6.081571578979492
1696082905621841400,1.02884130859375,3.4332852363586426,3.179499864578247,-8.2219877243042
1696082905631841500,1.038841552734375,3.912125587463379,3.6128504276275635,-9.988908767700195
1696082905641841400,1.04884130859375,3.9887399673461914,3.294421434402466,-11.054328918457031
1696082905651841300,1.05884130859375,3.4787750244140625,2.6839001178741455,-11.492467880249023
1696082905661841200,1.068841064453125,2.3104045391082764,2.2457611560821533,-10.771812438964844
1696082905671841300,1.07884130859375,0.9217676520347595,1.7070658206939697,-8.787019729614258
1696082905681841200,1.088841064453125,0.08619125932455063,0.8978256583213806,-6.112696170806885
1696082905691841300,1.09884130859375,-1.2282254695892334,0.33518823981285095,-3.7014358043670654
1696082905701841400,1.10884130859375,-2.169146776199341,0.304063618183136,-1.0630255937576294
1696082905711841300,1.11884130859375,-2.188300371170044,-0.19632454216480255,1.45806884765625
1696082905721841400,1.12884130859375,-2.940079689025879,-1.7357962131500244,3.552995204925537
1696082905731841300,1.13884130859375,-4.517858505249023,-3.3303346633911133,5.238812446594238
1696082905741841400,1.14884130859375,-6.708852291107178,-3.8115692138671875,7.137414455413818
1696082905751841300,1.15884130859375,-8.602665901184082,-3.2968156337738037,10.144532203674316
1696082905761841400,1.16884130859375,-9.366415977478027,-3.315969467163086,13.094188690185547
1696082905771841500,1.178841552734375,-9.699210166931152,-3.8498764038085938,15.488689422607422
1696082905781841400,1.18884130859375,-10.003273963928223,-4.395754337310791,17.49263572692871
1696082905791841500,1.198841552734375,-10.05115795135498,-4.611232280731201,18.51017189025879
1696082905801841400,1.20884130859375,-9.052776336669922,-3.9049429893493652,19.831771850585938
1696082905811841300,1.21884130859375,-6.96503210067749,-3.4811692237854004,20.619462966918945
1696082905821841400,1.22884130859375,-5.344157695770264,-2.518700122833252,19.398420333862305
1696082905831841300,1.23884130859375,-3.8139634132385254,-2.4851813316345215,18.965070724487305
1696082905841841400,1.24884130859375,-1.7118542194366455,-2.9472622871398926,18.433557510375977
1696082905851841500,1.258841552734375,-1.7573440074920654,-3.1747114658355713,17.629106521606445
1696082905861840600,1.268840576171875,0.2059013396501541,-2.518700122833252,16.34102439880371
1696082905871840500,1.278840576171875,2.073378562927246,-2.2242133617401123,15.371373176574707
1696082905881840600,1.288840576171875,5.8565168380737305,-2.4181437492370605,12.457330703735352
1696082905891840500,1.298840576171875,2.43011474609375,-0.33758243918418884,9.019257545471191
1696082905901840600,1.308840576171875,0.9265560507774353,-2.161964178085327,9.126996040344238
1696082905911840800,1.3188408203125,2.4660277366638184,-3.047818660736084,9.598653793334961
1696082905921840600,1.328840576171875,1.137245774269104,-2.410961151123047,9.062353134155273
1696082905931840800,1.3388408203125,-0.4405331015586853,-1.8626888990402222,8.478167533874512
1696082905941840600,1.348840576171875,-1.4724340438842773,-2.4468741416931152,8.801384925842285
1696082905951841000,1.358841064453125,-0.4429273009300232,-1.3431471586227417,9.179668426513672
1696082905961841200,1.368841064453125,0.038307227194309235,-1.0869675874710083,7.7287821769714355
1696082905971841000,1.378841064453125,-1.280897855758667,0.004788403399288654,5.679345607757568
1696082905981841200,1.388841064453125,-1.6855180263519287,1.5634137392044067,3.804386615753174
1696082905991841000,1.398841064453125,-2.0829553604125977,0.5363011956214905,3.047818660736084
1696082906001841200,1.408841064453125,-1.5466543436050415,1.0319008827209473,2.918531894683838
1696082906011841000,1.418841064453125,-1.7286136150360107,0.9744400978088379,3.1507694721221924
1696082906021841200,1.428841064453125,-3.56017804145813,1.048660397529602,4.402936935424805
1696082906031841000,1.438841064453125,-3.2776620388031006,-1.1516109704971313,7.455843448638916
1696082906041841200,1.448841064453125,-2.9305028915405273,-2.1475989818573,11.913846969604492
1696082906051841000,1.458841064453125,-2.580949544906616,-2.5737667083740234,14.071022987365723
1696082906061841200,1.468841064453125,-2.365471363067627,-3.3446998596191406,13.084611892700195
1696082906071841000,1.478841064453125,-1.9967641830444336,-2.8993782997131348,8.049605369567871
1696082906081841200,1.488841064453125,0.9552865028381348,-2.7006595134735107,4.333505153656006
1696082906091841000,1.498841064453125,4.776432514190674,-4.122815132141113,2.1499931812286377
1696082906101841200,1.508841064453125,4.525041103363037,-8.784625053405762,4.350264549255371
1696082906111841000,1.518841064453125,1.0821791887283325,-9.138967514038086,2.542642116546631
1696082906121841400,1.52884130859375,-2.786850690841675,-9.359233856201172,1.6615760326385498
1696082906131841300,1.53884130859375,-2.5905263423919678,-12.677597045898438,5.569212436676025
1696082906141841400,1.54884130859375,-2.9759926795959473,-13.230657577514648,7.807791233062744
1696082906151841300,1.55884130859375,-2.118868589401245,-14.724939346313477,9.071929931640625
1696082906161842700,1.5688427734375,0.19871874153614044,-13.683161735534668,7.604283809661865
1696082906171842600,1.578842529296875,-0.38307225704193115,-16.546926498413086,11.863568305969238
1696082906181842400,1.588842529296875,3.936067581176758,-13.522750854492188,6.66096830368042
1696082906191842600,1.598842529296875,7.793426036834717,-11.372756958007812,3.294421434402466
1696082906201843000,1.608843017578125,10.338461875915527,-12.397475242614746,7.099107265472412
1696082906211842600,1.618842529296875,12.091017723083496,-12.031163215637207,6.862081527709961
1696082906221842700,1.6288427734375,10.601824760437012,-11.65766716003418,6.93151330947876
1696082906231842600,1.638842529296875,8.178892135620117,-10.793360710144043,6.505345344543457
1696082906241842700,1.6488427734375,5.056853294372559,-8.760683059692383,6.309020519256592
1696082906251842600,1.658842529296875,2.626439332962036,-7.819762229919434,6.905177116394043
1696082906261842700,1.6688427734375,0.2537853717803955,-7.163750648498535,7.053617477416992
1696082906271842600,1.678842529296875,-1.1994950771331787,-6.112696170806885,6.419154167175293
1696082906281842700,1.6888427734375,-1.4508862495422363,-5.152621269226074,5.528511047363281
1696082906291842600,1.698842529296875,-0.9600749015808105,-5.3920416831970215,5.794267177581787
1696082906301842700,1.7088427734375,-0.3734954595565796,-5.351340293884277,5.334580898284912
1696082906311842600,1.718842529296875,0.45250412821769714,-5.418377876281738,4.479551315307617
1696082906321842700,1.7288427734375,1.8914192914962769,-5.109525680541992,3.687070608139038
1696082906331842800,1.7388427734375,2.0207061767578125,-4.534617900848389,2.7509377002716064
1696082906341842700,1.7488427734375,1.8100165128707886,-4.575319290161133,2.1356279850006104
1696082906351842800,1.7588427734375,1.3287819623947144,-4.69024133682251,1.4221558570861816
1696082906361842700,1.7688427734375,1.1468225717544556,-4.54419469833374,1.213860273361206
1696082906371842800,1.7788427734375,0.5841852426528931,-4.331110954284668,1.580173134803772
1696082906381842700,1.7888427734375,0.28730419278144836,-4.7405195236206055,2.0398597717285156
1696082906391842800,1.7988427734375,0.17956513166427612,-5.152621269226074,2.049436569213867
1696082906401842700,1.8088427734375,0.29209262132644653,-5.485415458679199,1.7812861204147339
1696082906411842800,1.8188427734375,0.028730420395731926,-5.633855819702148,1.4413094520568848
1696082906421842400,1.828842529296875,-1.173158884048462,-5.444714069366455,1.1563993692398071
1696082906431842600,1.838842529296875,-1.4700398445129395,-5.550058841705322,1.1875240802764893
1696082906441842000,1.848842041015625,-2.5115175247192383,-5.166986465454102,1.3287819623947144
1696082906451842000,1.858842041015625,-3.1076738834381104,-4.747702121734619,1.6735470294952393
1696082906461841700,1.868841552734375,-0.6153098344802856,-6.261136531829834,2.1595699787139893
1696082906471841500,1.878841552734375,2.233790159225464,-12.758999824523926,4.043806552886963
1696082906481841700,1.888841552734375,3.203441858291626,-18.866907119750977,4.587290287017822
1696082906491841500,1.898841552734375,1.9321208000183105,-23.035213470458984,3.7421371936798096
1696082906501841400,1.90884130859375,-0.040701430290937424,-26.3538761138916,2.5474305152893066
1696082906511841300,1.91884130859375,-1.5083470344543457,-27.5054874420166,1.6065093278884888
1696082906521841200,1.928841064453125,-1.6160861253738403,-26.009111404418945,1.278503656387329
1696082906531841300,1.93884130859375,-1.4963760375976562,-22.190059661865234,0.7589619159698486
1696082906541841200,1.948841064453125,-0.9864110946655273,-15.586852073669434,-0.272938996553421
1696082906551841300,1.95884130859375,-0.3902548849582672,-11.001656532287598,-1.4077905416488647
1696082906561841200,1.968841064453125,-0.40701428055763245,-8.001721382141113,-2.2002713680267334
1696082906571841300,1.97884130859375,-0.12449848651885986,-6.273107528686523,-2.7102363109588623
1696082906581841200,1.988841064453125,0.40222588181495667,-5.5668182373046875,-3.1459810733795166
1696082906591841300,1.99884130859375,0.009576806798577309,-5.475838661193848,-3.136404275894165
1696082906601841200,2.008841064453125,-0.17956513166427612,-6.359299182891846,-2.583343744277954
1696082906611841300,2.01884130859375,-0.21547815203666687,-8.372822761535645,-1.0103530883789062
1696082906621841200,2.028841064453125,-0.3926490843296051,-9.941024780273438,0.4357447028160095
1696082906631841300,2.03884130859375,-0.5219359993934631,-10.86758041381836,1.1683704853057861
1696082906641841200,2.048841064453125,-0.586579442024231,-11.035175323486328,1.1899182796478271
1696082906651841300,2.05884130859375,-0.5602431893348694,-10.711957931518555,1.0821791887283325
1696082906661841200,2.068841064453125,-0.6560112833976746,-10.218751907348633,1.2401964664459229
1696082906671841300,2.07884130859375,-0.7158663272857666,-9.67766284942627,1.580173134803772
1696082906681841200,2.088841064453125,-0.6943184733390808,-9.311349868774414,1.4748282432556152
1696082906691841300,2.09884130859375,-0.7015010714530945,-9.162909507751465,1.1276689767837524
1696082906701841200,2.108841064453125,-0.8403648138046265,-9.313743591308594,0.7254431247711182
1696082906711841300,2.11884130859375,-0.9720458984375,-9.584288597106934,0.4596867263317108
1696082906721841200,2.128841064453125,-1.0031704902648926,-9.783007621765137,0.26096799969673157
1696082906731841300,2.13884130859375,-0.9074024558067322,-9.878775596618652,0.11971008777618408
1696082906741841700,2.148841552734375,-0.7254431247711182,-9.828496932983398,0.047884032130241394
1696082906751841500,2.158841552734375,-0.5410895943641663,-9.675268173217773,0.023942016065120697
1696082906761841700,2.168841552734375,-0.45250412821769714,-9.5531644821167,-0.019153613597154617
1696082906771841800,2.178841796875,-0.4141969084739685,-9.519645690917969,-0.031124621629714966
1696082906781841700,2.188841552734375,-0.42856210470199585,-9.555558204650879,-0.040701430290937424
1696082906791841800,2.198841796875,-0.5961562395095825,-9.574711799621582,-0.07182604819536209
1696082906801841700,2.208841552734375,-0.768538773059845,-9.584288597106934,-0.12449848651885986
1696082906811841800,2.218841796875,-0.8954314589500427,-9.598653793334961,-0.2346317619085312
1696082906821842000,2.228842041015625,-0.9289502501487732,-9.584288597106934,-0.35434186458587646
1696082906831841800,2.238841796875,-0.8786720037460327,-9.579500198364258,-0.395043283700943
1696082906841842000,2.248842041015625,-0.7374141216278076,-9.555558204650879,-0.38546648621559143
1696082906851841800,2.258841796875,-0.6440402865409851,-9.490914344787598,-0.36152446269989014
1696082906861842000,2.268842041015625,-0.667982280254364,-9.399934768676758,-0.272938996553421
1696082906871841800,2.278841796875,-0.7781155705451965,-9.419088363647461,-0.181959331035614
1696082906881842000,2.288842041015625,-0.9744400978088379,-9.536404609680176,-0.0694318488240242
1696082906891841800,2.298841796875,-1.237802267074585,-9.603442192077637,0.016759412363171577
1696082906901842000,2.308842041015625,-1.5179238319396973,-9.478943824768066,0.0694318488240242
1696082906911841800,2.318841796875,-1.5753847360610962,-9.340080261230469,0.18914192914962769
1696082906921842000,2.328842041015625,-1.381454348564148,-9.38317584991455,0.3998316824436188
1696082906931841800,2.338841796875,-1.1037269830703735,-9.6896333694458,0.6607996821403503
1696082906941842000,2.348842041015625,-0.9193734526634216,-10.041581153869629,0.8643068075180054
1696082906951841800,2.358841796875,-0.8092401623725891,-10.194809913635254,0.9481038451194763
1696082906961842000,2.368842041015625,-0.7757213711738586,-9.948206901550293,0.9457096457481384
1696082906971841800,2.378841796875,-0.7829039692878723,-9.52922248840332,0.871489405632019
1696082906981842000,2.388842041015625,-0.7158663272857666,-9.313743591308594,0.8236053586006165
1696082906991841800,2.398841796875,-0.6200982332229614,-9.380781173706055,0.6368576288223267
1696082907001842000,2.408842041015625,-0.569819986820221,-9.510068893432617,0.3902548849582672
1696082907011841800,2.418841796875,-0.6248866319656372,-9.56274127960205,0.0933738648891449
1696082907021842000,2.428842041015625,-0.6607996821403503,-9.670479774475098,-0.2513911724090576
1696082907031841800,2.438841796875,-0.48602294921875,-9.811738014221191,-0.5961562395095825
1696082907041841700,2.448841552734375,-0.09576806426048279,-9.854833602905273,-0.7829039692878723
1696082907051841800,2.458841796875,0.19153612852096558,-9.814131736755371,-0.8690952062606812
1696082907061841700,2.468841552734375,0.29209262132644653,-9.76864242553711,-0.8523358106613159
1696082907071841800,2.478841796875,0.12210428714752197,-9.624990463256836,-0.49799394607543945
1696082907081841700,2.488841552734375,-0.31603461503982544,-9.58907699584961,-0.06464344263076782
1696082907091841800,2.498841796875,-0.8523358106613159,-9.65372085571289,0.363918662071228
1696082907101841700,2.508841552734375,-1.2761094570159912,-9.759065628051758,0.7134721279144287
1696082907111841800,2.518841796875,-1.6136919260025024,-9.840468406677246,0.9481038451194763
1696082907121841700,2.528841552734375,-1.6831238269805908,-9.828496932983398,1.0989385843276978
1696082907131841800,2.538841796875,-1.525106430053711,-9.74709415435791,1.1899182796478271
1696082907141841700,2.548841552734375,-1.3239935636520386,-9.708786964416504,1.3024457693099976
1696082907151841800,2.558841796875,-1.192312479019165,-9.668086051940918,1.3910311460494995
1696082907161841700,2.568841552734375,-1.0749965906143188,-9.593865394592285,1.3215993642807007
1696082907171841800,2.578841796875,-1.0989385843276978,-9.455001831054688,1.113303780555725
1696082907181841700,2.588841552734375,-1.194706678390503,-9.387964248657227,0.790086567401886
1696082907191841800,2.598841796875,-1.314416766166687,-9.423876762390137,0.4620809257030487
1696082907201841700,2.608841552734375,-1.4508862495422363,-9.500492095947266,0.17956513166427612
1696082907211841800,2.618841796875,-1.5275006294250488,-9.577106475830078,-0.10295066982507706
1696082907221842000,2.628842041015625,-1.4844050407409668,-9.603442192077637,-0.3064578175544739
1696082907231841800,2.638841796875,-1.3694833517074585,-9.557952880859375,-0.4381389021873474
1696082907241842000,2.648842041015625,-1.216254472732544,-9.517251014709473,-0.4812345504760742
1696082907251841800,2.658841796875,-1.0869675874710083,-9.545981407165527,-0.38307225704193115
1696082907261842000,2.668842041015625,-0.9696516990661621,-9.778219223022461,-0.26336219906806946
1696082907271841800,2.678841796875,-0.9050082564353943,-10.032004356384277,-0.181959331035614
1696082907281842000,2.688842041015625,-0.8236053586006165,-10.156502723693848,-0.14844051003456116
1696082907291841800,2.698841796875,-0.689530074596405,-10.178050994873047,-0.12928688526153564
1696082907301842000,2.708842041015625,-0.49559974670410156,-10.154109001159668,-0.040701430290937424
1696082907311841800,2.718841796875,-0.35673606395721436,-10.115801811218262,0.07182604819536209
1696082907321842000,2.728842041015625,-0.3064578175544739,-10.05115795135498,0.14604631066322327
1696082907331841800,2.738841796875,-0.2082955539226532,-10.010457038879395,0.13168109953403473
1696082907341842000,2.748842041015625,-0.05506663769483566,-9.972148895263672,0.040701430290937424
1696082907351841800,2.758841796875,0.12928688526153564,-9.996091842651367,-0.031124621629714966
1696082907361842000,2.768842041015625,0.2513911724090576,-10.036792755126953,-0.15322890877723694
1696082907371841800,2.778841796875,0.3687070608139038,-10.041581153869629,-0.24181437492370605
1696082907381842000,2.788842041015625,0.5219359993934631,-10.127772331237793,-0.2513911724090576
1696082907391841800,2.798841796875,0.569819986820221,-10.333673477172852,-0.08140286058187485
1696082907401842000,2.808842041015625,0.524330198764801,-10.630555152893066,0.0933738648891449
1696082907411841800,2.818841796875,0.507570743560791,-10.836456298828125,0.2537853717803955
1696082907421842000,2.828842041015625,0.6775590777397156,-10.8412446975708,0.3998316824436188
1696082907431841800,2.838841796875,1.048660397529602,-10.474931716918945,0.569819986820221
1696082907441842000,2.848842041015625,1.482010841369629,-10.094253540039062,0.8619126081466675
1696082907451841800,2.858841796875,1.678335428237915,-10.000880241394043,1.3431471586227417
1696082907461842000,2.868842041015625,1.4628572463989258,-10.271424293518066,1.86508309841156
1696082907471841800,2.878841796875,0.9385270476341248,-10.860398292541504,2.3535003662109375
1696082907481842000,2.888842041015625,0.3687070608139038,-11.50922679901123,2.82515811920166
1696082907491841800,2.898841796875,-0.10055647045373917,-12.074258804321289,3.28963303565979
1696082907501842000,2.908842041015625,-0.3064578175544739,-12.490849494934082,3.7445313930511475
1696082907511841800,2.918841796875,-0.22026655077934265,-12.744634628295898,4.211400985717773
1696082907521841700,2.928841552734375,0.07661445438861847,-12.816460609436035,4.692635536193848
1696082907531841800,2.938841796875,0.6536170840263367,-12.703933715820312,4.963479518890381
1696082907541841700,2.948841552734375,1.6663644313812256,-12.438177108764648,4.709394931793213
1696082907551841800,2.958841796875,3.0765492916107178,-11.81568431854248,3.7469255924224854
1696082907561841700,2.968841552734375,4.72376012802124,-11.032780647277832,2.5043349266052246
1696082907571841800,2.978841796875,5.981015205383301,-10.3456449508667,1.2521674633026123
1696082907581842000,2.988842041015625,6.241982936859131,-9.873987197875977,-0.06464344263076782
1696082907591841800,2.998841796875,5.245995044708252,-10.111013412475586,-1.1444283723831177
1696082907601842000,3.008842041015625,3.471592426300049,-11.142913818359375,-1.8938134908676147
1696082907611842300,3.01884228515625,1.403002142906189,-12.023980140686035,-2.8347349166870117
1696082907621842400,3.028842529296875,-0.16519992053508759,-12.634501457214355,-3.7229835987091064
1696082907631842300,3.03884228515625,-1.6112977266311646,-13.012785911560059,-3.9839515686035156
1696082907641842400,3.048842529296875,-2.6575639247894287,-13.462895393371582,-4.01268196105957
1696082907651842300,3.05884228515625,-3.4356794357299805,-13.65682601928711,-3.8091750144958496
1696082907661842400,3.068842529296875,-3.998316764831543,-13.54429817199707,-3.4979286193847656
1696082907671842300,3.07884228515625,-4.199429988861084,-13.249811172485352,-2.7533318996429443
1696082907681842400,3.088842529296875,-3.7181951999664307,-12.727875709533691,-1.9177556037902832
1696082907691842300,3.09884228515625,-2.63362193107605,-12.131719589233398,-0.7876923680305481
1696082907701842400,3.108842529296875,-1.5610195398330688,-11.846809387207031,0.5315127968788147
1696082907711842300,3.11884228515625,-0.026336219161748886,-11.636119842529297,1.7525556087493896
1696082907721842400,3.128842529296875,1.1755530834197998,-11.324872970581055,2.4827871322631836
1696082907731842300,3.13884228515625,1.8531121015548706,-10.929829597473145,2.7030537128448486
1696082907741842400,3.148842529296875,1.8339585065841675,-10.460566520690918,2.4133553504943848
1696082907751842300,3.15884228515625,1.3670891523361206,-10.168474197387695,1.9081788063049316
1696082907761842400,3.168842529296875,0.5434837937355042,-9.701604843139648,1.072602391242981
1696082907771842300,3.17884228515625,0.08858546614646912,-9.28261947631836,0.004788403399288654
1696082907781842400,3.188842529296875,-0.043095629662275314,-8.86363410949707,-1.158793568611145
1696082907791842300,3.19884228515625,-0.33039984107017517,-8.384793281555176,-1.8842366933822632
1696082907801842400,3.208842529296875,-0.7230489253997803,-7.81257963180542,-2.097320795059204
1696082907811842300,3.21884228515625,-1.0079588890075684,-7.345710277557373,-2.1787235736846924
1696082907821842400,3.228842529296875,-0.8092401623725891,-6.921936511993408,-2.38462495803833
1696082907831842600,3.238842529296875,-0.5793967843055725,-6.605901718139648,-2.497152328491211
1696082907841842400,3.248842529296875,-0.38307225704193115,-6.426336765289307,-2.4612393379211426
1696082907851842600,3.258842529296875,-0.43335050344467163,-6.423942565917969,-2.3247697353363037
1696082907861842400,3.268842529296875,-0.5793967843055725,-6.546046733856201,-2.0470423698425293
1696082907871842300,3.27884228515625,-0.7038952708244324,-6.658574104309082,-1.5538369417190552
1696082907881842400,3.288842529296875,-0.6153098344802856,-6.759130477905273,-0.8619126081466675
1696082907891842300,3.29884228515625,-0.4908113479614258,-6.737582683563232,-0.363918662071228
1696082907901842400,3.308842529296875,-0.42856210470199585,-6.629843711853027,-0.17477671802043915
1696082907911841800,3.318841796875,-0.5554547905921936,-6.469432353973389,-0.29209262132644653
1696082907921842000,3.328842041015625,-0.828393816947937,-6.344933986663818,-0.5315127968788147
1696082907931841800,3.338841796875,-1.0462661981582642,-6.12945556640625,-1.0342950820922852
1696082907941842000,3.348842041015625,-1.1348515748977661,-5.748777389526367,-1.5466543436050415
1696082907951841800,3.358841796875,-0.9911994934082031,-5.377676486968994,-1.8291701078414917
1696082907961842000,3.368842041015625,-0.6177040338516235,-5.0807952880859375,-1.8291701078414917
1696082907971841800,3.378841796875,-0.033518824726343155,-4.78122091293335,-1.7525556087493896
1696082907981842000,3.388842041015625,0.8475474119186401,-4.594472885131836,-1.599326729774475
1696082907991841800,3.398841796875,1.9177556037902832,-4.616020679473877,-1.0462661981582642
1696082908001842000,3.408842041015625,3.0621838569641113,-4.973056316375732,0.37828385829925537
1696082908011841800,3.418841796875,4.311957359313965,-5.6984992027282715,2.609679937362671
1696082908021842000,3.428842041015625,5.76793098449707,-6.732794284820557,4.867412090301514
1696082908031841800,3.438841796875,8.092700958251953,-8.052000045776367,6.929119110107422
1696082908041841700,3.448841552734375,9.763854026794434,-9.668086051940918,8.760683059692383
1696082908051841800,3.458841796875,10.10861873626709,-11.26023006439209,9.390357971191406
1696082908061841700,3.468841552734375,10.458171844482422,-12.969690322875977,9.785401344299316
1696082908071841800,3.478841796875,11.480496406555176,-15.064915657043457,9.850045204162598
1696082908081841700,3.488841552734375,11.559505462646484,-17.044919967651367,8.880393028259277
1696082908091841800,3.498841796875,10.434229850769043,-17.79909324645996,6.677727699279785
1696082908101841700,3.508841552734375,8.332120895385742,-16.321870803833008,3.5673606395721436
1696082908111841800,3.518841796875,6.512527942657471,-13.766959190368652,1.4652514457702637
1696082908121841700,3.528841552734375,5.097554683685303,-11.50683307647705,-0.18914192914962769
1696082908131841800,3.538841796875,3.7852327823638916,-11.123760223388672,-1.8722656965255737
1696082908141841700,3.548841552734375,3.56017804145813,-11.365574836730957,-3.6774938106536865
1696082908151841800,3.558841796875,4.683058738708496,-11.456554412841797,-5.538087844848633
1696082908161841700,3.568841552734375,5.267542839050293,-11.334449768066406,-6.790255069732666
1696082908171841800,3.578841796875,5.241206645965576,-10.81011962890625,-6.656179904937744
1696082908181841700,3.588841552734375,4.1611223220825195,-10.431836128234863,-4.980238914489746
1696082908191841800,3.598841796875,1.7956513166427612,-9.792584419250488,-3.3901896476745605
1696082908201841700,3.608841552734375,-3.4620156288146973,-7.786243438720703,-2.8826189041137695
1696082908211842300,3.61884228515625,-7.733570575714111,-5.667374610900879,-1.7357962131500244
1696082908221842200,3.62884228515625,-8.880393028259277,-5.03291130065918,-0.4908113479614258
1696082908231842300,3.63884228515625,-7.831733226776123,-5.923554420471191,-0.06464344263076782
1696082908241842200,3.64884228515625,-6.622661113739014,-7.676109790802002,-0.5674257874488831
1696082908251842300,3.65884228515625,-6.2707133293151855,-9.364022254943848,-1.139639973640442
1696082908261842200,3.66884228515625,-6.285078525543213,-10.582671165466309,-1.7693150043487549
1696082908271842300,3.67884228515625,-6.455067157745361,-11.406275749206543,-2.1763293743133545
1696082908281842200,3.68884228515625,-6.155791759490967,-12.208333969116211,-2.0590133666992188
1696082908291842300,3.69884228515625,-4.884171485900879,-12.72069263458252,-1.4460978507995605
1696082908301842200,3.70884228515625,-2.5282769203186035,-12.909834861755371,-0.6248866319656372
1696082908311842300,3.71884228515625,-0.040701430290937424,-12.450148582458496,0.3208230137825012
1696082908321842200,3.72884228515625,1.9081788063049316,-11.494861602783203,1.2282254695892334
1696082908331842300,3.73884228515625,2.8443117141723633,-10.300154685974121,1.7741034030914307
1696082908341842200,3.74884228515625,3.1268274784088135,-9.256282806396484,1.920149803161621
1696082908351842300,3.75884228515625,2.9305028915405273,-8.626607894897461,1.8626888990402222
1696082908361842200,3.76884228515625,2.360682964324951,-8.463802337646484,1.5897499322891235
1696082908371842300,3.77884228515625,1.3958195447921753,-8.50450325012207,1.0630255937576294
1696082908381842200,3.78884228515625,0.5003881454467773,-8.554781913757324,0.36152446269989014
1696082908391842300,3.79884228515625,-0.2753331959247589,-8.600272178649902,-0.023942016065120697
1696082908401842200,3.80884228515625,-0.730231523513794,-8.588300704956055,0.011971008032560349
1696082908411842300,3.81884228515625,-1.05105459690094,-8.629002571105957,0.3495534360408783
1696082908421842200,3.82884228515625,-1.1444283723831177,-8.660126686096191,0.42856210470199585
1696082908431842300,3.83884228515625,-0.9313444495201111,-8.74152946472168,0.4357447028160095
1696082908441842200,3.84884228515625,-0.5770025849342346,-8.696040153503418,0.23702596127986908
1696082908451842300,3.85884228515625,-0.5746083855628967,-8.688857078552246,0.07900865375995636
1696082908461842200,3.86884228515625,-1.015141487121582,-8.885181427001953,0.019153613597154617
1696082908471842300,3.87884228515625,-1.1013327836990356,-9.000102996826172,0.2298433631658554
1696082908481842200,3.88884228515625,-0.9696516990661621,-8.985737800598145,0.3902548849582672
1696082908491842300,3.89884228515625,-0.2106897532939911,-9.62259578704834,0.7541735172271729
1696082908501842200,3.90884228515625,0.8259995579719543,-10.585064888000488,1.381454348564148
1696082908511841800,3.918841796875,2.0446481704711914,-11.219528198242188,1.742978811264038
1696082908521841700,3.928841552734375,3.181894063949585,-10.915464401245117,1.5275006294250488
1696082908531841800,3.938841796875,3.1890766620635986,-9.907505989074707,1.5394717454910278
1696082908541841700,3.948841552734375,1.9081788063049316,-8.940248489379883,1.6855180263519287
1696082908551841800,3.958841796875,-0.07661445438861847,-8.274660110473633,1.192312479019165
1696082908561841700,3.968841552734375,-1.8531121015548706,-8.080730438232422,0.12210428714752197
1696082908571841800,3.978841796875,-2.650381326675415,-8.43507194519043,-0.9576807022094727
1696082908581842000,3.988842041015625,-2.1595699787139893,-9.222764015197754,-1.7190368175506592
1696082908591841800,3.998841796875,-0.9792284965515137,-10.120590209960938,-2.212242364883423
1696082908601842000,4.008842041015625,0.4812345504760742,-11.104606628417969,-2.3271639347076416
1696082908611841800,4.018841796875,2.008735179901123,-11.808502197265625,-1.9129672050476074
1696082908621842000,4.028842041015625,3.423708438873291,-12.136507987976074,-1.0103530883789062
1696082908631841800,4.038841796875,4.352658748626709,-12.000038146972656,0.12689268589019775
1696082908641842000,4.048842041015625,4.2760443687438965,-11.609783172607422,1.2306196689605713
1696082908651841800,4.058841796875,3.2609026432037354,-11.207557678222656,2.0015525817871094
1696082908661842000,4.068842041015625,2.0590133666992188,-11.006444931030273,2.4396915435791016
1696082908671841800,4.078841796875,1.400607943534851,-11.059117317199707,2.8131868839263916
1696082908681841700,4.088841552734375,1.1851298809051514,-11.47331428527832,3.1914708614349365
1696082908691841800,4.098841796875,1.115697979927063,-12.153266906738281,3.620033025741577
1696082908701841700,4.108841552734375,0.9552865028381348,-12.598588943481445,3.971980571746826
1696082908711841800,4.118841796875,0.7493851184844971,-12.730269432067871,4.371812343597412
1696082908721841700,4.128841552734375,0.6512228846549988,-12.869132995605469,4.8722004890441895
1696082908731841800,4.138841796875,0.727837324142456,-13.142072677612305,5.504569053649902
1696082908741842000,4.148842041015625,1.2306196689605713,-13.326425552368164,5.86848783493042
1696082908751841800,4.158841796875,2.315192937850952,-13.324031829833984,5.760748386383057
1696082908761841700,4.168841552734375,3.5697548389434814,-13.230657577514648,5.099948883056641
1696082908771841800,4.178841796875,4.611232280731201,-13.101370811462402,4.388571739196777
1696082908781842000,4.188842041015625,4.321534156799316,-13.189956665039062,3.974374771118164
1696082908791841800,4.198841796875,2.9664158821105957,-12.957718849182129,2.9328970909118652
1696082908801842000,4.208842041015625,2.477998733520508,-12.47887897491455,1.0031704902648926
1696082908811841800,4.218841796875,2.293645143508911,-12.35916805267334,-0.8355764150619507
1696082908821842000,4.228842041015625,0.8236053586006165,-12.888286590576172,-2.367865562438965
1696082908831841800,4.238841796875,-0.038307227194309235,-13.8746976852417,-4.158728122711182
1696082908841842000,4.248842041015625,-0.5530605912208557,-15.194202423095703,-5.490203857421875
1696082908851841800,4.258841796875,-1.7477672100067139,-16.154277801513672,-5.851728439331055
1696082908861842000,4.268842041015625,-4.156333923339844,-16.45594596862793,-6.263530731201172
1696082908871841800,4.278841796875,-5.602731227874756,-15.828665733337402,-6.44549036026001
1696082908881841700,4.288841552734375,-5.990592002868652,-14.712967872619629,-6.203675746917725
1696082908891841800,4.298841796875,-5.38246488571167,-13.525144577026367,-4.8602294921875
1696082908901841700,4.308841552734375,-1.8267759084701538,-12.306495666503906,-3.667917013168335
1696082908911841800,4.318841796875,1.5059528350830078,-11.411064147949219,-1.6735470294952393
1696082908921841700,4.328841552734375,4.010287761688232,-10.563517570495605,0.6416460275650024
1696082908931841800,4.338841796875,4.261679172515869,-10.0487642288208,1.2425906658172607
1696082908941841700,4.348841552734375,2.190694570541382,-9.584288597106934,1.3862427473068237
1696082908951841800,4.358841796875,0.24181437492370605,-9.040804862976074,0.9265560507774353
1696082908961841700,4.368841552734375,-0.6560112833976746,-8.365639686584473,0.13168109953403473
1696082908971841800,4.378841796875,-1.3646949529647827,-7.719205379486084,-0.6129156351089478
1696082908981841700,4.388841552734375,-1.9345149993896484,-7.032069683074951,-0.9816226959228516
1696082908991841800,4.398841796875,-2.3750481605529785,-6.502951145172119,-0.9624691009521484
1696082909001841700,4.408841552734375,-1.8531121015548706,-6.323386192321777,-1.158793568611145
1696082909011841800,4.418841796875,-1.1300631761550903,-6.268319129943848,-1.623268723487854
1696082909021841700,4.428841552734375,-1.05105459690094,-6.330568790435791,-1.987187385559082
1696082909031841800,4.438841796875,-1.3934253454208374,-6.438307762145996,-2.255337953567505
1696082909041841700,4.448841552734375,-1.4748282432556152,-6.562806129455566,-2.3319525718688965
1696082909051841800,4.458841796875,-1.3527239561080933,-6.677727699279785,-2.1954829692840576
1696082909061841700,4.468841552734375,-1.3239935636520386,-6.708852291107178,-1.9393033981323242
1696082909071841800,4.478841796875,-1.3623007535934448,-6.656179904937744,-1.678335428237915
1696082909081841700,4.488841552734375,-1.2952631711959839,-6.625055313110352,-1.45806884765625
1696082909091841800,4.498841796875,-1.2976573705673218,-6.481403350830078,-1.4676456451416016
1696082909101841700,4.508841552734375,-1.3527239561080933,-6.172551155090332,-1.845929503440857
1696082909111841800,4.518841796875,-1.4389152526855469,-5.7631425857543945,-2.38462495803833
1696082909121841700,4.528841552734375,-1.534683346748352,-5.186140060424805,-2.853888511657715
1696082909131841800,4.538841796875,-1.659181833267212,-4.558559894561768,-3.2393548488616943
1696082909141841700,4.548841552734375,-1.6855180263519287,-3.993528366088867,-3.399766445159912
1696082909151841800,4.558841796875,-1.4101848602294922,-3.4596214294433594,-3.335123062133789
1696082909161841700,4.568841552734375,-0.9026140570640564,-3.0621838569641113,-3.179499864578247
1696082909171841800,4.578841796875,-0.2561795711517334,-3.043030261993408,-2.7892448902130127
1696082909181841700,4.588841552734375,0.272938996553421,-3.7181951999664307,-1.0438719987869263
1696082909191841800,4.598841796875,1.070208191871643,-4.908412933349609,1.8387469053268433
1696082909201841700,4.608841552734375,4.683058738708496,-6.821380138397217,4.89644193649292
1696082909211841800,4.618841796875,10.5252103805542,-9.907505989074707,8.59069538116455
1696082909221841700,4.628841552734375,12.852374076843262,-13.517962455749512,11.087847709655762
1696082909231841800,4.638841796875,13.233052253723145,-16.707338333129883,10.771812438964844
1696082909241841700,4.648841552734375,14.281712532043457,-19.513341903686523,9.340080261230469
1696082909251841800,4.658841796875,16.123153686523438,-21.92430305480957,8.813355445861816
1696082909261841700,4.668841552734375,12.665626525878906,-22.0966854095459,7.683292388916016
1696082909271841800,4.678841796875,7.352892875671387,-19.37208366394043,4.501099109649658
1696082909281841700,4.688841552734375,4.5609540939331055,-14.339173316955566,1.0749965906143188
1696082909291841800,4.698841796875,3.708618402481079,-9.182063102722168,-0.8044517636299133
1696082909301841700,4.708841552734375,3.246537446975708,-5.044882297515869,-1.1563993692398071
1696082909311841800,4.718841796875,3.2178070545196533,-1.9057846069335938,-1.1013327836990356
1696082909321841700,4.728841552734375,4.89644193649292,-0.6727706789970398,-1.5849615335464478
1696082909331841800,4.738841796875,4.410119533538818,-3.4165258407592773,-2.4181437492370605
1696082909341842000,4.748842041015625,1.1994950771331787,-7.8221564292907715,-2.4372973442077637
1696082909351841800,4.758841796875,-2.9041666984558105,-11.332056045532227,-2.3247697353363037
1696082909361842000,4.768842041015625,-6.170156955718994,-13.041516304016113,-1.4987702369689941
1696082909371841800,4.778841796875,-6.890811920166016,-13.582605361938477,0.6655880808830261
1696082909381842000,4.788842041015625,-4.213795185089111,-13.659219741821289,2.363077163696289
1696082909391841800,4.798841796875,2.1763293743133545,-14.612112045288086,3.0142998695373535
1696082909401842000,4.808842041015625,8.41112995147705,-15.979500770568848,3.201047658920288
1696082909411841800,4.818841796875,7.601889610290527,-14.707880020141602,1.0678139925003052
1696082909421842000,4.828842041015625,1.5538369417190552,-11.916240692138672,-1.659181833267212
1696082909431841800,4.838841796875,-3.2752678394317627,-8.976161003112793,-3.9911341667175293
1696082909441841700,4.848841552734375,-5.439925670623779,-6.79743766784668,-5.406406879425049
1696082909451841800,4.858841796875,-5.966650009155273,-6.258742332458496,-6.404788970947266
1696082909461841700,4.868841552734375,-5.7200469970703125,-6.9817914962768555,-6.256348133087158
1696082909471841800,4.878841796875,-5.985803604125977,-8.049605369567871,-4.8482584953308105
1696082909481841700,4.888841552734375,-5.724835395812988,-9.153332710266113,-3.1747114658355713
1696082909491841800,4.898841796875,-6.071994781494141,-10.029610633850098,-2.279279947280884
1696082909501841700,4.908841552734375,-6.344933986663818,-10.388740539550781,-1.5083470344543457
1696082909511841800,4.918841796875,-5.863699436187744,-10.292972564697266,-1.0965443849563599
1696082909521841700,4.928841552734375,-4.961085319519043,-10.0487642288208,-0.7852981686592102
1696082909531842000,4.938842041015625,-3.1914708614349365,-9.941024780273438,-0.13168109953403473
1696082909541842200,4.94884228515625,-0.1364694982767105,-10.10861873626709,0.9576807022094727
1696082909551842000,4.958842041015625,3.354276657104492,-10.225934982299805,2.2601263523101807
1696082909561842200,4.96884228515625,6.222829341888428,-9.967360496520996,3.155557870864868
1696082909571842000,4.978842041015625,7.4007768630981445,-9.304166793823242,3.2178070545196533
1696082909581842200,4.98884228515625,6.562806129455566,-8.561964988708496,2.4372973442077637
1696082909591842300,4.99884228515625,4.525041103363037,-8.006509780883789,1.3192051649093628
1696082909601842200,5.00884228515625,2.22660756111145,-7.719205379486084,0.5339069962501526
1696082909611842300,5.01884228515625,-0.06224924325942993,-7.8221564292907715,-0.1604115068912506
1696082909621842200,5.02884228515625,-2.296039342880249,-8.183680534362793,-0.608127236366272
1696082909631842000,5.038842041015625,-3.7253777980804443,-8.585906982421875,-0.7110779285430908
1696082909641842200,5.04884228515625,-4.02465295791626,-8.916306495666504,-0.8786720037460327
1696082909651842000,5.058842041015625,-3.885789394378662,-9.220370292663574,-0.7637503147125244
1696082909661842200,5.06884228515625,-3.4117374420166016,-9.866804122924805,-0.035913024097681046
1696082909671842000,5.078842041015625,-2.6671407222747803,-10.439018249511719,0.7972691655158997
1696082909681842200,5.08884228515625,-0.9840168952941895,-10.745476722717285,1.0845733880996704
1696082909691842000,5.098842041015625,1.6280571222305298,-10.86518669128418,1.359906554222107
1696082909701842200,5.10884228515625,3.445256233215332,-10.702381134033203,1.8794482946395874
1696082909711842000,5.118842041015625,4.046200752258301,-10.249876976013184,2.427720546722412
1696082909721842200,5.12884228515625,3.552995204925537,-9.720758438110352,2.4612393379211426
1696082909731842000,5.138842041015625,2.212242364883423,-9.378387451171875,1.7118542194366455
1696082909741842200,5.14884228515625,0.38546648621559143,-9.426271438598633,0.1867477297782898
1696082909751842000,5.158842041015625,-0.9672574996948242,-9.85962200164795,-1.3910311460494995
1696082909761842200,5.16884228515625,-1.3048399686813354,-10.53478717803955,-2.5977089405059814
1696082909771842300,5.17884228515625,-0.47165772318840027,-11.197980880737305,-3.0573954582214355
1696082909781842200,5.18884228515625,1.0582371950149536,-11.44458293914795,-2.9903578758239746
1696082909791842300,5.19884228515625,2.676717519760132,-11.23868179321289,-2.3942017555236816
1696082909801842200,5.20884228515625,3.845088005065918,-10.929829597473145,-1.2952631711959839
1696082909811842300,5.21884228515625,4.0533833503723145,-10.673650741577148,0.07900865375995636
1696082909821842200,5.22884228515625,3.2417490482330322,-10.570699691772461,1.3646949529647827
1696082909831841800,5.238841796875,1.8602946996688843,-10.441412925720215,2.2577321529388428
1696082909841842000,5.248842041015625,0.5889736413955688,-10.285789489746094,2.827552318572998
1696082909851841800,5.258841796875,-0.1604115068912506,-10.225934982299805,3.3207578659057617
1696082909861842000,5.268842041015625,-0.4213795065879822,-10.486903190612793,3.797203779220581
1696082909871841800,5.278841796875,-0.5195417404174805,-10.946589469909668,4.460397720336914
1696082909881841700,5.288841552734375,-0.5937620401382446,-11.344026565551758,5.198111057281494
1696082909891841800,5.298841796875,-0.2801215946674347,-11.35360336303711,5.6769514083862305
1696082909901841700,5.308841552734375,0.8140285611152649,-11.097424507141113,5.657797813415527
1696082909911841800,5.318841796875,2.3774423599243164,-10.977714538574219,5.166986465454102
1696082909921841700,5.328841552734375,3.6535518169403076,-11.257835388183594,4.424484729766846
1696082909931841800,5.338841796875,3.732560396194458,-11.767800331115723,3.754108190536499
1696082909941842000,5.348842041015625,3.224989652633667,-12.043133735656738,3.265691041946411
1696082909951841800,5.358841796875,3.1747114658355713,-11.976096153259277,2.7676970958709717
1696082909961842000,5.368842041015625,3.6966474056243896,-11.561899185180664,1.9321208000183105
1696082909971841800,5.378841796875,4.94193172454834,-11.296142578125,0.9050082564353943
1696082909981842000,5.388842041015625,4.968267917633057,-11.214739799499512,0.2992752194404602
1696082909991841800,5.398841796875,3.2345664501190186,-11.968914031982422,0.42856210470199585
1696082910001842000,5.408842041015625,-0.20350714027881622,-13.041516304016113,0.9241618514060974
1696082910011841800,5.418841796875,-1.8148049116134644,-14.257770538330078,0.31842881441116333
1696082910021842000,5.428842041015625,-1.9991583824157715,-15.469535827636719,-0.5937620401382446
1696082910031841800,5.438841796875,-2.248155355453491,-16.953941345214844,-2.6839001178741455
1696082910041841700,5.448841552734375,-2.894589900970459,-18.234838485717773,-4.594472885131836
1696082910051841800,5.458841796875,-4.1156325340271,-19.290681838989258,-6.522104740142822
1696082910061842000,5.468842041015625,-5.042488098144531,-19.47982406616211,-6.897994518280029
1696082910071841800,5.478841796875,-5.806238174438477,-18.680160522460938,-6.093542575836182
1696082910081842000,5.488842041015625,-5.6434326171875,-16.532560348510742,-4.94193172454834
1696082910091841800,5.498841796875,-2.2242133617401123,-14.324808120727539,-3.9432501792907715
1696082910101842000,5.508842041015625,1.9273324012756348,-12.6057710647583,-1.9967641830444336
1696082910111841800,5.518841796875,4.654327869415283,-11.22671127319336,-0.1388636976480484
1696082910121842000,5.528842041015625,3.9432501792907715,-10.216358184814453,0.8140285611152649
1696082910131841800,5.538841796875,2.1045033931732178,-9.330503463745117,0.6560112833976746
1696082910141842000,5.548842041015625,0.3519476354122162,-8.473379135131836,0.07661445438861847
1696082910151841800,5.558841796875,-0.9816226959228516,-7.75751256942749,-0.15562310814857483
1696082910161841000,5.5688408203125,-1.558625340461731,-7.091924667358398,0.24181437492370605
1696082910171841000,5.578841064453125,-1.5682021379470825,-6.488585948944092,0.6512228846549988
1696082910181841000,5.5888408203125,-1.2952631711959839,-5.822998046875,0.6368576288223267
1696082910191841000,5.598841064453125,-1.0965443849563599,-5.530905246734619,0.26815059781074524
1696082910201841000,5.6088408203125,-1.0773907899856567,-5.504569053649902,-0.3064578175544739
1696082910211841000,5.618841064453125,-1.1683704853057861,-5.629067420959473,-0.9624691009521484
1696082910221841000,5.6288408203125,-1.2713210582733154,-5.794267177581787,-1.522712230682373
1696082910231841000,5.638841064453125,-1.50355863571167,-6.0097455978393555,-1.8986018896102905
1696082910241841000,5.6488408203125,-1.889025092124939,-6.1174845695495605,-2.03507137298584
1696082910251841000,5.658841064453125,-2.0207061767578125,-6.170156955718994,-1.8962076902389526
1696082910261841000,5.6688408203125,-2.0470423698425293,-6.17494535446167,-1.9033904075622559
1696082910271841000,5.678841064453125,-2.0231003761291504,-6.088754177093506,-2.1978771686553955
1696082910281840600,5.688840576171875,-2.0446481704711914,-5.789478778839111,-2.8227639198303223
1696082910291840800,5.6988408203125,-1.9823989868164062,-5.344157695770264,-3.428496837615967
1696082910301840600,5.708840576171875,-1.7693150043487549,-4.817133903503418,-3.955221176147461
1696082910311840800,5.7188408203125,-1.455674648284912,-4.216189384460449,-4.220977783203125
1696082910321840600,5.728840576171875,-0.9768342971801758,-3.60566782951355,-4.292803764343262
1696082910331840800,5.7388408203125,-0.3878606855869293,-3.1076738834381104,-4.278438568115234
1696082910341840600,5.748840576171875,0.1628057211637497,-2.892195701599121,-3.993528366088867
1696082910351840800,5.7588408203125,0.5985504388809204,-3.2393548488616943,-2.9712042808532715
1696082910361840600,5.768840576171875,1.0989385843276978,-3.9911341667175293,-0.706289529800415
1696082910371840800,5.7788408203125,2.5498247146606445,-4.8722004890441895,2.2697031497955322
1696082910381840600,5.788840576171875,6.256348133087158,-6.591536521911621,5.241206645965576
1696082910391840800,5.7988408203125,10.494085311889648,-9.328108787536621,8.150161743164062
1696082910401840600,5.808840576171875,10.120590209960938,-11.971307754516602,11.255441665649414
1696082910411840800,5.8188408203125,8.5595703125,-14.094964981079102,11.257835388183594
1696082910421840600,5.828840576171875,9.751882553100586,-15.711350440979004,9.56274127960205
1696082910431840500,5.838840576171875,11.150096893310547,-17.18857192993164,7.762300968170166
1696082910441840600,5.848840576171875,10.699986457824707,-18.21089744567871,6.086359977722168
1696082910451840500,5.858840576171875,9.083900451660156,-17.79669952392578,4.654327869415283
1696082910461841400,5.86884130859375,7.355287075042725,-15.170260429382324,2.5785553455352783
1696082910471841500,5.878841552734375,6.043264389038086,-11.77977180480957,1.2401964664459229
1696082910481841400,5.88884130859375,5.162198066711426,-8.540416717529297,0.5386953949928284
1696082910491841500,5.898841552734375,4.910807132720947,-7.249941825866699,-0.3974374830722809
1696082910501562000,5.90856201171875,3.732560396194458,-9.17009162902832,-1.0989385843276978
1696082910511562000,5.91856201171875,2.6647465229034424,-11.59781265258789,-1.1348515748977661
1696082910521561900,5.928561767578125,0.871489405632019,-13.125312805175781,-0.42616790533065796
1696082910531562000,5.93856201171875,-2.4133553504943848,-13.800477981567383,1.525106430053711
1696082910541561900,5.948561767578125,-2.346317768096924,-13.426982879638672,3.5625722408294678
1696082910551562000,5.95856201171875,1.7094600200653076,-12.081440925598145,3.8522706031799316
1696082910561561900,5.968561767578125,3.1747114658355713,-10.316914558410645,2.4899697303771973
1696082910571562000,5.97856201171875,1.01753568649292,-8.597877502441406,-0.040701430290937424
1696082910581562400,5.988562255859375,-2.58813214302063,-7.230788230895996,-1.800439715385437
1696082910591562200,5.998562255859375,-4.793191909790039,-7.084742069244385,-3.0382418632507324
1696082910601562400,6.008562255859375,-5.739200592041016,-7.972990989685059,-4.242525577545166
1696082910611562200,6.018562255859375,-6.277895927429199,-9.239523887634277,-5.485415458679199
1696082910621562400,6.028562255859375,-6.2491655349731445,-10.158897399902344,-6.256348133087158
1696082910631562200,6.038562255859375,-5.892429828643799,-10.65210247039795,-5.8565168380737305
1696082910641562400,6.048562255859375,-5.42795467376709,-10.860398292541504,-5.219658851623535
1696082910651562200,6.058562255859375,-4.352658748626709,-10.759841918945312,-4.474762916564941
1696082910661562400,6.068562255859375,-2.96162748336792,-10.565911293029785,-3.270479440689087
1696082910671562200,6.078562255859375,-1.5083470344543457,-10.225934982299805,-1.8626888990402222
1696082910681562400,6.088562255859375,-0.19393034279346466,-9.830891609191895,-0.7015010714530945
1696082910691562200,6.098562255859375,0.8259995579719543,-9.603442192077637,0.05267243832349777
1696082910701562400,6.108562255859375,1.381454348564148,-9.450213432312012,0.6799532771110535
1696082910711562200,6.118562255859375,1.5298948287963867,-9.342473983764648,1.1109095811843872
1696082910721562400,6.128562255859375,1.316810965538025,-9.25867748260498,1.37906014919281
1696082910731562200,6.138562255859375,0.9624691009521484,-9.241917610168457,1.6136919260025024
1696082910741562400,6.148562255859375,0.7493851184844971,-9.251494407653809,1.7932571172714233
1696082910751562200,6.158562255859375,0.7254431247711182,-9.158121109008789,1.802833914756775
1696082910761562400,6.168562255859375,0.7015010714530945,-8.952219009399414,1.7381904125213623
1696082910771562500,6.1785625,0.5961562395095825,-8.597877502441406,1.5155296325683594
1696082910781562400,6.188562255859375,0.29209262132644653,-8.358457565307617,1.1875240802764893
1696082910791562500,6.1985625,-0.090979665517807,-8.212410926818848,0.8858546018600464
1696082910801562400,6.208562255859375,-0.8355764150619507,-8.174103736877441,0.3902548849582672
1696082910811562500,6.2185625,-1.522712230682373,-8.174103736877441,-0.42377370595932007
1696082910821562400,6.228562255859375,-1.8339585065841675,-8.387187957763672,-0.6631938815116882
1696082910831562500,6.2385625,-1.8148049116134644,-8.46859073638916,-0.40701428055763245
1696082910841562400,6.248562255859375,-1.6376339197158813,-8.880393028259277,0.16519992053508759
1696082910851562500,6.2585625,-0.9959878921508789,-9.517251014709473,0.4405331015586853
1696082910861562400,6.268562255859375,0.8164227604866028,-10.201992988586426,0.24660277366638184
1696082910871562500,6.2785625,2.612074136734009,-10.750265121459961,0.42856210470199585
1696082910881562400,6.288562255859375,3.31118106842041,-10.728716850280762,0.9911994934082031
1696082910891562200,6.298562255859375,2.8347349166870117,-10.060734748840332,1.3694833517074585
1696082910901562400,6.308562255859375,1.3862427473068237,-9.25867748260498,1.7262194156646729
1696082910911562200,6.318562255859375,-0.17956513166427612,-8.825326919555664,1.742978811264038
1696082910921562400,6.328562255859375,-1.0414776802062988,-9.06714153289795,1.1109095811843872
1696082910931562200,6.338562255859375,-0.8140285611152649,-9.933841705322266,0.06464344263076782
1696082910941562400,6.348562255859375,0.4405331015586853,-10.688015937805176,-1.039083480834961
1696082910951562200,6.358562255859375,2.123656988143921,-11.14770221710205,-1.7884687185287476
1696082910961562400,6.368562255859375,3.3901896476745605,-11.449371337890625,-1.7717092037200928
1696082910971562200,6.378562255859375,3.663128614425659,-11.60020637512207,-1.0821791887283325
1696082910981562400,6.388562255859375,2.827552318572998,-11.44458293914795,-0.07422025501728058
1696082910991562200,6.398562255859375,1.5466543436050415,-11.018415451049805,0.9265560507774353
1696082911001562400,6.408562255859375,0.49320554733276367,-10.582671165466309,1.6376339197158813
1696082911011562200,6.418562255859375,-0.1388636976480484,-10.424653053283691,2.2002713680267334
1696082911021562400,6.428562255859375,-0.545877993106842,-10.654497146606445,3.095702886581421
1696082911031562200,6.438562255859375,-1.0342950820922852,-11.145308494567871,4.175487995147705
1696082911041562400,6.448562255859375,-1.278503656387329,-11.525986671447754,5.214870452880859
1696082911051562200,6.458562255859375,-0.7254431247711182,-11.53077507019043,6.043264389038086
1696082911061562400,6.468562255859375,0.9672574996948242,-11.157279014587402,6.44549036026001
1696082911071562200,6.478562255859375,3.134010076522827,-10.855609893798828,6.012139797210693
1696082911081562400,6.488562255859375,4.730942726135254,-11.197980880737305,5.140650272369385
1696082911091562200,6.498562255859375,5.260360240936279,-12.138901710510254,4.14915132522583
1696082911101562400,6.508562255859375,5.02094030380249,-13.060669898986816,3.0166940689086914
1696082911111562200,6.518562255859375,4.747702121734619,-13.687950134277344,1.9273324012756348
1696082911121562400,6.528562255859375,4.922778129577637,-13.527539253234863,0.7182605266571045
1696082911131562200,6.538562255859375,4.968267917633057,-13.101370811462402,-0.26815059781074524
1696082911141562400,6.548562255859375,2.779668092727661,-13.007997512817383,-0.2825157940387726
1696082911151562200,6.558562255859375,-0.17717093229293823,-13.606547355651855,0.5482721924781799
1696082911161562400,6.568562255859375,-1.800439715385437,-14.554651260375977,0.6248866319656372
1696082911171562200,6.578562255859375,-0.9840168952941895,-15.617976188659668,-0.49320554733276367
1696082911181562400,6.588562255859375,-0.6512228846549988,-16.92999839782715,-2.097320795059204
1696082911191562200,6.598562255859375,-1.6687586307525635,-18.141464233398438,-3.9025487899780273
1696082911201562400,6.608562255859375,-3.095702886581421,-18.775928497314453,-5.686528205871582
1696082911211562200,6.618562255859375,-4.05817174911499,-19.070415496826172,-6.941090106964111
1696082911221562400,6.628562255859375,-4.886565685272217,-18.495805740356445,-6.84053373336792
1696082911231562200,6.638562255859375,-5.181351661682129,-16.613964080810547,-5.8996124267578125
1696082911241562400,6.648562255859375,-3.5051112174987793,-14.068628311157227,-4.879383087158203
1696082911251562200,6.658562255859375,0.5985504388809204,-11.971307754516602,-3.337517261505127
1696082911261562400,6.668562255859375,2.9472622871398926,-10.503662109375,-1.3239935636520386
1696082911271562200,6.678562255859375,4.242525577545166,-9.304166793823242,0.17717093229293823
1696082911281562400,6.688562255859375,3.73016619682312,-8.420706748962402,0.4405331015586853
1696082911291562200,6.698562255859375,1.6950948238372803,-7.819762229919434,0.1149216815829277
1696082911301562400,6.708562255859375,0.033518824726343155,-7.338527679443359,-0.33518823981285095
1696082911311562200,6.718562255859375,-0.6775590777397156,-6.909965515136719,-0.9576807022094727
1696082911321562400,6.728562255859375,-1.8507179021835327,-6.395212173461914,-0.8762778043746948
1696082911331562200,6.738562255859375,-2.229001760482788,-5.863699436187744,-0.545877993106842
1696082911341562400,6.748562255859375,-1.7525556087493896,-5.396830081939697,-0.38067805767059326
1696082911351562200,6.758562255859375,-1.1204863786697388,-5.133467674255371,-0.3495534360408783
1696082911361562400,6.768562255859375,-0.9552865028381348,-5.186140060424805,-0.6033388376235962
1696082911371562500,6.7785625,-1.1516109704971313,-5.4351372718811035,-0.9552865028381348
1696082911381562400,6.788562255859375,-1.4532804489135742,-5.81342077255249,-1.4939818382263184
1696082911391562200,6.798562255859375,-1.4987702369689941,-6.182127952575684,-1.9560627937316895
1696082911401562400,6.808562255859375,-1.414973258972168,-6.498162746429443,-2.1715409755706787
1696082911411562200,6.818562255859375,-1.4772224426269531,-6.75194787979126,-2.185906171798706
1696082911421562400,6.828562255859375,-1.6041151285171509,-6.842927932739258,-2.10210919380188
1696082911431562200,6.838562255859375,-1.6424223184585571,-6.704063892364502,-2.097320795059204
1696082911441562400,6.848562255859375,-1.6543933153152466,-6.304232120513916,-2.1763293743133545
1696082911451562200,6.858562255859375,-1.644816517829895,-5.806238174438477,-2.5522189140319824
1696082911461562400,6.868562255859375,-1.6879122257232666,-5.2555718421936035,-2.980781078338623
1696082911471562200,6.878562255859375,-1.7142484188079834,-4.707000732421875,-3.28963303565979
1696082911481562400,6.888562255859375,-1.5753847360610962,-4.223371982574463,-3.485957622528076
1696082911491562200,6.898562255859375,-1.2761094570159912,-3.7636849880218506,-3.6822822093963623
1696082911501562400,6.908562255859375,-0.7374141216278076,-3.3925838470458984,-3.7253777980804443
1696082911511562200,6.918562255859375,-0.07182604819536209,-3.2800562381744385,-3.3446998596191406
1696082911521562400,6.928562255859375,0.629675030708313,-3.713406801223755,-2.0422539710998535
1696082911531562200,6.938562255859375,1.3287819623947144,-4.41969633102417,0.6703764796257019
1696082911541563000,6.94856298828125,2.9041666984558105,-5.73441219329834,3.758896589279175
1696082911551562800,6.958562744140625,7.668927192687988,-8.16452693939209,6.725611686706543
1696082911561563100,6.968563232421875,12.670414924621582,-11.375151634216309,9.732728958129883
1696082911571563000,6.97856298828125,11.774983406066895,-14.171579360961914,11.188404083251953
1696082911581563100,6.988563232421875,10.836456298828125,-16.460735321044922,10.965743064880371
1696082911591563000,6.99856298828125,12.644078254699707,-18.76874542236328,10.218751907348633
1696082911601563100,7.008563232421875,14.14284896850586,-20.123863220214844,10.527604103088379
1696082911611563000,7.01856298828125,11.60020637512207,-19.750368118286133,8.83250904083252
1696082911621563100,7.028563232421875,7.384017467498779,-17.13111114501953,4.197035789489746
1696082911631563000,7.03856298828125,4.898836135864258,-13.075035095214844,0.7158663272857666
1696082911641563100,7.048563232421875,3.7852327823638916,-8.55717658996582,-0.22505496442317963
1696082911651563000,7.05856298828125,3.2992098331451416,-4.2951979637146,-0.5578489899635315
1696082911661563100,7.068563232421875,5.171774864196777,-1.4700398445129395,-0.871489405632019
1696082911671563000,7.07856298828125,3.531447410583496,-1.6879122257232666,-1.3024457693099976
1696082911681563100,7.088563232421875,0.8355764150619507,-5.073612689971924,-2.6815059185028076
1696082911691563000,7.09856298828125,-2.4612393379211426,-9.596260070800781,-3.4572272300720215
1696082911701563100,7.108563232421875,-5.7200469970703125,-13.201927185058594,-3.507505416870117
1696082911711563000,7.11856298828125,-6.550835132598877,-16.14230728149414,-2.736572504043579
1696082911721563100,7.128563232421875,-3.064578056335449,-18.907609939575195,-1.2401964664459229
1696082911731563000,7.13856298828125,1.7549498081207275,-20.684106826782227,-0.05746084079146385
1696082911741563100,7.148563232421875,4.795586109161377,-19.23082733154297,0.1867477297782898
1696082911751563000,7.15856298828125,4.838681697845459,-15.397709846496582,-0.13407529890537262
1696082911761563100,7.168563232421875,1.3120225667953491,-10.93461799621582,-1.9129672050476074
1696082911771563500,7.1785634765625,-2.7557260990142822,-6.728005886077881,-3.818751811981201
1696082911781563600,7.188563720703125,-5.9881978034973145,-3.936067581176758,-4.486733913421631
1696082911791563500,7.1985634765625,-7.10150146484375,-3.885789394378662,-4.268861770629883
1696082911801563600,7.208563720703125,-6.773495674133301,-5.205293655395508,-4.314351558685303
1696082911811563500,7.2185634765625,-5.952284812927246,-6.854898929595947,-3.9408559799194336
1696082911821563600,7.228563720703125,-5.250783443450928,-8.552388191223145,-3.5745432376861572
1696082911831563500,7.2385634765625,-4.881777286529541,-9.974543571472168,-2.978386878967285
1696082911841563100,7.248563232421875,-4.97545051574707,-10.937012672424316,-1.9704279899597168
1696082911851563000,7.25856298828125,-5.317821025848389,-11.310507774353027,-1.2306196689605713
1696082911861563000,7.26856298828125,-5.1909284591674805,-11.303325653076172,-1.036689281463623
1696082911871563300,7.278563232421875,-3.7277719974517822,-11.008838653564453,-0.44771572947502136
1696082911881563400,7.2885634765625,-0.7182605266571045,-10.745476722717285,0.8068459630012512
1696082911891563300,7.298563232421875,2.628833532333374,-10.352827072143555,2.0590133666992188
1696082911901563400,7.3085634765625,5.581183433532715,-9.742305755615234,2.8179752826690674
1696082911911563300,7.318563232421875,7.539640426635742,-8.904335021972656,2.959233283996582
1696082911921563400,7.3285634765625,7.206846237182617,-8.238747596740723,2.3989901542663574
1696082911931563300,7.338563232421875,5.214870452880859,-8.001721382141113,1.381454348564148
1696082911941563400,7.3485634765625,2.7485435009002686,-8.006509780883789,0.43335050344467163
1696082911951563300,7.358563232421875,0.8188169598579407,-8.360851287841797,-0.24420857429504395
1696082911961563400,7.3685634765625,-0.9720458984375,-8.7391357421875,-0.8523358106613159
1696082911971563300,7.378563232421875,-3.31118106842041,-8.966584205627441,-1.237802267074585
1696082911981563400,7.3885634765625,-4.9706621170043945,-9.220370292663574,-1.3048399686813354
1696082911991563300,7.398563232421875,-4.795586109161377,-8.964190483093262,-1.2018892765045166
1696082912001563400,7.4085634765625,-4.809951305389404,-8.861239433288574,-0.5578489899635315
1696082912011563300,7.418563232421875,-3.974374771118164,-9.055170059204102,0.507570743560791
1696082912021563400,7.4285634765625,-1.941697597503662,-9.696816444396973,1.0031704902648926
1696082912031563300,7.438563232421875,0.7709329724311829,-10.302549362182617,1.3024457693099976
1696082912041563400,7.4485634765625,3.1076738834381104,-10.800542831420898,1.800439715385437
1696082912051563300,7.458563232421875,4.309563159942627,-10.872368812561035,2.583343744277954
1696082912061563400,7.4685634765625,4.151545524597168,-10.623372077941895,3.19865345954895
1696082912071562800,7.478562744140625,2.978386878967285,-10.237905502319336,3.31118106842041
1696082912081562600,7.488562744140625,1.381454348564148,-9.907505989074707,2.607285737991333
1696082912091562800,7.498562744140625,0.090979665517807,-9.92665958404541,1.072602391242981
1696082912101562600,7.508562744140625,-0.3974374830722809,-9.991303443908691,-0.3758896589279175
1696082912111562800,7.518562744140625,-0.009576806798577309,-10.17565631866455,-1.2737152576446533
1696082912121562600,7.528562744140625,1.0462661981582642,-10.38155746459961,-1.6089035272598267
1696082912131562800,7.538562744140625,2.456450939178467,-10.601824760437012,-1.6496049165725708
1696082912141562600,7.548562744140625,3.9695863723754883,-10.802937507629395,-1.3934253454208374
1696082912151562800,7.558562744140625,4.788403511047363,-10.920252799987793,-0.8619126081466675
1696082912161562600,7.568562744140625,4.244919776916504,-10.84363842010498,-0.026336219161748886
1696082912171562200,7.578562255859375,2.499546527862549,-10.573094367980957,1.1300631761550903
1696082912181562400,7.588562255859375,0.5051765441894531,-10.343250274658203,2.1045033931732178
1696082912191562200,7.598562255859375,-1.01753568649292,-10.331279754638672,2.7509377002716064
1696082912201562400,7.608562255859375,-1.7549498081207275,-10.304943084716797,3.2417490482330322
1696082912211562200,7.618562255859375,-1.5538369417190552,-10.422259330749512,3.7900211811065674
1696082912221562400,7.628562255859375,-0.5793967843055725,-10.711957931518555,4.501099109649658
1696082912231562200,7.638562255859375,1.0845733880996704,-10.960954666137695,4.913201332092285
1696082912241562400,7.648562255859375,3.095702886581421,-11.257835388183594,4.8722004890441895
1696082912251562200,7.658562255859375,4.630385875701904,-12.05031681060791,4.632780075073242
1696082912261562400,7.668562255859375,5.214870452880859,-13.041516304016113,4.441244125366211
1696082912271562200,7.678562255859375,5.253177642822266,-13.553874969482422,4.127603530883789
1696082912281562400,7.688562255859375,4.754884719848633,-13.525144577026367,3.4117374420166016
1696082912291562200,7.698562255859375,3.8546648025512695,-13.096582412719727,2.4372973442077637
1696082912301562400,7.708562255859375,3.2297780513763428,-13.07982349395752,1.6496049165725708
1696082912311562200,7.718562255859375,1.7381904125213623,-13.209110260009766,1.1851298809051514
1696082912321562400,7.728562255859375,-0.27054479718208313,-13.96088981628418,0.9744400978088379
1696082912331562200,7.738562255859375,-1.0342950820922852,-14.832677841186523,0.6224924325942993
1696082912341562400,7.748562255859375,-1.0342950820922852,-15.926828384399414,-0.5434837937355042
1696082912351562200,7.758562255859375,-1.3958195447921753,-17.092803955078125,-2.1715409755706787
1696082912361562400,7.768562255859375,-2.8874073028564453,-18.230051040649414,-4.4532151222229
1696082912371561700,7.778561767578125,-4.6734819412231445,-18.94352149963379,-6.737582683563232
1696082912381561900,7.788561767578125,-5.483021259307861,-18.87169647216797,-7.3576812744140625
1696082912391561700,7.798561767578125,-5.827786445617676,-17.681777954101562,-6.972214698791504
1696082912401561900,7.808561767578125,-5.607519626617432,-15.476717948913574,-5.4159836769104
1696082912411561700,7.818561767578125,-3.3446998596191406,-13.417405128479004,-4.108449935913086
1696082912421561900,7.828561767578125,1.359906554222107,-11.827655792236328,-2.9472622871398926
1696082912431561700,7.838561767578125,4.390965938568115,-10.630555152893066,-1.2832920551300049
1696082912441561900,7.848561767578125,4.469974517822266,-9.8691987991333,0.11971008777618408
1696082912451561700,7.858561767578125,2.698265314102173,-9.330503463745117,0.5123591423034668
1696082912461561900,7.868561767578125,0.7086837291717529,-8.7391357421875,0.42856210470199585
1696082912471561700,7.878561767578125,-0.6416460275650024,-8.03763484954834,0.004788403399288654
1696082912481561900,7.888561767578125,-1.5538369417190552,-7.295432090759277,0.043095629662275314
1696082912491561700,7.898561767578125,-2.322375535964966,-6.455067157745361,0.3758896589279175
1696082912501561900,7.908561767578125,-2.5019407272338867,-5.799055576324463,0.33279404044151306
1696082912511561700,7.918561767578125,-2.140416383743286,-5.2986674308776855,0.16998831927776337
1696082912521561900,7.928561767578125,-1.5083470344543457,-5.109525680541992,-0.38307225704193115
1696082912531561700,7.938561767578125,-1.2473790645599365,-5.226841449737549,-1.015141487121582
1696082912541561900,7.948561767578125,-1.3479355573654175,-5.607519626617432,-1.4891934394836426
1696082912551561700,7.958561767578125,-1.4891934394836426,-6.12945556640625,-1.7693150043487549
1696082912561561900,7.968561767578125,-1.4628572463989258,-6.452672958374023,-2.0039467811584473
1696082912571561700,7.978561767578125,-1.5514427423477173,-6.637026309967041,-2.099714994430542
1696082912581561900,7.988561767578125,-1.86508309841156,-6.675333499908447,-2.051830768585205
1696082912591561700,7.998561767578125,-2.0829553604125977,-6.589142322540283,-2.030282974243164
1696082912601561900,8.008561767578126,-2.1092917919158936,-6.304232120513916,-2.008735179901123
1696082912611561700,8.018561767578126,-2.0446481704711914,-5.839757442474365,-2.03507137298584
1696082912621561900,8.028561767578125,-2.070984363555908,-5.250783443450928,-2.2361843585968018
1696082912631561700,8.038561767578125,-2.2026655673980713,-4.683058738708496,-2.612074136734009
1696082912641561900,8.048561767578125,-2.2146365642547607,-4.144362926483154,-3.0382418632507324
1696082912651561700,8.058561767578125,-1.9536685943603516,-3.7469255924224854,-3.31118106842041
1696082912661561900,8.068561767578124,-1.5394717454910278,-3.3901896476745605,-3.5003228187561035
1696082912671562200,8.078562255859374,-0.9959878921508789,-3.112462282180786,-3.555389642715454
1696082912681562400,8.088562255859374,-0.33518823981285095,-3.1651346683502197,-3.3063924312591553
1696082912691562200,8.098562255859376,0.7589619159698486,-3.7493197917938232,-2.3080103397369385
1696082912701562400,8.108562255859376,2.1116859912872314,-4.639962673187256,-0.33997663855552673
1696082912711562200,8.118562255859375,3.6391866207122803,-6.136638164520264,1.9752163887023926
1696082912721562400,8.128562255859375,8.801384925842285,-8.789413452148438,4.620809078216553
1696082912731562000,8.13856201171875,15.984289169311523,-12.320860862731934,7.941866397857666
1696082912741561900,8.148561767578125,14.796765327453613,-15.905280113220215,10.522815704345703
1696082912751562000,8.15856201171875,11.94018268585205,-19.18533706665039,11.403882026672363
1696082912761561900,8.168561767578124,11.267412185668945,-21.229984283447266,11.20276927947998
1696082912771562000,8.17856201171875,11.487679481506348,-21.093515396118164,10.506056785583496
1696082912781561900,8.188561767578125,8.992920875549316,-18.917186737060547,7.8221564292907715
1696082912791562000,8.19856201171875,6.3640875816345215,-15.368979454040527,3.9001545906066895
1696082912801561900,8.208561767578125,4.7836151123046875,-11.604994773864746,1.5466543436050415
1696082912811562000,8.21856201171875,4.474762916564941,-8.712799072265625,0.38546648621559143
1696082912821561900,8.228561767578125,3.9264907836914062,-8.98813247680664,-1.3862427473068237
1696082912831562000,8.23856201171875,3.1914708614349365,-11.332056045532227,-3.663128614425659
1696082912841561900,8.248561767578124,3.1723172664642334,-13.280936241149902,-4.649539470672607
1696082912851562000,8.25856201171875,0.9816226959228516,-14.123695373535156,-2.6240451335906982
1696082912861561900,8.268561767578126,-2.6647465229034424,-14.24340534210205,-0.31124621629714966
1696082912871562000,8.27856201171875,-2.8826189041137695,-13.345579147338867,1.5059528350830078
1696082912881561900,8.288561767578125,-1.8291701078414917,-11.04714584350586,0.667982280254364
1696082912891562000,8.29856201171875,-1.5921441316604614,-8.09509563446045,-1.2330138683319092
1696082912901561900,8.308561767578125,-1.764526605606079,-5.353734493255615,-2.5761611461639404
1696082912911562000,8.31856201171875,-2.920926094055176,-3.9839515686035156,-3.1028854846954346
1696082912921561900,8.328561767578124,-4.244919776916504,-4.697423934936523,-3.9025487899780273
1696082912931561500,8.3385615234375,-4.7189717292785645,-6.826168537139893,-4.766855716705322
1696082912941561600,8.3485615234375,-5.303455829620361,-8.516474723815918,-5.198111057281494
1696082912951561500,8.3585615234375,-5.645826816558838,-9.790189743041992,-4.8722004890441895
1696082912961561600,8.3685615234375,-5.815814971923828,-10.98968505859375,-4.134786128997803
1696082912971561500,8.3785615234375,-5.906795024871826,-11.672032356262207,-3.892971992492676
1696082912981561600,8.3885615234375,-5.358522891998291,-11.614571571350098,-2.715024709701538
1696082912991561500,8.3985615234375,-4.869806289672852,-11.272200584411621,-1.558625340461731
1696082913001561600,8.4085615234375,-4.4532151222229,-10.680832862854004,-0.7972691655158997
1696082913011561500,8.4185615234375,-3.667917013168335,-10.079888343811035,-0.3471592366695404
1696082913021561600,8.4285615234375,-2.4444799423217773,-9.684844970703125,0.15562310814857483
1696082913031562000,8.43856201171875,-0.47884035110473633,-9.524434089660645,1.1420341730117798
1696082913041561900,8.448561767578125,2.2816741466522217,-9.510068893432617,2.451662540435791
1696082913051562000,8.45856201171875,4.606443881988525,-9.428665161132812,3.5218706130981445
1696082913061561900,8.468561767578125,5.449502468109131,-9.311349868774414,3.9911341667175293
1696082913071562000,8.47856201171875,4.961085319519043,-9.158121109008789,3.773261785507202
1696082913081561900,8.488561767578124,3.627215623855591,-9.033622741699219,3.004723072052002
1696082913091562000,8.49856201171875,1.867477297782898,-8.885181427001953,1.9704279899597168
1696082913101561900,8.508561767578126,0.2513911724090576,-8.612242698669434,0.8834604024887085
1696082913111562000,8.51856201171875,-0.9002198576927185,-8.327332496643066,-0.395043283700943
1696082913121561900,8.528561767578125,-1.8291701078414917,-8.210017204284668,-1.50355863571167
1696082913131562000,8.53856201171875,-2.406172752380371,-8.28902530670166,-2.03507137298584
1696082913141561900,8.548561767578125,-2.7006595134735107,-8.595483779907227,-2.4205379486083984
1696082913151562000,8.55856201171875,-2.801215887069702,-8.602665901184082,-2.5234885215759277
1696082913161561900,8.568561767578124,-2.3750481605529785,-8.686463356018066,-1.889025092124939
1696082913171562000,8.57856201171875,-1.3766659498214722,-8.945036888122559,-1.5658079385757446
1696082913181561900,8.588561767578126,0.22266076505184174,-9.445425033569336,-1.6639702320098877
1696082913191562000,8.59856201171875,2.1595699787139893,-10.144532203674316,-1.656787633895874
1696082913201561900,8.608561767578125,3.066972494125366,-10.527604103088379,-0.9672574996948242
1696082913211562000,8.61856201171875,2.698265314102173,-10.3456449508667,0.14365209639072418
1696082913221561900,8.628561767578125,1.7094600200653076,-9.783007621765137,1.338358759880066
1696082913231562200,8.638562255859375,0.5530605912208557,-9.177274703979492,1.946485996246338
1696082913241562000,8.64856201171875,-0.4668693244457245,-8.959402084350586,1.8842366933822632
1696082913251562200,8.658562255859374,-0.9816226959228516,-9.141361236572266,1.314416766166687
1696082913261562000,8.66856201171875,-0.5410895943641663,-9.749488830566406,0.4620809257030487
1696082913271562200,8.678562255859376,0.5003881454467773,-10.44620132446289,-0.3423708379268646
1696082913281562000,8.68856201171875,1.9057846069335938,-11.056722640991211,-0.5578489899635315
1696082913291562200,8.698562255859375,2.983175277709961,-11.593024253845215,-0.26096799969673157
1696082913301562000,8.70856201171875,3.248931646347046,-11.707945823669434,0.21308395266532898
1696082913311562200,8.718562255859375,2.786850690841675,-11.478102684020996,0.7469909191131592
1696082913321562000,8.72856201171875,1.9321208000183105,-11.11418342590332,1.3096283674240112
1696082913331562200,8.738562255859375,1.2401964664459229,-10.764630317687988,1.7836803197860718
1696082913341562400,8.748562255859374,0.8212111592292786,-10.570699691772461,2.31758713722229
1696082913351562200,8.758562255859376,0.43095630407333374,-10.697592735290527,2.9712042808532715
1696082913361562400,8.768562255859376,-0.033518824726343155,-10.972926139831543,3.7876269817352295
1696082913371562200,8.778562255859375,-0.42377370595932007,-11.152490615844727,4.577713489532471
1696082913381562000,8.78856201171875,-0.181959331035614,-11.071087837219238,5.176563262939453
1696082913391562200,8.798562255859375,1.2497732639312744,-10.68562126159668,5.5021748542785645
1696082913401562000,8.80856201171875,3.737348794937134,-10.259453773498535,5.013757705688477
1696082913411562200,8.818562255859375,6.31141471862793,-10.367192268371582,4.050989151000977
1696082913421562000,8.82856201171875,7.606678009033203,-11.391910552978516,3.141192674636841
1696082913431562200,8.838562255859374,7.745541572570801,-12.548310279846191,2.027888774871826
1696082913441562000,8.84856201171875,7.767089366912842,-13.225869178771973,0.8044517636299133
1696082913451562200,8.858562255859376,7.441478252410889,-13.158831596374512,-0.06464344263076782
1696082913461562000,8.86856201171875,5.760748386383057,-12.349591255187988,-0.2777273952960968
1696082913471562200,8.878562255859375,1.3958195447921753,-11.60020637512207,0.5770025849342346
1696082913481562000,8.88856201171875,-2.3774423599243164,-12.136507987976074,2.5977089405059814
1696082913491562200,8.898562255859375,-3.7612907886505127,-14.162002563476562,4.4292731285095215
1696082913501562000,8.90856201171875,-3.095702886581421,-16.771982192993164,4.632780075073242
1696082913511562200,8.918562255859374,-2.9735984802246094,-18.94112777709961,2.8826189041137695
1696082913521562000,8.92856201171875,-3.4356794357299805,-20.679319381713867,-0.6703764796257019
1696082913531562200,8.938562255859376,-4.273650169372559,-22.14935874938965,-4.304774761199951
1696082913541562000,8.94856201171875,-5.420772075653076,-22.39835548400879,-6.744765281677246
1696082913551562200,8.958562255859375,-5.909189224243164,-21.455039978027344,-7.431901454925537
1696082913561562000,8.96856201171875,-6.500556945800781,-18.792688369750977,-6.732794284820557
1696082913571562200,8.978562255859375,-4.395754337310791,-15.182231903076172,-5.396830081939697
1696082913581562400,8.988562255859375,-0.31124621629714966,-12.335226058959961,-3.6559460163116455
1696082913591562200,8.998562255859374,4.7189717292785645,-10.553940773010254,-1.6974890232086182
1696082913601562400,9.008562255859376,5.952284812927246,-9.545981407165527,-1.2689268589019775
1696082913611562200,9.018562255859376,4.048594951629639,-9.06714153289795,-0.8068459630012512
1696082913621562400,9.028562255859375,1.4269442558288574,-8.983344078063965,-1.1540051698684692
1696082913631562200,9.038562255859375,-0.507570743560791,-8.760683059692383,-1.5753847360610962
1696082913641562000,9.04856201171875,-1.400607943534851,-8.169315338134766,-1.6974890232086182
1696082913651562200,9.058562255859375,-1.41257905960083,-7.206846237182617,-1.316810965538025
1696082913661562000,9.06856201171875,-1.194706678390503,-6.0097455978393555,-1.05105459690094
1696082913671562200,9.078562255859374,-1.3982137441635132,-4.9275665283203125,-0.7445967197418213
1696082913681562000,9.08856201171875,-1.357512354850769,-4.050989151000977,-0.4836287498474121
1696082913691562200,9.098562255859376,-1.2761094570159912,-3.8522706031799316,-0.5985504388809204
1696082913701562000,9.10856201171875,-1.137245774269104,-3.950432777404785,-1.161187767982483
1696082913711562200,9.118562255859375,-1.216254472732544,-4.010287761688232,-1.7764976024627686
1696082913721562000,9.12856201171875,-1.4915876388549805,-4.1611223220825195,-2.1787235736846924
1696082913731562200,9.138562255859375,-1.659181833267212,-4.489128112792969,-2.2218191623687744
1696082913741562000,9.14856201171875,-1.4987702369689941,-4.853046894073486,-2.1068975925445557
1696082913751562200,9.158562255859374,-1.3072341680526733,-5.140650272369385,-2.0207061767578125
1696082913761562000,9.16856201171875,-1.3910311460494995,-5.2340240478515625,-2.0470423698425293
1696082913771562200,9.178562255859376,-1.534683346748352,-5.116708278656006,-2.3750481605529785
1696082913781562400,9.188562255859376,-1.7166426181793213,-4.776432514190674,-2.894589900970459
1696082913791562200,9.198562255859375,-1.922544002532959,-4.316745758056641,-3.49314022064209
1696082913801562400,9.208562255859375,-1.9560627937316895,-3.8379054069519043,-4.084507942199707
1696082913811562200,9.218562255859375,-1.7142484188079834,-3.3470940589904785,-4.486733913421631
1696082913821562400,9.228562255859375,-1.3239935636520386,-2.8826189041137695,-4.661510944366455
1696082913831562200,9.238562255859375,-0.9313444495201111,-2.6360161304473877,-4.4939165115356445
1696082913841562400,9.248562255859374,-0.33758243918418884,-2.9975404739379883,-3.5218706130981445
1696082913851562200,9.258562255859376,1.015141487121582,-3.9911341667175293,-1.4939818382263184
1696082913861562400,9.268562255859376,2.9328970909118652,-5.451896667480469,1.460463047027588
1696082913871562200,9.278562255859375,6.953061103820801,-7.805397033691406,4.699818134307861
1696082913881562400,9.288562255859375,14.24340534210205,-11.710339546203613,8.535628318786621
1696082913891561500,9.2985615234375,15.002666473388672,-16.26919937133789,12.806883811950684
1696082913901561600,9.3085615234375,11.830049514770508,-20.624252319335938,14.655207633972168
1696082913911561500,9.3185615234375,11.300930976867676,-22.293010711669922,12.969690322875977
1696082913921561600,9.3285615234375,11.159673690795898,-20.7104434967041,10.925041198730469
1696082913931561500,9.3385615234375,9.22515869140625,-17.653047561645508,10.510845184326172
1696082913941561600,9.3485615234375,6.742371082305908,-14.490008354187012,7.745541572570801
1696082913951561500,9.3585615234375,4.623203277587891,-11.341632843017578,4.630385875701904
1696082913961561600,9.3685615234375,3.49314022064209,-8.099884033203125,2.4181437492370605
1696082913971561500,9.3785615234375,3.450044631958008,-5.087977886199951,0.5817909836769104
1696082913981561600,9.3885615234375,4.393360137939453,-3.9600095748901367,-1.256955862045288
1696082913991561500,9.3985615234375,2.008735179901123,-6.373664379119873,-2.126051187515259
1696082914001561600,9.4085615234375,0.16998831927776337,-10.71674633026123,-2.75812029838562
1696082914011561500,9.4185615234375,-2.3798365592956543,-14.454094886779785,-3.201047658920288
1696082914021561600,9.4285615234375,-3.9264907836914062,-16.69297218322754,-2.671929121017456
1696082914031561500,9.4385615234375,-3.205836057662964,-17.339406967163086,-0.7924807667732239
1696082914041561600,9.4485615234375,0.40940847992897034,-16.63311767578125,0.2561795711517334
1696082914051561500,9.4585615234375,0.8667010068893433,-15.443199157714844,-0.7206547260284424
1696082914061561600,9.4685615234375,-0.569819986820221,-12.72069263458252,-2.3774423599243164
1696082914071561500,9.4785615234375,-2.1380221843719482,-10.077494621276855,-3.5482068061828613
1696082914081561600,9.4885615234375,-3.550601005554199,-7.649773597717285,-3.9887399673461914
1696082914091561500,9.4985615234375,-4.9491143226623535,-5.880458831787109,-4.307168960571289
1696082914101561600,9.5085615234375,-5.602731227874756,-5.602731227874756,-4.733336925506592
1696082914111561500,9.5185615234375,-5.923554420471191,-6.4502787590026855,-5.11191987991333
1696082914121561600,9.5285615234375,-5.945102214813232,-7.67850399017334,-4.980238914489746
1696082914131561500,9.5385615234375,-6.076783180236816,-8.92109489440918,-4.395754337310791
1696082914141561600,9.5485615234375,-5.949890613555908,-10.180444717407227,-3.869029998779297
1696082914151561500,9.5585615234375,-5.662586212158203,-10.795754432678223,-3.114856481552124
1696082914161561600,9.5685615234375,-5.272331237792969,-11.14770221710205,-2.1475989818573
1696082914171561500,9.5785615234375,-4.7405195236206055,-10.972926139831543,-1.292868971824646
1696082914181561600,9.5885615234375,-3.1268274784088135,-10.510845184326172,-0.5027823448181152
1696082914191562200,9.598562255859376,-0.9911994934082031,-9.924264907836914,0.2513911724090576
1696082914201562000,9.60856201171875,1.0558429956436157,-9.3735990524292,1.1252747774124146
1696082914211562200,9.618562255859375,3.0190882682800293,-8.839692115783691,1.8291701078414917
1696082914221562000,9.62856201171875,4.49870491027832,-8.52365779876709,2.4420857429504395
1696082914231562200,9.638562255859375,4.92996072769165,-8.28663158416748,2.626439332962036
1696082914241562000,9.64856201171875,4.273650169372559,-8.372822761535645,2.3080103397369385
1696082914251562200,9.658562255859374,3.0190882682800293,-8.638579368591309,1.5418659448623657
1696082914261562000,9.66856201171875,1.403002142906189,-8.734347343444824,0.6727706789970398
1696082914271562200,9.678562255859376,-0.5195417404174805,-8.753500938415527,-0.17238251864910126
1696082914281562000,9.68856201171875,-1.4413094520568848,-8.92109489440918,-1.0247182846069336
1696082914291562200,9.698562255859375,-1.3742717504501343,-9.117419242858887,-1.7310078144073486
1696082914301562000,9.70856201171875,-0.6129156351089478,-9.285013198852539,-1.455674648284912
1696082914311562200,9.718562255859375,0.6607996821403503,-9.730335235595703,-0.6607996821403503
1696082914321562000,9.72856201171875,1.3479355573654175,-10.348038673400879,0.09576806426048279
1696082914331562200,9.738562255859375,1.2425906658172607,-10.982502937316895,0.8786720037460327
1696082914341562400,9.748562255859374,0.4189853072166443,-11.109395027160645,1.778891921043396
1696082914351562200,9.758562255859376,-0.4405331015586853,-10.47253704071045,2.1499931812286377
1696082914361562400,9.768562255859376,-1.0797849893569946,-9.450213432312012,2.0254945755004883
1696082914371562200,9.778562255859375,-1.436521053314209,-8.629002571105957,1.6376339197158813
1696082914381562000,9.78856201171875,-1.381454348564148,-8.174103736877441,1.1109095811843872
1696082914391562200,9.798562255859375,-0.9792284965515137,-8.403946876525879,0.49320554733276367
1696082914401562000,9.80856201171875,-0.2801215946674347,-9.301773071289062,-0.21787235140800476
1696082914411562200,9.818562255859375,0.3447650372982025,-10.26663589477539,-0.7469909191131592
1696082914421562000,9.82856201171875,0.5817909836769104,-10.9585599899292,-0.8930372595787048
1696082914431562200,9.838562255859374,0.7110779285430908,-11.401487350463867,-0.7110779285430908
1696082914441562000,9.84856201171875,1.3886369466781616,-11.502044677734375,-0.3232172429561615
1696082914451562200,9.858562255859376,2.410961151123047,-10.95616626739502,0.1173158809542656
1696082914461562000,9.86856201171875,2.942473888397217,-10.228328704833984,0.5506663918495178
1696082914471562200,9.878562255859375,2.6623523235321045,-9.785401344299316,1.01753568649292
1696082914481562000,9.88856201171875,1.7956513166427612,-9.543587684631348,1.556231141090393
1696082914491562200,9.898562255859375,0.8451532125473022,-9.335291862487793,2.0374655723571777
1696082914501562000,9.90856201171875,0.2346317619085312,-9.320926666259766,2.454056739807129
1696082914511562200,9.918562255859374,0.019153613597154617,-9.49809741973877,2.738966703414917
1696082914521562000,9.92856201171875,0.014365210197865963,-9.8691987991333,2.920926094055176
1696082914531562200,9.938562255859376,-0.038307227194309235,-10.247482299804688,3.0166940689086914
1696082914541562000,9.94856201171875,0.06703764945268631,-10.340856552124023,2.980781078338623
1696082914551562200,9.958562255859375,0.6943184733390808,-10.134955406188965,2.765302896499634
1696082914561562000,9.96856201171875,2.013523578643799,-9.735123634338379,2.300827741622925
1696082914571562200,9.978562255859375,3.533841609954834,-9.557952880859375,1.8339585065841675
1696082914581562400,9.988562255859375,4.0964789390563965,-10.527604103088379,1.987187385559082
1696082914591562200,9.998562255859374,3.426102638244629,-12.53633975982666,2.559401512145996
1696082914601562400,10.008562255859376,2.8586769104003906,-14.339173316955566,2.8395233154296875
1696082914611562200,10.018562255859376,2.628833532333374,-15.110405921936035,2.612074136734009
1696082914621562400,10.028562255859375,2.7557260990142822,-14.77761173248291,2.5330653190612793
1696082914631562200,10.038562255859375,2.535459518432617,-14.48043155670166,2.9233202934265137
1696082914641562000,10.04856201171875,1.5682021379470825,-14.128483772277832,2.715024709701538
1696082914651562200,10.058562255859375,0.1412578970193863,-14.109330177307129,2.1715409755706787
1696082914661562000,10.06856201171875,-0.28969839215278625,-14.597746849060059,1.1540051698684692
1696082914671562200,10.078562255859374,-0.7876923680305481,-15.304335594177246,-0.22026655077934265
1696082914681562000,10.08856201171875,-1.3431471586227417,-16.554109573364258,-2.0925323963165283
1696082914691562200,10.098562255859376,-2.3774423599243164,-17.734451293945312,-3.797203779220581
1696082914701562000,10.10856201171875,-3.801992416381836,-18.344972610473633,-5.317821025848389
1696082914711562200,10.118562255859375,-4.716577529907227,-18.309059143066406,-6.043264389038086
1696082914721562000,10.12856201171875,-4.996998310089111,-17.332223892211914,-6.026504993438721
1696082914731562200,10.138562255859375,-4.359841346740723,-15.775993347167969,-5.8086323738098145
1696082914741562000,10.14856201171875,-2.298433542251587,-14.106935501098633,-4.901230335235596
1696082914751562200,10.158562255859374,-0.181959331035614,-13.015179634094238,-3.3734302520751953
1696082914761562000,10.16856201171875,1.403002142906189,-12.000038146972656,-1.8267759084701538
1696082914771562200,10.178562255859376,1.5275006294250488,-11.207557678222656,-0.6057330369949341
1696082914781562000,10.18856201171875,1.338358759880066,-10.393528938293457,-0.24660277366638184
1696082914791562200,10.198562255859375,1.0654197931289673,-9.433453559875488,-0.5003881454467773
1696082914801562000,10.20856201171875,-0.2753331959247589,-8.626607894897461,-0.6440402865409851
1696082914811562200,10.218562255859375,-1.2952631711959839,-7.656956195831299,-0.24660277366638184
1696082914821562000,10.22856201171875,-1.6400281190872192,-6.883629322052002,-0.15322890877723694
1696082914831562200,10.238562255859375,-1.766920804977417,-6.337751388549805,-0.047884032130241394
1696082914841562400,10.248562255859374,-1.659181833267212,-5.760748386383057,-0.23942017555236816
1696082914851562200,10.258562255859376,-1.8698714971542358,-5.289090633392334,-0.6200982332229614
1696082914861562400,10.268562255859376,-1.8818424940109253,-5.1693806648254395,-0.9744400978088379
1696082914871562200,10.278562255859375,-1.8555063009262085,-5.325003623962402,-1.3072341680526733
1696082914881562000,10.28856201171875,-2.006340980529785,-5.5883660316467285,-1.5634137392044067
1696082914891562200,10.298562255859375,-1.9369091987609863,-5.782296180725098,-1.7357962131500244
1696082914901562000,10.30856201171875,-1.745373010635376,-5.882853031158447,-1.8938134908676147
1696082914911562200,10.318562255859375,-1.656787633895874,-5.923554420471191,-1.9967641830444336
1696082914921562000,10.32856201171875,-1.723825216293335,-5.854122638702393,-1.9967641830444336
1696082914931562200,10.338562255859374,-1.98958158493042,-5.72244119644165,-2.075772762298584
1696082914941562000,10.34856201171875,-2.3247697353363037,-5.540482044219971,-2.293645143508911
1696082914951562200,10.358562255859376,-2.454056739807129,-5.308244228363037,-2.6455929279327393
1696082914961562000,10.36856201171875,-2.389413356781006,-4.989815711975098,-3.021482467651367
1696082914971562200,10.378562255859375,-2.142810583114624,-4.484339714050293,-3.270479440689087
1696082914981562000,10.38856201171875,-1.7094600200653076,-3.9025487899780273,-3.308786630630493
1696082914991562200,10.398562255859375,-1.1109095811843872,-3.533841609954834,-3.2537200450897217
1696082915001562000,10.40856201171875,-0.26336219906806946,-3.2824504375457764,-3.2752678394317627
1696082915011562200,10.418562255859374,0.7876923680305481,-3.4548330307006836,-2.7557260990142822
1696082915021562000,10.42856201171875,1.6639702320098877,-4.1180267333984375,-1.4748282432556152
1696082915031562200,10.438562255859376,2.808398485183716,-4.989815711975098,1.0342950820922852
1696082915041562000,10.44856201171875,5.887641429901123,-6.56998872756958,3.955221176147461
1696082915051562200,10.458562255859375,10.721534729003906,-9.296984672546387,7.635408401489258
1696082915061562000,10.46856201171875,9.873987197875977,-12.040740013122559,11.499650001525879
1696082915071562200,10.478562255859375,8.731952667236328,-14.880561828613281,12.129324913024902
1696082915081562400,10.488562255859375,10.93222427368164,-16.848596572875977,11.245864868164062
1696082915091562200,10.498562255859374,14.032715797424316,-18.069639205932617,10.35761547088623
1696082915101562400,10.508562255859376,14.382268905639648,-19.159000396728516,8.856451034545898
1696082915111562200,10.518562255859376,11.29374885559082,-18.866907119750977,5.890035629272461
1696082915121562400,10.528562255859375,7.419930458068848,-15.725715637207031,2.4851813316345215
1696082915131562200,10.538562255859375,4.786009311676025,-10.972926139831543,0.17477671802043915
1696082915141562000,10.54856201171875,4.323928356170654,-6.718429088592529,-0.35913026332855225
1696082915151562200,10.558562255859375,5.51893424987793,-3.974374771118164,-1.3527239561080933
1696082915161562000,10.56856201171875,5.0161519050598145,-4.857835292816162,-2.6886885166168213
1696082915171562200,10.578562255859374,4.062960147857666,-8.765471458435059,-4.596867084503174
1696082915181562000,10.58856201171875,1.414973258972168,-13.29769515991211,-6.143820762634277
1696082915191562200,10.598562255859376,-4.2544965744018555,-16.07526969909668,-6.112696170806885
1696082915201562000,10.60856201171875,-7.348104476928711,-17.49502944946289,-5.375282287597656
1696082915211562200,10.618562255859375,-5.186140060424805,-16.640300750732422,-3.375824451446533
1696082915221562000,10.62856201171875,-2.365471363067627,-14.470854759216309,-0.9457096457481384
1696082915231562200,10.638562255859375,-0.2537853717803955,-12.172420501708984,0.45010992884635925
1696082915241562000,10.64856201171875,0.05267243832349777,-9.095871925354004,-0.0071826050989329815
1696082915251562200,10.658562255859374,-1.534683346748352,-7.108684062957764,-0.9193734526634216
1696082915261562000,10.66856201171875,-4.182670593261719,-5.995380401611328,-1.7717092037200928
1696082915271562200,10.678562255859376,-6.060023784637451,-6.186916351318359,-2.5522189140319824
1696082915281562000,10.68856201171875,-7.103895664215088,-7.455843448638916,-3.227383852005005
1696082915291562200,10.698562255859375,-7.3145856857299805,-8.985737800598145,-3.6942532062530518
1696082915301562000,10.70856201171875,-6.91954231262207,-10.544363975524902,-3.890577793121338
1696082915311562200,10.718562255859375,-5.7631425857543945,-11.734281539916992,-3.3854012489318848
1696082915321562000,10.72856201171875,-5.104737281799316,-12.205939292907715,-2.2625205516815186
1696082915331562200,10.738562255859375,-4.5394062995910645,-12.035951614379883,-1.0893617868423462
1696082915341562400,10.748562255859374,-3.3686418533325195,-11.35360336303711,-0.17956513166427612
1696082915351562200,10.758562255859376,-1.8148049116134644,-10.400711059570312,0.5386953949928284
1696082915361562400,10.768562255859376,-0.22744916379451752,-9.507674217224121,1.1420341730117798
1696082915371562200,10.778562255859375,1.5131354331970215,-8.806173324584961,1.7741034030914307
1696082915381562000,10.78856201171875,3.205836057662964,-8.370428085327148,2.2170307636260986
1696082915391562200,10.798562255859375,4.4532151222229,-8.205228805541992,2.497152328491211
1696082915401562000,10.80856201171875,4.759673118591309,-8.183680534362793,2.5234885215759277
1696082915411562200,10.818562255859375,4.146757125854492,-8.315361976623535,2.126051187515259
1696082915421562000,10.82856201171875,2.8395233154296875,-8.418312072753906,1.5083470344543457
1696082915431562200,10.838562255859374,1.359906554222107,-8.516474723815918,0.6009446382522583
1696082915441562000,10.84856201171875,0.06464344263076782,-8.59069538116455,-0.4429273009300232
1696082915451562200,10.858562255859376,-1.1252747774124146,-8.688857078552246,-1.4460978507995605
1696082915461562000,10.86856201171875,-2.1068975925445557,-8.698433876037598,-1.9632453918457031
1696082915471562200,10.878562255859375,-2.6791117191314697,-8.37761116027832,-2.1571757793426514
1696082915481562000,10.88856201171875,-2.669534921646118,-8.312967300415039,-1.8602946996688843
1696082915491562200,10.898562255859375,-2.3558945655822754,-8.755894660949707,-1.41257905960083
1696082915501562000,10.90856201171875,-1.1994950771331787,-9.536404609680176,-1.1516109704971313
1696082915511562200,10.918562255859374,0.40940847992897034,-10.3240966796875,-0.7398083209991455
1696082915521562000,10.92856201171875,1.946485996246338,-10.838850021362305,-0.2106897532939911
1696082915531562200,10.938562255859376,2.5665841102600098,-10.929829597473145,0.5219359993934631
1696082915541562000,10.94856201171875,1.9153614044189453,-10.64970874786377,1.455674648284912
1696082915551562200,10.958562255859375,0.9074024558067322,-10.187627792358398,2.051830768585205
1696082915561562000,10.96856201171875,0.11013327538967133,-9.87159252166748,2.1763293743133545
1696082915571562200,10.978562255859375,-0.3280056416988373,-9.823708534240723,1.8315643072128296
1696082915581562400,10.988562255859375,-0.3974374830722809,-9.98412036895752,1.2641384601593018
1696082915591562200,10.998562255859374,0.3471592366695404,-10.149320602416992,0.5578489899635315
1696082915601562400,11.008562255859376,1.9800047874450684,-10.371980667114258,-0.047884032130241394
1696082915611562200,11.018562255859376,3.8163576126098633,-10.589853286743164,-0.15562310814857483
1696082915621562400,11.028562255859375,4.9706621170043945,-10.743082046508789,0.1843535304069519
1696082915631562200,11.038562255859375,4.745307922363281,-10.71674633026123,0.8547300100326538
1696082915641562000,11.04856201171875,3.227383852005005,-10.611401557922363,1.6400281190872192
1696082915651562200,11.058562255859375,1.1563993692398071,-10.429441452026367,2.142810583114624
1696082915661562000,11.06856201171875,-0.6153098344802856,-10.360010147094727,2.3942017555236816
1696082915671562200,11.078562255859374,-1.625662922859192,-10.529998779296875,2.7509377002716064
1696082915681562000,11.08856201171875,-1.8195933103561401,-10.889128684997559,3.383007049560547
1696082915691562200,11.098562255859376,-1.338358759880066,-11.29374885559082,3.998316764831543
1696082915701562000,11.10856201171875,-0.4213795065879822,-11.62414836883545,4.584896087646484
1696082915711562200,11.118562255859375,0.9097966551780701,-11.559505462646484,4.76924991607666
1696082915721562000,11.12856201171875,2.6240451335906982,-11.157279014587402,4.28322696685791
1696082915731562200,11.138562255859375,4.359841346740723,-10.733505249023438,3.3470940589904785
1696082915741562000,11.14856201171875,5.377676486968994,-10.80772590637207,2.6599581241607666
1696082915751562200,11.158562255859374,4.939537525177002,-11.686397552490234,2.3032219409942627
1696082915761562000,11.16856201171875,3.7014358043670654,-12.378321647644043,1.7118542194366455
1696082915771562200,11.178562255859376,2.762908697128296,-12.30170726776123,1.0007762908935547
1696082915781562000,11.18856201171875,2.346317768096924,-11.693580627441406,0.8068459630012512
1696082915791562200,11.198562255859375,2.5091233253479004,-11.602601051330566,1.625662922859192
1696082915801562000,11.20856201171875,1.800439715385437,-12.32564926147461,2.477998733520508
1696082915811562200,11.218562255859375,0.38067805767059326,-13.673584938049316,3.021482467651367
1696082915821562000,11.22856201171875,-0.5937620401382446,-15.215750694274902,2.3319525718688965
1696082915831562200,11.238562255859375,-0.8906430602073669,-16.013019561767578,0.23942017555236816
1696082915841562400,11.248562255859374,-0.7326257228851318,-16.781558990478516,-2.233790159225464
1696082915851562200,11.258562255859376,-1.1803414821624756,-17.703325271606445,-4.046200752258301
1696082915861562400,11.268562255859376,-2.5306711196899414,-18.32821273803711,-5.940313816070557
1696082915871562200,11.278562255859375,-3.5386300086975098,-18.51496124267578,-7.431901454925537
1696082915881562000,11.28856201171875,-4.0078935623168945,-18.222867965698242,-8.035240173339844
1696082915891562200,11.298562255859375,-4.132391929626465,-16.846200942993164,-7.805397033691406
1696082915901562000,11.30856201171875,-2.8562827110290527,-14.799159049987793,-7.044040679931641
1696082915911562200,11.318562255859375,-0.3016694188117981,-12.938565254211426,-6.014533996582031
1696082915921562000,11.32856201171875,1.889025092124939,-11.478102684020996,-4.721365928649902
1696082915931562200,11.338562255859374,2.5450363159179688,-10.460566520690918,-3.706224203109741
1696082915941562000,11.34856201171875,1.2473790645599365,-9.742305755615234,-2.655169725418091
1696082915951562200,11.358562255859376,-1.8818424940109253,-9.220370292663574,-1.5969325304031372
1696082915961562000,11.36856201171875,-2.736572504043579,-8.748712539672852,-0.5602431893348694
1696082915971562200,11.378562255859375,-1.7860745191574097,-7.855675220489502,0.1604115068912506
1696082915981562000,11.38856201171875,-0.9840168952941895,-6.876446723937988,1.0055646896362305
1696082915991562200,11.398562255859375,0.33518823981285095,-5.969044208526611,1.680729627609253
1696082916001562000,11.40856201171875,0.6153098344802856,-5.286696434020996,1.8411411046981812
1696082916011562200,11.418562255859374,-0.09816227108240128,-4.98742151260376,1.5538369417190552
1696082916021562000,11.42856201171875,-1.0534487962722778,-5.06643009185791,1.5610195398330688
1696082916031562200,11.438562255859376,-1.7717092037200928,-5.444714069366455,1.5466543436050415
1696082916041562000,11.44856201171875,-1.699883222579956,-6.08396577835083,0.8259995579719543
1696082916051562200,11.458562255859375,-1.4077905416488647,-6.483797550201416,-0.4213795065879822
1696082916061562000,11.46856201171875,-1.381454348564148,-6.646603107452393,-1.3646949529647827
1696082916071562200,11.478562255859375,-1.6519991159439087,-6.749553680419922,-1.867477297782898
1696082916081562000,11.48856201171875,-1.920149803161621,-6.842927932739258,-2.142810583114624
1696082916091562200,11.498562255859374,-1.8363527059555054,-6.778284072875977,-2.518700122833252
1696082916101562000,11.50856201171875,-1.702277421951294,-6.452672958374023,-2.8395233154296875
1696082916111562200,11.518562255859376,-1.9536685943603516,-6.000168800354004,-2.985569477081299
1696082916121562000,11.52856201171875,-2.183511972427368,-5.5021748542785645,-3.021482467651367
1696082916131562200,11.538562255859375,-2.2146365642547607,-4.881777286529541,-3.0597896575927734
1696082916141562000,11.54856201171875,-1.8938134908676147,-4.220977783203125,-3.138798475265503
1696082916151562200,11.558562255859375,-1.4245500564575195,-3.6104562282562256,-3.2297780513763428
1696082916161562000,11.56856201171875,-0.8619126081466675,-3.157952070236206,-3.332728862762451
1696082916171562200,11.578562255859374,-0.19153612852096558,-3.043030261993408,-3.184288263320923
1696082916181562000,11.58856201171875,0.6392518281936646,-3.375824451446533,-2.612074136734009
1696082916191562200,11.598562255859376,1.5179238319396973,-4.220977783203125,-1.1755530834197998
1696082916201562000,11.60856201171875,3.071760892868042,-5.257966041564941,1.139639973640442
1696082916211562200,11.618562255859375,5.945102214813232,-6.912359714508057,3.737348794937134
1696082916221562000,11.62856201171875,10.53718090057373,-9.486125946044922,6.689698696136475
1696082916231562200,11.638562255859375,12.972084045410156,-12.732664108276367,10.070311546325684
1696082916241562000,11.64856201171875,12.217910766601562,-16.187795639038086,12.402263641357422
1696082916251562200,11.658562255859374,11.42064094543457,-18.797475814819336,13.312060356140137
1696082916261562000,11.66856201171875,10.450989723205566,-19.249980926513672,11.784560203552246
1696082916271562200,11.678562255859376,8.86602783203125,-18.14864730834961,9.5531644821167
1696082916281562000,11.68856201171875,6.8716583251953125,-16.530166625976562,7.048829078674316
1696082916291562200,11.698562255859375,5.55245304107666,-13.8746976852417,4.228160381317139
1696082916301562000,11.70856201171875,4.46518611907959,-10.484508514404297,2.3582887649536133
1696082916311562200,11.718562255859375,3.955221176147461,-6.833351135253906,1.0749965906143188
1696082916321562000,11.72856201171875,3.751713991165161,-3.691859006881714,-0.043095629662275314
1696082916331562200,11.738562255859375,3.8115692138671875,-2.145204782485962,-1.1468225717544556
1696082916341562000,11.74856201171875,2.4181437492370605,-4.010287761688232,-2.145204782485962
1696082916351562200,11.758562255859376,0.3974374830722809,-8.109460830688477,-3.0597896575927734
1696082916361562000,11.76856201171875,-2.341529369354248,-12.711115837097168,-3.7205893993377686
1696082916371562200,11.778562255859375,-4.958691120147705,-16.374544143676758,-3.318363666534424
1696082916381562000,11.78856201171875,-4.867412090301514,-19.3601131439209,-2.1164743900299072
1696082916391562200,11.798562255859375,0.18914192914962769,-21.033660888671875,-0.2513911724090576
1696082916401562000,11.80856201171875,6.000168800354004,-20.626646041870117,0.5386953949928284
1696082916411562200,11.818562255859375,6.179733753204346,-15.574880599975586,-0.8331822156906128
1696082916421562000,11.82856201171875,2.094926595687866,-10.190021514892578,-2.9951462745666504
1696082916431562200,11.838562255859374,-1.6424223184585571,-6.349722385406494,-4.458003520965576
1696082916441562000,11.84856201171875,-4.620809078216553,-3.6990416049957275,-5.7415947914123535
1696082916451562200,11.858562255859376,-6.78546667098999,-3.49314022064209,-6.584353923797607
1696082916461562000,11.86856201171875,-7.350498676300049,-4.7836151123046875,-6.632237911224365
1696082916471562200,11.878562255859375,-7.044040679931641,-6.70645809173584,-5.28190803527832
1696082916481562000,11.88856201171875,-6.9602437019348145,-8.86363410949707,-4.6734819412231445
1696082916491562200,11.898562255859375,-7.0033392906188965,-10.692804336547852,-5.023334503173828
1696082916501562000,11.90856201171875,-6.541258335113525,-11.72470474243164,-3.821146011352539
1696082916511562200,11.918562255859374,-5.727229595184326,-12.148478507995605,-2.8347349166870117
1696082916521562000,11.92856201171875,-4.925172328948975,-11.820472717285156,-2.011129379272461
1696082916531562200,11.938562255859376,-3.861847400665283,-10.960954666137695,-1.3958195447921753
1696082916541562000,11.94856201171875,-1.9967641830444336,-10.292972564697266,-0.608127236366272
1696082916551562200,11.958562255859375,0.44532153010368347,-9.948206901550293,0.5817909836769104
1696082916561562000,11.96856201171875,3.2992098331451416,-9.783007621765137,1.7836803197860718
1696082916571562200,11.978562255859375,5.9427080154418945,-9.601048469543457,2.9257144927978516
1696082916581562000,11.98856201171875,7.185298442840576,-9.354445457458496,3.552995204925537
1696082916591562200,11.998562255859374,6.53646993637085,-8.904335021972656,3.627215623855591
1696082916601562000,12.00856201171875,4.809951305389404,-8.485349655151367,3.227383852005005
1696082916611562200,12.018562255859376,2.5761611461639404,-8.190863609313965,2.628833532333374
1696082916621562000,12.02856201171875,0.2298433631658554,-7.922712802886963,1.900996208190918
1696082916631562200,12.038562255859375,-1.7549498081207275,-7.738358974456787,1.0295066833496094
1696082916641562000,12.04856201171875,-2.96162748336792,-7.8006086349487305,0.2585737705230713
1696082916651562200,12.058562255859375,-3.9456443786621094,-8.121431350708008,-0.3208230137825012
1696082916661562400,12.068562255859375,-4.326322555541992,-8.621819496154785,-0.43335050344467163
1696082916671562200,12.078562255859374,-3.220201253890991,-9.13417911529541,-0.4668693244457245
1696082916681562400,12.088562255859374,-1.7166426181793213,-10.13974380493164,-0.4165911078453064
1696082916691562200,12.098562255859376,0.22026655077934265,-11.372756958007812,-0.2968810200691223
1696082916701562400,12.108562255859376,2.054224967956543,-12.009614944458008,-0.2106897532939911
1696082916711562200,12.118562255859375,3.1244332790374756,-11.719916343688965,0.3519476354122162
1696082916721562400,12.128562255859375,2.937685489654541,-10.80772590637207,1.3287819623947144
1696082916731562200,12.138562255859375,1.8579005002975464,-9.636960983276367,2.142810583114624
1696082916741562400,12.148562255859375,0.4668693244457245,-8.68406867980957,2.205059766769409
1696082916751562200,12.158562255859374,-0.7254431247711182,-8.46859073638916,1.4915876388549805
1696082916761562400,12.168562255859374,-1.37906014919281,-8.992920875549316,0.40222588181495667
1696082916771562200,12.178562255859376,-1.3551181554794312,-9.823708534240723,-0.47644615173339844
1696082916781562400,12.188562255859376,-0.8643068075180054,-10.697592735290527,-1.0606313943862915
1696082916791562200,12.198562255859375,0.026336219161748886,-11.394305229187012,-1.4724340438842773
1696082916801562400,12.208562255859375,1.2114660739898682,-11.609783172607422,-1.6376339197158813
1696082916811562200,12.218562255859375,2.693476915359497,-11.439794540405273,-1.3958195447921753
1696082916821562400,12.228562255859375,4.101267337799072,-10.889128684997559,-0.8044517636299133
1696082916831562200,12.238562255859375,4.707000732421875,-10.07509994506836,-0.05985504388809204
1696082916841562400,12.248562255859374,3.952826976776123,-9.34965705871582,0.7613561153411865
1696082916851562200,12.258562255859376,2.2218191623687744,-9.148544311523438,1.3934253454208374
1696082916861562400,12.268562255859376,0.30885201692581177,-9.500492095947266,1.9273324012756348
1696082916871562200,12.278562255859375,-1.1061211824417114,-10.26663589477539,2.4851813316345215
1696082916881562400,12.288562255859375,-1.845929503440857,-11.013627052307129,3.112462282180786
1696082916891562200,12.298562255859375,-2.2577321529388428,-11.439794540405273,3.931279182434082
1696082916901562400,12.308562255859375,-2.1164743900299072,-11.4541597366333,4.637568473815918
1696082916911562200,12.318562255859375,-1.1252747774124146,-11.083059310913086,5.0592474937438965
1696082916921562400,12.328562255859374,0.7709329724311829,-10.439018249511719,4.81473970413208
1696082916931562200,12.338562255859374,2.5929205417633057,-10.29057788848877,4.4077253341674805
1696082916941562400,12.348562255859376,3.428496837615967,-11.248258590698242,4.19224739074707
1696082916951562200,12.358562255859376,3.162740468978882,-12.66083812713623,3.6846764087677
1696082916961562000,12.36856201171875,2.497152328491211,-13.972860336303711,2.8634653091430664
1696082916971562200,12.378562255859375,2.1930887699127197,-14.734516143798828,1.9321208000183105
1696082916981562000,12.38856201171875,2.470816135406494,-14.808735847473145,1.1899182796478271
1696082916991562200,12.398562255859375,2.655169725418091,-14.205098152160645,0.6536170840263367
1696082917001562000,12.40856201171875,2.650381326675415,-13.2617826461792,-0.009576806798577309
1696082917011562200,12.418562255859374,2.738966703414917,-12.6273193359375,-0.7398083209991455
1696082917021562000,12.42856201171875,2.5115175247192383,-12.866739273071289,-1.5179238319396973
1696082917031562200,12.438562255859376,1.8291701078414917,-13.585000038146973,-2.4444799423217773
1696082917041562000,12.44856201171875,-0.2106897532939911,-14.588170051574707,-3.5218706130981445
1696082917051562200,12.458562255859375,-2.5665841102600098,-15.579668998718262,-5.0376996994018555
1696082917061562000,12.46856201171875,-4.098873138427734,-16.39369773864746,-6.201281547546387
1696082917071562200,12.478562255859375,-4.9491143226623535,-16.33863067626953,-7.3145856857299805
1696082917081562000,12.48856201171875,-4.946720123291016,-15.644312858581543,-7.697657585144043
1696082917091562200,12.498562255859374,-3.734954595565796,-14.535497665405273,-6.747159481048584
1696082917101562000,12.50856201171875,-1.9919757843017578,-13.534721374511719,-5.176563262939453
1696082917111562200,12.518562255859376,-0.40940847992897034,-12.6273193359375,-3.0190882682800293
1696082917121562000,12.52856201171875,1.9369091987609863,-11.71273422241211,-1.7070658206939697
1696082917131562200,12.538562255859375,2.695871114730835,-11.018415451049805,-0.5291185975074768
1696082917141562000,12.54856201171875,1.9345149993896484,-10.47253704071045,0.19153612852096558
1696082917151562200,12.558562255859375,0.5315127968788147,-9.96257209777832,0.23702596127986908
1696082917161562000,12.56856201171875,-0.5027823448181152,-9.478943824768066,-0.026336219161748886
1696082917171562200,12.578562255859374,-1.2665326595306396,-9.021651268005371,-0.2298433631658554
1696082917181562000,12.58856201171875,-1.625662922859192,-8.499714851379395,-0.31364041566848755
1696082917191562200,12.598562255859376,-1.6089035272598267,-7.9945387840271,-0.37828385829925537
1696082917201562000,12.60856201171875,-2.190694570541382,-7.494150638580322,-0.21547815203666687
1696082917211562200,12.618562255859375,-2.4612393379211426,-7.015310287475586,-0.31603461503982544
1696082917221562000,12.62856201171875,-2.1092917919158936,-6.778284072875977,-0.7015010714530945
