time,seconds_elapsed,z,y,x
1695712739998707000,0.09370703125,0,0,0
1695712740008746800,0.103746826171875,-0.422482967376709,-0.23439598083496094,-0.20286071300506592
1695712740018776600,0.113776611328125,-0.8021540641784668,-0.22729253768920898,-0.6792904734611511
1695712740028816600,0.123816650390625,-0.9274544715881348,-0.11941289901733398,-1.1405974626541138
1695712740038820900,0.13382080078125,-0.8470277786254883,-0.0799407958984375,-1.4703500270843506
1695712740048861000,0.14386083984375,-0.0952901840209961,0.06468582153320312,-1.510412573814392
1695712740058843400,0.153843505859375,-0.08611679077148438,-0.08104658126831055,-1.620088815689087
1695712740069043500,0.16404345703125,-0.0471186637878418,0.24755096435546875,-1.2557742595672607
1695712740079073800,0.17407373046875,-0.0949258804321289,0.602022647857666,-0.4871859550476074
1695712740088986400,0.183986328125,0.27300119400024414,0.6586189270019531,-0.12298035621643066
1695712740099022600,0.194022705078125,1.0666389465332031,0.8217296600341797,-0.0017917156219482422
1695712740109007400,0.20400732421875,1.6450066566467285,0.9713878631591797,0.1650310754776001
1695712740119092200,0.21409228515625,1.8443007469177246,0.9025516510009766,0.328153133392334
1695712740129119500,0.224119384765625,1.9538044929504395,0.6489176750183105,0.6162129640579224
1695712740139122400,0.234122314453125,1.8531808853149414,0.2749300003051758,0.3615685701370239
1695712740149139500,0.244139404296875,1.6934471130371094,0.7049689292907715,-0.7241201400756836
1695712740159220700,0.254220703125,1.1286087036132812,1.3366398811340332,-1.803571105003357
1695712740169265200,0.26426513671875,0.7356042861938477,0.4957733154296875,-0.943897008895874
1695712740179252500,0.27425244140625,0.5824975967407227,-0.279052734375,-0.1958993673324585
1695712740189272600,0.2842724609375,0.22053050994873047,-0.17424392700195312,-0.19699716567993164
1695712740199336000,0.2943359375,0.5843572616577148,0.12025880813598633,0.02360248565673828
1695712740209374500,0.30437451171875,1.6036787033081055,0.39011049270629883,0.272405743598938
1695712740219400200,0.314400146484375,1.7697420120239258,0.5603160858154297,0.6408324241638184
1695712740229433300,0.324433349609375,1.2499370574951172,0.48055171966552734,0.8447214365005493
1695712740239468300,0.33446826171875,1.0253734588623047,-0.06554937362670898,1.2724933624267578
1695712740249502200,0.344502197265625,0.7978658676147461,-0.7220916748046875,1.1111736297607422
1695712740259528200,0.354528076171875,0.8212308883666992,-1.0242924690246582,0.4567185342311859
1695712740269558800,0.364558837890625,1.5363588333129883,-0.4734678268432617,0.024874553084373474
1695712740279594800,0.3745947265625,1.0282526016235352,-0.40453004837036133,-0.764153778553009
1695712740289627600,0.384627685546875,0.6882219314575195,-0.588874340057373,-1.2554731369018555
1695712740299658000,0.394657958984375,0.8857421875,-0.7600979804992676,-0.7770265936851501
1695712740309689900,0.40468994140625,0.6246719360351562,-0.7312502861022949,-0.29070761799812317
1695712740319726300,0.414726318359375,0.8355598449707031,-0.5994753837585449,-0.006082713603973389
1695712740329760300,0.42476025390625,0.6833400726318359,-0.6685800552368164,-0.36444905400276184
1695712740339789800,0.434789794921875,0.7537841796875,-0.8500289916992188,-1.2601969242095947
1695712740349822000,0.444822021484375,1.0046720504760742,-0.3584890365600586,-1.4129246473312378
1695712740359853000,0.45485302734375,1.1341934204101562,-1.5618705749511719,-0.006956219673156738
1695712740369884400,0.464884521484375,1.1513338088989258,-2.08917498588562,0.3888554573059082
1695712740379925000,0.474925048828125,0.7537832260131836,-2.8388309478759766,0.23974907398223877
1695712740389960400,0.48496044921875,0.048714637756347656,-3.600982666015625,-0.48968803882598877
1695712740399990500,0.494990478515625,-1.305616855621338,-4.1354169845581055,-1.1363682746887207
1695712740410023700,0.505023681640625,-2.6948843002319336,-3.90116286277771,-1.5260326862335205
1695712740420040700,0.515040771484375,-4.242598056793213,-4.4927239418029785,-1.7984981536865234
1695712740430072300,0.525072265625,-4.958222389221191,-5.053524971008301,-2.4966678619384766
1695712740440108800,0.53510888671875,-5.151106834411621,-5.795797348022461,-3.118252754211426
1695712740450140700,0.545140625,-5.097806930541992,-6.238368988037109,-3.6576263904571533
1695712740460184300,0.555184326171875,-5.327364921569824,-7.6801958084106445,-3.0349998474121094
1695712740470217200,0.56521728515625,-5.119442939758301,-8.476200103759766,-2.5124146938323975
1695712740480250000,0.57525,-4.707954406738281,-8.739509582519531,-2.460034132003784
1695712740490283300,0.585283203125,-4.437080383300781,-9.105620384216309,-3.0818607807159424
1695712740500323600,0.595323486328125,-4.428007125854492,-9.107216835021973,-3.914872169494629
1695712740510357200,0.605357177734375,-4.45030403137207,-9.874073028564453,-4.231171607971191
1695712740520385500,0.615385498046875,-4.4947638511657715,-9.557788848876953,-4.932905673980713
1695712740530418700,0.625418701171875,-4.977268218994141,-10.280649185180664,-3.957838296890259
1695712740540452900,0.635452880859375,-5.566921234130859,-10.9769287109375,-3.5959982872009277
1695712740550486300,0.645486328125,-4.947853088378906,-10.04229736328125,-3.3166723251342773
1695712740560519700,0.655519775390625,-3.6710829734802246,-9.457047462463379,-2.128648281097412
1695712740570553000,0.665552978515625,-2.45684814453125,-9.784872055053711,-0.5583539009094238
1695712740580584400,0.67558447265625,-1.134800910949707,-10.176505088806152,1.1220388412475586
1695712740590617300,0.685617431640625,0.05698037147521973,-9.413887977600098,3.7986459732055664
1695712740600644000,0.69564404296875,0.345766544342041,-8.687337875366211,6.918976306915283
1695712740610676500,0.705676513671875,0.1541893482208252,-8.201555252075195,10.677755355834961
1695712740620711700,0.715711669921875,-0.17299485206604004,-6.591517448425293,13.669313430786133
1695712740630744300,0.725744384765625,-0.21217119693756104,-4.592807769775391,15.281536102294922
1695712740640774400,0.7357744140625,0.4434243440628052,-3.4351654052734375,16.618953704833984
1695712740650806800,0.745806884765625,1.7617106437683105,-1.9055380821228027,18.14395523071289
1695712740660825000,0.7558251953125,2.763035535812378,0.33014965057373047,20.00278091430664
1695712740671005000,0.7660048828125,2.3315269947052,2.426401138305664,22.75369644165039
1695712740681036000,0.7760361328125,0.5602669715881348,3.9133121967315674,25.504621505737305
1695712740691081500,0.78608154296875,-1.2789803743362427,4.582739353179932,26.556922912597656
1695712740701113900,0.79611376953125,-2.477546215057373,5.225700855255127,25.079275131225586
1695712740711146500,0.806146484375,-3.2110342979431152,6.1084465980529785,22.12017822265625
1695712740721026300,0.8160263671875,-4.205766677856445,6.225235939025879,19.328250885009766
1695712740731046700,0.826046630859375,-4.472360134124756,7.091266632080078,15.760663032531738
1695712740741094400,0.836094482421875,-6.145291805267334,7.58533239364624,12.477790832519531
1695712740751117600,0.84611767578125,-10.253194808959961,7.6096649169921875,7.945795059204102
1695712740761156600,0.856156494140625,-27.3863468170166,6.227545261383057,-5.782575607299805
1695712740771181300,0.866181396484375,-16.16895294189453,2.346052646636963,-6.227633476257324
1695712740781218300,0.87621826171875,-1.4664123058319092,1.2044596672058105,0.515376091003418
1695712740791244300,0.886244384765625,-2.314992666244507,0.7713832855224609,-0.08194732666015625
1695712740801271000,0.89627099609375,1.151275873184204,0.06873035430908203,-4.155153751373291
1695712740811297000,0.906297119140625,-0.5334973931312561,7.919991493225098,6.209647178649902
1695712740821357600,0.916357666015625,5.6522674560546875,1.7459511756896973,-2.065216064453125
1695712740831387100,0.92638720703125,5.546385765075684,-1.006880760192871,-8.298554420471191
1695712740841419300,0.936419189453125,3.222896099090576,-0.11524009704589844,-4.456730365753174
1695712740851448800,0.94644873046875,0.6963921189308167,1.918839693069458,-4.535525798797607
1695712740861434400,0.956434326171875,-4.919352054595947,2.6446008682250977,-4.998915672302246
1695712740871459600,0.96645947265625,-4.937478065490723,4.93781042098999,-3.043210983276367
1695712740881552400,0.976552490234375,3.7325592041015625,2.3958899974823,1.4707069396972656
1695712740891584500,0.98658447265625,7.5537519454956055,-0.6835308074951172,-1.2804198265075684
1695712740901605400,0.99660546875,4.651222229003906,-1.8800804615020752,-3.6730408668518066
1695712740911636200,1.00663623046875,-1.5050122737884521,-2.5031027793884277,-4.025750637054443
1695712740921673700,1.016673828125,0.5792698860168457,2.6292548179626465,-1.687035083770752
1695712740931705300,1.026705322265625,-0.07216918468475342,-5.86107063293457,2.1062679290771484
1695712740941733400,1.0367333984375,-0.28303539752960205,-5.742937088012695,-0.7114906311035156
1695712740951764500,1.046764404296875,-1.1551423072814941,-8.309274673461914,-1.019282341003418
1695712740961795000,1.056795166015625,-1.1866295337677002,-9.94912338256836,-1.1824069023132324
1695712740971826200,1.066826171875,-0.1290314793586731,-8.670621871948242,-1.8012323379516602
1695712740981878800,1.076878662109375,-0.08295416831970215,-7.384939670562744,-1.4289803504943848
1695712740991912200,1.086912109375,-1.3790974617004395,-6.858493804931641,-0.014192581176757812
1695712741001937700,1.096937744140625,-2.8311140537261963,-6.8359293937683105,2.3037796020507812
1695712741011970300,1.10697021484375,-3.3088417053222656,-5.15690279006958,3.24453067779541
1695712741021971200,1.11697119140625,-3.330627918243408,-2.731618881225586,1.602555274963379
1695712741032000500,1.12700048828125,-2.3821592330932617,1.0375385284423828,-0.7321224212646484
1695712741042070000,1.137070068359375,-0.6190899014472961,3.3242902755737305,-2.144881248474121
1695712741052103400,1.147103515625,0.6073635816574097,3.088134288787842,-2.6787452697753906
1695712741062105000,1.15710498046875,1.589564561843872,2.198556900024414,-2.9342193603515625
1695712741072135400,1.167135498046875,2.875913619995117,1.8113360404968262,-3.180830478668213
1695712741082189000,1.17718896484375,3.4636967182159424,2.0164055824279785,-3.4530606269836426
1695712741092221700,1.1872216796875,2.663020133972168,2.3533949851989746,-3.0175728797912598
1695712741102242000,1.197241943359375,2.1043317317962646,2.6636619567871094,-1.4865856170654297
1695712741112273400,1.2072734375,1.763554573059082,2.3401103019714355,0.1358346939086914
1695712741122327600,1.21732763671875,0.5268484354019165,1.516674518585205,1.2542576789855957
1695712741132361000,1.22736083984375,-1.907793641090393,0.17717695236206055,2.505072593688965
1695712741142383400,1.23738330078125,-2.681607723236084,-1.17759370803833,3.0399351119995117
1695712741152415700,1.247415771484375,-1.5309644937515259,-2.545210838317871,3.0666089057922363
1695712741162459000,1.257458984375,-0.27275049686431885,-3.5916757583618164,2.8182997703552246
1695712741172492500,1.267492431640625,0.19186365604400635,-3.691213607788086,2.208625316619873
1695712741182509800,1.277509765625,0.2815595865249634,-2.0469307899475098,0.8222999572753906
1695712741192541700,1.287541748046875,-0.3243143558502197,-0.2544097900390625,-0.6801896095275879
1695712741202580000,1.297580078125,0.43689972162246704,-0.1049494743347168,-0.530449390411377
1695712741212612600,1.307612548828125,0.6866967678070068,0.8820886611938477,-0.6426801681518555
1695712741222643700,1.317643798828125,0.8905947804450989,2.4341464042663574,-0.726921558380127
1695712741232676000,1.327676025390625,1.1187571287155151,3.171057939529419,-0.8232803344726562
1695712741242712600,1.337712646484375,1.3475391864776611,2.7720589637756348,-1.1202731132507324
1695712741252745200,1.3477451171875,1.2574654817581177,8.117523193359375,-2.4247641563415527
1695712741262781200,1.35778125,0.6266832947731018,5.256908416748047,-2.451662063598633
1695712741272814300,1.367814453125,0.7617915868759155,1.467139720916748,-1.73250150680542
1695712741282833700,1.377833740234375,1.3146800994873047,-0.21532917022705078,-1.1353907585144043
1695712741292865300,1.387865234375,0.7148599624633789,-1.646955966949463,-0.27640581130981445
1695712741302890000,1.397889892578125,0.14486652612686157,-1.2472920417785645,0.4952511787414551
1695712741312921000,1.407921142578125,-0.5093941688537598,-0.2764468193054199,0.350008487701416
1695712741322968600,1.417968505859375,-1.2714900970458984,4.707221984863281,-0.3155646324157715
1695712741333001200,1.428001220703125,-0.8222976326942444,7.639320373535156,-1.7858233451843262
1695712741343006200,1.438006103515625,-1.3351722955703735,7.611368656158447,-3.409066677093506
1695712741353036000,1.4480361328125,-2.939366340637207,5.482904434204102,-3.408358335494995
1695712741363070200,1.4580703125,-2.00441312789917,1.8228588104248047,-3.1348798274993896
1695712741373100500,1.4681005859375,1.5856497287750244,-1.775395393371582,-4.456483840942383
1695712741383166700,1.478166748046875,4.139453887939453,-4.394152641296387,-6.354337692260742
1695712741393200600,1.48820068359375,5.544476509094238,-4.648323059082031,-6.402054309844971
1695712741403221200,1.49822119140625,5.588726043701172,-1.8556766510009766,-4.439690589904785
1695712741413253600,1.508253662109375,2.14206862449646,0.631474494934082,-3.302399158477783
1695712741423299300,1.51829931640625,-1.7206863164901733,1.8957176208496094,-2.1283345222473145
1695712741433333200,1.528333251953125,-2.5343434810638428,1.6240787506103516,-0.3455618619918823
1695712741443331800,1.538331787109375,-1.431922435760498,-0.0663137435913086,0.464077889919281
1695712741453362200,1.548362060546875,0.18134844303131104,-7.382646560668945,0.4555457532405853
1695712741463414800,1.558414794921875,0.4011213183403015,-11.235294342041016,-0.5766541361808777
1695712741473447400,1.568447509765625,-0.6973658204078674,-9.316709518432617,1.5653166770935059
1695712741483468800,1.57846875,-0.5665429830551147,-5.146944999694824,4.805302619934082
1695712741493500400,1.58850048828125,-0.43447619676589966,-1.5956344604492188,5.005878448486328
1695712741503527700,1.598527587890625,-0.33749571442604065,0.4777364730834961,2.4634721279144287
1695712741513558800,1.608558837890625,-0.04625499248504639,-0.6432409286499023,-0.09508371353149414
1695712741523585800,1.618585693359375,-0.0607987642288208,-5.916706085205078,-1.7857465744018555
1695712741533616400,1.628616455078125,0.7517421245574951,-8.133621215820312,-4.731943607330322
1695712741543653600,1.638653564453125,1.3552894592285156,-0.7891702651977539,-9.561033248901367
1695712741553685000,1.64868505859375,0.9578899145126343,3.3815155029296875,-9.360191345214844
1695712741563730000,1.65872998046875,0.3115287721157074,4.212113857269287,-3.8052737712860107
1695712741573762600,1.668762451171875,-0.3954092264175415,3.1364145278930664,-0.9243471622467041
1695712741583813600,1.678813720703125,-0.49946844577789307,1.4147443771362305,-0.5698246955871582
1695712741593848300,1.688848388671875,-0.36725956201553345,0.3142051696777344,-0.3469123840332031
1695712741603865300,1.698865234375,-0.33636146783828735,-0.2718324661254883,0.4324502944946289
1695712741613898200,1.708898193359375,-0.5032776594161987,-0.5725326538085938,1.266813039779663
1695712741623925200,1.71892529296875,0.08047619462013245,-0.8116874694824219,0.6302053928375244
1695712741633957400,1.728957275390625,0.4551522135734558,-0.8612022399902344,0.21485400199890137
1695712741643974100,1.73897412109375,0.30095532536506653,-0.916468620300293,0.39593982696533203
1695712741654004700,1.749004638671875,0.6834894418716431,-0.6394014358520508,0.9589416980743408
1695712741664058400,1.759058349609375,1.1681265830993652,-0.33774852752685547,1.1993217468261719
1695712741674091300,1.76909130859375,0.7987164258956909,0.28961753845214844,-0.030936002731323242
1695712741684130800,1.779130859375,0.6833756566047668,0.9160737991333008,-0.5591142177581787
1695712741694164200,1.789164306640625,0.8008000254631042,1.7908296585083008,-0.21209001541137695
1695712741704169700,1.799169677734375,0.620253324508667,2.5979299545288086,-0.441295862197876
1695712741714200600,1.80920068359375,0.7689598798751831,1.7262325286865234,-1.1905829906463623
1695712741724264400,1.819264404296875,1.4392406940460205,-0.5047035217285156,-1.3444161415100098
1695712741734298600,1.829298583984375,1.33896803855896,-1.8545732498168945,-1.5839157104492188
1695712741744302800,1.839302734375,0.5176379680633545,-1.1909370422363281,-0.8319063186645508
1695712741754334000,1.849333984375,-0.21860802173614502,-0.31856346130371094,-0.2137136459350586
1695712741764369200,1.859369140625,-0.616519570350647,0.2247028350830078,-0.061484575271606445
1695712741774400800,1.86940087890625,-0.7880150079727173,0.9930973052978516,-0.03326153755187988
1695712741784432600,1.8794326171875,-0.5306398272514343,1.2240934371948242,-0.2571380138397217
1695712741794464000,1.889464111328125,-0.15043288469314575,1.4692411422729492,-0.6719286441802979
1695712741804514600,1.8995146484375,0.07203119993209839,1.1902284622192383,-0.8284609317779541
1695712741814548000,1.9095478515625,0.17250680923461914,0.8807382583618164,-0.607640266418457
1695712741824559600,1.9195595703125,0.23773103952407837,0.8001947402954102,-0.767535924911499
1695712741834591000,1.929591064453125,0.3163396716117859,0.26096153259277344,-1.0865113735198975
1695712741844650200,1.939650146484375,0.0013960003852844238,0.04905414581298828,-0.9780099391937256
1695712741854684200,1.94968408203125,-0.22148984670639038,-0.13361835479736328,-0.7334237098693848
1695712741864688600,1.959688720703125,-0.2753187417984009,-0.06871318817138672,-0.14851140975952148
1695712741874719500,1.969719482421875,-0.17283862829208374,-0.5616989135742188,0.07082295417785645
1695712741884779300,1.979779296875,0.014500677585601807,-0.40862178802490234,0.8060851097106934
1695712741894813200,1.989813232421875,-0.19774514436721802,-0.12378501892089844,0.2728452682495117
1695712741904845000,1.999844970703125,-0.15408653020858765,0.038616180419921875,-0.028775930404663086
1695712741914878700,2.009878662109375,-0.04869973659515381,0.1794271469116211,-0.05385637283325195
1695712741924913700,2.01991357421875,0.05361282825469971,0.3609590530395508,0.05308079719543457
1695712741934947300,2.029947265625,0.08182871341705322,0.4028759002685547,0.2891782522201538
1695712741944948200,2.0399482421875,0.2221471071243286,0.6781587600708008,0.3907041549682617
1695712741954978800,2.049978759765625,0.12210053205490112,0.665618896484375,0.6205873489379883
1695712741965009700,2.060009765625,-0.21482717990875244,0.30952930450439453,0.7487787008285522
1695712741975040300,2.070040283203125,-0.3715319037437439,0.10233020782470703,0.544518232345581
1695712741985106400,2.0801064453125,-0.2972630262374878,0.1907329559326172,0.22784554958343506
1695712741995140600,2.090140625,-0.1651419997215271,0.3445310592651367,-0.14328742027282715
1695712742005167000,2.1001669921875,-0.06812494993209839,0.4013643264770508,-0.6152744293212891
1695712742015200500,2.110200439453125,0.0010989904403686523,0.4619169235229492,-0.9633548259735107
1695712742025205200,2.120205322265625,0.09201723337173462,0.4935474395751953,-1.1327543258666992
1695712742035235600,2.130235595703125,0.20553302764892578,0.43930912017822266,-0.9656474590301514
1695712742045270300,2.140270263671875,0.15112727880477905,0.21004772186279297,-0.4416625499725342
1695712742055301000,2.150301025390625,-0.031710028648376465,0.02161407470703125,-0.06068134307861328
1695712742065333500,2.16033349609375,0.027783513069152832,0.11168670654296875,0.23529624938964844
1695712742075364600,2.170364501953125,0.10791724920272827,0.42616844177246094,0.3750271797180176
1695712742085398300,2.180398193359375,0.1788703203201294,0.6775112152099609,0.20265769958496094
1695712742095429600,2.1904296875,0.2652701139450073,0.3978719711303711,-0.30927252769470215
1695712742105492500,2.200492431640625,0.3776647448539734,0.3193655014038086,-0.5658869743347168
1695712742115527200,2.210527099609375,0.24137163162231445,0.4457893371582031,-0.6501572132110596
1695712742125553400,2.220553466796875,0.05829566717147827,0.5804214477539062,-0.41388845443725586
1695712742135587000,2.230587158203125,-0.13502848148345947,0.542302131652832,-0.3160834312438965
1695712742145593000,2.240593017578125,-0.23563504219055176,0.3994016647338867,-0.45241665840148926
1695712742155624000,2.2506240234375,-0.20808863639831543,0.2669343948364258,-0.5600793361663818
1695712742165661200,2.2606611328125,-0.25067341327667236,0.17383289337158203,-0.47293925285339355
1695712742175692500,2.270692626953125,-0.3093041181564331,0.2054758071899414,-0.41553163528442383
1695712742185729800,2.280729736328125,-0.21095991134643555,0.3515300750732422,-0.28251123428344727
1695712742195762000,2.290761962890625,-0.10823917388916016,0.5589389801025391,-0.2980797290802002
1695712742205791500,2.30079150390625,0.027386069297790527,0.7080869674682617,-0.4083840847015381
1695712742215823000,2.310822998046875,0.06143021583557129,0.7608985900878906,-0.6022143363952637
1695712742225884000,2.3208837890625,0.13572484254837036,0.6035976409912109,-0.5789687633514404
1695712742235918800,2.3309189453125,0.22003889083862305,0.21407127380371094,-0.5185556411743164
1695712742245913300,2.340913330078125,0.15806400775909424,-0.26323699951171875,-0.3041059970855713
1695712742255944000,2.35094384765625,-0.03146493434906006,-0.3948192596435547,-0.4262735843658447
1695712742266013200,2.36101318359375,-0.0964123010635376,-0.24052143096923828,-0.647111177444458
1695712742276047600,2.371047607421875,-0.10289609432220459,0.16028785705566406,-0.7331662178039551
1695712742286077000,2.381076904296875,-0.061666011810302734,0.4345846176147461,-0.7414464950561523
1695712742296111000,2.391111083984375,0.0378260612487793,0.627802848815918,-0.5319955348968506
1695712742306118000,2.401117919921875,-0.01652348041534424,0.5348777770996094,-0.6534137725830078
1695712742316149000,2.41114892578125,0.3370915651321411,0.4574451446533203,-0.5120582580566406
1695712742326198800,2.42119873046875,0.3786877989768982,0.3212270736694336,-0.4837474822998047
1695712742336232200,2.431232177734375,0.16406941413879395,0.27193737030029297,-0.3749806880950928
1695712742346236400,2.441236328125,0.17927062511444092,0.1481304168701172,-0.23049116134643555
1695712742356266800,2.451266845703125,0.16573059558868408,0.09274005889892578,-0.20300960540771484
1695712742366329000,2.4613291015625,0.16167521476745605,0.16570091247558594,-0.29949259757995605
1695712742376362800,2.47136279296875,0.16230535507202148,0.20005321502685547,-0.37185025215148926
1695712742386372400,2.481372314453125,0.1210407018661499,0.49312877655029297,-0.3267331123352051
1695712742396403500,2.491403564453125,0.10467475652694702,0.6210079193115234,-0.4372067451477051
1695712742406437400,2.501437255859375,0.1673215627670288,0.45433998107910156,-0.26097941398620605
1695712742416468700,2.51146875,0.16614782810211182,0.33754444122314453,-0.29427647590637207
1695712742426509300,2.52150927734375,0.1648789644241333,0.3452138900756836,-0.35089540481567383
1695712742436541400,2.53154150390625,0.03649204969406128,0.42815113067626953,-0.19021821022033691
1695712742446718700,2.54171875,-0.13245511054992676,0.3022470474243164,-0.22412896156311035
1695712742456763600,2.551763671875,-0.09122765064239502,-0.23179054260253906,-0.36371612548828125
1695712742466808600,2.56180859375,-0.17979001998901367,-0.4551525115966797,0.21390342712402344
1695712742476686000,2.57168603515625,-0.49217748641967773,0.03686046600341797,0.11530828475952148
1695712742486718000,2.581718017578125,-0.42943525314331055,0.28032875061035156,-0.13731169700622559
1695712742496721400,2.591721435546875,-0.24728071689605713,0.37395286560058594,-0.1944124698638916
1695712742506750500,2.60175048828125,-0.12282407283782959,0.35749053955078125,-0.4246833324432373
1695712742516790000,2.6117900390625,0.04068881273269653,0.2611532211303711,-0.22177910804748535
1695712742526820000,2.621820068359375,-0.013306617736816406,0.1855916976928711,-0.1447582244873047
1695712742536860000,2.63185986328125,-0.07756364345550537,0.03119945526123047,-0.07759928703308105
1695712742546891000,2.64189111328125,-0.05983173847198486,-0.036014556884765625,-0.05375218391418457
1695712742556920800,2.6519208984375,-0.036249518394470215,0.14289093017578125,0.02037525177001953
1695712742566951700,2.66195166015625,-0.08402574062347412,0.14009380340576172,-0.05801582336425781
1695712742576979200,2.671979248046875,-0.15091609954833984,0.2039928436279297,-0.010159015655517578
1695712742587009800,2.682009765625,0.0045174360275268555,0.1397228240966797,-0.321016788482666
1695712742597070000,2.692070068359375,0.08109849691390991,0.13333892822265625,-0.2601792812347412
1695712742607103500,2.702103515625,-0.01679360866546631,0.2823915481567383,-0.35594987869262695
1695712742617112300,2.7121123046875,-0.07245075702667236,0.4289875030517578,-0.4278068542480469
1695712742627143200,2.72214306640625,0.034315407276153564,-0.0209197998046875,-0.7646303176879883
1695712742637179400,2.732179443359375,0.11231112480163574,-0.43987178802490234,-0.6516048908233643
1695712742647211000,2.7422109375,-0.4392554759979248,0.37393951416015625,-0.07899856567382812
1695712742657226000,2.75222607421875,-0.5020447969436646,0.783452033996582,-0.2004857063293457
1695712742667255800,2.762255859375,-0.18540418148040771,0.46517086029052734,-0.15385651588439941
1695712742677323300,2.7723232421875,-0.05418086051940918,-0.14922237396240234,-0.6440789699554443
1695712742687357200,2.782357177734375,0.19934701919555664,-0.763575553894043,-0.7268266677856445
1695712742697388000,2.792387939453125,0.014173150062561035,-0.4209270477294922,-0.4133632183074951
1695712742707421400,2.80242138671875,-0.121925950050354,-0.008409500122070312,-0.352200984954834
1695712742717462500,2.812462646484375,0.004185080528259277,0.35875701904296875,0.18414735794067383
1695712742727496700,2.82249658203125,-0.13235080242156982,1.0021562576293945,0.7909395694732666
1695712742737512700,2.8325126953125,-0.4968010187149048,0.9741497039794922,0.481900691986084
1695712742747545000,2.842545166015625,-0.054237961769104004,0.39815616607666016,0.13656949996948242
1695712742757574100,2.85257421875,-0.04274582862854004,0.08055305480957031,-0.2523512840270996
1695712742767606300,2.862606201171875,-0.20414793491363525,-0.39319801330566406,-0.0941915512084961
1695712742777641000,2.872640869140625,-0.03098154067993164,-0.789463996887207,-0.07759737968444824
1695712742787673000,2.882673095703125,0.22665518522262573,-0.5574522018432617,0.03774881362915039
1695712742797727700,2.892727783203125,0.1491553783416748,0.024369239807128906,0.06699848175048828
1695712742807762400,2.902762451171875,-0.17062711715698242,0.9451789855957031,0.6188998222351074
1695712742817789400,2.91278955078125,-0.1884709596633911,1.1815214157104492,0.532189130783081
1695712742827823000,2.922822998046875,-0.04649484157562256,0.9515972137451172,0.10621118545532227
1695712742837857000,2.93285693359375,0.18640506267547607,0.6643743515014648,-0.37662649154663086
1695712742847890700,2.942890625,0.1553095579147339,0.6320276260375977,-0.9524073600769043
1695712742857920500,2.95292041015625,-0.06838655471801758,0.8225879669189453,-1.1067323684692383
1695712742867954000,2.962953857421875,-0.5305477380752563,0.8541698455810547,-1.4067432880401611
1695712742877949400,2.972949462890625,-0.8611977100372314,0.5910348892211914,-1.616220235824585
1695712742887978800,2.982978759765625,-0.9044495820999146,0.4148550033569336,-1.5906176567077637
1695712742898018800,2.993018798828125,-0.2259122133255005,0.550837516784668,-1.7326343059539795
1695712742908049400,3.00304931640625,-0.5673220753669739,0.1667327880859375,-0.39284634590148926
1695712742918088000,3.013087890625,-0.6079800128936768,-0.4314289093017578,0.8490595817565918
1695712742928119300,3.023119384765625,-0.22786575555801392,-0.7221441268920898,0.7987008094787598
1695712742938171400,3.03317138671875,0.07488298416137695,-1.0458087921142578,1.2761294841766357
1695712742948204800,3.043204833984375,0.17253822088241577,-1.0733470916748047,1.41697096824646
1695712742958237000,3.05323681640625,0.19324898719787598,-0.9016075134277344,1.41037917137146
1695712742968270000,3.06327001953125,0.0711858868598938,-0.6305389404296875,1.1216404438018799
1695712742978305300,3.07330517578125,-0.06492668390274048,-0.41730690002441406,0.7658712863922119
1695712742988339000,3.0833388671875,-0.24800807237625122,-0.1706399917602539,0.638958215713501
1695712742998338300,3.09333837890625,-0.49300485849380493,-0.0194854736328125,0.6399409770965576
1695712743008368000,3.1033681640625,-0.7023038864135742,-0.035126686096191406,0.6390867233276367
1695712743018436000,3.11343603515625,-0.7964208126068115,-0.002109527587890625,0.6926007270812988
1695712743028470000,3.123469970703125,-0.7305828332901001,0.021864891052246094,0.6814162731170654
1695712743038493700,3.13349365234375,-0.6283298134803772,0.0556793212890625,0.6206409931182861
1695712743048526300,3.1435263671875,-0.46107709407806396,0.16598129272460938,0.5634093284606934
1695712743058502100,3.153502197265625,-0.36223217844963074,0.19954490661621094,0.47225475311279297
1695712743068529200,3.163529052734375,-0.25052791833877563,0.29001712799072266,0.47216010093688965
1695712743078621000,3.173620849609375,-0.20786526799201965,0.34191417694091797,0.38116931915283203
1695712743088654600,3.183654541015625,-0.1820756196975708,0.31197547912597656,0.229567289352417
1695712743098669000,3.1936689453125,-0.1468828320503235,0.21469593048095703,0.15178608894348145
1695712743108701000,3.203700927734375,-0.11381873488426208,0.26541900634765625,0.13729548454284668
1695712743118757000,3.213757080078125,-0.10834026336669922,0.5400581359863281,0.37215471267700195
1695712743128791300,3.223791259765625,0.05587679147720337,0.3021068572998047,0.38028550148010254
1695712743138795800,3.233795654296875,0.3306044042110443,-0.5376615524291992,0.06254148483276367
1695712743148827000,3.243826904296875,0.519625186920166,-1.0310173034667969,-0.04431319236755371
1695712743158888400,3.253888427734375,0.6206470131874084,-1.0254745483398438,-0.1870734691619873
1695712743168922600,3.263922607421875,0.7069059014320374,-0.49428844451904297,-0.2550644874572754
1695712743178956300,3.273956298828125,0.6216667890548706,0.03563690185546875,-0.004569292068481445
1695712743188990500,3.283990478515625,0.623114824295044,0.7283763885498047,0.17185330390930176
1695712743198990600,3.293990478515625,0.740342378616333,0.23489665985107422,-0.37271714210510254
1695712743209021200,3.304021240234375,1.028975486755371,-0.31911182403564453,-0.48143768310546875
1695712743219053600,3.314053466796875,1.0686532258987427,-0.580906867980957,-0.5212304592132568
1695712743229084400,3.32408447265625,0.9102426767349243,-0.18731975555419922,-0.3576669692993164
1695712743239140900,3.334140869140625,0.498965322971344,0.5298910140991211,-0.26729440689086914
1695712743249174300,3.34417431640625,-0.08705022186040878,0.5520086288452148,-0.23779535293579102
1695712743259170600,3.354170654296875,-0.33940282464027405,0.42126941680908203,-0.3994414806365967
1695712743269200100,3.3642001953125,-0.23570480942726135,0.23330307006835938,-0.37813258171081543
1695712743279274200,3.374274169921875,-0.11834496259689331,0.08846187591552734,-0.22677946090698242
1695712743289308400,3.384308349609375,-0.15373536944389343,-0.008543014526367188,-0.06541776657104492
1695712743299319800,3.39431982421875,-0.3251992166042328,-0.10092735290527344,0.12061119079589844
1695712743309351700,3.4043515625,-0.3123311698436737,-0.20289993286132812,0.6843528747558594
1695712743319403500,3.414403564453125,-0.04361167550086975,-0.27063465118408203,1.168856143951416
1695712743329437400,3.4244375,0.029924705624580383,-0.36186885833740234,1.4940917491912842
1695712743339472400,3.434472412109375,-0.046770304441452026,-0.5767087936401367,1.674617052078247
1695712743349506300,3.44450634765625,-0.020045988261699677,-0.7905235290527344,1.7962827682495117
1695712743359534600,3.45453466796875,0.04103764146566391,-0.8978233337402344,1.7622849941253662
1695712743369568000,3.464568115234375,0.014042282477021217,-0.8366470336914062,1.6343796253204346
1695712743379603000,3.47460302734375,-0.0780726820230484,-0.6599836349487305,1.4508697986602783
1695712743389636600,3.48463671875,-0.14393821358680725,-0.5828485488891602,1.216111183166504
1695712743399639000,3.49463916015625,-0.2398923635482788,-0.5523519515991211,0.8964457511901855
1695712743409669400,3.50466943359375,-0.27374327182769775,-0.4970264434814453,0.5356147289276123
1695712743419698700,3.51469873046875,-0.17881670594215393,-0.5370454788208008,0.21198558807373047
1695712743429729000,3.52472900390625,-0.008797377347946167,-0.6102361679077148,-0.08378243446350098
1695712743439796200,3.534796142578125,0.15032429993152618,-0.5877904891967773,-0.31324267387390137
1695712743449830400,3.544830322265625,0.3413535952568054,-0.4367399215698242,-0.5431294441223145
1695712743459839500,3.554839599609375,0.48351651430130005,-0.26247692108154297,-0.8024420738220215
1695712743469871000,3.56487109375,0.3556075096130371,-0.12276077270507812,-1.1146035194396973
1695712743479918300,3.57491845703125,0.14963045716285706,-0.10892772674560547,-1.321296215057373
1695712743489951500,3.584951416015625,-0.1122470498085022,-0.1113901138305664,-1.4561960697174072
1695712743499964000,3.5949638671875,-0.5284773111343384,-0.2216339111328125,-1.4426391124725342
1695712743509995000,3.6049951171875,-0.9332659840583801,-0.4833812713623047,-1.2235476970672607
1695712743520021200,3.615021240234375,-1.4717036485671997,-0.6963510513305664,-1.0592424869537354
1695712743530051800,3.6250517578125,-1.4900615215301514,-1.0337457656860352,-0.7107713222503662
1695712743540113200,3.635113037109375,-1.5874698162078857,-1.4811105728149414,-0.38945531845092773
1695712743550146800,3.645146728515625,-1.789492130279541,-1.674769401550293,-0.16319561004638672
1695712743560185300,3.655185302734375,-2.045490026473999,-1.7871675491333008,-0.006013631820678711
1695712743570219500,3.665219482421875,-1.8341546058654785,-1.7315893173217773,0.17203044891357422
1695712743580247600,3.67524755859375,-1.3349590301513672,-1.3401060104370117,0.19612884521484375
1695712743590281200,3.68528125,-0.44369983673095703,-0.608424186706543,0.12281942367553711
1695712743600286500,3.695286376953125,0.5472273826599121,0.2851991653442383,-0.4447500705718994
1695712743610317000,3.705317138671875,1.8611547946929932,1.0231623649597168,-1.051306962966919
1695712743620376800,3.715376953125,3.116295099258423,1.614217758178711,-1.5758726596832275
1695712743630410200,3.72541015625,3.509627342224121,1.8502864837646484,-1.6754429340362549
1695712743640410000,3.73541015625,2.3608551025390625,1.6779441833496094,-1.4019174575805664
1695712743650440200,3.745440185546875,0.9141621589660645,1.459085464477539,-1.13047194480896
1695712743660471300,3.75547119140625,-0.007732868194580078,1.2435941696166992,-0.933682918548584
1695712743670501400,3.76550146484375,-0.4092719554901123,1.189321517944336,-1.228452205657959
1695712743680551000,3.775551025390625,-0.3520207405090332,1.2665777206420898,-1.2297673225402832
1695712743690583000,3.7855830078125,0.05309581756591797,1.304183006286621,-1.0697815418243408
1695712743700604400,3.7956044921875,0.4181838035583496,1.145956039428711,-0.7848482131958008
1695712743710635500,3.805635498046875,0.7191379070281982,1.1422653198242188,-0.4154226779937744
1695712743720676400,3.81567626953125,0.8695418834686279,1.0261297225952148,0.04732704162597656
1695712743730708200,3.825708251953125,1.1512234210968018,1.0500555038452148,0.3252291679382324
1695712743740765200,3.83576513671875,1.2081434726715088,1.0080671310424805,0.404022216796875
1695712743750799600,3.845799560546875,1.1775081157684326,1.0049858093261719,0.36296772956848145
1695712743760833800,3.855833740234375,1.2981135845184326,1.2115793228149414,0.4906275272369385
1695712743770868200,3.8658681640625,1.323472261428833,1.7859268188476562,0.6344325542449951
1695712743780892000,3.875891845703125,1.0197007656097412,2.304626941680908,0.231856107711792
1695712743790925300,3.88592529296875,0.6822025775909424,2.608384609222412,0.06323003768920898
1695712743800946000,3.89594580078125,0.34521961212158203,2.7504611015319824,0.02610039710998535
1695712743810978000,3.90597802734375,0.04715847969055176,2.6215996742248535,-0.16250348091125488
1695712743821002500,3.91600244140625,-0.3963816165924072,2.312258243560791,-0.4019653797149658
1695712743831033900,3.926033935546875,-0.7863869667053223,1.8596735000610352,-0.5678761005401611
1695712743841074200,3.93607421875,-1.2054014205932617,1.3912763595581055,-0.5883274078369141
1695712743851106300,3.946106201171875,-1.4968738555908203,1.0446243286132812,-0.5370423793792725
1695712743861121300,3.956121337890625,-1.483461618423462,0.9245872497558594,-0.36765122413635254
1695712743871151900,3.96615185546875,-1.3158061504364014,1.0744857788085938,-0.13306331634521484
1695712743881351700,3.9763515625,-1.241131067276001,1.4093799591064453,0.1709301471710205
1695712743891419400,3.98641943359375,-1.2395601272583008,1.7549829483032227,0.5230226516723633
1695712743901467000,3.996466796875,-1.3632876873016357,1.8266210556030273,0.6849277019500732
1695712743911303700,4.0063037109375,-1.595261812210083,1.6690216064453125,0.6381855010986328
1695712743921335000,4.0163349609375,-1.7680814266204834,1.3870000839233398,0.5141258239746094
1695712743931359000,4.02635888671875,-1.7974717617034912,1.0415515899658203,0.2935171127319336
1695712743941389300,4.036389404296875,-1.8469481468200684,0.6118097305297852,-0.06627726554870605
1695712743951423200,4.04642333984375,-1.9591996669769287,0.15287303924560547,-0.4307873249053955
1695712743961454000,4.0564541015625,-2.0874226093292236,-0.25510501861572266,-0.643369197845459
1695712743971470600,4.066470703125,-2.182934045791626,-0.4640779495239258,-0.7148637771606445
1695712743981500000,4.0765,-2.356109380722046,-0.6606121063232422,-0.5929875373840332
1695712743991542800,4.086542724609375,-2.4179787635803223,-0.6190357208251953,-0.31202101707458496
1695712744001573600,4.09657373046875,-2.2321250438690186,-0.37075233459472656,0.09484624862670898
1695712744011628500,4.106628662109375,-2.0403549671173096,-0.008898735046386719,0.48454809188842773
1695712744021661700,4.11666162109375,-2.0972962379455566,0.367156982421875,0.6695375442504883
1695712744031670300,4.126670166015625,-2.1709890365600586,0.7714881896972656,0.5483942031860352
1695712744041700900,4.136700927734375,-1.66900634765625,0.6264982223510742,-0.2232353687286377
1695712744051771400,4.146771484375,-0.9910120964050293,-0.35521411895751953,-1.8729448318481445
1695712744061806000,4.15680615234375,-1.0732953548431396,-1.6049346923828125,-3.6028904914855957
1695712744071802000,4.166802001953125,-2.033193349838257,-2.7725048065185547,-4.8628129959106445
1695712744081833000,4.1768330078125,-2.645007610321045,-3.1631202697753906,-5.302438735961914
1695712744091897600,4.186897705078125,-2.4650988578796387,-2.415472984313965,-4.508275032043457
1695712744101931800,4.196931884765625,-2.1064226627349854,-1.2888460159301758,-2.983278751373291
1695712744111965000,4.20696484375,-1.7247004508972168,-0.7113466262817383,-1.8118281364440918
1695712744121998800,4.216998779296875,-1.420520305633545,-0.23453044891357422,-0.7897458076477051
1695712744132023800,4.22702392578125,-1.6622045040130615,0.3904147148132324,0.1404705047607422
1695712744142057000,4.237056884765625,-2.040992259979248,0.8534507751464844,0.9578359127044678
1695712744152067000,4.247067138671875,-1.4881815910339355,1.3406095504760742,1.3835933208465576
1695712744162098000,4.257097900390625,0.6107025146484375,1.979294776916504,1.65061354637146
1695712744172143000,4.26714306640625,3.018430471420288,2.72011137008667,1.6588482856750488
1695712744182175200,4.27717529296875,4.250025749206543,3.304253101348877,1.0665137767791748
1695712744192214800,4.28721484375,4.452976226806641,3.378401279449463,0.5489599704742432
1695712744202247700,4.29724755859375,3.723867177963257,2.9155030250549316,-0.0784902572631836
1695712744212279300,4.307279296875,1.9167985916137695,1.739995002746582,-0.646439790725708
1695712744222312200,4.317312255859375,0.07095551490783691,-0.1772594451904297,-0.8388469219207764
1695712744232322800,4.32732275390625,0.35337209701538086,-2.004147529602051,-0.9825117588043213
1695712744242353400,4.337353515625,2.5810093879699707,-2.8107824325561523,-1.391261339187622
1695712744252385000,4.347385009765625,4.622971057891846,-2.270848274230957,-1.2631092071533203
1695712744262415600,4.35741552734375,5.295133113861084,-1.2195262908935547,-0.7132492065429688
1695712744272454400,4.367454345703125,4.453678131103516,-0.07061958312988281,-0.2568848133087158
1695712744282485800,4.37748583984375,2.888554096221924,0.9828281402587891,-0.3061795234680176
1695712744292546300,4.38754638671875,1.730187177658081,1.6048202514648438,-0.38411951065063477
1695712744302580700,4.397580810546875,1.6282756328582764,1.8151798248291016,-0.24234414100646973
1695712744312601600,4.4076015625,2.0195701122283936,1.7394046783447266,-0.2519512176513672
1695712744322634800,4.417634765625,2.332789182662964,1.2865533828735352,-0.3464388847351074
1695712744332651300,4.4276513671875,2.4705183506011963,0.8249750137329102,-0.20505642890930176
1695712744342682600,4.4376826171875,2.5240869522094727,0.04957008361816406,-0.2946970462799072
1695712744352730400,4.44773046875,2.3780667781829834,-0.9662866592407227,-0.0982968807220459
1695712744362763300,4.45776318359375,2.0127744674682617,-1.813889503479004,0.1561431884765625
1695712744372800500,4.467800537109375,1.428004264831543,-1.8966293334960938,0.9184732437133789
1695712744382834000,4.477833984375,1.1816130876541138,-1.1821622848510742,1.5442581176757812
1695712744392856000,4.48785595703125,1.393644094467163,-0.29939842224121094,1.8264497518539429
1695712744402888200,4.49788818359375,1.595659613609314,0.4248781204223633,2.062920093536377
1695712744412920000,4.507920166015625,1.0430411100387573,0.6766262054443359,2.0846779346466064
1695712744422952200,4.5179521484375,0.16054141521453857,0.4591245651245117,1.7591041326522827
1695712744432949800,4.52794970703125,-0.5070354342460632,0.3478240966796875,1.4240360260009766
1695712744442978600,4.537978515625,-1.2077841758728027,0.08949089050292969,1.0784351825714111
1695712744453080800,4.548080810546875,-1.799319863319397,-0.014684677124023438,1.019045352935791
1695712744463117000,4.558116943359375,-2.367177724838257,-0.09394168853759766,1.035578966140747
1695712744473102800,4.568102783203125,-2.649061679840088,-0.34955883026123047,1.1014795303344727
1695712744483134000,4.578134033203125,-2.714714765548706,-0.6477756500244141,1.2077438831329346
1695712744493165600,4.58816552734375,-2.2716269493103027,-0.7834348678588867,1.2727696895599365
1695712744503197000,4.598197021484375,-1.4660420417785645,-0.8151922225952148,1.4393633604049683
1695712744513223000,4.608222900390625,-0.818417489528656,-0.8921613693237305,1.4827829599380493
1695712744523253500,4.61825341796875,-0.3738495111465454,-0.9085464477539062,1.4500097036361694
1695712744533317600,4.628317626953125,-0.099884033203125,-0.6012897491455078,1.3317222595214844
1695712744543351600,4.6383515625,0.05334436893463135,-0.1340923309326172,1.1257896423339844
1695712744553369900,4.648369873046875,-0.015913963317871094,0.329345703125,0.7193093299865723
1695712744563402200,4.65840234375,-0.23872506618499756,0.6306028366088867,0.2511866092681885
1695712744573439500,4.668439453125,-0.8232376575469971,0.7601823806762695,-0.4618062973022461
1695712744583472400,4.678472412109375,-1.610987901687622,0.7801170349121094,-1.1224071979522705
1695712744593506300,4.68850634765625,-2.480390787124634,0.681422233581543,-1.5545928478240967
1695712744603539200,4.698539306640625,-3.536238193511963,0.38297080993652344,-1.864959955215454
1695712744613560300,4.708560302734375,-4.441354274749756,-0.20405101776123047,-1.575467586517334
1695712744623592200,4.71859228515625,-4.751481056213379,-1.0326290130615234,-0.23012566566467285
1695712744633621800,4.728621826171875,-3.9245445728302,-2.168954849243164,1.5136487483978271
1695712744643653000,4.738653076171875,-2.552863121032715,-3.200956344604492,2.5362634658813477
1695712744653698300,4.7486982421875,-1.1248219013214111,-3.387666702270508,2.831033706665039
1695712744663731200,4.758731201171875,-0.7414659261703491,-2.654599189758301,2.629213571548462
1695712744673744100,4.768744140625,-1.3092310428619385,-1.6564264297485352,2.546750783920288
1695712744683775000,4.77877490234375,-2.028902530670166,-1.436488151550293,2.9477405548095703
1695712744693839600,4.788839599609375,-2.417881488800049,-1.926401138305664,3.0859220027923584
1695712744703874000,4.7988740234375,-2.3505327701568604,-3.317957878112793,3.0334551334381104
1695712744713873700,4.808873779296875,-2.170285940170288,-4.924668312072754,2.909006118774414
1695712744723904500,4.818904541015625,-2.101144790649414,-6.1481828689575195,2.655405044555664
1695712744733939000,4.82893896484375,-2.670330047607422,-5.839033126831055,2.150177001953125
1695712744743970000,4.838969970703125,-4.303508281707764,-4.57966423034668,1.6105401515960693
1695712744754023000,4.84902294921875,-5.44244384765625,-3.7956924438476562,1.9214264154434204
1695712744764056300,4.859056396484375,-4.977685928344727,-3.5156564712524414,2.301691770553589
1695712744774101000,4.86910107421875,-4.429465293884277,-3.32547664642334,2.0263655185699463
1695712744784135400,4.879135498046875,-5.408597946166992,-3.02207088470459,1.0680651664733887
1695712744794164000,4.8891640625,-5.983757495880127,-2.193131446838379,0.06254863739013672
1695712744804198000,4.899197998046875,-4.525031089782715,-1.5762720108032227,-0.7774996757507324
1695712744814225400,4.909225341796875,-0.8657967448234558,-1.3267364501953125,-1.7252662181854248
1695712744824258800,4.9192587890625,2.58099365234375,-1.5536222457885742,-2.521301507949829
1695712744834296000,4.929296142578125,4.206719398498535,-2.4740896224975586,-3.085965394973755
1695712744844329700,4.939329833984375,3.521303176879883,-3.376082420349121,-3.814418077468872
1695712744854325500,4.949325439453125,2.1990175247192383,-3.3078432083129883,-4.217195987701416
1695712744864355300,4.959355224609375,1.6053732633590698,-3.0067949295043945,-3.8353753089904785
1695712744874413000,4.9694130859375,1.9216115474700928,-2.7847518920898438,-3.2099671363830566
1695712744884445700,4.97944580078125,2.4128081798553467,-2.0505542755126953,-2.5103859901428223
1695712744894480600,4.989480712890625,2.6999504566192627,-1.647536277770996,-2.2050578594207764
1695712744904513300,4.99951318359375,1.795871615409851,-1.7857770919799805,-1.8495078086853027
1695712744914535400,5.009535400390625,0.6987999081611633,-1.8829965591430664,-1.580749750137329
1695712744924567000,5.019567138671875,1.2935456037521362,-1.7551918029785156,-1.212151288986206
1695712744934611200,5.029611083984375,2.49969220161438,-1.5227947235107422,-0.823880672454834
1695712744944644000,5.03964404296875,3.5036325454711914,-1.2473726272583008,-0.35535478591918945
1695712744954689000,5.04968896484375,4.160999298095703,-0.8988265991210938,0.04899704456329346
1695712744964723200,5.05972314453125,4.376513481140137,-0.4061870574951172,0.39518678188323975
1695712744974739500,5.069739501953125,4.399147033691406,0.5042791366577148,0.5436626672744751
1695712744984771800,5.079771728515625,4.5836615562438965,1.2685422897338867,0.6217509508132935
1695712744994830600,5.08983056640625,5.124202728271484,1.8644428253173828,0.41891908645629883
1695712745004865800,5.09986572265625,5.523648738861084,2.11260986328125,0.1811274290084839
1695712745014882600,5.109882568359375,5.923302173614502,2.369561195373535,0.158707857131958
1695712745024915700,5.119915771484375,5.827563762664795,3.0701279640197754,0.06297433376312256
1695712745034946600,5.129946533203125,5.842907905578613,3.870100498199463,-0.020487070083618164
1695712745044979500,5.1399794921875,5.834491729736328,4.408713340759277,-0.17739176750183105
1695712745055012400,5.150012451171875,5.94585657119751,4.897809028625488,-0.3014838695526123
1695712745065045200,5.160045166015625,5.817072868347168,5.267481803894043,-0.5081050395965576
1695712745075063600,5.1700634765625,5.630909442901611,5.60923957824707,-0.6584498882293701
1695712745085095000,5.180094970703125,5.391236305236816,5.963634490966797,-0.8833205699920654
1695712745095112700,5.19011279296875,5.1850199699401855,6.12102746963501,-1.0171940326690674
1695712745105142500,5.200142578125,4.751256942749023,5.952326774597168,-1.1911859512329102
1695712745115184400,5.210184326171875,4.152224063873291,5.564600944519043,-1.2468681335449219
1695712745125215500,5.220215576171875,3.587460994720459,5.2408447265625,-0.9953250885009766
1695712745135249000,5.230248779296875,2.708064079284668,5.020257949829102,-0.5387039184570312
1695712745145280300,5.2402802734375,1.4348537921905518,4.788699150085449,0.0542912483215332
1695712745155299300,5.25029931640625,-0.05367541313171387,4.408346176147461,0.5548999309539795
1695712745165329400,5.260329345703125,-1.5257513523101807,3.7992186546325684,0.7592382431030273
1695712745175399400,5.2703994140625,-4.106215476989746,2.4603543281555176,0.6708388328552246
1695712745185433600,5.28043359375,-9.566699981689453,0.017408370971679688,-0.0993490219116211
1695712745195456000,5.2904560546875,-16.001407623291016,-3.000284194946289,-2.108201026916504
1695712745205489200,5.3004892578125,-15.92529010772705,-7.344179153442383,-4.234897613525391
1695712745215526000,5.31052587890625,-12.756887435913086,-13.244979858398438,-6.9012322425842285
1695712745225559300,5.320559326171875,-9.744357109069824,-17.2654972076416,-6.030473709106445
1695712745235565300,5.3305654296875,-3.496248245239258,-14.151774406433105,-1.3517026901245117
1695712745245596000,5.340595947265625,-0.25323486328125,-8.352666854858398,1.7792292833328247
1695712745255632000,5.3506318359375,-0.7459506988525391,-2.4270687103271484,3.2911856174468994
1695712745265663000,5.3606630859375,-2.2841429710388184,3.2941346168518066,4.387972354888916
1695712745275720200,5.37072021484375,-2.467888355255127,7.154732704162598,4.819382190704346
1695712745285754000,5.380754150390625,0.8607914447784424,7.703775405883789,3.8724067211151123
1695712745295757000,5.390757080078125,5.8406243324279785,4.954967021942139,2.036288022994995
1695712745305787600,5.40078759765625,10.575352668762207,2.916980266571045,-0.08840775489807129
1695712745315816400,5.41081640625,10.828600883483887,1.4396533966064453,-2.725264549255371
1695712745325847000,5.420846923828125,6.9944233894348145,-1.7874250411987305,-4.894976615905762
1695712745335883000,5.430883056640625,-0.31471967697143555,-7.556269645690918,-5.687471389770508
1695712745345913900,5.440913818359375,-5.971643447875977,-12.10173225402832,-4.655275821685791
1695712745355975000,5.450974853515625,2.442234516143799,-10.682354927062988,-3.914813280105591
1695712745366008800,5.4610087890625,9.126899719238281,-5.5994415283203125,-1.4815831184387207
1695712745376015600,5.471015625,10.284159660339355,-0.6579732894897461,-0.20942020416259766
1695712745386047000,5.481046875,9.010744094848633,3.2965970039367676,-0.20234894752502441
1695712745396077000,5.4910771484375,7.068399429321289,5.633109092712402,-0.3499915599822998
1695712745406108200,5.501108154296875,5.250614643096924,6.136298179626465,-0.8207159042358398
1695712745416140000,5.51114013671875,4.574438095092773,5.363615036010742,-0.7057230472564697
1695712745426171400,5.52117138671875,5.085101127624512,3.2969584465026855,-0.22009944915771484
1695712745436207600,5.53120751953125,5.186264991760254,0.3515901565551758,0.14806628227233887
1695712745446239200,5.5412392578125,4.065262794494629,-2.230783462524414,0.19767975807189941
1695712745456276000,5.55127587890625,2.7881057262420654,-4.00749397277832,0.28458595275878906
1695712745466308000,5.56130810546875,2.142394781112671,-4.51418399810791,0.23163914680480957
1695712745476351000,5.57135107421875,2.0373239517211914,-4.194480895996094,0.20850372314453125
1695712745486384000,5.581384033203125,2.429460287094116,-2.8960208892822266,0.206024169921875
1695712745496434700,5.5914345703125,2.6253833770751953,-1.1139678955078125,0.35121798515319824
1695712745506469600,5.6014697265625,2.497159719467163,0.5570688247680664,0.530045747756958
1695712745516462300,5.61146240234375,1.7725389003753662,1.7683610916137695,0.5573315620422363
1695712745526493000,5.621492919921875,1.0810859203338623,2.4255857467651367,0.6686570644378662
1695712745536550400,5.63155029296875,0.4681406617164612,2.5120906829833984,0.7187912464141846
1695712745546583800,5.641583740234375,-0.2142638862133026,2.540128707885742,0.6009104251861572
1695712745556593700,5.65159375,-0.8424740433692932,2.4666786193847656,0.6283156871795654
1695712745566624500,5.66162451171875,-1.131866216659546,1.9969854354858398,0.5824947357177734
1695712745576693000,5.67169287109375,-1.3508189916610718,1.4634933471679688,0.6335856914520264
1695712745586728000,5.68172802734375,-1.6653856039047241,1.0491313934326172,0.6148684024810791
1695712745596751000,5.691751220703125,-1.6732087135314941,0.6482915878295898,0.742417573928833
1695712745606784800,5.70178466796875,-1.7865841388702393,0.2702960968017578,0.9081047773361206
1695712745616823600,5.711823486328125,-1.5757908821105957,0.13070201873779297,1.2094969749450684
1695712745626857700,5.721857666015625,-1.0465571880340576,0.0764007568359375,1.3910257816314697
1695712745636853200,5.731853271484375,-0.6676551699638367,-0.03092479705810547,1.5587843656539917
1695712745646883300,5.74188330078125,-0.713537871837616,0.12888050079345703,1.7083698511123657
1695712745656942000,5.751942138671875,-0.9086571931838989,0.20512104034423828,1.7076042890548706
1695712745666975200,5.761975341796875,-1.151366949081421,-0.25724315643310547,1.769586443901062
1695712745676981800,5.771981689453125,-1.2783474922180176,-0.8036384582519531,1.9115699529647827
1695712745687012400,5.782012451171875,-1.2446800470352173,-1.2054824829101562,1.9579960107803345
1695712745697048300,5.79204833984375,-1.6307342052459717,-1.6438007354736328,1.9799951314926147
1695712745707079200,5.8020791015625,-2.394932985305786,-1.9827957153320312,2.01412296295166
1695712745717134600,5.812134521484375,-3.3751211166381836,-2.224203109741211,2.1637277603149414
1695712745727168000,5.82216796875,-4.21006441116333,-2.4553050994873047,2.338066816329956
1695712745737181200,5.83218115234375,-4.434194564819336,-2.9025650024414062,2.529038667678833
1695712745747212500,5.842212646484375,-3.7567684650421143,-3.1615991592407227,2.5327401161193848
1695712745757249800,5.852249755859375,-2.513000011444092,-2.7077417373657227,2.230825424194336
1695712745767281700,5.86228173828125,-1.523759126663208,-1.9818792343139648,2.02272891998291
1695712745777305900,5.872305908203125,-0.8100266456604004,-1.88116455078125,2.235442876815796
1695712745787337000,5.8823369140625,-0.74527907371521,-2.242234230041504,2.347729206085205
1695712745797406000,5.892406005859375,-1.5462646484375,-2.595095634460449,1.8202096223831177
1695712745807441000,5.90244091796875,-2.958256959915161,-2.5694751739501953,0.9684383869171143
1695712745817439500,5.912439453125,-4.980767250061035,-2.850200653076172,0.26289987564086914
1695712745827470800,5.922470947265625,-6.619318008422852,-4.150687217712402,-0.20027422904968262
1695712745837528000,5.932528076171875,-5.934391975402832,-5.214664459228516,0.07713484764099121
1695712745847562000,5.94256201171875,-4.532177448272705,-4.382790565490723,1.1036173105239868
1695712745857579500,5.95257958984375,-4.387521743774414,-3.3312597274780273,2.3907644748687744
1695712745867611600,5.962611572265625,-5.003012180328369,-2.8190555572509766,3.1950907707214355
1695712745877636400,5.97263623046875,-4.149592399597168,-2.8636608123779297,3.4654393196105957
1695712745887667700,5.982667724609375,-3.0566704273223877,-2.1580190658569336,2.3561277389526367
1695712745897700600,5.99270068359375,-2.242241859436035,-1.6959037780761719,0.4208199977874756
1695712745907732200,6.002732177734375,0.10315912961959839,-1.7691631317138672,-0.9772093296051025
1695712745917770800,6.012770751953125,3.3326425552368164,-2.531283378601074,-1.8530669212341309
1695712745927803100,6.02280322265625,4.744440078735352,-3.963815689086914,-2.6291961669921875
1695712745937830400,6.032830322265625,4.373592376708984,-4.763510704040527,-3.307567834854126
1695712745947862000,6.042862060546875,3.5011253356933594,-4.786018371582031,-3.9172446727752686
1695712745957916200,6.052916259765625,2.2698493003845215,-4.4801025390625,-3.8646886348724365
1695712745967950000,6.0629501953125,1.4172582626342773,-3.8187341690063477,-3.4911258220672607
1695712745977984300,6.072984375,2.2116971015930176,-3.221752166748047,-2.7524728775024414
1695712745988018400,6.083018310546875,2.6165599822998047,-2.8441600799560547,-2.554469585418701
1695712745998050800,6.09305078125,2.413102865219116,-2.422731399536133,-2.5847971439361572
1695712746008084700,6.103084716796875,1.3715882301330566,-2.3123254776000977,-2.498547315597534
1695712746018115000,6.113114990234375,1.667201280593872,-2.0127153396606445,-2.2912070751190186
1695712746028148500,6.1231484375,2.8353803157806396,-1.5292234420776367,-1.6578893661499023
1695712746038146300,6.133146240234375,3.713408946990967,-0.9373607635498047,-0.7661769390106201
1695712746048176400,6.14317626953125,4.083640098571777,-0.4033823013305664,0.2554304599761963
1695712746058214400,6.15321435546875,4.279603481292725,-0.014394760131835938,1.2420928478240967
1695712746068245000,6.163244873046875,4.743805408477783,1.0025911331176758,1.2793610095977783
1695712746078302700,6.173302734375,5.290980815887451,2.3158960342407227,0.8816251754760742
1695712746088336100,6.183336181640625,5.973557472229004,3.393857479095459,0.5265520811080933
1695712746098371000,6.19337109375,6.5353803634643555,3.736079692840576,0.3888814449310303
1695712746108404700,6.20340478515625,6.589373588562012,3.8710579872131348,0.28186964988708496
1695712746118416100,6.213416015625,6.415753364562988,4.143771648406982,0.10699915885925293
1695712746128447500,6.223447509765625,6.621606826782227,4.244525909423828,0.05339789390563965
1695712746138479000,6.23347900390625,6.633676528930664,4.4924774169921875,-0.12610530853271484
1695712746148510500,6.243510498046875,6.53889274597168,4.642977714538574,-0.2772183418273926
1695712746158541600,6.25354150390625,6.463277816772461,4.8155317306518555,-0.47347521781921387
1695712746168573000,6.263572998046875,6.383683681488037,5.0428009033203125,-0.731691837310791
1695712746178604300,6.273604248046875,6.153564929962158,5.304142951965332,-0.9775879383087158
1695712746188635600,6.2836357421875,5.800168514251709,5.511090278625488,-1.1426489353179932
1695712746198672000,6.293671875,5.262299537658691,5.506138801574707,-1.2240922451019287
1695712746208703500,6.303703369140625,4.40929651260376,5.253439903259277,-1.263613224029541
1695712746218742800,6.31374267578125,3.813143253326416,4.89742374420166,-0.9951527118682861
1695712746228775400,6.323775390625,3.01488995552063,4.3736419677734375,-0.6901051998138428
1695712746238805500,6.333805419921875,1.5814259052276611,3.870706081390381,-0.5106751918792725
1695712746248838000,6.343837890625,-0.44010090827941895,3.3007845878601074,-0.27278876304626465
1695712746258863000,6.353863037109375,-2.7268190383911133,2.3925118446350098,-0.23796486854553223
1695712746268894700,6.363894775390625,-8.768585205078125,0.3123903274536133,-0.6051268577575684
1695712746278956800,6.373956787109375,-17.932292938232422,-3.601511001586914,-1.3879876136779785
1695712746288991500,6.383991455078125,-17.666818618774414,-7.894148826599121,-2.5070858001708984
1695712746298987500,6.393987548828125,-13.515573501586914,-12.777214050292969,-3.6457839012145996
1695712746309018400,6.404018310546875,-10.898229598999023,-14.961236000061035,-4.269086837768555
1695712746319057700,6.4140576171875,-5.026995658874512,-11.51315975189209,-3.757490634918213
1695712746329089300,6.42408935546875,-1.1163463592529297,-6.650763511657715,-2.6115663051605225
1695712746339149300,6.4341494140625,-0.30559420585632324,-2.2760229110717773,-0.8628246784210205
1695712746349183700,6.444183837890625,-0.1298534870147705,1.419032096862793,1.0132665634155273
1695712746359215400,6.45421533203125,-0.07822990417480469,4.625013828277588,1.6081092357635498
1695712746369249500,6.46424951171875,0.9844739437103271,7.042510032653809,0.9352178573608398
1695712746379279600,6.474279541015625,3.4421396255493164,7.528687477111816,-0.6720914840698242
1695712746389313500,6.4843134765625,4.958772659301758,5.360543251037598,-3.3148396015167236
1695712746399346200,6.49434619140625,8.166119575500488,3.2420172691345215,-4.301661491394043
1695712746409379800,6.5043798828125,9.14535903930664,1.767561912536621,-4.296413898468018
1695712746419381000,6.514381103515625,5.173614025115967,-0.6289534568786621,-3.6452436447143555
1695712746429411000,6.5244111328125,-1.0816614627838135,-4.359890937805176,-1.678675651550293
1695712746439446300,6.5344462890625,-5.152152061462402,-7.802022933959961,0.37047648429870605
1695712746449477000,6.54447705078125,-1.4366388320922852,-9.178348541259766,1.0548608303070068
1695712746459507200,6.554507080078125,6.137788772583008,-6.921741485595703,-0.06357073783874512
1695712746469537800,6.564537841796875,9.751021385192871,-2.983405113220215,-0.19473671913146973
1695712746479602200,6.574602294921875,8.979427337646484,0.2603425979614258,-0.6606528759002686
1695712746489636400,6.58463623046875,6.46408748626709,2.4947686195373535,-1.1688578128814697
1695712746499663400,6.594663330078125,3.7665839195251465,4.316891193389893,-1.2066705226898193
1695712746509696800,6.60469677734375,2.492172956466675,4.275985240936279,-0.26339030265808105
1695712746519737000,6.614737060546875,3.3844733238220215,2.538966178894043,0.9187943935394287
1695712746529771300,6.624771240234375,4.79504919052124,0.18179702758789062,1.632505178451538
1695712746539794700,6.634794677734375,4.565850257873535,-1.7228059768676758,1.628662347793579
1695712746549827800,6.644827880859375,3.35333514213562,-3.124884605407715,1.5095226764678955
1695712746559862300,6.6548623046875,1.9374662637710571,-3.968367576599121,1.325185775756836
1695712746569895400,6.6648955078125,1.6607072353363037,-3.838292121887207,1.1568737030029297
1695712746579924500,6.674924560546875,1.876539945602417,-2.7773561477661133,0.8397846221923828
1695712746589957400,6.684957275390625,2.217546224594116,-1.4307165145874023,0.6852946281433105
1695712746599962600,6.694962646484375,2.514986991882324,-0.3304128646850586,0.720566987991333
1695712746609992700,6.70499267578125,2.2828829288482666,0.47354602813720703,0.9806796312332153
1695712746620023600,6.7150234375,1.4706156253814697,1.179555892944336,1.0160417556762695
1695712746630053400,6.725053466796875,0.7281016707420349,1.8700189590454102,1.0600974559783936
1695712746640117500,6.735117431640625,0.19162359833717346,2.482646942138672,0.9871978759765625
1695712746650151000,6.74515087890625,-0.3010958433151245,2.7644739151000977,0.8665704727172852
1695712746660155000,6.75515478515625,-0.9868221282958984,2.8601322174072266,0.8935501575469971
1695712746670185200,6.765185302734375,-1.5998947620391846,2.583700180053711,0.7857804298400879
1695712746680249300,6.775249267578125,-2.3744194507598877,1.8633003234863281,0.8179010152816772
1695712746690283300,6.785283203125,-2.977921962738037,0.9579763412475586,1.3516565561294556
1695712746700318000,6.79531787109375,-2.6970386505126953,-0.02440166473388672,2.220815420150757
1695712746710352000,6.805351806640625,-2.134834051132202,-0.7088918685913086,2.745295524597168
1695712746720365000,6.815364990234375,-1.581801176071167,-0.8290500640869141,2.88173770904541
1695712746730397000,6.82539697265625,-1.0003471374511719,-0.6882925033569336,2.8427469730377197
1695712746740448800,6.83544873046875,-0.4680227041244507,-0.5974311828613281,2.8390719890594482
1695712746750482700,6.845482666015625,0.055423855781555176,-0.16881942749023438,2.5945467948913574
1695712746760508000,6.8555078125,0.22530782222747803,0.22230815887451172,2.123837947845459
1695712746770540800,6.865540771484375,0.1403266191482544,0.4020376205444336,1.4845819473266602
1695712746780543200,6.875543212890625,-0.1652381420135498,0.31258201599121094,1.0382784605026245
1695712746790573000,6.885572998046875,-0.6351110935211182,-0.03164100646972656,0.7746515274047852
1695712746800640800,6.895640869140625,-1.5729937553405762,-0.6052627563476562,0.6937835216522217
1695712746810674400,6.90567431640625,-2.851968288421631,-1.1712408065795898,0.7489035129547119
1695712746820680200,6.91568017578125,-4.1495513916015625,-1.7942628860473633,0.8496274948120117
1695712746830711300,6.925711181640625,-4.887117862701416,-2.7675962448120117,1.4361040592193604
1695712746840773600,6.935773681640625,-4.008273124694824,-3.6736326217651367,2.3558952808380127
1695712746850807600,6.9458076171875,-2.4811837673187256,-4.100761413574219,2.8156917095184326
1695712746860796400,6.95579638671875,-1.5283775329589844,-3.6062679290771484,2.5684709548950195
1695712746870825700,6.96582568359375,-1.5821435451507568,-2.647536277770996,2.2489676475524902
1695712746880899300,6.9758994140625,-2.242636203765869,-2.174649238586426,2.272383689880371
1695712746890933200,6.985933349609375,-3.3169922828674316,-2.390737533569336,2.232792377471924
1695712746900939300,6.995939208984375,-4.615298271179199,-2.7615346908569336,1.992287039756775
1695712746910970400,7.005970458984375,-5.81356143951416,-3.4178037643432617,1.483008861541748
1695712746920996400,7.015996337890625,-5.525931358337402,-4.591518402099609,1.1664235591888428
1695712746931027000,7.02602685546875,-4.638239860534668,-5.3278961181640625,1.209352970123291
1695712746941069800,7.03606982421875,-4.570439338684082,-4.749807357788086,1.7289857864379883
1695712746951101700,7.046101806640625,-4.776064395904541,-4.0405426025390625,2.7164337635040283
1695712746961127400,7.05612744140625,-4.208483695983887,-3.546100616455078,2.943688154220581
1695712746971158800,7.06615869140625,-3.096859931945801,-2.954679489135742,2.115757703781128
1695712746981222000,7.076221923828125,-2.4549031257629395,-2.2127227783203125,0.9885793924331665
1695712746991256300,7.08625634765625,-1.5203454494476318,-1.9410734176635742,-0.2800438404083252
1695712747001286400,7.096286376953125,0.46224546432495117,-2.20404052734375,-1.0984134674072266
1695712747011320300,7.1063203125,2.206233024597168,-2.9053544998168945,-1.8117954730987549
1695712747021340000,7.11633984375,2.548849582672119,-3.832794189453125,-2.973175048828125
1695712747031372300,7.126372314453125,2.0683093070983887,-4.456109046936035,-4.177447319030762
1695712747041414100,7.1364140625,1.765769600868225,-4.408556938171387,-4.37054443359375
1695712747051447600,7.146447509765625,1.5487220287322998,-4.125702857971191,-4.322171688079834
1695712747061490200,7.156490234375,2.862811326980591,-3.3697166442871094,-3.919630289077759
1695712747071524400,7.1665244140625,3.5556893348693848,-2.3923606872558594,-2.948971748352051
1695712747081545200,7.176545166015625,3.1231689453125,-1.3654823303222656,-2.538240671157837
1695712747091578000,7.186578125,2.0932657718658447,-0.8548736572265625,-1.9498875141143799
1695712747101579000,7.1965791015625,0.9243088960647583,-0.5989656448364258,-1.607224464416504
1695712747111608800,7.20660888671875,1.0858900547027588,-0.2859477996826172,-1.1910133361816406
1695712747121651200,7.216651123046875,2.498340368270874,-0.09396171569824219,-0.36849498748779297
1695712747131682300,7.226682373046875,3.769913673400879,0.07958602905273438,0.5236849784851074
1695712747141715200,7.236715087890625,4.315393924713135,0.2285900115966797,1.2875659465789795
1695712747151746600,7.24674658203125,4.414073467254639,0.46591854095458984,1.768558382987976
1695712747161805300,7.256805419921875,4.463104248046875,1.037975788116455,1.6579347848892212
1695712747171839200,7.266839111328125,5.0055832862854,1.6748981475830078,1.2483611106872559
1695712747181844000,7.276843994140625,5.310242652893066,2.3909521102905273,0.8820921182632446
1695712747191875000,7.286875,5.478831768035889,2.8917899131774902,0.4241943359375
1695712747201905200,7.2969052734375,5.964854717254639,3.116878032684326,0.2952324151992798
1695712747211936000,7.30693603515625,5.877708435058594,3.236036777496338,0.13396549224853516
1695712747221978400,7.316978271484375,5.879591941833496,3.5153632164001465,-0.043233633041381836
1695712747232010200,7.32701025390625,5.732848167419434,4.111724853515625,-0.10912704467773438
1695712747242066000,7.33706591796875,5.548440456390381,4.565616607666016,-0.2356553077697754
1695712747252100600,7.3471005859375,5.537003993988037,5.02635383605957,-0.6347494125366211
1695712747262094600,7.357094482421875,5.574748516082764,5.409219741821289,-1.1660451889038086
1695712747272125000,7.367125,5.368261337280273,5.687410354614258,-1.5933027267456055
1695712747282168600,7.37716845703125,4.986493110656738,5.730861663818359,-1.7554128170013428
1695712747292200200,7.3872001953125,4.548257350921631,5.6033430099487305,-1.735846757888794
1695712747302239700,7.39723974609375,3.925027370452881,5.181746482849121,-1.3409392833709717
1695712747312272400,7.4072724609375,3.155611753463745,4.750857353210449,-0.650244951248169
1695712747322305000,7.417304931640625,2.2577157020568848,4.476898193359375,-0.07042503356933594
1695712747332337700,7.427337646484375,0.8757638931274414,4.35958194732666,0.26846790313720703
1695712747342378800,7.437378662109375,-0.8060266971588135,3.9235033988952637,0.5391983985900879
1695712747352412200,7.447412109375,-4.010483741760254,2.736635684967041,0.519071102142334
1695712747362434000,7.45743408203125,-11.71936321258545,0.1890106201171875,-0.2518310546875
1695712747372466200,7.467466064453125,-19.564788818359375,-2.908646583557129,-2.6417152881622314
1695712747382499800,7.477499755859375,-17.112651824951172,-7.00650691986084,-4.49550724029541
1695712747392532000,7.487531982421875,-13.993144989013672,-13.884380340576172,-6.899445533752441
1695712747402558000,7.497557861328125,-10.20653247833252,-17.835742950439453,-7.84730339050293
1695712747412589600,7.507589599609375,-3.6030375957489014,-13.211647987365723,-4.958227157592773
1695712747422632000,7.5176318359375,-0.8857259750366211,-6.779550552368164,-1.62296724319458
1695712747432664600,7.52766455078125,-0.9668283462524414,-0.7451171875,1.9716068506240845
1695712747442688300,7.537688232421875,-1.451179027557373,4.1818742752075195,3.8199734687805176
1695712747452720000,7.54772021484375,-0.7257487773895264,7.207516193389893,3.6896584033966064
1695712747462766300,7.557766357421875,1.1750075817108154,7.042438507080078,2.3241333961486816
1695712747472799700,7.5677998046875,3.3626556396484375,3.764920234680176,1.3309118747711182
1695712747482808000,7.57780810546875,7.276186943054199,0.6753835678100586,0.45124053955078125
1695712747492838700,7.587838623046875,9.315086364746094,-2.384553909301758,-1.223761796951294
1695712747502900500,7.597900390625,6.420116424560547,-6.52860164642334,-3.059424638748169
1695712747512934400,7.607934326171875,1.8914157152175903,-10.397040367126465,-2.1226789951324463
1695712747522939600,7.617939697265625,2.3062045574188232,-10.023859024047852,-0.9408230781555176
1695712747532970500,7.627970458984375,8.03431224822998,-5.641976356506348,-0.6454241275787354
1695712747543002400,7.63800244140625,10.810721397399902,-0.7636833190917969,-0.6635487079620361
1695712747553033200,7.648033203125,10.134078025817871,2.660423755645752,-1.8329458236694336
1695712747563070500,7.658070556640625,8.126678466796875,4.740169525146484,-2.8786654472351074
1695712747573102000,7.66810205078125,6.073678016662598,6.049312591552734,-3.486081838607788
1695712747583161900,7.678161865234375,4.582242965698242,6.037379264831543,-3.5752718448638916
1695712747593196300,7.6881962890625,3.971696376800537,4.549161434173584,-2.5871975421905518
1695712747603199000,7.698198974609375,4.058578014373779,1.6323957443237305,-1.2013537883758545
1695712747613230000,7.70822998046875,4.174691677093506,-1.1858253479003906,0.04622769355773926
1695712747623263000,7.718262939453125,3.9144043922424316,-3.4650096893310547,1.3515758514404297
1695712747633294300,7.72829443359375,2.6680808067321777,-4.656186103820801,1.9587301015853882
1695712747643329500,7.73832958984375,1.6739442348480225,-4.4534912109375,1.8391578197479248
1695712747653361200,7.748361083984375,1.236142873764038,-3.1248111724853516,1.8341251611709595
1695712747663396900,7.75839697265625,1.0449888706207275,-1.6638689041137695,2.063235282897949
1695712747673429000,7.768428955078125,1.0018107891082764,-0.48644542694091797,2.3489484786987305
1695712747683454700,7.778454833984375,0.6820700764656067,0.5809612274169922,2.4155683517456055
1695712747693486300,7.788486328125,0.2781517207622528,1.4869041442871094,2.1981606483459473
1695712747703543800,7.798543701171875,0.03615483641624451,2.022580146789551,1.8459302186965942
1695712747713578000,7.808577880859375,-0.13144096732139587,2.270390510559082,1.2647836208343506
1695712747723618000,7.8186181640625,-0.4829900860786438,2.345831871032715,0.7605469226837158
1695712747733652700,7.82865283203125,-1.0961109399795532,2.3403987884521484,0.38833189010620117
1695712747743648300,7.838648193359375,-1.6512771844863892,1.9870147705078125,0.35172390937805176
1695712747753679000,7.84867919921875,-1.8239952325820923,1.3588619232177734,0.5992953777313232
1695712747763742500,7.858742431640625,-1.963979959487915,0.7529821395874023,0.987175703048706
1695712747773776400,7.8687763671875,-1.8128597736358643,0.241912841796875,1.4681596755981445
1695712747783808500,7.87880859375,-1.2804791927337646,-0.01601696014404297,1.7367066144943237
1695712747793842400,7.888842529296875,-0.6919143795967102,-0.02596759796142578,1.870806097984314
1695712747803876600,7.898876708984375,-0.1993621587753296,0.20145702362060547,1.9382959604263306
1695712747813910500,7.90891064453125,0.08624875545501709,0.5256690979003906,1.8958014249801636
1695712747823910000,7.918909912109375,0.0596238374710083,0.40413856506347656,1.635084867477417
1695712747833940200,7.928940185546875,-0.37618589401245117,-0.3257932662963867,1.2123818397521973
1695712747844010500,7.939010498046875,-1.2814350128173828,-1.3173637390136719,1.0524861812591553
1695712747854045000,7.949044921875,-2.524108648300171,-2.0558862686157227,1.125110149383545
1695712747864040400,7.95904052734375,-3.8263964653015137,-2.420696258544922,1.4587881565093994
1695712747874070800,7.96907080078125,-5.42801570892334,-2.257793426513672,1.8183603286743164
1695712747884133600,7.979133544921875,-6.511379241943359,-2.181997299194336,2.1077942848205566
1695712747894167300,7.989167236328125,-5.981151580810547,-2.7047176361083984,2.6868295669555664
1695712747904194800,7.99919482421875,-3.951094388961792,-3.4607629776000977,3.0382673740386963
1695712747914228000,8.00922802734375,-1.965005874633789,-3.437342643737793,2.6272733211517334
1695712747924265500,8.019265380859375,-0.8714148998260498,-2.8341588973999023,2.2335853576660156
1695712747934299000,8.029298828125,-0.8441590070724487,-2.532318115234375,2.2262043952941895
1695712747944324900,8.039324951171874,-1.3736838102340698,-3.008892059326172,2.4986114501953125
1695712747954357800,8.049357666015625,-2.34724497795105,-3.7561864852905273,2.090122699737549
1695712747964373000,8.059373046875,-3.526428699493408,-3.8322200775146484,1.1463525295257568
1695712747974403800,8.06940380859375,-5.404949188232422,-4.170278549194336,0.2309556007385254
1695712747984455400,8.079455322265625,-6.735630035400391,-5.027421951293945,-0.5606749057769775
1695712747994488600,8.089488525390625,-6.183374404907227,-4.8425493240356445,0.41147422790527344
1695712748004526000,8.099526123046875,-5.876319885253906,-4.207610130310059,2.2747416496276855
1695712748014559500,8.1095595703125,-5.604752063751221,-3.9216222763061523,3.66528582572937
1695712748024555300,8.11955517578125,-4.172830104827881,-3.7756118774414062,4.189800262451172
1695712748034585000,8.129585205078126,-1.9852840900421143,-2.957935333251953,3.6116769313812256
1695712748044618000,8.139617919921875,-0.23752814531326294,-2.117990493774414,2.5148890018463135
1695712748054648000,8.14964794921875,1.496468424797058,-2.1257667541503906,0.8745460510253906
1695712748064684800,8.159684814453126,3.24151873588562,-2.962614059448242,-0.6699905395507812
1695712748074715400,8.16971533203125,3.563441276550293,-3.8466529846191406,-2.2875149250030518
1695712748084775700,8.179775634765624,3.4088027477264404,-4.432089805603027,-3.229995012283325
1695712748094809300,8.189809326171876,3.2880308628082275,-4.427085876464844,-3.770983934402466
1695712748104837400,8.19983740234375,2.8649282455444336,-4.481888771057129,-3.95076847076416
1695712748114870500,8.20987060546875,3.404226303100586,-3.861577033996582,-3.986820697784424
1695712748124921000,8.219921142578125,3.882213830947876,-2.964715003967285,-3.571920871734619
1695712748134955800,8.229955810546874,3.1049399375915527,-2.350247383117676,-3.0946059226989746
1695712748144982800,8.239982666015624,1.3082385063171387,-2.408541679382324,-2.61917781829834
1695712748155016700,8.2500166015625,0.4038201570510864,-2.218402862548828,-2.181522846221924
1695712748165043700,8.260043701171876,1.5348814725875854,-1.5160245895385742,-1.6353659629821777
1695712748175076900,8.270076904296875,2.900627851486206,-0.7760419845581055,-0.6537628173828125
1695712748185115400,8.280115478515626,3.813391923904419,0.026071548461914062,0.319380521774292
1695712748195149000,8.290149169921875,4.287430763244629,0.5193977355957031,1.3644919395446777
1695712748205167400,8.30016748046875,4.511018753051758,1.3956499099731445,2.3937244415283203
1695712748215199500,8.310199462890624,4.588080406188965,2.7390193939208984,2.696558713912964
1695712748225203700,8.32020361328125,5.136794090270996,3.7390332221984863,2.717613697052002
1695712748235233000,8.33023291015625,5.575774669647217,4.2771124839782715,2.3958539962768555
1695712748245282300,8.3402822265625,5.981181621551514,4.664314270019531,1.9822136163711548
1695712748255313700,8.350313720703125,5.8738508224487305,5.154702186584473,1.3923614025115967
1695712748265362400,8.360362548828125,6.139321327209473,5.180916786193848,0.9579077959060669
1695712748275395600,8.3703955078125,6.082896709442139,5.059235572814941,0.48891520500183105
1695712748285400600,8.380400634765625,5.855387210845947,4.865903854370117,0.01299428939819336
1695712748295430700,8.3904306640625,5.713321685791016,4.633749961853027,-0.3613004684448242
1695712748305472300,8.40047216796875,5.54746150970459,4.529703140258789,-0.6808552742004395
1695712748315503400,8.41050341796875,5.335881233215332,4.4754533767700195,-0.9910836219787598
1695712748325551400,8.42055126953125,5.020625114440918,4.487235069274902,-1.3576610088348389
1695712748335584300,8.430584228515626,4.660653114318848,4.521295547485352,-1.6096417903900146
1695712748345618700,8.44061865234375,4.156405925750732,4.457023620605469,-1.6663966178894043
1695712748355651800,8.45065185546875,3.491274356842041,4.345026016235352,-1.5438153743743896
1695712748365665300,8.460665283203125,2.5581274032592773,4.07379150390625,-1.320281744003296
1695712748375696400,8.4706962890625,1.23429536819458,3.606095790863037,-0.9867255687713623
1695712748385723400,8.480723388671874,-0.5885026454925537,2.9981369972229004,-0.7231245040893555
1695712748395754000,8.49075390625,-2.370300054550171,2.1998414993286133,-0.5298044681549072
1695712748405791200,8.500791259765625,-7.3217573165893555,0.7190284729003906,-0.7263529300689697
1695712748415822600,8.510822509765624,-16.087600708007812,-2.03151798248291,-2.0184426307678223
1695712748425885200,8.52088525390625,-18.76510238647461,-5.063477516174316,-3.8945748805999756
1695712748435920000,8.530919921875,-15.319726943969727,-9.934707641601562,-5.072516441345215
1695712748446069500,8.541069580078124,-12.499835014343262,-14.392716407775879,-5.509552955627441
1695712748456114000,8.551114013671874,-7.3251142501831055,-13.793471336364746,-3.6415417194366455
1695712748466158600,8.56115869140625,-1.9013557434082031,-9.239371299743652,-0.915461540222168
1695712748476039700,8.571039794921875,-0.9514894485473633,-3.885589599609375,0.8622238636016846
1695712748486071600,8.581071533203126,-1.1299395561218262,1.6320419311523438,2.3934378623962402
1695712748496082700,8.591082763671874,-1.7814702987670898,6.240331172943115,3.5609898567199707
1695712748506112500,8.601112548828125,-2.186051845550537,8.77127456665039,3.1140146255493164
1695712748516145700,8.611145751953124,0.26836156845092773,6.815592288970947,1.9035379886627197
1695712748526175700,8.62117578125,4.945376873016357,2.8987154960632324,2.07785964012146
1695712748536223500,8.631223388671875,11.490752220153809,0.263671875,1.742149829864502
1695712748546255400,8.64125537109375,12.830841064453125,-1.8722610473632812,-0.6823770999908447
1695712748556277800,8.65127783203125,7.977847099304199,-5.967472076416016,-2.8210301399230957
1695712748566308600,8.66130859375,-1.8409199714660645,-10.854379653930664,-3.557908058166504
1695712748576340200,8.67134033203125,-2.0290160179138184,-10.713318824768066,-4.456655502319336
1695712748586371000,8.68137109375,7.035621643066406,-6.396785736083984,-3.5890798568725586
1695712748596417000,8.6914169921875,10.651628494262695,-1.197676658630371,-1.5178258419036865
1695712748606449400,8.701449462890626,10.063268661499023,3.2151989936828613,-1.5665318965911865
1695712748616493300,8.711493408203125,8.144139289855957,5.917893409729004,-1.8069379329681396
1695712748626527000,8.72152685546875,5.73825216293335,6.728748321533203,-2.421149253845215
1695712748636557600,8.7315576171875,4.184019088745117,6.2772216796875,-2.8442533016204834
1695712748646591000,8.741591064453125,3.5009560585021973,4.5844645500183105,-2.186856269836426
1695712748656627700,8.751627685546875,3.654794692993164,1.6034889221191406,-1.1272156238555908
1695712748666661000,8.7616611328125,3.7670435905456543,-1.2428741455078125,-0.4909372329711914
1695712748676680400,8.771680419921875,3.5934033393859863,-3.197434425354004,0.38192248344421387
1695712748686712600,8.781712646484374,3.111635446548462,-4.099187850952148,0.8697783946990967
1695712748696751900,8.791751953125,2.622694492340088,-4.089913368225098,1.1820833683013916
1695712748706784800,8.80178466796875,2.3613548278808594,-3.666802406311035,1.4372320175170898
1695712748716790500,8.81179052734375,2.0009329319000244,-2.4172983169555664,1.63414466381073
1695712748726820600,8.821820556640626,1.8455560207366943,-1.5102882385253906,2.0637502670288086
1695712748736892200,8.83189208984375,1.3866868019104004,-0.5767364501953125,2.500433921813965
1695712748746926300,8.84192626953125,1.0495092868804932,0.3783607482910156,2.80743670463562
1695712748756938800,8.851938720703124,0.7103879451751709,1.2883992195129395,2.9554367065429688
1695712748766971000,8.861970947265625,0.31330233812332153,1.958205223083496,2.68734073638916
1695712748777010400,8.872010498046874,-0.926129162311554,2.283827781677246,1.7931290864944458
1695712748787043300,8.882043212890625,-1.9862045049667358,2.348054885864258,1.0640637874603271
1695712748797074400,8.892074462890625,-2.279202699661255,1.9792938232421875,0.6215956211090088
1695712748807107000,8.902107177734376,-2.771482467651367,1.329477310180664,0.3264312744140625
1695712748817144000,8.91214404296875,-2.8090991973876953,0.7223606109619141,0.5774221420288086
1695712748827177200,8.92217724609375,-2.2332513332366943,0.31205177307128906,1.0481762886047363
1695712748837184000,8.93218408203125,-1.3536186218261719,0.3790559768676758,1.3398234844207764
1695712748847214300,8.94221435546875,-0.748529314994812,0.8673744201660156,1.4608403444290161
1695712748857280300,8.9522802734375,-0.6405428647994995,1.541900634765625,1.2070999145507812
1695712748867314400,8.962314453125,-0.5457354784011841,1.663437843322754,0.4862406253814697
1695712748877338600,8.972338623046875,-0.34890544414520264,0.9083328247070312,-0.3000373840332031
1695712748887371800,8.982371826171875,-0.8594744205474854,-0.5894374847412109,-0.2660360336303711
1695712748897396000,8.99239599609375,-2.461851119995117,-1.9788007736206055,0.5569159984588623
1695712748907428400,9.002428466796875,-4.528997421264648,-2.6433677673339844,1.6942031383514404
1695712748917462800,9.012462890625,-6.2415924072265625,-2.6898202896118164,2.9086380004882812
1695712748927495200,9.0224951171875,-6.747364044189453,-2.7989120483398438,3.819833755493164
1695712748937503500,9.03250341796875,-5.6963043212890625,-3.3209028244018555,4.184077739715576
1695712748947533300,9.042533203125,-3.9235146045684814,-3.640974998474121,3.7903974056243896
1695712748957584600,9.052584716796876,-2.5853397846221924,-2.807973861694336,3.1036646366119385
1695712748967616500,9.062616455078125,-1.9418869018554688,-1.9383974075317383,2.7334206104278564
1695712748977649000,9.07264892578125,-1.8643887042999268,-2.1914291381835938,3.0246825218200684
1695712748987681000,9.082680908203125,-2.635129928588867,-3.4103574752807617,3.1020171642303467
1695712748997725400,9.092725341796875,-4.010470867156982,-4.409868240356445,2.616703510284424
1695712749007758800,9.1027587890625,-5.863350868225098,-5.1814727783203125,2.2780063152313232
1695712749017787400,9.112787353515625,-6.156398773193359,-6.2949323654174805,2.646605968475342
1695712749027820300,9.1228203125,-5.595709800720215,-6.4267578125,2.8955800533294678
1695712749037854200,9.132854248046876,-6.086725234985352,-5.210821151733398,2.7673630714416504
1695712749047887000,9.14288720703125,-5.662904262542725,-4.09349250793457,2.8688859939575195
1695712749057912000,9.152912109375,-3.3530240058898926,-3.3360071182250977,2.259676694869995
1695712749067944200,9.162944091796875,-1.4449340105056763,-2.908217430114746,0.20177388191223145
1695712749077974800,9.172974853515624,0.8071426749229431,-3.0092668533325195,-1.474977970123291
1695712749088007000,9.1830068359375,3.2228305339813232,-3.597871780395508,-2.3765034675598145
1695712749098046200,9.193046142578124,3.562277317047119,-4.49299430847168,-3.433962106704712
1695712749108078800,9.203078857421875,2.835998773574829,-5.165937423706055,-4.48194694519043
1695712749118101500,9.2131015625,2.084226608276367,-4.939154624938965,-5.169704437255859
1695712749128133400,9.22313330078125,1.8193414211273193,-4.699213981628418,-5.374589920043945
1695712749138169300,9.23316943359375,2.0160043239593506,-4.436343193054199,-5.294166088104248
1695712749148201500,9.243201416015625,3.3277649879455566,-4.068681716918945,-5.400652885437012
1695712749158240500,9.253240478515625,2.8840560913085938,-3.8869476318359375,-5.2366790771484375
1695712749168273400,9.2632734375,1.7196149826049805,-3.4330625534057617,-4.710679054260254
1695712749178306000,9.27330615234375,0.04418814182281494,-2.978184700012207,-3.8625965118408203
1695712749188338700,9.283338623046875,0.2982689142227173,-2.237689971923828,-2.090244770050049
1695712749198370300,9.293370361328124,2.5685715675354004,-1.4576940536499023,-0.3159596920013428
1695712749208403000,9.30340283203125,4.300450801849365,-0.671600341796875,1.1739370822906494
1695712749218435600,9.313435546875,4.972426414489746,0.36214542388916016,1.7270501852035522
1695712749228468200,9.32346826171875,5.439485549926758,1.1742196083068848,2.1723880767822266
1695712749238475800,9.333475830078125,5.803372383117676,2.578457832336426,1.7380385398864746
1695712749248505900,9.343505859375,6.21842622756958,3.977189540863037,1.3240981101989746
1695712749258530000,9.353530029296875,6.366152286529541,5.111179351806641,1.012840747833252
1695712749268559400,9.363559326171876,7.065441131591797,5.304803848266602,1.0548646450042725
1695712749278624500,9.37362451171875,7.2617106437683105,5.381255149841309,0.7777460813522339
1695712749288657400,9.383657470703126,7.1440582275390625,5.326478958129883,0.6914676427841187
1695712749298697000,9.393697021484375,6.986693382263184,5.437408447265625,0.5413522720336914
1695712749308731000,9.40373095703125,6.764084815979004,5.549359321594238,0.4972289800643921
1695712749318756900,9.4137568359375,6.551776885986328,5.7404937744140625,0.4385111331939697
1695712749328789500,9.42378955078125,6.221694469451904,5.867619514465332,0.36295247077941895
1695712749338826200,9.433826171875,5.764632225036621,5.988016128540039,0.05718207359313965
1695712749348859400,9.443859375,5.361691474914551,6.224767208099365,-0.3160543441772461
1695712749358855400,9.45385546875,4.816995620727539,6.377652168273926,-0.623647928237915
1695712749368885000,9.463885009765624,4.0313520431518555,6.196206569671631,-0.9204764366149902
1695712749378949600,9.47394970703125,2.989711046218872,5.7960100173950195,-1.0087707042694092
1695712749388982800,9.483982666015624,2.0523834228515625,5.373418807983398,-0.8626303672790527
1695712749399018200,9.494018310546876,1.1679232120513916,4.984140872955322,-0.6716656684875488
1695712749409051600,9.5040517578125,-0.22657990455627441,4.584752082824707,-0.6490306854248047
1695712749419077400,9.514077392578125,-3.0126450061798096,3.640655994415283,-0.5260739326477051
1695712749429110000,9.524110107421874,-11.182766914367676,1.1443405151367188,-1.521111249923706
1695712749439127000,9.534126953125,-18.87717628479004,-3.195585250854492,-4.312128067016602
1695712749449158000,9.544157958984375,-15.509683609008789,-9.335432052612305,-7.415351867675781
1695712749459161900,9.554161865234375,-12.362744331359863,-16.496944427490234,-9.738052368164062
1695712749469190100,9.564190185546876,-8.765243530273438,-17.002864837646484,-8.421699523925781
1695712749479242200,9.5742421875,-3.5393619537353516,-11.625255584716797,-5.33273983001709
1695712749489272800,9.58427294921875,0.016881227493286133,-6.291502475738525,-1.5179972648620605
1695712749499336700,9.594336669921875,0.04221487045288086,-1.4342646598815918,0.875964879989624
1695712749509370600,9.60437060546875,-1.128316879272461,2.068763256072998,1.1786284446716309
1695712749519399700,9.614399658203125,-2.314131736755371,3.992903232574463,-0.9592809677124023
1695712749529433000,9.62443310546875,-3.389554500579834,3.900846004486084,-3.5750036239624023
1695712749539440600,9.634440673828125,-1.6298480033874512,1.947476863861084,-4.2389984130859375
1695712749549471500,9.644471435546874,3.717100143432617,-0.21936893463134766,-3.469254970550537
1695712749559530200,9.6545302734375,8.443711280822754,-2.374939441680908,-0.5540719032287598
1695712749569564000,9.66456396484375,9.569300651550293,-3.6838016510009766,3.4539408683776855
1695712749579597600,9.67459765625,11.423101425170898,-4.110391139984131,6.682466506958008
1695712749589631200,9.68463134765625,9.668107986450195,-3.9458208084106445,7.157542705535889
1695712749599639300,9.694639404296876,6.264278411865234,-2.8783626556396484,4.982209205627441
1695712749609670400,9.70467041015625,4.383493423461914,-1.5948877334594727,2.298511266708374
1695712749619697700,9.71469775390625,4.371779918670654,-0.44997215270996094,-0.2886686325073242
1695712749629728300,9.724728271484375,6.106113433837891,0.6654386520385742,-2.7329165935516357
1695712749639774500,9.7347744140625,6.736941337585449,1.2679290771484375,-4.1197052001953125
1695712749649806600,9.744806640625,5.542567729949951,1.1530694961547852,-4.370136260986328
1695712749659847700,9.75484765625,4.319809913635254,0.291168212890625,-3.0526540279388428
1695712749669880800,9.764880859375,3.6056177616119385,-0.8358345031738281,-1.070765733718872
1695712749679892700,9.774892822265626,3.06923770904541,-1.6270751953125,0.5062761306762695
1695712749689923600,9.784923583984375,2.331880807876587,-1.8030462265014648,1.5375232696533203
1695712749699974100,9.79497412109375,1.672427773475647,-1.7469244003295898,2.0750012397766113
1695712749710007000,9.805007080078125,1.4250963926315308,-1.4959936141967773,2.2322773933410645
1695712749720030500,9.815030517578125,1.5714285373687744,-0.9883298873901367,2.0581746101379395
1695712749730062300,9.825062255859375,1.434122920036316,-0.6053838729858398,2.0193610191345215
1695712749740083000,9.8350830078125,1.3720054626464844,-0.24186038970947266,2.0463619232177734
1695712749750113500,9.845113525390625,1.0102509260177612,0.2375936508178711,2.1515350341796875
1695712749760170000,9.855169921875,0.6057268381118774,0.8337507247924805,2.132894992828369
1695712749770203400,9.865203369140625,0.023464486002922058,1.3932313919067383,2.164608955383301
1695712749780247800,9.875247802734375,-0.6276740431785583,1.749262809753418,2.1080455780029297
1695712749790282200,9.8852822265625,-1.0791938304901123,1.7255220413208008,1.9738599061965942
1695712749800306400,9.895306396484376,-1.558382272720337,1.457993507385254,1.7545005083084106
1695712749810339800,9.90533984375,-1.9678717851638794,1.3745012283325195,1.4546875953674316
1695712749820375600,9.91537548828125,-2.2699337005615234,1.3178472518920898,1.3548262119293213
1695712749830409500,9.925409423828125,-2.334141254425049,1.129796028137207,1.1457451581954956
1695712749840433000,9.935432861328126,-2.4085769653320312,0.7714910507202148,0.993682861328125
1695712749850465500,9.945465576171875,-2.045712471008301,0.3023662567138672,1.049616813659668
1695712749860472800,9.955472900390625,-1.119338870048523,0.3106527328491211,0.9322774410247803
1695712749870503000,9.9655029296875,-0.3749926686286926,0.4548482894897461,0.6361641883850098
1695712749880573400,9.975573486328125,0.0033049583435058594,0.5669326782226562,0.6167247295379639
1695712749890607600,9.985607666015625,-0.08210921287536621,0.952479362487793,0.5769088268280029
1695712749900636400,9.995636474609375,-0.2119905948638916,1.0455193519592285,0.5517220497131348
1695712749910669800,10.005669921875,-0.3586609363555908,0.6357412338256836,0.5899932384490967
1695712749920695300,10.0156953125,-0.7299245595932007,0.034712791442871094,0.6958308219909668
1695712749930728200,10.025728271484375,-1.7632901668548584,-0.8324775695800781,0.9600508213043213
1695712749940734500,10.035734375,-3.2742042541503906,-1.5239219665527344,1.272181510925293
1695712749950764500,10.0457646484375,-4.971031188964844,-2.06719970703125,1.7175943851470947
1695712749960825300,10.055825439453125,-6.118940353393555,-2.5592212677001953,2.495645046234131
1695712749970858500,10.0658583984375,-5.882485866546631,-3.243612289428711,3.2866978645324707
1695712749980893700,10.075893798828124,-4.275768756866455,-4.138842582702637,3.806724786758423
1695712749990927000,10.085927001953126,-2.1975297927856445,-4.372807502746582,3.7574644088745117
1695712750000960000,10.0959599609375,-1.0299427509307861,-3.890028953552246,3.4975173473358154
1695712750010993200,10.1059931640625,-0.9808979034423828,-3.744171142578125,3.646684408187866
1695712750021019000,10.116018798828126,-2.161482334136963,-4.253663063049316,3.909860134124756
1695712750031051500,10.126051513671875,-3.5812265872955322,-4.554568290710449,3.375136375427246
1695712750041078800,10.136078857421875,-5.3719940185546875,-4.187094688415527,2.447772979736328
1695712750051110700,10.146110595703124,-7.244763374328613,-4.0152692794799805,1.63151216506958
1695712750061103900,10.156103759765625,-7.4791460037231445,-4.676026344299316,0.8480784893035889
1695712750071132000,10.1661318359375,-6.320011138916016,-4.868762969970703,0.5513160228729248
1695712750081210400,10.17621044921875,-6.234580993652344,-4.024292945861816,0.8591034412384033
1695712750091243300,10.1862431640625,-6.3764448165893555,-3.193793296813965,1.4348695278167725
1695712750101269200,10.196269287109375,-3.230876922607422,-2.55397891998291,1.454967737197876
1695712750111301600,10.206301513671875,0.4259510040283203,-2.0603437423706055,0.3758544921875
1695712750121342200,10.21634228515625,2.1827902793884277,-2.061878204345703,-1.08742356300354
1695712750131375400,10.226375244140625,3.0487852096557617,-2.825784683227539,-2.0384113788604736
1695712750141407700,10.23640771484375,3.412048816680908,-4.013616561889648,-2.748807907104492
1695712750151441000,10.24644091796875,3.3866078853607178,-5.117107391357422,-3.5436742305755615
1695712750161476000,10.25647607421875,3.145169734954834,-5.5302581787109375,-3.7093944549560547
1695712750171509200,10.26650927734375,3.0431478023529053,-5.469667434692383,-3.536602020263672
1695712750181542000,10.2765419921875,3.982996940612793,-4.782737731933594,-3.0352275371551514
1695712750191575000,10.286574951171875,3.305542230606079,-3.9571943283081055,-2.433298110961914
1695712750201606000,10.29660595703125,2.048725128173828,-3.5864696502685547,-1.7516553401947021
1695712750211639000,10.30663916015625,-0.003014683723449707,-3.671255111694336,-1.401991605758667
1695712750221659100,10.3166591796875,-0.5799765586853027,-3.4398393630981445,-1.120600700378418
1695712750231690800,10.326690673828125,0.9591484069824219,-2.626439094543457,-0.853416919708252
1695712750241729300,10.336729248046876,2.8324825763702393,-1.4736146926879883,-0.29334044456481934
1695712750251761700,10.34676171875,4.3042144775390625,-0.19815444946289062,0.46152758598327637
1695712750261769000,10.35676904296875,5.037817478179932,0.9945592880249023,1.2318439483642578
1695712750271798800,10.366798828125,5.179351806640625,2.0367660522460938,1.8090447187423706
1695712750281859000,10.376859130859375,5.31840181350708,3.3119635581970215,2.0202579498291016
1695712750291892000,10.38689208984375,5.854825973510742,4.3494648933410645,1.889478087425232
1695712750301922600,10.396922607421875,6.276192665100098,4.8537187576293945,1.5510079860687256
1695712750311955200,10.406955078125,6.519974708557129,4.776214599609375,1.189591646194458
1695712750321993500,10.416993408203124,6.762550354003906,4.201366901397705,0.9043930768966675
1695712750332026600,10.427026611328126,6.805111885070801,3.8564963340759277,0.5244483947753906
1695712750342053600,10.4370537109375,6.598114967346191,3.9414620399475098,0.16279888153076172
1695712750352086300,10.447086181640625,6.624178886413574,4.319608688354492,0.12738656997680664
1695712750362123000,10.457123046875,6.6355390548706055,4.560093879699707,0.2826516628265381
1695712750372156200,10.46715625,6.559213161468506,4.915872573852539,0.12366914749145508
1695712750382183000,10.477182861328124,6.338650703430176,5.434282302856445,-0.14698052406311035
1695712750392215000,10.487215087890625,5.9384565353393555,5.865476608276367,-0.5719790458679199
1695712750402242600,10.49724267578125,5.423476696014404,6.102101802825928,-0.91412353515625
1695712750412274400,10.5072744140625,4.791911602020264,6.040268898010254,-1.1599626541137695
1695712750422281700,10.51728173828125,3.976689338684082,5.759519577026367,-1.2595527172088623
1695712750432311000,10.52731103515625,2.7757818698883057,5.245663642883301,-1.1771049499511719
1695712750442381000,10.537381103515624,1.44425630569458,4.536283493041992,-0.8456497192382812
1695712750452414500,10.54741455078125,-0.07381176948547363,3.5014405250549316,-0.30245375633239746
1695712750462419500,10.55741943359375,-3.1399810314178467,2.0929908752441406,-0.26805806159973145
1695712750472450000,10.567449951171875,-10.526571273803711,-0.5001163482666016,-1.6430268287658691
1695712750482505000,10.5775048828125,-20.24288558959961,-4.2037506103515625,-4.712014675140381
1695712750492538000,10.5875380859375,-17.176414489746094,-8.379867553710938,-7.745784759521484
1695712750502571000,10.597571044921875,-12.471946716308594,-14.495199203491211,-9.110579490661621
1695712750512604200,10.607604248046876,-10.766666412353516,-16.36481475830078,-6.20316219329834
1695712750522637300,10.61763720703125,-4.837772369384766,-11.601075172424316,-1.12042236328125
1695712750532670200,10.627670166015625,-1.9475586414337158,-5.888903617858887,1.8558013439178467
1695712750542668300,10.637668212890626,-2.125884532928467,-0.2140045166015625,4.028242111206055
1695712750552697900,10.64769775390625,-3.0681350231170654,4.178053855895996,4.709073066711426
1695712750562769700,10.657769775390625,-1.8613171577453613,6.140215873718262,2.7111618518829346
1695712750572803300,10.66780322265625,1.3502330780029297,4.238508224487305,0.18874216079711914
1695712750582796300,10.67779638671875,4.655309200286865,1.5436468124389648,-0.5300889015197754
1695712750592825900,10.687825927734375,9.147340774536133,-0.8309907913208008,-0.9185311794281006
1695712750602869000,10.697868896484374,10.720094680786133,-3.0180492401123047,-1.5528602600097656
1695712750612900000,10.707900146484375,8.18985652923584,-5.232632637023926,-1.9801065921783447
1695712750622928400,10.717928466796875,3.688840627670288,-6.740674018859863,-1.0715882778167725
1695712750632959000,10.727958984375,3.729992151260376,-5.249515533447266,-0.8412432670593262
1695712750642993000,10.737992919921876,6.690709590911865,-2.3585758209228516,-1.2207255363464355
1695712750653024000,10.74802392578125,7.949924468994141,0.08454322814941406,-1.7173740863800049
1695712750663083800,10.758083740234374,8.535083770751953,2.53973388671875,-2.4511959552764893
1695712750673117700,10.76811767578125,7.313017845153809,3.986752986907959,-2.898590087890625
1695712750683122400,10.778122314453125,6.049747467041016,4.222386837005615,-3.1225547790527344
1695712750693153300,10.7881533203125,5.007194519042969,3.6248068809509277,-2.783764600753784
1695712750703184400,10.798184326171874,4.068233966827393,1.6587457656860352,-1.5783159732818604
1695712750713215200,10.80821533203125,2.747056245803833,-1.0122852325439453,-0.8433303833007812
1695712750723254800,10.8182548828125,2.1488888263702393,-2.916571617126465,-0.07368326187133789
1695712750733286700,10.82828662109375,2.2171826362609863,-3.7133865356445312,0.39134979248046875
1695712750743315200,10.838315185546875,2.5677037239074707,-3.596578598022461,0.9706063270568848
1695712750753346600,10.8483466796875,3.410696029663086,-3.0752382278442383,1.4312469959259033
1695712750763394800,10.858394775390625,2.829937219619751,-2.0899667739868164,1.5228242874145508
1695712750773428000,10.868427978515625,1.5595659017562866,-0.750274658203125,1.4489796161651611
1695712750783459300,10.878459228515625,0.6404694318771362,0.35379981994628906,1.6394070386886597
1695712750793492200,10.8884921875,0.06178551912307739,1.2718539237976074,1.8343983888626099
1695712750803511000,10.898510986328125,-0.29596537351608276,1.904841423034668,1.975775957107544
1695712750813542700,10.908542724609376,-0.5168934464454651,2.372715950012207,1.800629734992981
1695712750823578600,10.91857861328125,-0.5758915543556213,2.6756591796875,1.4743460416793823
1695712750833610800,10.92861083984375,-0.6463714241981506,2.542652130126953,1.107785701751709
1695712750843640000,10.93864013671875,-0.8315087556838989,2.3149309158325195,0.6839148998260498
1695712750853672000,10.948671875,-1.4609266519546509,1.9207487106323242,0.30532407760620117
1695712750863727400,10.958727294921875,-1.8954579830169678,1.5558910369873047,0.291856050491333
1695712750873761300,10.96876123046875,-1.6007696390151978,1.3458452224731445,0.7404603958129883
1695712750883767800,10.978767822265626,-0.9765058755874634,1.2096147537231445,1.0065163373947144
1695712750893799200,10.988799072265625,-0.5605812072753906,0.9888553619384766,1.1209006309509277
1695712750903841300,10.99884130859375,-0.693566083908081,0.6024904251098633,1.236661672592163
1695712750913873700,11.008873779296875,-1.0814485549926758,-0.07319068908691406,1.3374652862548828
1695712750923921400,11.01892138671875,-1.5568530559539795,-1.1810541152954102,1.5754599571228027
1695712750933955300,11.028955322265626,-2.5793914794921875,-2.241758346557617,1.964913249015808
1695712750943965200,11.038965087890626,-4.021418571472168,-2.904343605041504,2.7065608501434326
1695712750953996800,11.048996826171875,-5.652090072631836,-3.128424644470215,3.7785773277282715
1695712750964044000,11.0590439453125,-6.463589191436768,-3.2356204986572266,4.847782611846924
1695712750974077200,11.0690771484375,-5.692015647888184,-3.5994558334350586,5.549460411071777
1695712750984118000,11.079117919921876,-3.837346315383911,-4.145566940307617,5.4517035484313965
1695712750994152000,11.08915185546875,-1.9691483974456787,-4.463316917419434,4.689408302307129
1695712751004180200,11.09918017578125,-1.1455166339874268,-3.801783561706543,3.6477863788604736
1695712751014213400,11.10921337890625,-1.3289251327514648,-2.928609848022461,2.404881000518799
1695712751024219400,11.119219482421874,-2.0745413303375244,-3.0082969665527344,1.6832239627838135
1695712751034249700,11.129249755859375,-3.026597738265991,-3.404191017150879,1.359468698501587
1695712751044320800,11.13932080078125,-4.096334457397461,-3.4776134490966797,0.9977664947509766
1695712751054355500,11.14935546875,-5.368183135986328,-3.2194719314575195,0.575176477432251
1695712751064385300,11.15938525390625,-6.451027870178223,-3.7458086013793945,0.046945810317993164
1695712751074419500,11.16941943359375,-5.998197555541992,-4.315670013427734,-0.22999000549316406
1695712751084450300,11.1794501953125,-5.209441184997559,-4.060788154602051,0.5610249042510986
1695712751094484200,11.189484130859375,-5.074617385864258,-3.4754858016967773,2.514456272125244
1695712751104499700,11.199499755859375,-4.51279878616333,-2.832662582397461,3.6206612586975098
1695712751114531600,11.209531494140625,-2.1070098876953125,-2.3669958114624023,3.5659306049346924
1695712751124546600,11.219546630859375,-0.240608811378479,-2.156747817993164,2.3956797122955322
1695712751134577000,11.229576904296875,0.9867808222770691,-2.2025184631347656,0.34715843200683594
1695712751144608300,11.239608154296874,2.60858154296875,-3.087754249572754,-1.3392374515533447
1695712751154638600,11.249638671875,3.4802799224853516,-4.581191062927246,-2.3761789798736572
1695712751164682800,11.259682861328125,3.5095927715301514,-6.019442558288574,-3.0461513996124268
1695712751174714400,11.26971435546875,3.1759116649627686,-6.355537414550781,-3.361265182495117
1695712751184734200,11.279734130859374,2.3537302017211914,-6.074802398681641,-3.323610544204712
1695712751194764800,11.289764892578125,2.6736786365509033,-5.155215263366699,-3.0042738914489746
1695712751204816100,11.299816162109375,3.960712432861328,-4.026711463928223,-2.4331395626068115
1695712751214848800,11.309848876953126,3.1290054321289062,-3.3222808837890625,-1.884066104888916
1695712751224897800,11.319897705078125,1.760436773300171,-2.740835189819336,-1.7735724449157715
1695712751234932200,11.32993212890625,1.0890856981277466,-2.2325267791748047,-1.187361240386963
1695712751244939800,11.339939697265624,1.607505202293396,-1.6418867111206055,-0.9745919704437256
1695712751254971100,11.34997119140625,2.6545045375823975,-0.9653387069702148,-0.2989070415496826
1695712751265028400,11.3600283203125,3.6840360164642334,-0.10155391693115234,0.5999658107757568
1695712751275062500,11.3700625,4.440309047698975,0.6981143951416016,1.4990203380584717
1695712751285105400,11.38010546875,4.900799751281738,1.6472015380859375,2.2487828731536865
1695712751295140400,11.390140380859375,4.963172912597656,3.073941707611084,2.3995959758758545
1695712751305130500,11.400130615234374,5.4422807693481445,4.4675421714782715,2.2644712924957275
1695712751315161000,11.4101611328125,6.469510078430176,5.101435661315918,1.9687837362289429
1695712751325223000,11.420222900390625,6.718689441680908,5.37773323059082,1.5272643566131592
1695712751335256600,11.430256591796875,6.6116814613342285,5.374001502990723,1.1019307374954224
1695712751345262300,11.440262451171876,6.417849540710449,5.001055717468262,0.5841572284698486
1695712751355293200,11.450293212890625,6.216947555541992,4.443272590637207,0.1575002670288086
1695712751365331000,11.4603310546875,6.127109527587891,3.669898509979248,0.06673312187194824
1695712751375362600,11.470362548828126,5.704009532928467,3.3612170219421387,-0.12338519096374512
1695712751385386800,11.48038671875,5.545064449310303,3.4857544898986816,-0.4418048858642578
1695712751395417600,11.49041748046875,5.300053119659424,3.6101269721984863,-0.7716131210327148
1695712751405471500,11.500471435546874,5.147120475769043,3.852222442626953,-1.2536489963531494
1695712751415505000,11.5105048828125,4.711432456970215,4.203544616699219,-1.8264939785003662
1695712751425535000,11.520534912109374,4.020805835723877,4.404241561889648,-2.267850399017334
1695712751435567900,11.53056787109375,3.2329225540161133,4.422602653503418,-2.4683356285095215
1695712751445750800,11.540750732421875,2.426729202270508,4.306663513183594,-2.284247398376465
1695712751455796700,11.550796630859375,1.2766287326812744,4.092557907104492,-2.009026527404785
1695712751465842700,11.5608427734375,-0.1583881378173828,3.823758602142334,-1.7125682830810547
1695712751475694600,11.570694580078126,-1.4165706634521484,3.5269808769226074,-1.5589678287506104
1695712751485725700,11.5807255859375,-3.634469747543335,2.6930432319641113,-1.4836502075195312
1695712751495763700,11.590763671875,-10.279196739196777,0.44101810455322266,-1.507448673248291
1695712751505795300,11.60079541015625,-16.176403045654297,-2.527505874633789,-2.200186252593994
1695712751515837200,11.610837158203125,-15.158530235290527,-5.664142608642578,-3.0030384063720703
1695712751525869800,11.620869873046875,-13.608174324035645,-10.029716491699219,-3.6891181468963623
1695712751535887600,11.6308876953125,-10.971834182739258,-13.830533027648926,-3.4280712604522705
1695712751545918700,11.640918701171875,-5.885278701782227,-12.503824234008789,-0.9377520084381104
1695712751555960000,11.6509599609375,-1.5763201713562012,-8.060070991516113,1.227992057800293
1695712751565992200,11.6609921875,-1.414085865020752,-4.13791561126709,2.257359504699707
1695712751576022000,11.67102197265625,-3.2655224800109863,-0.9724245071411133,2.3512415885925293
1695712751586054000,11.681053955078125,-2.803206443786621,2.0812149047851562,1.3915622234344482
1695712751596068900,11.69106884765625,-1.1675512790679932,3.2460389137268066,-0.3041982650756836
1695712751606099000,11.701098876953125,1.3686110973358154,1.4798898696899414,-1.034294605255127
1695712751616156000,11.711156005859374,6.196713447570801,-1.2501983642578125,-0.957531213760376
1695712751626188800,11.721188720703125,11.881662368774414,-3.4795398712158203,-0.2986795902252197
1695712751636218000,11.731218017578126,13.17466926574707,-4.546027183532715,0.15592455863952637
1695712751646250800,11.741250732421875,12.43236255645752,-4.187158584594727,1.5454394817352295
1695712751656257500,11.751257568359375,9.703994750976562,-2.348470687866211,2.4907941818237305
1695712751666287600,11.76128759765625,5.00241231918335,0.1918621063232422,1.157926082611084
1695712751676346000,11.77134619140625,2.529258966445923,1.9517488479614258,-1.0348644256591797
1695712751686379000,11.78137890625,3.54376220703125,3.2174715995788574,-4.068668365478516
1695712751696408600,11.79140869140625,4.953622817993164,4.281406879425049,-5.776442050933838
1695712751706441000,11.80144091796875,5.478488922119141,4.221472263336182,-5.946957111358643
1695712751716465200,11.811465087890625,4.206031322479248,3.147487163543701,-5.335755348205566
1695712751726496800,11.821496826171876,2.957050323486328,1.3371524810791016,-3.478193998336792
1695712751736539100,11.8315390625,2.5304348468780518,-0.8392915725708008,-1.3285248279571533
1695712751746571800,11.84157177734375,2.608860969543457,-2.5972394943237305,0.6053087711334229
1695712751756614700,11.85161474609375,2.394731044769287,-3.043764114379883,1.9170087575912476
1695712751766648300,11.8616484375,2.371434211730957,-2.8991708755493164,2.559119462966919
1695712751776666400,11.871666259765625,2.544010877609253,-1.9398002624511719,2.9520506858825684
1695712751786698500,11.881698486328125,2.238443613052368,-1.2630071640014648,2.3745901584625244
1695712751796734200,11.891734130859374,1.6643586158752441,-0.9903278350830078,2.4805192947387695
1695712751806766800,11.901766845703126,0.8108441233634949,-0.4820280075073242,2.484344482421875
1695712751816801300,11.91180126953125,0.30425918102264404,0.07676887512207031,2.4135844707489014
1695712751826834000,11.921833984375,0.16674554347991943,0.9535121917724609,2.204599142074585
1695712751836857000,11.931857177734376,-0.12188535928726196,1.6262340545654297,2.098360300064087
1695712751846888700,11.941888671875,-0.8089515566825867,2.0157108306884766,1.671786904335022
1695712751856903000,11.95190283203125,-1.5395704507827759,2.1098899841308594,0.8871114253997803
1695712751866932700,11.9619326171875,-1.928675651550293,2.0768909454345703,0.24175477027893066
1695712751876998000,11.971997802734375,-2.288588523864746,1.9393386840820312,-0.3253340721130371
1695712751887031300,11.98203125,-2.8460817337036133,1.4947891235351562,-0.4756345748901367
1695712751897053700,11.9920537109375,-2.9292526245117188,1.031829833984375,0.022570371627807617
1695712751907085800,12.0020859375,-2.155578136444092,0.9444828033447266,0.32816195487976074
1695712751917099300,12.012099365234375,-1.2169190645217896,1.0266613960266113,0.4823582172393799
1695712751927129600,12.022129638671874,-0.4686901569366455,1.1384706497192383,0.6150784492492676
1695712751937169000,12.0321689453125,-0.015091538429260254,0.8108034133911133,0.8529751300811768
1695712751947200000,12.042199951171876,0.2781333923339844,0.16358280181884766,1.0189836025238037
1695712751957224000,12.052223876953125,0.08591318130493164,-0.7511501312255859,1.1185860633850098
1695712751967254500,12.062254638671876,-0.9747350215911865,-1.683711051940918,1.4667611122131348
1695712751977294300,12.07229443359375,-2.6509811878204346,-2.3582611083984375,2.367142677307129
1695712751987326000,12.082325927734376,-4.689890384674072,-2.6835899353027344,3.552934169769287
1695712751997365200,12.092365234375,-6.054883003234863,-3.1807212829589844,4.537830352783203
1695712752007397600,12.102397705078126,-5.782105445861816,-3.9270849227905273,4.909026622772217
1695712752017424400,12.11242431640625,-4.041135311126709,-4.409052848815918,4.563507080078125
1695712752027456000,12.1224560546875,-2.424034833908081,-3.7969179153442383,3.4832775592803955
1695712752037493800,12.13249365234375,-1.6589752435684204,-2.7402000427246094,2.27927827835083
1695712752047526100,12.142526123046874,-1.5439165830612183,-2.6692752838134766,1.9983272552490234
1695712752057558000,12.15255810546875,-2.1017818450927734,-3.4647388458251953,2.0539979934692383
1695712752067590400,12.16259033203125,-3.0974409580230713,-4.135952949523926,1.684004545211792
1695712752077609700,12.172609619140625,-4.456426620483398,-4.66201114654541,1.0619373321533203
1695712752087640600,12.182640625,-5.774264335632324,-5.600786209106445,0.47031569480895996
1695712752097697000,12.192697021484374,-6.23023796081543,-5.802309036254883,0.8601279258728027
1695712752107730700,12.202730712890625,-5.581121921539307,-4.748203277587891,2.267500877380371
1695712752117769700,12.212769775390624,-4.141793251037598,-3.652902603149414,3.4651825428009033
1695712752127804000,12.222803955078126,-2.437183141708374,-3.426337242126465,4.154903411865234
1695712752137836000,12.2328359375,-1.7684794664382935,-2.8453378677368164,3.385603189468384
1695712752147869700,12.24286962890625,-1.8510570526123047,-2.4428014755249023,1.469003438949585
1695712752157870800,12.252870849609375,-0.9864505529403687,-2.78997802734375,-0.5047476291656494
1695712752167901400,12.2629013671875,0.21039164066314697,-3.3313961029052734,-2.2320563793182373
1695712752177958100,12.272958251953124,0.7633779048919678,-4.048240661621094,-3.611969232559204
1695712752187991300,12.2829912109375,1.1426937580108643,-4.756516456604004,-4.725541114807129
1695712752198015200,12.29301513671875,1.675663709640503,-4.929041862487793,-5.642199516296387
1695712752208047600,12.303047607421876,2.058361053466797,-4.675687789916992,-6.042016506195068
1695712752218084400,12.31308447265625,2.641129732131958,-4.267462730407715,-5.919137954711914
1695712752228117000,12.323116943359375,3.8309624195098877,-3.4173431396484375,-5.538570880889893
1695712752238152400,12.33315234375,3.6491549015045166,-2.7387752532958984,-4.974918365478516
1695712752248185300,12.343185302734375,2.1261861324310303,-2.324822425842285,-3.9903929233551025
1695712752258202000,12.3532021484375,0.20185565948486328,-2.2301254272460938,-2.802593469619751
1695712752268233500,12.3632333984375,0.5814398527145386,-1.912226676940918,-1.3030850887298584
1695712752278288400,12.373288330078125,2.5412638187408447,-1.5423393249511719,0.24773526191711426
1695712752288322000,12.383322021484375,3.79201602935791,-1.0497608184814453,1.629476547241211
1695712752298346000,12.393345947265624,4.424405574798584,-0.5566892623901367,2.463491678237915
1695712752308378600,12.403378662109375,4.889654159545898,0.18060016632080078,2.542513608932495
1695712752318417000,12.4134169921875,5.4334259033203125,1.4722766876220703,2.1791574954986572
1695712752328450000,12.423449951171875,6.125911712646484,2.8213438987731934,1.9176615476608276
1695712752338482000,12.43348193359375,6.415667533874512,3.9603676795959473,1.5734302997589111
1695712752348515000,12.44351513671875,6.518174171447754,4.985262870788574,1.356858491897583
1695712752358522400,12.4535224609375,6.571138381958008,5.604506492614746,1.2142804861068726
1695712752368552700,12.463552734375,6.48731803894043,6.039107322692871,0.9186751842498779
1695712752378607400,12.473607421875,6.41667366027832,6.32086706161499,0.5236315727233887
1695712752388640000,12.483639892578125,6.412475109100342,6.146206855773926,0.46219944953918457
1695712752398672400,12.49367236328125,6.175046920776367,6.072547435760498,0.3640782833099365
1695712752408705300,12.503705322265626,6.0404815673828125,6.0875935554504395,0.21994948387145996
1695712752418707700,12.513707763671874,5.709879398345947,5.914956092834473,-0.05504727363586426
1695712752428737500,12.523737548828125,5.468465328216553,5.860352516174316,-0.29131412506103516
1695712752438807800,12.533807861328125,5.009190082550049,5.771291732788086,-0.6142604351043701
1695712752448841700,12.543841796875,4.400434970855713,5.588465690612793,-0.7503941059112549
1695712752458845000,12.553844970703125,3.7588307857513428,5.390726089477539,-0.647669792175293
1695712752468875800,12.563875732421875,2.8965110778808594,5.145898818969727,-0.550602912902832
1695712752478925300,12.57392529296875,1.4589369297027588,4.751590728759766,-0.42791152000427246
1695712752488958000,12.5839580078125,-0.6186699867248535,4.011984825134277,-0.03151845932006836
1695712752498964700,12.59396484375,-3.6711575984954834,2.379438877105713,0.3086426258087158
1695712752508994800,12.603994873046876,-10.866220474243164,-0.4995412826538086,-0.5304291248321533
1695712752519037700,12.61403759765625,-17.8509521484375,-4.397295951843262,-2.874385118484497
1695712752529069000,12.624069091796875,-15.374013900756836,-9.22252368927002,-5.582048416137695
1695712752539108400,12.6341083984375,-12.937053680419922,-15.399837493896484,-8.01595401763916
1695712752549140500,12.644140380859374,-10.389944076538086,-16.40203857421875,-7.246425151824951
1695712752559194000,12.654194091796874,-5.290351867675781,-11.393089294433594,-3.837413787841797
1695712752569228500,12.664228515625,-1.1321659088134766,-5.8422698974609375,-0.3839454650878906
1695712752579256800,12.6742568359375,-0.16787338256835938,-0.5410470962524414,2.5795681476593018
1695712752589290500,12.68429052734375,-0.26685070991516113,3.9519834518432617,4.6828107833862305
1695712752599316500,12.69431640625,-1.111668348312378,7.124395370483398,5.100889205932617
1695712752609349400,12.704349365234375,-1.0561103820800781,8.196541786193848,3.014493942260742
1695712752619375600,12.714375732421875,0.21723008155822754,4.792218208312988,0.015997886657714844
1695712752629407700,12.72440771484375,2.4209799766540527,1.0028061866760254,-0.9067869186401367
1695712752639442700,12.734442626953125,6.721468925476074,-2.558516502380371,-1.0283827781677246
1695712752649475300,12.744475341796875,10.056754112243652,-5.582256317138672,-1.0305147171020508
1695712752659516000,12.754515869140626,7.583817481994629,-7.326464653015137,-1.5442776679992676
1695712752669549000,12.764549072265625,1.5451956987380981,-7.510499954223633,-2.084540605545044
