time,seconds_elapsed,z,y,x
1695712740028816600,0.123816650390625,6.488736629486084,4.296911239624023,-2.2779672145843506
1695712740038820900,0.13382080078125,6.359524250030518,4.330410957336426,-2.905484914779663
1695712740048861000,0.14386083984375,7.09711217880249,4.493122577667236,-3.2069804668426514
1695712740058843400,0.153843505859375,7.09711217880249,4.335196495056152,-3.5611183643341064
1695712740069043500,0.16404345703125,7.135396957397461,4.694717884063721,-3.3649067878723145
1695712740079073800,0.17407373046875,7.082755088806152,5.111069202423096,-2.6608188152313232
1695712740088986400,0.183986328125,7.494320392608643,5.216353416442871,-2.3162522315979004
1695712740099022600,0.194022705078125,8.423334121704102,5.422136306762695,-2.1822543144226074
1695712740109007400,0.20400732421875,9.19442081451416,5.608776092529297,-1.9621145725250244
1695712740119092200,0.21409228515625,9.596415519714355,5.560919761657715,-1.7126628160476685
1695712740129119500,0.224119384765625,9.903294563293457,5.312066078186035,-1.3010972738265991
1695712740139122400,0.234122314453125,9.975079536437988,4.9292144775390625,-1.430309772491455
1695712740149139500,0.244139404296875,9.960722923278809,5.3934221267700195,-2.445464849472046
1695712740159220700,0.254220703125,9.491130828857422,6.111867427825928,-3.503690481185913
1695712740169265200,0.26426513671875,9.160921096801758,5.312066078186035,-2.56510591506958
1695712740179252500,0.27425244140625,9.060422897338867,4.526622295379639,-1.7030915021896362
1695712740189272600,0.2842724609375,8.73918628692627,4.607978343963623,-1.5882359743118286
1695712740199336000,0.2943359375,9.175278663635254,4.871787071228027,-1.2245270013809204
1695712740209374500,0.30437451171875,10.324431419372559,5.106283664703369,-0.784247636795044
1695712740219400200,0.314400146484375,10.625926971435547,5.245067119598389,-0.15672987699508667
1695712740229433300,0.324433349609375,10.204790115356445,5.139782905578613,0.34636107087135315
1695712740239468300,0.33446826171875,10.04686450958252,4.564907550811768,1.0785647630691528
1695712740249502200,0.344502197265625,9.850054740905762,3.885345697402954,1.150349497795105
1695712740259528200,0.354528076171875,9.88415241241455,3.583251953125,0.6143572330474854
1695712740269558800,0.364558837890625,10.625926971435547,4.172484397888184,0.24526432156562805
1695712740279594800,0.3745947265625,10.128219604492188,4.272983074188232,-0.47258245944976807
1695712740289627600,0.384627685546875,9.783055305480957,4.11505651473999,-0.8943174481391907
1695712740299658000,0.394657958984375,9.975079536437988,3.9762730598449707,-0.3242274820804596
1695712740309689900,0.40468994140625,9.69212818145752,4.048057556152344,0.26979073882102966
1695712740319726300,0.414726318359375,9.88415241241455,4.229912281036377,0.6813562512397766
1695712740329760300,0.42476025390625,9.701699256896973,4.2107696533203125,0.4612165689468384
1695712740339789800,0.434789794921875,9.739984512329102,4.071985721588135,-0.3002992272377014
1695712740349822000,0.444822021484375,9.960722923278809,4.622334957122803,-0.31465616822242737
1695712740359853000,0.45485302734375,10.051650047302246,3.4540395736694336,1.2843475341796875
1695712740369884400,0.464884521484375,10.013364791870117,2.96111798286438,1.911865234375
1695712740379925000,0.474925048828125,9.524630546569824,2.2474586963653564,2.0171494483947754
1695712740389960400,0.48496044921875,8.681758880615234,1.5242279767990112,1.552941918373108
1695712740399990500,0.494990478515625,7.125825881958008,1.031306505203247,1.1934202909469604
1695712740410023700,0.505023681640625,5.473581790924072,1.31365966796875,1.1216355562210083
1695712740420040700,0.515040771484375,3.610769271850586,0.7393822073936462,1.1838489770889282
1695712740430072300,0.525072265625,2.562114953994751,0.1501496136188507,0.8105686902999878
1695712740440108800,0.53510888671875,2.0404794216156006,-0.6783652305603027,0.4995017349720001
1695712740450140700,0.545140625,1.7772690057754517,-1.2574282884597778,0.2548356056213379
1695712740460184300,0.555184326171875,1.2406785488128662,-2.9048867225646973,1.174277663230896
1695712740470217200,0.56521728515625,1.1593226194381714,-3.9535412788391113,1.9884356260299683
1695712740480250000,0.57525,1.293320655822754,-4.499104976654053,2.3234307765960693
1695712740490283300,0.585283203125,1.2789636850357056,-5.179264545440674,1.978864312171936
1695712740500323600,0.595323486328125,0.9822536706924438,-5.523830890655518,1.4189438819885254
1695712740510357200,0.605357177734375,0.6376872062683105,-6.682555675506592,1.3710874319076538
1695712740520385500,0.615385498046875,0.2590230405330658,-6.802794933319092,0.9206385016441345
1695712740530418700,0.625418701171875,-0.5551348328590393,-8.038089752197266,2.1415762901306152
1695712740540452900,0.635452880859375,-1.4452649354934692,-9.32602596282959,2.7020950317382812
1695712740550486300,0.645486328125,-1.0671988725662231,-9.034101486206055,3.118446111679077
1695712740560519700,0.655519775390625,0.010169495828449726,-9.134600639343262,4.406383037567139
1695712740570553000,0.665552978515625,1.0301101207733154,-10.188040733337402,6.0538411140441895
1695712740580584400,0.67558447265625,2.1409780979156494,-11.327622413635254,7.792226791381836
1695712740590617300,0.685617431640625,3.0939197540283203,-11.303693771362305,10.521241188049316
1695712740600644000,0.69564404296875,3.1178479194641113,-11.298908233642578,13.686347007751465
1695712740610676500,0.705676513671875,2.6536402702331543,-11.514262199401855,17.48375701904297
1695712740620711700,0.715711669921875,2.073979139328003,-10.5421781539917,20.500507354736328
1695712740630744300,0.725744384765625,1.8442680835723877,-9.105886459350586,22.109682083129883
1695712740640774400,0.7357744140625,2.3946173191070557,-8.444869041442871,23.426332473754883
1695712740650806800,0.745806884765625,3.6783666610717773,-7.334001541137695,24.943979263305664
1695712740660825000,0.7558251953125,4.683950424194336,-5.4281182289123535,26.835506439208984
1695712740671005000,0.7660048828125,4.257429599761963,-3.579662561416626,29.68475914001465
1695712740681036000,0.7760361328125,2.461616277694702,-2.2534406185150146,32.62493896484375
1695712740691081500,0.78608154296875,0.5706881880760193,-1.669592022895813,33.936805725097656
1695712740701113900,0.79611376953125,-0.6843472719192505,-1.0372886657714844,32.749366760253906
1695712740711146500,0.806146484375,-1.4644074440002441,-0.09870393574237823,30.07718276977539
1695712740721026300,0.8160263671875,-2.5226333141326904,0.12143574655056,27.568307876586914
1695712740731046700,0.826046630859375,-2.8869404792785645,1.1461620330810547,24.269203186035156
1695712740741094400,0.836094482421875,-4.730610370635986,1.8406788110733032,21.238096237182617
1695712740751117600,0.84611767578125,-9.111868858337402,2.084746837615967,16.90947914123535
1695712740761156600,0.856156494140625,-26.74278450012207,0.8590233325958252,3.1663026809692383
1695712740771181300,0.866181396484375,-15.877574920654297,-3.0245277881622314,2.630310297012329
1695712740781218300,0.87621826171875,-1.4021940231323242,-4.154538154602051,9.381659507751465
1695712740791244300,0.886244384765625,-2.5561327934265137,-4.518247127532959,8.816953659057617
1695712740801271000,0.89627099609375,0.6041877269744873,-5.126622676849365,4.732405185699463
1695712740811297000,0.906297119140625,-1.34476637840271,2.9515466690063477,15.228521347045898
1695712740821357600,0.916357666015625,4.698307037353516,-3.0340991020202637,6.997211456298828
1695712740831387100,0.92638720703125,4.487140655517578,-5.662614822387695,0.7148557901382446
1695712740841419300,0.936419189453125,2.050050735473633,-4.661816596984863,4.540979385375977
1695712740851448800,0.94644873046875,-0.6269195079803467,-2.4879374504089355,4.445266246795654
1695712740861434400,0.956434326171875,-6.444469451904297,-1.6169499158859253,3.9565322399139404
1695712740871459600,0.96645947265625,-6.62632417678833,0.8542376756668091,5.91505765914917
1695712740881552400,0.976552490234375,1.968694806098938,-1.5254244804382324,10.482955932617188
1695712740891584500,0.98658447265625,5.761318683624268,-4.4512481689453125,7.763513088226318
1695712740901605400,0.99660546875,2.854637384414673,-5.533402442932129,5.373681545257568
1695712740911636200,1.00663623046875,-3.284149169921875,-6.093921184539795,5.019543647766113
1695712740921673700,1.016673828125,-1.057627558708191,-0.9080761671066284,7.375277519226074
1695712740931705300,1.026705322265625,-1.5122638940811157,-9.460023880004883,11.225329399108887
1695712740941733400,1.0367333984375,-1.4883357286453247,-9.416953086853027,8.428717613220215
1695712740951764500,1.046764404296875,-2.163709878921509,-12.103495597839355,8.1224365234375
1695712740961795000,1.056795166015625,-2.0919251441955566,-13.879568099975586,7.945367813110352
1695712740971826200,1.066826171875,-1.0001999139785767,-12.730414390563965,7.29392147064209
1695712740981878800,1.076878662109375,-0.9523434042930603,-11.58126163482666,7.624729156494141
1695712740991912200,1.086912109375,-2.2737796306610107,-11.20798110961914,8.998807907104492
1695712741001937700,1.096937744140625,-3.772883176803589,-11.34676456451416,11.292327880859375
1695712741011970300,1.10697021484375,-4.284946918487549,-9.804591178894043,12.221342086791992
1695712741021971200,1.11697119140625,-4.318446636199951,-7.487142086029053,10.554740905761719
1695712741032000500,1.12700048828125,-3.3511481285095215,-3.8051862716674805,8.165507316589355
1695712741042070000,1.137070068359375,-1.5553346872329712,-1.6121642589569092,6.667002201080322
1695712741052103400,1.147103515625,-0.27696922421455383,-1.9710876941680908,6.025127410888672
1695712741062105000,1.15710498046875,0.7621139883995056,-3.014956474304199,5.642275810241699
1695712741072135400,1.167135498046875,2.0787646770477295,-3.579662561416626,5.244469165802002
1695712741082189000,1.17718896484375,2.6488547325134277,-3.570091485977173,4.794618606567383
1695712741092221700,1.1872216796875,1.8059829473495483,-3.436093330383301,5.038686275482178
1695712741102242000,1.197241943359375,1.211964726448059,-3.3068809509277344,6.398407936096191
1695712741112273400,1.2072734375,0.833898663520813,-3.7812578678131104,7.883154392242432
1695712741122327600,1.21732763671875,-0.44446679949760437,-4.743771076202393,8.883952140808105
1695712741132361000,1.22736083984375,-2.9108686447143555,-6.2327046394348145,10.028319358825684
1695712741142383400,1.23738330078125,-3.686741590499878,-7.7455668449401855,10.463813781738281
1695712741152415700,1.247415771484375,-2.5178475379943848,-9.268598556518555,10.401599884033203
1695712741162459000,1.257458984375,-1.2538390159606934,-10.451251029968262,10.080962181091309
1695712741172492500,1.267492431640625,-0.8135597109794617,-10.661819458007812,9.41037368774414
1695712741182509800,1.277509765625,-0.7704889178276062,-9.096315383911133,7.964509963989258
1695712741192541700,1.287541748046875,-1.4165509939193726,-7.35314416885376,6.403193473815918
1695712741202580000,1.297580078125,-0.6604190468788147,-7.238288402557373,6.513861656188965
1695712741212612600,1.307612548828125,-0.3966103494167328,-6.26141881942749,6.379265308380127
1695712741222643700,1.317643798828125,-0.18125630915164948,-4.691128730773926,6.288337707519531
1695712741232676000,1.327676025390625,0.048454657196998596,-3.9152560234069824,6.197410583496094
1695712741242712600,1.337712646484375,0.2638086974620819,-4.2693939208984375,5.910272121429443
1695712741252745200,1.3477451171875,0.13459627330303192,1.160519003868103,4.598406791687012
1695712741262781200,1.35778125,-0.550349235534668,-1.6648063659667969,4.536193370819092
1695712741272814300,1.367814453125,-0.39182472229003906,-5.480760097503662,5.206183910369873
1695712741282833700,1.377833740234375,0.27816563844680786,-7.22871732711792,5.747560024261475
1695712741292865300,1.387865234375,-0.18125630915164948,-8.760722160339355,6.533003807067871
1695712741302890000,1.397889892578125,-0.6939185857772827,-8.45444107055664,7.226922512054443
1695712741312921000,1.407921142578125,-1.3830515146255493,-7.549355506896973,7.011568546295166
1695712741322968600,1.417968505859375,-2.1876380443573,-2.593221426010132,6.269195556640625
1695712741333001200,1.428001220703125,-1.7186448574066162,0.26500511169433594,4.641477584838867
1695712741343006200,1.438006103515625,-2.163709878921509,0.0687936544418335,2.7355945110321045
1695712741353036000,1.4480361328125,-3.6580276489257812,-2.334796667098999,2.3186452388763428
1695712741363070200,1.4580703125,-2.599203586578369,-6.33798885345459,2.0650060176849365
1695712741373100500,1.4681005859375,1.0253244638442993,-10.298110008239746,0.12083754688501358
1695712741383166700,1.478166748046875,3.5341989994049072,-13.26700496673584,-2.4837498664855957
1695712741393200600,1.48820068359375,4.913661479949951,-13.826925277709961,-3.2883365154266357
1695712741403221200,1.49822119140625,4.990231513977051,-11.26062297821045,-2.076970100402832
1695712741413253600,1.508253662109375,1.5906288623809814,-8.919246673583984,-1.6600207090377808
1695712741423299300,1.51829931640625,-2.245065927505493,-7.731209754943848,-1.1383854150772095
1695712741433333200,1.528333251953125,-3.0687949657440186,-8.033304214477539,0.08733802288770676
1695712741443331800,1.538331787109375,-1.9866410493850708,-9.732806205749512,0.42293140292167664
1695712741453362200,1.548362060546875,-0.38225340843200684,-17.087743759155273,-0.017946170642971992
1695712741463414800,1.558414794921875,-0.15254244208335876,-20.985652923583984,-1.5020943880081177
1695712741473447400,1.568447509765625,-1.2251251935958862,-19.074983596801758,0.17347964644432068
1695712741483468800,1.57846875,-1.057627558708191,-14.866008758544922,2.9892337322235107
1695712741493500400,1.58850048828125,-0.885344386100769,-11.24626636505127,2.8313074111938477
1695712741503527700,1.598527587890625,-0.7561319470405579,-9.091529846191406,-0.02273181453347206
1695712741513558800,1.608558837890625,-0.4492524564266205,-10.14018440246582,-2.8624141216278076
1695712741523585800,1.618585693359375,-0.47796630859375,-15.39781379699707,-4.743771076202393
1695712741533616400,1.628616455078125,0.2829512655735016,-17.672191619873047,-7.69830846786499
1695712741543653600,1.638653564453125,0.8243274092674255,-10.374680519104004,-12.439088821411133
1695712741553685000,1.64868505859375,0.388235479593277,-6.208776473999023,-12.19920825958252
1695712741563730000,1.65872998046875,-0.2626122832298279,-5.356333255767822,-6.649653911590576
1695712741573762600,1.668762451171875,-0.9523434042930603,-6.409773826599121,-3.786043643951416
1695712741583813600,1.678813720703125,-1.0336993932724,-8.11944580078125,-3.4510483741760254
1695712741593848300,1.688848388671875,-0.885344386100769,-9.215956687927246,-3.2404799461364746
1695712741603865300,1.698865234375,-0.851844847202301,-9.804591178894043,-2.455035924911499
1695712741613898200,1.708898193359375,-1.0289137363433838,-10.116255760192871,-1.5882359743118286
1695712741623925200,1.71892529296875,-0.4540380835533142,-10.369894981384277,-2.187039852142334
1695712741633957400,1.728957275390625,-0.08075776696205139,-10.432108879089355,-2.5746772289276123
1695712741643974100,1.73897412109375,-0.2386840581893921,-10.499107360839844,-2.368894338607788
1695712741654004700,1.749004638671875,0.13459627330303192,-10.231111526489258,-1.7796618938446045
1695712741664058400,1.759058349609375,0.6089733839035034,-9.939187049865723,-1.5020943880081177
1695712741674091300,1.76909130859375,0.22073788940906525,-9.316454887390137,-2.7038896083831787
1695712741684130800,1.779130859375,0.0771685317158699,-8.688937187194824,-3.211766242980957
1695712741694164200,1.789164306640625,0.16809579730033875,-7.80837869644165,-2.8426733016967773
1695712741704169700,1.799169677734375,-0.028115665540099144,-6.994220733642578,-3.039483070373535
1695712741714200600,1.80920068359375,0.12023933976888657,-7.8658061027526855,-3.7573297023773193
1695712741724264400,1.819264404296875,0.7956135272979736,-10.106684684753418,-3.8913278579711914
1695712741734298600,1.829298583984375,0.6903293132781982,-11.47119140625,-4.121636867523193
1695712741744302800,1.839302734375,-0.15254244208335876,-10.814960479736328,-3.3649067878723145
1695712741754334000,1.849333984375,-0.9236295223236084,-9.94397258758545,-2.7421748638153076
1695712741764369200,1.859369140625,-1.3639088869094849,-9.397810935974121,-2.5842485427856445
1695712741774400800,1.86940087890625,-1.5798611640930176,-8.62193775177002,-2.550748825073242
1695712741784432600,1.8794326171875,-1.3591232299804688,-8.38265609741211,-2.770888566970825
1695712741794464000,1.889464111328125,-1.0049854516983032,-8.129016876220703,-3.1830523014068604
1695712741804514600,1.8995146484375,-0.7992027401924133,-8.401798248291016,-3.336193084716797
1695712741814548000,1.9095478515625,-0.7130611538887024,-8.70807933807373,-3.1064820289611816
1695712741824559600,1.9195595703125,-0.6604190468788147,-8.789435386657715,-3.2452657222747803
1695712741834591000,1.929591064453125,-0.5838487148284912,-9.33559799194336,-3.5371899604797363
1695712741844650200,1.939650146484375,-0.8901300430297852,-9.555737495422363,-3.4031920433044434
1695712741854684200,1.94968408203125,-1.100698471069336,-9.747162818908691,-3.1351959705352783
1695712741864688600,1.959688720703125,-1.1437692642211914,-9.689735412597656,-2.526820659637451
1695712741874719500,1.969719482421875,-1.0336993932724,-10.192826271057129,-2.282752752304077
1695712741884779300,1.979779296875,-0.8374879360198975,-10.049257278442383,-1.516451358795166
1695712741894813200,1.989813232421875,-1.0432707071304321,-9.77109146118164,-2.0243279933929443
1695712741904845000,1.999844970703125,-1.0001999139785767,-9.613164901733398,-2.306680917739868
1695712741914878700,2.009878662109375,-0.9044869542121887,-9.474381446838379,-2.3162522315979004
1695712741924913700,2.01991357421875,-0.8183453679084778,-9.292527198791504,-2.196611166000366
1695712741934947300,2.029947265625,-0.8087740540504456,-9.249456405639648,-1.947757601737976
1695712741944948200,2.0399482421875,-0.6843472719192505,-8.971888542175293,-1.832902193069458
1695712741954978800,2.049978759765625,-0.794417142868042,-8.981459617614746,-1.5930216312408447
1695712741965009700,2.060009765625,-1.1389836072921753,-9.33559799194336,-1.4590235948562622
1695712741975040300,2.070040283203125,-1.306481122970581,-9.541379928588867,-1.6600207090377808
1695712741985106400,2.0801064453125,-1.2490534782409668,-9.45045280456543,-1.9764715433120728
1695712741995140600,2.090140625,-1.1389836072921753,-9.292527198791504,-2.3497519493103027
1695712742005167000,2.1001669921875,-1.0671988725662231,-9.230313301086426,-2.8283164501190186
1695712742015200500,2.110200439453125,-1.0241280794143677,-9.163313865661621,-3.187838077545166
1695712742025205200,2.120205322265625,-0.9571290612220764,-9.125029563903809,-3.36969256401062
1695712742035235600,2.130235595703125,-0.8614161610603333,-9.17288589477539,-3.2165517807006836
1695712742045270300,2.140270263671875,-0.9236295223236084,-9.397810935974121,-2.7038896083831787
1695712742055301000,2.150301025390625,-1.1054840087890625,-9.584450721740723,-2.3306093215942383
1695712742065333500,2.16033349609375,-1.038485050201416,-9.493523597717285,-2.038684844970703
1695712742075364600,2.170364501953125,-0.9475577473640442,-9.177671432495117,-1.8999011516571045
1695712742085398300,2.180398193359375,-0.8662018179893494,-8.924032211303711,-2.0721843242645264
1695712742095429600,2.1904296875,-0.7704889178276062,-9.20159912109375,-2.589034080505371
1695712742105492500,2.200492431640625,-0.6508477330207825,-9.278169631958008,-2.8522446155548096
1695712742115527200,2.210527099609375,-0.7848458290100098,-9.148957252502441,-2.943770170211792
1695712742125553400,2.220553466796875,-0.97148597240448,-9.010173797607422,-2.713460922241211
1695712742135587000,2.230587158203125,-1.1724830865859985,-9.043673515319824,-2.6225335597991943
1695712742145593000,2.240593017578125,-1.28255295753479,-9.182456970214844,-2.7661030292510986
1695712742155624000,2.2506240234375,-1.2634103298187256,-9.31166934967041,-2.881556749343872
1695712742165661200,2.2606611328125,-1.3112667798995972,-9.402596473693848,-2.799602508544922
1695712742175692500,2.270692626953125,-1.373480200767517,-9.369096755981445,-2.746960401535034
1695712742185729800,2.280729736328125,-1.277767300605774,-9.220742225646973,-2.6177480220794678
1695712742195762000,2.290761962890625,-1.1772687435150146,-9.010173797607422,-2.6368906497955322
1695712742205791500,2.30079150390625,-1.0432707071304321,-8.857032775878906,-2.7517459392547607
1695712742215823000,2.310822998046875,-1.0097711086273193,-8.799007415771484,-2.953341245651245
1695712742225884000,2.3208837890625,-0.9332008361816406,-8.952746391296387,-2.9389843940734863
1695712742235918800,2.3309189453125,-0.8422735929489136,-9.340383529663086,-2.8863422870635986
1695712742245913300,2.340913330078125,-0.8949156403541565,-9.818947792053223,-2.675175666809082
1695712742255944000,2.35094384765625,-1.0767701864242554,-9.953543663024902,-2.799602508544922
1695712742266013200,2.36101318359375,-1.1389836072921753,-9.7998046875,-3.0251259803771973
1695712742276047600,2.371047607421875,-1.1485549211502075,-9.397810935974121,-3.116053342819214
1695712742286077000,2.381076904296875,-1.1150553226470947,-9.120243072509766,-3.1304101943969727
1695712742296111000,2.391111083984375,-1.0241280794143677,-8.914461135864258,-2.9341988563537598
1695712742306118000,2.401117919921875,-1.0863415002822876,-8.995817184448242,-3.0729825496673584
1695712742316149000,2.41114892578125,-0.7322037220001221,-9.06281566619873,-2.9485557079315186
1695712742326198800,2.42119873046875,-0.6843472719192505,-9.192028045654297,-2.9341988563537598
1695712742336232200,2.431232177734375,-0.8949156403541565,-9.235098838806152,-2.837887763977051
1695712742346236400,2.441236328125,-0.8757730722427368,-9.354740142822266,-2.7038896083831787
1695712742356266800,2.451266845703125,-0.885344386100769,-9.407382011413574,-2.6847469806671143
1695712742366329000,2.4613291015625,-0.885344386100769,-9.330811500549316,-2.7900311946868896
1695712742376362800,2.47136279296875,-0.8805587291717529,-9.292527198791504,-2.87198543548584
1695712742386372400,2.481372314453125,-0.9188438653945923,-8.9910306930542,-2.833101987838745
1695712742396403500,2.491403564453125,-0.9332008361816406,-8.85224723815918,-2.953341245651245
1695712742406437400,2.501437255859375,-0.8662018179893494,-9.010173797607422,-2.785245656967163
1695712742416468700,2.51146875,-0.8614161610603333,-9.120243072509766,-2.8283164501190186
1695712742426509300,2.52150927734375,-0.8566305041313171,-9.105886459350586,-2.895913600921631
1695712742436541400,2.53154150390625,-0.9810572862625122,-9.014959335327148,-2.7421748638153076
1695712742446718700,2.54171875,-1.1485549211502075,-9.134600639343262,-2.785245656967163
1695712742456763600,2.551763671875,-1.1054840087890625,-9.670592308044434,-2.9389843940734863
1695712742466808600,2.56180859375,-1.191625714302063,-9.900901794433594,-2.3641088008880615
1695712742476686000,2.57168603515625,-1.5074782371520996,-9.407382011413574,-2.4646072387695312
1695712742486718000,2.581718017578125,-1.4500504732131958,-9.158528327941895,-2.723032236099243
1695712742496721400,2.591721435546875,-1.2729816436767578,-9.058030128479004,-2.785245656967163
1695712742506750500,2.60175048828125,-1.153340458869934,-9.067601203918457,-3.0251259803771973
1695712742516790000,2.6117900390625,-0.9906286001205444,-9.158528327941895,-2.8283164501190186
1695712742526820000,2.621820068359375,-1.0432707071304321,-9.230313301086426,-2.7565317153930664
1695712742536860000,2.63185986328125,-1.1054840087890625,-9.383454322814941,-2.6943182945251465
1695712742546891000,2.64189111328125,-1.0863415002822876,-9.45045280456543,-2.675175666809082
1695712742556920800,2.6519208984375,-1.062413215637207,-9.268598556518555,-2.60339093208313
1695712742566951700,2.66195166015625,-1.1102696657180786,-9.268598556518555,-2.6847469806671143
1695712742576979200,2.671979248046875,-1.1772687435150146,-9.20159912109375,-2.6368906497955322
1695712742587009800,2.682009765625,-1.0193424224853516,-9.263813018798828,-2.953341245651245
1695712742597070000,2.692070068359375,-0.9379864931106567,-9.268598556518555,-2.895913600921631
1695712742607103500,2.702103515625,-1.0336993932724,-9.115457534790039,-2.9964120388031006
1695712742617112300,2.7121123046875,-1.0911271572113037,-8.96231746673584,-3.0729825496673584
1695712742627143200,2.72214306640625,-0.9858429431915283,-9.4121675491333,-3.422334671020508
1695712742637179400,2.732179443359375,-0.9044869542121887,-9.838089942932129,-3.321835994720459
1695712742647211000,2.7422109375,-1.459621787071228,-9.019744873046875,-2.746960401535034
1695712742657226000,2.75222607421875,-1.5314065217971802,-8.598010063171387,-2.867199659347534
1695712742667255800,2.762255859375,-1.2203395366668701,-8.909674644470215,-2.8187451362609863
1695712742677323300,2.7723232421875,-1.0911271572113037,-9.527023315429688,-3.3170504570007324
1695712742687357200,2.782357177734375,-0.8327022790908813,-10.154541015625,-3.4127633571624756
1695712742697388000,2.792387939453125,-1.0145567655563354,-9.818947792053223,-3.1064820289611816
1695712742707421400,2.80242138671875,-1.153340458869934,-9.407382011413574,-3.0490541458129883
1695712742717462500,2.812462646484375,-1.0336993932724,-9.034101486206055,-2.5076780319213867
1695712742727496700,2.82249658203125,-1.1820544004440308,-8.373085021972656,-1.8855443000793457
1695712742737512700,2.8325126953125,-1.5696916580200195,-8.38265609741211,-2.187039852142334
1695712742747545000,2.842545166015625,-1.1485549211502075,-8.947959899902344,-2.5363919734954834
1695712742757574100,2.85257421875,-1.1581261157989502,-9.259027481079102,-2.9389843940734863
1695712742767606300,2.862606201171875,-1.34476637840271,-9.732806205749512,-2.794816732406616
1695712742777641000,2.872640869140625,-1.196411371231079,-10.135398864746094,-2.794816732406616
1695712742787673000,2.882673095703125,-0.9571290612220764,-9.90568733215332,-2.6943182945251465
1695712742797727700,2.892727783203125,-1.0480563640594482,-9.316454887390137,-2.6799614429473877
1695712742807762400,2.902762451171875,-1.3830515146255493,-8.373085021972656,-2.1343977451324463
1695712742817789400,2.91278955078125,-1.4165509939193726,-8.10987377166748,-2.2301106452941895
1695712742827823000,2.922822998046875,-1.2873386144638062,-8.315656661987305,-2.675175666809082
1695712742837857000,2.93285693359375,-1.057627558708191,-8.583653450012207,-3.187838077545166
1695712742847890700,2.942890625,-1.0815558433532715,-8.598010063171387,-3.8051862716674805
1695712742857920500,2.95292041015625,-1.2873386144638062,-8.387441635131836,-4.006781578063965
1695712742867954000,2.962953857421875,-1.7186448574066162,-8.349156379699707,-4.336990833282471
1695712742877949400,2.972949462890625,-2.0105693340301514,-8.60758113861084,-4.576273441314697
1695712742887978800,2.982978759765625,-2.0105693340301514,-8.779864311218262,-4.581058979034424
1695712742898018800,2.993018798828125,-1.2729816436767578,-8.641080856323242,-4.753342151641846
1695712742908049400,3.00304931640625,-1.5409778356552124,-9.024530410766602,-3.441477060317993
1695712742918088000,3.013087890625,-1.5170495510101318,-9.622735977172852,-2.2205393314361572
1695712742928119300,3.023119384765625,-1.0815558433532715,-9.915258407592773,-2.287538528442383
1695712742938171400,3.03317138671875,-0.7322037220001221,-10.240682601928711,-1.8233308792114258
1695712742948204800,3.043204833984375,-0.5982056856155396,-10.269396781921387,-1.693520188331604
1695712742958237000,3.05323681640625,-0.550349235534668,-10.097113609313965,-1.7126628160476685
1695712742968270000,3.06327001953125,-0.6508477330207825,-9.82373332977295,-2.014756679534912
1695712742978305300,3.07330517578125,-0.7657032608985901,-9.608379364013672,-2.383251428604126
1695712742988339000,3.0833388671875,-0.9236295223236084,-9.359525680541992,-2.5220351219177246
1695712742998338300,3.09333837890625,-1.1389836072921753,-9.206384658813477,-2.531606435775757
1695712743008368000,3.1033681640625,-1.3160524368286133,-9.220742225646973,-2.541177749633789
1695712743018436000,3.11343603515625,-1.3782658576965332,-9.18724250793457,-2.493321180343628
1695712743028470000,3.123469970703125,-1.28255295753479,-9.163313865661621,-2.5076780319213867
1695712743038493700,3.13349365234375,-1.153340458869934,-9.129815101623535,-2.5698914527893066
1695712743048526300,3.1435263671875,-0.9619147181510925,-9.019744873046875,-2.6273193359375
1695712743058502100,3.153502197265625,-0.8422735929489136,-8.986245155334473,-2.7182464599609375
1695712743068529200,3.163529052734375,-0.7130611538887024,-8.895318031311035,-2.7182464599609375
1695712743078621000,3.173620849609375,-0.6556333899497986,-8.842676162719727,-2.809173822402954
1695712743088654600,3.183654541015625,-0.6173482537269592,-8.871390342712402,-2.9629125595092773
1695712743098669000,3.1936689453125,-0.5694918036460876,-8.967103004455566,-3.0442686080932617
1695712743108701000,3.203700927734375,-0.5210371017456055,-8.914461135864258,-3.063411235809326
1695712743118757000,3.213757080078125,-0.49710890650749207,-8.636295318603516,-2.833101987838745
1695712743128791300,3.223791259765625,-0.31046873331069946,-8.871390342712402,-2.833101987838745
1695712743138795800,3.233795654296875,-0.008973085321485996,-9.708877563476562,-3.163909673690796
1695712743148827000,3.243826904296875,0.2111666053533554,-10.202397346496582,-3.283550977706909
1695712743158888400,3.253888427734375,0.3451646566390991,-10.197611808776855,-3.4366915225982666
1695712743168922600,3.263922607421875,0.46480581164360046,-9.665806770324707,-3.5132617950439453
1695712743178956300,3.273956298828125,0.41216370463371277,-9.134600639343262,-3.2691938877105713
1695712743188990500,3.283990478515625,0.4456632137298584,-8.440083503723145,-3.092125177383423
1695712743198990600,3.293990478515625,0.5946164131164551,-8.933603286743164,-3.637688636779785
1695712743209021200,3.304021240234375,0.9152546525001526,-9.488738059997559,-3.747758388519287
1695712743219053600,3.314053466796875,0.9918249845504761,-9.751948356628418,-3.7908291816711426
1695712743229084400,3.32408447265625,0.8721838593482971,-9.359525680541992,-3.628117322921753
1695712743239140900,3.334140869140625,0.5030909776687622,-8.641080856323242,-3.5371899604797363
1695712743249174300,3.34417431640625,-0.04247260093688965,-8.617152214050293,-3.5084762573242188
1695712743259170600,3.354170654296875,-0.267397940158844,-8.74636459350586,-3.6711881160736084
1695712743269200100,3.3642001953125,-0.14775680005550385,-8.933603286743164,-3.652045488357544
1695712743279274200,3.374274169921875,-0.018544375896453857,-9.07717227935791,-3.503690481185913
1695712743289308400,3.384308349609375,-0.04247260093688965,-9.17288589477539,-3.34576416015625
1695712743299319800,3.39431982421875,-0.20518454909324646,-9.263813018798828,-3.163909673690796
1695712743309351700,3.4043515625,-0.1908276081085205,-9.364311218261719,-2.60339093208313
1695712743319403500,3.414403564453125,0.07238288223743439,-9.431310653686523,-2.1200408935546875
1695712743329437400,3.4244375,0.13459627330303192,-9.522237777709961,-1.7940187454223633
1695712743339472400,3.434472412109375,0.03888336941599846,-9.737591743469238,-1.6121642589569092
1695712743349506300,3.44450634765625,0.03888336941599846,-9.953543663024902,-1.4877375364303589
1695712743359534600,3.45453466796875,0.06759724020957947,-10.063613891601562,-1.516451358795166
1695712743369568000,3.464568115234375,0.005383851006627083,-10.006186485290527,-1.6360924243927002
1695712743379603000,3.47460302734375,-0.12382857501506805,-9.833304405212402,-1.8083757162094116
1695712743389636600,3.48463671875,-0.22911277413368225,-9.761520385742188,-2.029113531112671
1695712743399639000,3.49463916015625,-0.3678964674472809,-9.737591743469238,-2.3306093215942383
1695712743409669400,3.50466943359375,-0.4492524564266205,-9.689735412597656,-2.6703901290893555
1695712743419698700,3.51469873046875,-0.4061816334724426,-9.737591743469238,-2.9724838733673096
1695712743429729000,3.52472900390625,-0.2913261651992798,-9.818947792053223,-3.2452657222747803
1695712743439796200,3.534796142578125,-0.1908276081085205,-9.804591178894043,-3.4510483741760254
1695712743449830400,3.544830322265625,-0.06161518394947052,-9.66102123260498,-3.6568312644958496
1695712743459839500,3.554839599609375,0.014955141581594944,-9.493523597717285,-3.8913278579711914
1695712743469871000,3.56487109375,-0.1860419660806656,-9.359525680541992,-4.179064750671387
1695712743479918300,3.57491845703125,-0.47796630859375,-9.349954605102539,-4.36091947555542
1695712743489951500,3.584951416015625,-0.8422735929489136,-9.354740142822266,-4.470989227294922
1695712743499964000,3.5949638671875,-1.3782658576965332,-9.464810371398926,-4.432703971862793
1695712743509995000,3.6049951171875,-1.9244276285171509,-9.723235130310059,-4.18863582611084
1695712743520021200,3.615021240234375,-2.6285157203674316,-9.92961597442627,-3.9972102642059326
1695712743530051800,3.6250517578125,-2.8342983722686768,-10.25503921508789,-3.6185460090637207
1695712743540113200,3.635113037109375,-3.135794162750244,-10.685748100280762,-3.2644083499908447
1695712743550146800,3.645146728515625,-3.55214524269104,-10.858031272888184,-3.0011978149414062
1695712743560185300,3.655185302734375,-4.026522159576416,-10.944770812988281,-2.8043880462646484
1695712743570219500,3.665219482421875,-4.031308174133301,-10.858031272888184,-2.5842485427856445
1695712743580247600,3.67524755859375,-3.744169235229492,-10.432108879089355,-2.5124638080596924
1695712743590281200,3.68528125,-3.0544381141662598,-9.66102123260498,-2.5363919734954834
1695712743600286500,3.695286376953125,-2.2546372413635254,-8.722436904907227,-3.0586254596710205
1695712743610317000,3.705317138671875,-1.1198409795761108,-7.932805061340332,-3.6329028606414795
1695712743620376800,3.715376953125,-0.028115665540099144,-7.2813591957092285,-4.150351047515869
1695712743630410200,3.72541015625,0.22073788940906525,-6.97986364364624,-4.269991874694824
1695712743640410000,3.73541015625,-1.057627558708191,-7.085147857666016,-4.035495281219482
1695712743650440200,3.745440185546875,-2.623729944229126,-7.238288402557373,-3.809971809387207
1695712743660471300,3.75547119140625,-3.6532418727874756,-7.3914289474487305,-3.661616802215576
1695712743670501400,3.76550146484375,-4.150949001312256,-7.386643409729004,-4.006781578063965
1695712743680551000,3.775551025390625,-4.179663181304932,-7.252645492553711,-4.059423446655273
1695712743690583000,3.7855830078125,-3.8494534492492676,-7.161718368530273,-3.9493536949157715
1695712743700604400,3.7956044921875,-3.5473594665527344,-7.271788120269775,-3.7094733715057373
1695712743710635500,3.805635498046875,-3.298506021499634,-7.2335028648376465,-3.3792638778686523
1695712743720676400,3.81567626953125,-3.188436269760132,-7.314858913421631,-2.9485557079315186
1695712743730708200,3.825708251953125,-2.9347970485687256,-7.262216567993164,-2.699103832244873
1695712743740765200,3.83576513671875,-2.89172625541687,-7.2813591957092285,-2.651247501373291
1695712743750799600,3.845799560546875,-2.9252257347106934,-7.267002582550049,-2.723032236099243
1695712743760833800,3.855833740234375,-2.8007988929748535,-7.046862602233887,-2.6225335597991943
1695712743770868200,3.8658681640625,-2.7625136375427246,-6.46241569519043,-2.50289249420166
1695712743780892000,3.875891845703125,-3.0448668003082275,-5.935994625091553,-2.9341988563537598
1695712743790925300,3.88592529296875,-3.355933666229248,-5.624329566955566,-3.1351959705352783
1695712743800946000,3.89594580078125,-3.662813186645508,-5.4759745597839355,-3.2069804668426514
1695712743810978000,3.90597802734375,-3.9260237216949463,-5.600401401519775,-3.43190598487854
1695712743821002500,3.91600244140625,-4.332803726196289,-5.907280921936035,-3.7094733715057373
1695712743831033900,3.926033935546875,-4.686941146850586,-6.357131481170654,-3.9158542156219482
1695712743841074200,3.93607421875,-5.07517671585083,-6.821937561035156,-3.978067636489868
1695712743851106300,3.946106201171875,-5.343173027038574,-7.161718368530273,-3.968496322631836
1695712743861121300,3.956121337890625,-5.314459323883057,-7.271788120269775,-3.8386857509613037
1695712743871151900,3.96615185546875,-5.13739013671875,-7.109076023101807,-3.6424741744995117
1695712743881351700,3.9763515625,-5.056034088134766,-6.759724140167236,-3.3744781017303467
1695712743891419400,3.98641943359375,-5.0464630126953125,-6.40020227432251,-3.053839921951294
1695712743901467000,3.996466796875,-5.1565327644348145,-6.318846225738525,-2.919841766357422
1695712743911303700,4.0063037109375,-5.367101192474365,-6.471987247467041,-2.991626501083374
1695712743921335000,4.0163349609375,-5.5106706619262695,-6.754340171813965,-3.139981508255005
1695712743931359000,4.02635888671875,-5.505885124206543,-7.10429048538208,-3.384049415588379
1695712743941389300,4.036389404296875,-5.520241737365723,-7.539783954620361,-3.7669010162353516
1695712743951423200,4.04642333984375,-5.601597785949707,-8.004590034484863,-4.155136585235596
1695712743961454000,4.0564541015625,-5.706881999969482,-8.416155815124512,-4.3896331787109375
1695712743971470600,4.066470703125,-5.7888360023498535,-8.626724243164062,-4.480560302734375
1695712743981500000,4.0765,-5.956333637237549,-8.822935104370117,-4.3752760887146
1695712743991542800,4.086542724609375,-6.018547058105469,-8.779864311218262,-4.107280254364014
1695712744001573600,4.09657373046875,-5.831906795501709,-8.531010627746582,-3.7094733715057373
1695712744011628500,4.106628662109375,-5.630311489105225,-8.172087669372559,-3.3266217708587646
1695712744021661700,4.11666162109375,-5.6685967445373535,-7.803592681884766,-3.1447670459747314
1695712744031670300,4.126670166015625,-5.7164530754089355,-7.410571575164795,-3.2644083499908447
1695712744041700900,4.136700927734375,-5.1804609298706055,-7.573283672332764,-4.030709743499756
1695712744051771400,4.146771484375,-4.452444553375244,-8.583653450012207,-5.672784328460693
1695712744061806000,4.15680615234375,-4.471587181091309,-9.871589660644531,-7.396812915802002
1695712744071802000,4.166802001953125,-5.371886730194092,-11.078768730163574,-8.656036376953125
1695712744081833000,4.1768330078125,-5.941977024078369,-11.499905586242676,-9.101698875427246
1695712744091897600,4.186897705078125,-5.736194133758545,-10.771889686584473,-8.316255569458008
1695712744101931800,4.196931884765625,-5.357530117034912,-9.656235694885254,-6.802794933319092
1695712744111965000,4.20696484375,-4.955535888671875,-9.08674430847168,-5.644070625305176
1695712744121998800,4.216998779296875,-4.624728202819824,-8.617152214050293,-4.633700847625732
1695712744132023800,4.22702392578125,-4.835894584655762,-7.999804496765137,-3.714258909225464
1695712744142057000,4.237056884765625,-5.185246467590332,-7.544569969177246,-2.9006991386413574
1695712744152067000,4.247067138671875,-4.60558557510376,-7.070790767669678,-2.4598217010498047
1695712744162098000,4.257097900390625,-2.465205430984497,-6.457630157470703,-2.1535403728485107
1695712744172143000,4.26714306640625,0.024526432156562805,-5.763711452484131,-2.0817556381225586
1695712744182175200,4.27717529296875,1.3938192129135132,-5.24626350402832,-2.5986053943634033
1695712744192214800,4.28721484375,1.7868403196334839,-5.251049518585205,-3.0442686080932617
1695712744202247700,4.29724755859375,1.2789636850357056,-5.797211170196533,-3.604189157485962
1695712744212279300,4.307279296875,-0.31046873331069946,-7.051648139953613,-4.107280254364014
1695712744222312200,4.317312255859375,-1.9818553924560547,-9.038887977600098,-4.231706619262695
1695712744232322800,4.32732275390625,-1.5798611640930176,-10.925628662109375,-4.303491592407227
1695712744242353400,4.337353515625,0.7429714202880859,-11.782258987426758,-4.64805793762207
1695712744252385000,4.347385009765625,2.8929226398468018,-11.284551620483398,-4.475774765014648
1695712744262415600,4.35741552734375,3.707080364227295,-10.269396781921387,-3.9014973640441895
1695712744272454400,4.367454345703125,3.036491870880127,-9.153742790222168,-3.4271202087402344
1695712744282485800,4.37748583984375,1.6528422832489014,-8.129016876220703,-3.4606196880340576
1695712744292546300,4.38754638671875,0.6711867451667786,-7.530212879180908,-3.5228331089019775
1695712744302580700,4.397580810546875,0.7381857633590698,-7.338787078857422,-3.3649067878723145
1695712744312601600,4.4076015625,1.29810631275177,-7.429714202880859,-3.360121250152588
1695712744322634800,4.417634765625,1.7868403196334839,-7.894520282745361,-3.446262836456299
1695712744332651300,4.4276513671875,2.107478618621826,-8.363512992858887,-3.3026933670043945
1695712744342682600,4.4376826171875,2.3515465259552,-9.144171714782715,-3.393620729446411
1695712744352730400,4.44773046875,2.404188632965088,-10.164112091064453,-3.197409152984619
1695712744362763300,4.45776318359375,2.241476535797119,-11.016555786132812,-2.9341988563537598
1695712744372800500,4.467800537109375,1.8490537405014038,-11.102697372436523,-2.1535403728485107
1695712744382834000,4.477833984375,1.7724833488464355,-10.3890380859375,-1.5020943880081177
1695712744392856000,4.48785595703125,2.131406784057617,-9.503094673156738,-1.1958130598068237
1695712744402888200,4.49788818359375,2.466402053833008,-8.770293235778809,-0.9421738982200623
1695712744412920000,4.507920166015625,2.035693883895874,-8.50708293914795,-0.908674418926239
1695712744422952200,4.5179521484375,1.2598211765289307,-8.712865829467773,-1.2245270013809204
1695712744432949800,4.52794970703125,0.6855437159538269,-8.813364028930664,-1.5499508380889893
1695712744442978600,4.537978515625,0.06759724020957947,-9.06281566619873,-1.8855443000793457
1695712744453080800,4.548080810546875,-0.4492524564266205,-9.158528327941895,-1.9334007501602173
1695712744463117000,4.558116943359375,-0.9523434042930603,-9.230313301086426,-1.9046868085861206
1695712744473102800,4.568102783203125,-1.1772687435150146,-9.479166984558105,-1.828116536140442
1695712744483134000,4.578134033203125,-1.191625714302063,-9.77109146118164,-1.7126628160476685
1695712744493165600,4.58816552734375,-0.698704183101654,-9.900901794433594,-1.6408780813217163
1695712744503197000,4.598197021484375,0.16331014037132263,-9.924830436706543,-1.4685949087142944
1695712744513223000,4.608222900390625,0.8769695162773132,-9.991828918457031,-1.4207384586334229
1695712744523253500,4.61825341796875,1.3938192129135132,-9.996614456176758,-1.44945228099823
1695712744533317600,4.628317626953125,1.7437695264816284,-9.675378799438477,-1.5643078088760376
1695712744543351600,4.6383515625,1.973480463027954,-9.192028045654297,-1.7700905799865723
1695712744553369900,4.648369873046875,1.9830517768859863,-8.70807933807373,-2.1822543144226074
1695712744563402200,4.65840234375,1.8442680835723877,-8.38265609741211,-2.6608188152313232
1695712744573439500,4.668439453125,1.3507484197616577,-8.224729537963867,-3.3888349533081055
1695712744583472400,4.678472412109375,0.6616154313087463,-8.172087669372559,-4.068994998931885
1695712744593506300,4.68850634765625,-0.10468599200248718,-8.23430061340332,-4.5236310958862305
1695712744603539200,4.698539306640625,-1.057627558708191,-8.492725372314453,-4.863411903381348
1695712744613560300,4.708560302734375,-1.8717855215072632,-9.038887977600098,-4.614558696746826
1695712744623592200,4.71859228515625,-2.1158533096313477,-9.828518867492676,-3.321835994720459
1695712744633621800,4.728621826171875,-1.2538390159606934,-10.935199737548828,-1.6360924243927002
1695712744643653000,4.738653076171875,0.12502498924732208,-11.949756622314453,-0.6640082597732544
1695712744653698300,4.7486982421875,1.5469598770141602,-12.132208824157715,-0.4007977843284607
1695712744663731200,4.758731201171875,1.9304096698760986,-11.399407386779785,-0.6113662123680115
1695712744673744100,4.768744140625,1.3746765851974487,-10.398609161376953,-0.6927221417427063
1695712744683775000,4.77877490234375,0.6711867451667786,-10.173684120178223,-0.2907279431819916
1695712744693839600,4.788839599609375,0.2877369225025177,-10.661819458007812,-0.15194423496723175
1695712744703874000,4.7988740234375,0.3451646566390991,-12.0604248046875,-0.20458634197711945
1695712744713873700,4.808873779296875,0.5030909776687622,-13.683356285095215,-0.3242274820804596
1695712744723904500,4.818904541015625,0.5467599630355835,-14.933008193969727,-0.5587241053581238
1695712744733939000,4.82893896484375,-0.04247260093688965,-14.655440330505371,-1.0235298871994019
1695712744743970000,4.838969970703125,-1.7042878866195679,-13.429717063903809,-1.51166570186615
1695712744754023000,4.84902294921875,-2.915654420852661,-12.68734359741211,-1.1527422666549683
1695712744764056300,4.859056396484375,-2.5800609588623047,-12.462418556213379,-0.7262216806411743
1695712744774101000,4.86910107421875,-2.2067806720733643,-12.337991714477539,-0.9517452120780945
1695712744784135400,4.879135498046875,-3.403790235519409,-12.108281135559082,-1.852044701576233
1695712744794164000,4.8891640625,-4.246662139892578,-11.35633659362793,-2.794816732406616
1695712744804198000,4.899197998046875,-3.0975089073181152,-10.814960479736328,-3.5706896781921387
1695712744814225400,4.909225341796875,0.24466611444950104,-10.633105278015137,-4.451846599578857
1695712744824258800,4.9192587890625,3.404986619949341,-10.915458679199219,-5.179862976074219
1695712744834296000,4.929296142578125,4.794020175933838,-11.882757186889648,-5.672784328460693
1695712744844329700,4.939329833984375,3.9080774784088135,-12.826128005981445,-6.329015731811523
1695712744854325500,4.949325439453125,2.3946173191070557,-12.792628288269043,-6.664011001586914
1695712744864355300,4.959355224609375,1.6002001762390137,-12.519845962524414,-6.2189459800720215
1695712744874413000,4.9694130859375,1.700698733329773,-12.318849563598633,-5.534000396728516
1695712744884445700,4.97944580078125,1.968694806098938,-11.59561824798584,-4.782055854797363
1695712744894480600,4.989480712890625,2.026122570037842,-11.193624496459961,-4.4374895095825195
1695712744904513300,4.99951318359375,0.8769695162773132,-11.322836875915527,-4.054637908935547
1695712744914535400,5.009535400390625,-0.5018945336341858,-11.399407386779785,-3.762115478515625
1695712744924567000,5.019567138671875,-0.22911277413368225,-11.236695289611816,-3.3649067878723145
1695712744934611200,5.029611083984375,0.6329016089439392,-10.954341888427734,-2.9389843940734863
1695712744944644000,5.03964404296875,1.2885349988937378,-10.61396312713623,-2.4263222217559814
1695712744954689000,5.04968896484375,1.609771490097046,-10.188040733337402,-1.9812572002410889
1695712744964723200,5.05972314453125,1.5134602785110474,-9.608379364013672,-1.602592945098877
1695712744974739500,5.069739501953125,1.2502498626708984,-8.602795600891113,-1.4350954294204712
1695712744984771800,5.079771728515625,1.168893814086914,-7.735995769500732,-1.3489537239074707
1695712744994830600,5.08983056640625,1.4608181715011597,-7.032505512237549,-1.5499508380889893
1695712745004865800,5.09986572265625,1.633699655532837,-6.6729841232299805,-1.7988044023513794
1695712745014882600,5.109882568359375,1.8299111127853394,-6.304489612579346,-1.8472590446472168
1695712745024915700,5.119915771484375,1.552343726158142,-5.490331649780273,-1.9860427379608154
1695712745034946600,5.129946533203125,1.4081761837005615,-4.575675010681152,-2.1343977451324463
1695712745044979500,5.1399794921875,1.2646067142486572,-3.9248273372650146,-2.3736801147460938
1695712745055012400,5.150012451171875,1.2693923711776733,-3.3308091163635254,-2.589034080505371
1695712745065045200,5.160045166015625,1.0683952569961548,-2.871387243270874,-2.8911280632019043
1695712745075063600,5.1700634765625,0.8482556343078613,-2.459223508834839,-3.1351959705352783
1695712745085095000,5.180094970703125,0.6137589812278748,-2.0572292804718018,-3.4510483741760254
1695712745095112700,5.19011279296875,0.4504488706588745,-1.8753747940063477,-3.6711881160736084
1695712745105142500,5.200142578125,0.09631111472845078,-2.042872428894043,-3.9254255294799805
1695712745115184400,5.210184326171875,-0.39182472229003906,-2.4496521949768066,-4.054637908935547
1695712745125215500,5.220215576171875,-0.8183453679084778,-2.809173822402954,-3.872185230255127
1695712745135249000,5.230248779296875,-1.5361921787261963,-3.077169895172119,-3.479762315750122
1695712745145280300,5.2402802734375,-2.633301258087158,-3.3643085956573486,-2.943770170211792
1695712745155299300,5.25029931640625,-3.9355950355529785,-3.8051862716674805,-2.493321180343628
1695712745165329400,5.260329345703125,-5.213960647583008,-4.4751763343811035,-2.3401806354522705
1695712745175399400,5.2703994140625,-7.603193759918213,-5.873781204223633,-2.4837498664855957
1695712745185433600,5.28043359375,-12.918251037597656,-8.363512992858887,-3.3122646808624268
1695712745195456000,5.2904560546875,-19.320846557617188,-11.394621849060059,-5.385645389556885
1695712745205489200,5.3004892578125,-19.33041763305664,-15.708880424499512,-7.5978102684021
1695712745215526000,5.31052587890625,-16.294523239135742,-21.55095672607422,-10.403992652893066
1695712745225559300,5.320559326171875,-13.435699462890625,-25.496721267700195,-9.690333366394043
1695712745235565300,5.3305654296875,-7.3399834632873535,-22.311874389648438,-5.103292465209961
1695712745245596000,5.340595947265625,-4.23230504989624,-16.460824966430664,-1.9860427379608154
1695712745255632000,5.3506318359375,-4.845465660095215,-10.494321823120117,-0.43908295035362244
1695712745265663000,5.3606630859375,-6.482754707336426,-4.729413986206055,0.6957131624221802
1695712745275720200,5.37072021484375,-6.745965003967285,-0.8171489238739014,1.150349497795105
1695712745285754000,5.380754150390625,-3.456432342529297,-0.22791635990142822,0.21655045449733734
1695712745295757000,5.390757080078125,1.5469598770141602,-2.981456995010376,-1.5882359743118286
1695712745305787600,5.40078759765625,6.3978095054626465,-5.078765869140625,-3.6711881160736084
1695712745315816400,5.41081640625,6.853044033050537,-6.653841495513916,-6.285944938659668
1695712745325847000,5.420846923828125,3.2518460750579834,-9.991828918457031,-8.459824562072754
1695712745335883000,5.430883056640625,-3.8733816146850586,-15.862021446228027,-9.264410972595215
1695712745345913900,5.440913818359375,-9.494720458984375,-20.473588943481445,-8.210970878601074
1695712745355975000,5.450974853515625,-1.1150553226470947,-19.08455467224121,-7.430312633514404
1695712745366008800,5.4610087890625,5.578866004943848,-14.023137092590332,-4.969294548034668
1695712745376015600,5.471015625,6.819544315338135,-9.120243072509766,-3.666402578353882
1695712745386047000,5.481046875,5.693721294403076,-5.222335338592529,-3.6233317852020264
1695712745396077000,5.4910771484375,3.9463627338409424,-2.957528829574585,-3.723830223083496
1695712745406108200,5.501108154296875,2.3467607498168945,-2.5357937812805176,-4.131208419799805
1695712745416140000,5.51114013671875,1.9016958475112915,-3.3930225372314453,-3.944568157196045
1695712745426171400,5.52117138671875,2.65842604637146,-5.542973518371582,-3.393620729446411
1695712745436207600,5.53120751953125,3.022135019302368,-8.569295883178711,-2.9772696495056152
1695712745446239200,5.5412392578125,2.169692039489746,-11.227124214172363,-2.895913600921631
1695712745456276000,5.55127587890625,1.1497513055801392,-13.070794105529785,-2.785245656967163
1695712745466308000,5.56130810546875,0.7429714202880859,-13.635499954223633,-2.8139593601226807
1695712745476351000,5.57135107421875,0.8578268885612488,-13.367504119873047,-2.8043880462646484
1695712745486384000,5.581384033203125,1.456032633781433,-12.113066673278809,-2.7661030292510986
1695712745496434700,5.5914345703125,1.85383939743042,-10.36510944366455,-2.579462766647339
1695712745506469600,5.6014697265625,1.9256240129470825,-8.7176513671875,-2.3641088008880615
1695712745516462300,5.61146240234375,1.3938192129135132,-7.520641803741455,-2.306680917739868
1695712745526493000,5.621492919921875,0.8865407705307007,-6.869793891906738,-2.172683000564575
1695712745536550400,5.63155029296875,0.4456632137298584,-6.783652305603027,-2.1056840419769287
1695712745546583800,5.641583740234375,-0.07597211748361588,-6.749554634094238,-2.2157537937164307
1695712745556593700,5.65159375,-0.5551348328590393,-6.812366008758545,-2.1918256282806396
1695712745566624500,5.66162451171875,-0.698704183101654,-7.267002582550049,-2.249253273010254
1695712745576693000,5.67169287109375,-0.7704889178276062,-7.7838521003723145,-2.210968017578125
1695712745586728000,5.68172802734375,-0.9379864931106567,-8.181658744812012,-2.2396819591522217
1695712745596751000,5.691751220703125,-0.7992027401924133,-8.564510345458984,-2.1200408935546875
1695712745606784800,5.70178466796875,-0.7704889178276062,-8.924032211303711,-1.9621145725250244
1695712745616823600,5.711823486328125,-0.4301098585128784,-9.043673515319824,-1.669592022895813
1695712745626857700,5.721857666015625,0.2111666053533554,-9.07717227935791,-1.5020943880081177
1695712745636853200,5.731853271484375,0.6855437159538269,-9.163313865661621,-1.3537393808364868
1695712745646883300,5.74188330078125,0.7190431952476501,-8.981459617614746,-1.2293126583099365
1695712745656942000,5.751942138671875,0.5946164131164551,-8.880961418151855,-1.2628121376037598
1695712745666975200,5.761975341796875,0.4265206456184387,-9.316454887390137,-1.2388839721679688
1695712745676981800,5.771981689453125,0.3930211067199707,-9.833304405212402,-1.1335997581481934
1695712745687012400,5.782012451171875,0.5467599630355835,-10.202397346496582,-1.119242787361145
1695712745697048300,5.79204833984375,0.29730820655822754,-10.604392051696777,-1.1240284442901611
1695712745707079200,5.8020791015625,-0.32961133122444153,-10.905887603759766,-1.114457130432129
1695712745717134600,5.812134521484375,-1.191625714302063,-11.112268447875977,-0.9900303483009338
1695712745727168000,5.82216796875,-1.9387845993041992,-11.313265800476074,-0.841675341129303
1695712745737181200,5.83218115234375,-2.1062822341918945,-11.739188194274902,-0.6735795736312866
1695712745747212500,5.842212646484375,-1.397408366203308,-11.988639831542969,-0.6831508874893188
1695712745757249800,5.852249755859375,-0.1381855010986328,-11.533405303955078,-0.9852447509765625
1695712745767281700,5.86228173828125,0.8578268885612488,-10.810174942016602,-1.186241865158081
1695712745777305900,5.872305908203125,1.571486234664917,-10.714461326599121,-0.966102123260498
1695712745787337000,5.8823369140625,1.6289139986038208,-11.0835542678833,-0.8464609980583191
1695712745797406000,5.892406005859375,0.8147560954093933,-11.447263717651367,-1.363310694694519
1695712745807441000,5.90244091796875,-0.607776939868927,-11.432906150817871,-2.201396942138672
1695712745817439500,5.912439453125,-2.638087034225464,-11.724830627441406,-2.8911280632019043
1695712745827470800,5.922470947265625,-4.308875560760498,-13.046865463256836,-3.336193084716797
1695712745837528000,5.932528076171875,-3.7010984420776367,-14.148161888122559,-3.0346972942352295
1695712745847562000,5.94256201171875,-2.407777786254883,-13.362717628479004,-1.9716858863830566
1695712745857579500,5.95257958984375,-2.4029922485351562,-12.361920356750488,-0.6400800347328186
1695712745867611600,5.962611572265625,-3.207578659057617,-11.906685829162598,0.21176479756832123
1695712745877636400,5.97263623046875,-2.599203586578369,-12.017353057861328,0.5377869009971619
1695712745887667700,5.982667724609375,-1.795215129852295,-11.380264282226562,-0.50129634141922
1695712745897700600,5.99270068359375,-1.2969099283218384,-10.98305606842041,-2.359323024749756
1695712745907732200,6.002732177734375,0.7286145091056824,-11.112268447875977,-3.675973892211914
1695712745917770800,6.012770751953125,3.668795347213745,-11.921042442321777,-4.466203689575195
1695712745927803100,6.02280322265625,4.837090969085693,-13.396217346191406,-5.151148796081543
1695712745937830400,6.032830322265625,4.252644062042236,-14.23430347442627,-5.734997749328613
1695712745947862000,6.042862060546875,3.1752755641937256,-14.286945343017578,-6.262016773223877
1695712745957916200,6.052916259765625,1.72941255569458,-13.999208450317383,-6.147161483764648
1695712745967950000,6.0629501953125,0.6424728631973267,-13.343575477600098,-5.730212211608887
1695712745977984300,6.072984375,1.1928220987319946,-12.739986419677734,-4.959722995758057
1695712745988018400,6.083018310546875,1.3555340766906738,-12.347562789916992,-4.734199523925781
1695712745998050800,6.09305078125,0.9104689955711365,-11.901900291442871,-4.743771076202393
1695712746008084700,6.103084716796875,-0.38703906536102295,-11.758330345153809,-4.638486862182617
1695712746018115000,6.113114990234375,-0.3678964674472809,-11.413763999938965,-4.408775806427002
1695712746028148500,6.1231484375,0.5132604837417603,-10.872387886047363,-3.747758388519287
1695712746038146300,6.133146240234375,1.1066805124282837,-10.211968421936035,-2.8283164501190186
1695712746048176400,6.14317626953125,1.2023934125900269,-9.598808288574219,-1.784447431564331
1695712746058214400,6.15321435546875,1.140179991722107,-9.125029563903809,-0.778863787651062
1695712746068245000,6.163244873046875,1.3651052713394165,-8.018946647644043,-0.7214360237121582
1695712746078302700,6.173302734375,1.6911274194717407,-6.6107707023620605,-1.1048858165740967
1695712746088336100,6.183336181640625,2.169692039489746,-5.43290376663208,-1.4590235948562622
1695712746098371000,6.19337109375,2.547757863998413,-4.9878387451171875,-1.6169499158859253
1695712746108404700,6.20340478515625,2.437688112258911,-4.748556613922119,-1.7653049230575562
1695712746118416100,6.213416015625,2.1170499324798584,-4.369892120361328,-2.0003998279571533
1695712746128447500,6.223447509765625,2.193620204925537,-4.164109706878662,-2.1296122074127197
1695712746138479000,6.23347900390625,2.097907304763794,-3.8147575855255127,-2.3976082801818848
1695712746148510500,6.243510498046875,1.9208383560180664,-3.570091485977173,-2.6464617252349854
1695712746158541600,6.25354150390625,1.7916259765625,-3.3164522647857666,-2.943770170211792
1695712746168573000,6.263572998046875,1.6911274194717407,-3.0245277881622314,-3.3026933670043945
1695712746178604300,6.273604248046875,1.475175142288208,-2.7182464599609375,-3.6472599506378174
1695712746188635600,6.2836357421875,1.1736794710159302,-2.4879374504089355,-3.906282901763916
1695712746198672000,6.293671875,0.7238288521766663,-2.492722988128662,-4.073780536651611
1695712746208703500,6.303703369140625,-0.008973085321485996,-2.7661030292510986,-4.193421840667725
1695712746218742800,6.31374267578125,-0.4540380835533142,-3.1585259437561035,-4.001996040344238
1695712746228775400,6.323775390625,-1.0719845294952393,-3.7334015369415283,-3.7716867923736572
1695712746238805500,6.333805419921875,-2.297708034515381,-4.298107624053955,-3.666402578353882
1695712746248838000,6.343837890625,-4.0935211181640625,-4.935196876525879,-3.503690481185913
1695712746258863000,6.353863037109375,-6.147759437561035,-5.907280921936035,-3.551547050476074
1695712746268894700,6.363894775390625,-11.989835739135742,-8.038089752197266,-4.011567115783691
1695712746278956800,6.373956787109375,-21.077775955200195,-11.969496726989746,-4.887340068817139
1695712746288991500,6.383991455078125,-20.88156509399414,-16.235898971557617,-6.099305152893066
1695712746298987500,6.393987548828125,-16.849658966064453,-21.076580047607422,-7.339385032653809
1695712746309018400,6.404018310546875,-14.364712715148926,-23.21695899963379,-8.057231903076172
1695712746319057700,6.4140576171875,-8.627920150756836,-19.71685791015625,-7.616952896118164
1695712746329089300,6.42408935546875,-4.840680122375488,-14.799010276794434,-6.515655994415283
1695712746339149300,6.4341494140625,-4.146163463592529,-10.369894981384277,-4.782055854797363
1695712746349183700,6.444183837890625,-4.0935211181640625,-6.615556240081787,-2.895913600921631
1695712746359215400,6.45421533203125,-4.174877166748047,-3.3403804302215576,-2.2779672145843506
1695712746369249500,6.46424951171875,-3.2410783767700195,-0.8506484627723694,-2.919841766357422
1695712746379279600,6.474279541015625,-0.8757730722427368,-0.30927231907844543,-4.490131855010986
1695712746389313500,6.4843134765625,0.6041877269744873,-2.4496521949768066,-7.114459991455078
1695712746399346200,6.49434619140625,3.8458642959594727,-4.570889472961426,-8.105687141418457
1695712746409379800,6.5043798828125,4.956732273101807,-6.089135646820068,-8.134400367736816
1695712746419381000,6.514381103515625,1.1880364418029785,-8.559724807739258,-7.545167922973633
1695712746429411000,6.5244111328125,-4.859822750091553,-12.376276969909668,-5.639284610748291
1695712746439446300,6.5344462890625,-8.790632247924805,-15.900306701660156,-3.604189157485962
1695712746449477000,6.54447705078125,-5.017749309539795,-17.356338500976562,-2.857030153274536
1695712746459507200,6.554507080078125,2.6057839393615723,-15.182459831237793,-3.8673996925354004
1695712746469537800,6.564537841796875,6.321238994598389,-11.337193489074707,-3.881756544113159
1695712746479602200,6.574602294921875,5.7134623527526855,-8.196015357971191,-4.241278171539307
1695712746489636400,6.58463623046875,3.3954153060913086,-6.060421466827393,-4.662415027618408
1695712746499663400,6.594663330078125,0.900897741317749,-4.322035789489746,-4.633700847625732
1695712746509696800,6.60469677734375,-0.17647066712379456,-4.432105541229248,-3.6424741744995117
1695712746519737000,6.614737060546875,0.9200403094291687,-6.2327046394348145,-2.4263222217559814
1695712746529771300,6.624771240234375,2.562114953994751,-8.655437469482422,-1.688734531402588
1695712746539794700,6.634794677734375,2.5914268493652344,-10.62831974029541,-1.674377679824829
1695712746549827800,6.644827880859375,1.6432709693908691,-12.098709106445312,-1.7700905799865723
1695712746559862300,6.6548623046875,0.4743770956993103,-13.008580207824707,-1.9142581224441528
1695712746569895400,6.6648955078125,0.4169493317604065,-12.940982818603516,-2.0195422172546387
1695712746579924500,6.674924560546875,0.8291130661964417,-11.935399055480957,-2.2636101245880127
1695712746589957400,6.684957275390625,1.3507484197616577,-10.633105278015137,-2.3497519493103027
1695712746599962600,6.694962646484375,1.8203397989273071,-9.565308570861816,-2.258824586868286
1695712746609992700,6.70499267578125,1.7533408403396606,-8.784649848937988,-1.9525432586669922
1695712746620023600,6.7150234375,1.0923235416412354,-8.0955171585083,-1.8759729862213135
1695712746630053400,6.725053466796875,0.48394837975502014,-7.41535758972168,-1.7940187454223633
1695712746640117500,6.735117431640625,0.06759724020957947,-6.807580471038818,-1.8376877307891846
1695712746650151000,6.74515087890625,-0.3152543902397156,-6.52462911605835,-1.9381862878799438
1695712746660155000,6.75515478515625,-0.8949156403541565,-6.424130439758301,-1.8999011516571045
1695712746670185200,6.765185302734375,-1.3926228284835815,-6.692126750946045,-2.00518536567688
1695712746680249300,6.775249267578125,-2.039283037185669,-7.401000499725342,-1.9812572002410889
1695712746690283300,6.785283203125,-2.5082762241363525,-8.291728973388672,-1.4638092517852783
1695712746700318000,6.79531787109375,-2.0919251441955566,-9.259027481079102,-0.6113662123680115
1695712746710352000,6.805351806640625,-1.397408366203308,-9.92961597442627,-0.09930214285850525
1695712746720365000,6.815364990234375,-0.7226324677467346,-10.034899711608887,0.02512463741004467
1695712746730397000,6.82539697265625,-0.03290131315588951,-9.876375198364258,-0.0323031060397625
1695712746740448800,6.83544873046875,0.5946164131164551,-9.766305923461914,-0.061016976833343506
1695712746750482700,6.845482666015625,1.207179069519043,-9.316454887390137,-0.33379876613616943
1695712746760508000,6.8555078125,1.475175142288208,-8.900103569030762,-0.8368897438049316
1695712746770540800,6.865540771484375,1.5086746215820312,-8.688937187194824,-1.51166570186615
1695712746780543200,6.875543212890625,1.3459627628326416,-8.741579055786133,-1.9956140518188477
1695712746790573000,6.885572998046875,1.0396814346313477,-9.043673515319824,-2.297109842300415
1695712746800640800,6.895640869140625,0.27337998151779175,-9.570094108581543,-2.416750907897949
1695712746810674400,6.90567431640625,-0.8422735929489136,-10.087542533874512,-2.4023938179016113
1695712746820680200,6.91568017578125,-2.000998020172119,-10.661819458007812,-2.3497519493103027
1695712746830711300,6.925711181640625,-2.638087034225464,-11.590832710266113,-1.8233308792114258
1695712746840773600,6.935773681640625,-1.6995022296905518,-12.462418556213379,-0.966102123260498
1695712746850807600,6.9458076171875,-0.14297115802764893,-12.8691987991333,-0.5539384484291077
1695712746860796400,6.95579638671875,0.8243274092674255,-12.366705894470215,-0.8273184299468994
1695712746870825700,6.96582568359375,0.7812566161155701,-11.404192924499512,-1.1575279235839844
1695712746880899300,6.9758994140625,0.12502498924732208,-10.930414199829102,-1.1383854150772095
1695712746890933200,6.985933349609375,-0.9571290612220764,-11.150553703308105,-1.1766705513000488
1695712746900939300,6.995939208984375,-2.2785654067993164,-11.533405303955078,-1.4063814878463745
1695712746910970400,7.005970458984375,-3.5234313011169434,-12.2135648727417,-1.8951154947280884
1695712746920996400,7.015996337890625,-3.3128628730773926,-13.424931526184082,-2.1822543144226074
1695712746931027000,7.02602685546875,-2.527418851852417,-14.210375785827637,-2.100898265838623
1695712746941069800,7.03606982421875,-2.589632272720337,-13.688141822814941,-1.5308083295822144
1695712746951101700,7.046101806640625,-2.963510751724243,-13.04207992553711,-0.4821537733078003
1695712746961127400,7.05612744140625,-2.6039891242980957,-12.615559577941895,-0.18544375896453857
1695712746971158800,7.06615869140625,-1.7330018281936646,-12.093923568725586,-0.9373882412910461
1695712746981222000,7.076221923828125,-1.3543375730514526,-11.418549537658691,-1.9812572002410889
1695712746991256300,7.08625634765625,-0.698704183101654,-11.20798110961914,-3.163909673690796
1695712747001286400,7.096286376953125,1.0061819553375244,-11.523834228515625,-3.896113395690918
1695712747011320300,7.1063203125,2.490330219268799,-12.270992279052734,-4.5236310958862305
1695712747021340000,7.11633984375,2.59621262550354,-13.23829174041748,-5.60099983215332
1695712747031372300,7.126372314453125,1.8873388767242432,-13.893924713134766,-6.7310099601745605
1695712747041414100,7.1364140625,1.3555340766906738,-13.869996070861816,-6.860222339630127
1695712747051447600,7.146447509765625,0.9056833982467651,-13.60200023651123,-6.754938125610352
1695712747061490200,7.156490234375,1.9926230907440186,-12.850055694580078,-6.305087566375732
1695712747071524400,7.1665244140625,2.4807589054107666,-11.868400573730469,-5.294718265533447
1695712747081545200,7.176545166015625,1.8586249351501465,-10.829317092895508,-4.8538408279418945
1695712747091578000,7.186578125,0.6329016089439392,-10.298110008239746,-4.246063709259033
1695712747101579000,7.1965791015625,-0.760917603969574,-10.010972023010254,-3.8865420818328857
1695712747111608800,7.20660888671875,-0.8662018179893494,-9.651450157165527,-3.4510483741760254
1695712747121651200,7.216651123046875,0.24945175647735596,-9.397810935974121,-2.60339093208313
1695712747131682300,7.226682373046875,1.2167502641677856,-9.148957252502441,-1.6839489936828613
1695712747141715200,7.236715087890625,1.4656038284301758,-8.914461135864258,-0.8943174481391907
1695712747151746600,7.24674658203125,1.2837493419647217,-8.583653450012207,-0.39122650027275085
1695712747161805300,7.256805419921875,1.073180913925171,-7.913662910461426,-0.486939400434494
1695712747171839200,7.266839111328125,1.384247899055481,-7.176074981689453,-0.8943174481391907
1695712747181844000,7.276843994140625,1.4847464561462402,-6.357131481170654,-1.277169108390808
1695712747191875000,7.286875,1.4656038284301758,-5.749354839324951,-1.7700905799865723
1695712747201905200,7.2969052734375,1.7820546627044678,-5.413761138916016,-1.9525432586669922
1695712747211936000,7.30693603515625,1.542174220085144,-5.1840500831604,-2.1822543144226074
1695712747221978400,7.316978271484375,1.412961721420288,-4.796412944793701,-2.4406790733337402
1695712747232010200,7.32701025390625,1.164108157157898,-4.097110748291016,-2.60339093208313
1695712747242066000,7.33706591796875,0.9104689955711365,-3.5509488582611084,-2.837887763977051
1695712747252100600,7.3471005859375,0.867398202419281,-3.014956474304199,-3.3505499362945557
1695712747262094600,7.357094482421875,0.9152546525001526,-2.578864574432373,-3.992424488067627
1695712747272125000,7.367125,0.7573283910751343,-2.272583246231079,-4.518845558166504
1695712747282168600,7.37716845703125,0.45523449778556824,-2.224726915359497,-4.762913703918457
1695712747292200200,7.3872001953125,0.12502498924732208,-2.3682961463928223,-4.810770034790039
1695712747302239700,7.39723974609375,-0.36311084032058716,-2.823530673980713,-4.475774765014648
1695712747312272400,7.4072724609375,-0.97148597240448,-3.3020951747894287,-3.8386857509613037
1695712747322305000,7.417304931640625,-1.6803597211837769,-3.6370904445648193,-3.3074791431427
1695712747332337700,7.427337646484375,-2.8486554622650146,-3.824328899383545,-3.015554666519165
1695712747342378800,7.437378662109375,-4.299304008483887,-4.331607341766357,-2.794816732406616
1695712747352412200,7.447412109375,-7.272984504699707,-5.5860443115234375,-2.87198543548584
1695712747362434000,7.45743408203125,-14.80977725982666,-8.186444282531738,-3.699902057647705
1695712747372466200,7.467466064453125,-22.634307861328125,-11.294122695922852,-6.151947021484375
1695712747382499800,7.477499755859375,-20.287546157836914,-15.354743003845215,-8.091329574584961
1695712747392532000,7.487531982421875,-17.32403564453125,-22.173091888427734,-10.619346618652344
1695712747402558000,7.497557861328125,-13.713266372680664,-26.056642532348633,-11.696715354919434
1695712747412589600,7.507589599609375,-7.263412952423096,-21.369102478027344,-8.890532493591309
1695712747422632000,7.5176318359375,-4.658227443695068,-14.889937400817871,-5.586642742156982
1695712747432664600,7.52766455078125,-4.821537494659424,-8.822935104370117,-1.9812572002410889
1695712747442688300,7.537688232421875,-5.367101192474365,-3.8673996925354004,-0.10408778488636017
1695712747452720000,7.54772021484375,-4.692325115203857,-0.8075776696205139,-0.20937198400497437
1695712747462766300,7.557766357421875,-2.8342983722686768,-0.9320043921470642,-1.5690934658050537
1695712747472799700,7.5677998046875,-0.6747759580612183,-4.183252334594727,-2.555534601211548
1695712747482808000,7.57780810546875,3.266202926635742,-7.286144733428955,-3.4127633571624756
1695712747492838700,7.587838623046875,5.416153907775879,-10.408180236816406,-5.065007209777832
1695712747502900500,7.597900390625,2.691925525665283,-14.650654792785645,-6.888936519622803
1695712747512934400,7.607934326171875,-1.6755740642547607,-18.629919052124023,-5.9264235496521
1695712747522939600,7.617939697265625,-1.153340458869934,-18.35713768005371,-4.676771640777588
1695712747532970500,7.627970458984375,4.669593334197998,-14.057234764099121,-4.2987060546875
1695712747543002400,7.63800244140625,7.5708909034729,-9.254241943359375,-4.23649263381958
1695712747553033200,7.648033203125,7.058826923370361,-5.907280921936035,-5.333003520965576
1695712747563070500,7.658070556640625,5.248656272888184,-3.90568470954895,-6.314659118652344
1695712747573102000,7.66810205078125,3.414557933807373,-2.6703901290893555,-6.869793891906738
1695712747583161900,7.678161865234375,2.155334949493408,-2.746960401535034,-6.927221775054932
1695712747593196300,7.6881962890625,1.7820546627044678,-4.288536548614502,-5.931209087371826
1695712747603199000,7.698198974609375,2.1122641563415527,-7.252645492553711,-4.557130813598633
1695712747613230000,7.70822998046875,2.485544443130493,-10.116255760192871,-3.331407308578491
1695712747623263000,7.718262939453125,2.4951157569885254,-12.443276405334473,-2.038684844970703
1695712747633294300,7.72829443359375,1.5230315923690796,-13.688141822814941,-1.4159528017044067
1695712747643329500,7.73832958984375,0.7908278703689575,-13.539787292480469,-1.4925230741500854
1695712747653361200,7.748361083984375,0.5946164131164551,-12.256635665893555,-1.4446666240692139
1695712747663396900,7.75839697265625,0.623330295085907,-10.829317092895508,-1.1623135805130005
1695712747673429000,7.768428955078125,0.7812566161155701,-9.675378799438477,-0.8273184299468994
1695712747683454700,7.778454833984375,0.6424728631973267,-8.62193775177002,-0.7166503667831421
1695712747693486300,7.788486328125,0.3978067636489868,-7.7216386795043945,-0.8991031050682068
1695712747703543800,7.798543701171875,0.29730820655822754,-7.1856465339660645,-1.2245270013809204
1695712747713578000,7.808577880859375,0.2590230405330658,-6.932007312774658,-1.7892330884933472
1695712747723618000,7.8186181640625,0.03409772366285324,-6.845865726470947,-2.287538528442383
1695712747733652700,7.82865283203125,-0.4492524564266205,-6.836294174194336,-2.6608188152313232
1695712747743648300,7.838648193359375,-0.8709874153137207,-7.171289443969727,-2.7038896083831787
1695712747753679000,7.84867919921875,-0.9044869542121887,-7.779066562652588,-2.4646072387695312
1695712747763742500,7.858742431640625,-0.9044869542121887,-8.363512992858887,-2.0865414142608643
1695712747773776400,7.8687763671875,-0.6221339106559753,-8.85224723815918,-1.6169499158859253
1695712747783808500,7.87880859375,0.029312077909708023,-9.08674430847168,-1.363310694694519
1695712747793842400,7.888842529296875,0.7238288521766663,-9.072386741638184,-1.2484551668167114
1695712747803876600,7.898876708984375,1.3124631643295288,-8.81814956665039,-1.205384373664856
1695712747813910500,7.90891064453125,1.6959130764007568,-8.464012145996094,-1.277169108390808
1695712747823910000,7.918909912109375,1.7772690057754517,-8.550153732299805,-1.5738791227340698
1695712747833940200,7.928940185546875,1.4656038284301758,-9.239884376525879,-2.038684844970703
1695712747844010500,7.939010498046875,0.6999006271362305,-10.188040733337402,-2.2396819591522217
1695712747854045000,7.949044921875,-0.3966103494167328,-10.881958961486816,-2.201396942138672
1695712747864040400,7.95904052734375,-1.5553346872329712,-11.203195571899414,-1.8951154947280884
1695712747874070800,7.96907080078125,-3.0305099487304688,-10.99741268157959,-1.5595221519470215
1695712747884133600,7.979133544921875,-4.0217366218566895,-10.881958961486816,-1.3010972738265991
1695712747894167300,7.989167236328125,-3.442075490951538,-11.375478744506836,-0.7597211599349976
1695712747904194800,7.99919482421875,-1.397408366203308,-12.117852210998535,-0.43908295035362244
1695712747914228000,8.00922802734375,0.5850451588630676,-12.093923568725586,-0.8656035661697388
1695712747924265500,8.019265380859375,1.6719847917556763,-11.49512004852295,-1.2628121376037598
1695712747934299000,8.029298828125,1.6911274194717407,-11.198410034179688,-1.272383451461792
1695712747944324900,8.039324951171874,1.144965648651123,-11.68175983428955,-1.0043872594833374
1695712747954357800,8.049357666015625,0.14416755735874176,-12.443276405334473,-1.4111671447753906
1695712747964373000,8.059373046875,-1.062413215637207,-12.538989067077637,-2.3401806354522705
1695712747974403800,8.06940380859375,-2.968296527862549,-12.902697563171387,-3.226123094558716
1695712747984455400,8.079455322265625,-4.35673189163208,-13.798212051391602,-3.9828531742095947
1695712747994488600,8.089488525390625,-3.9116668701171875,-13.664214134216309,-2.9724838733673096
1695712748004526000,8.099526123046875,-3.7633118629455566,-13.089936256408691,-1.0666006803512573
1695712748014559500,8.1095595703125,-3.7058839797973633,-12.873984336853027,0.37507495284080505
1695712748024555300,8.11955517578125,-2.536990165710449,-12.806984901428223,0.96370929479599
1695712748034585000,8.129585205078126,-0.6460621356964111,-12.069995880126953,0.4660021960735321
1695712748044618000,8.139617919921875,0.7956135272979736,-11.303693771362305,-0.5395814776420593
1695712748054648000,8.14964794921875,2.231905221939087,-11.375478744506836,-2.0865414142608643
1695712748064684800,8.159684814453126,3.707080364227295,-12.266206741333008,-3.541975736618042
1695712748074715400,8.16971533203125,3.7884364128112793,-13.195219993591309,-5.07936429977417
1695712748084775700,8.179775634765624,3.4097721576690674,-13.817354202270508,-5.950351715087891
1695712748094809300,8.189809326171876,3.074777126312256,-13.841282844543457,-6.429514408111572
1695712748104837400,8.19983740234375,2.437688112258911,-13.917853355407715,-6.553941249847412
1695712748114870500,8.20987060546875,2.7637102603912354,-13.310075759887695,-6.544369697570801
1695712748124921000,8.219921142578125,3.0412776470184326,-12.414562225341797,-6.099305152893066
1695712748134955800,8.229955810546874,2.0691933631896973,-11.791830062866211,-5.605785369873047
1695712748144982800,8.239982666015624,0.05802594870328903,-11.834900856018066,-5.117649555206299
1695712748155016700,8.2500166015625,-1.1054840087890625,-11.619546890258789,-4.657629489898682
1695712748165043700,8.260043701171876,-0.2721835672855377,-10.87717342376709,-4.078566074371338
1695712748175076900,8.270076904296875,0.776470959186554,-10.082756042480469,-3.053839921951294
1695712748185115400,8.280115478515626,1.3698909282684326,-9.21117115020752,-2.0338993072509766
1695712748195149000,8.290149169921875,1.537388563156128,-8.636295318603516,-0.9469595551490784
1695712748205167400,8.30016748046875,1.475175142288208,-7.668996810913086,0.11605189740657806
1695712748215199500,8.310199462890624,1.293320655822754,-6.227919101715088,0.4420739710330963
1695712748225203700,8.32020361328125,1.6145570278167725,-5.126622676849365,0.4707878530025482
1695712748235233000,8.33023291015625,1.85383939743042,-4.484747886657715,0.13519448041915894
1695712748245282300,8.3402822265625,2.083550214767456,-3.991826295852661,-0.31465616822242737
1695712748255313700,8.350313720703125,1.8203397989273071,-3.3930225372314453,-0.9613165259361267
1695712748265362400,8.360362548828125,1.949552297592163,-3.2590243816375732,-1.4685949087142944
1695712748275395600,8.3703955078125,1.7820546627044678,-3.2781670093536377,-2.0243279933929443
1695712748285400600,8.380400634765625,1.470389485359192,-3.3786656856536865,-2.5938198566436768
1695712748295430700,8.3904306640625,1.2741780281066895,-3.531806230545044,-3.063411235809326
1695712748305472300,8.40047216796875,1.0875378847122192,-3.5748770236968994,-3.4749767780303955
1695712748315503400,8.41050341796875,0.8913264274597168,-3.589233875274658,-3.872185230255127
1695712748325551400,8.42055126953125,0.6281159520149231,-3.5605201721191406,-4.3178486824035645
1695712748335584300,8.430584228515626,0.35473597049713135,-3.531806230545044,-4.638486862182617
1695712748345618700,8.44061865234375,-0.028115665540099144,-3.6227335929870605,-4.753342151641846
1695712748355651800,8.45065185546875,-0.5407779216766357,-3.7812578678131104,-4.676771640777588
1695712748365665300,8.460665283203125,-1.2969099283218384,-4.111467361450195,-4.490131855010986
1695712748375696400,8.4706962890625,-2.4269204139709473,-4.647459983825684,-4.183850288391113
1695712748385723400,8.480723388671874,-4.050450325012207,-5.327619552612305,-3.9397823810577393
1695712748395754000,8.49075390625,-5.635097503662109,-6.1944193840026855,-3.7669010162353516
1695712748405791200,8.500791259765625,-10.423733711242676,-7.731209754943848,-3.992424488067627
1695712748415822600,8.510822509765624,-19.13839340209961,-10.508678436279297,-5.318646430969238
1695712748425885200,8.52088525390625,-21.91107749938965,-13.520644187927246,-7.2436723709106445
1695712748435920000,8.530919921875,-18.621543884277344,-18.34278106689453,-8.507680892944336
1695712748446069500,8.541069580078124,-15.973287582397461,-22.73839569091797,-9.058030128479004
1695712748456114000,8.551114013671874,-10.969895362854004,-22.07259178161621,-7.281957626342773
1695712748466158600,8.56115869140625,-5.6925249099731445,-17.456836700439453,-4.604987144470215
1695712748476039700,8.571039794921875,-4.855037212371826,-12.055638313293457,-2.837887763977051
1695712748486071600,8.581071533203126,-5.1182475090026855,-6.495915412902832,-1.296311616897583
1695712748496082700,8.591082763671874,-5.831906795501709,-1.846660852432251,-0.1136590763926506
1695712748506112500,8.601112548828125,-6.286543369293213,0.729810893535614,-0.5539384484291077
1695712748516145700,8.611145751953124,-3.8590247631073,-1.1856436729431152,-1.7796618938446045
1695712748526175700,8.62117578125,0.8291130661964417,-5.0979084968566895,-1.5930216312408447
1695712748536223500,8.631223388671875,7.475177764892578,-7.788637638092041,-1.8807586431503296
1695712748546255400,8.64125537109375,9.022137641906738,-10.034899711608887,-4.260420799255371
1695712748556277800,8.65127783203125,4.424927234649658,-14.267803192138672,-6.367300987243652
1695712748566308600,8.66130859375,-5.218746185302734,-19.286149978637695,-7.042675018310547
1695712748576340200,8.67134033203125,-5.376672267913818,-19.228124618530273,-7.846663475036621
1695712748586371000,8.68137109375,3.7022948265075684,-14.952150344848633,-6.922435760498047
1695712748596417000,8.6914169921875,7.3986077308654785,-9.790233612060547,-4.820341110229492
1695712748606449400,8.701449462890626,6.963113784790039,-5.43290376663208,-4.8299126625061035
1695712748616493300,8.711493408203125,5.258227825164795,-2.8043880462646484,-5.01715087890625
1695712748626527000,8.72152685546875,3.1034910678863525,-2.076371908187866,-5.567500114440918
1695712748636557600,8.7315576171875,1.815554141998291,-2.6081767082214355,-5.931209087371826
1695712748646591000,8.741591064453125,1.3986048698425293,-4.369892120361328,-5.232504844665527
1695712748656627700,8.751627685546875,1.8203397989273071,-7.410571575164795,-4.155136585235596
1695712748666661000,8.7616611328125,2.207977056503296,-10.307682037353516,-3.527618885040283
1695712748676680400,8.771680419921875,2.318047046661377,-12.304491996765137,-2.6799614429473877
1695712748686712600,8.781712646484374,2.1266210079193115,-13.243077278137207,-2.2157537937164307
1695712748696751900,8.791751953125,1.9256240129470825,-13.26700496673584,-1.9094724655151367
1695712748706784800,8.80178466796875,1.9399809837341309,-12.873984336853027,-1.6360924243927002
1695712748716790500,8.81179052734375,1.8346967697143555,-11.648261070251465,-1.4063814878463745
1695712748726820600,8.821820556640626,1.9112670421600342,-10.757532119750977,-0.9373882412910461
1695712748736892200,8.83189208984375,1.6576279401779175,-9.833304405212402,-0.4582255482673645
1695712748746926300,8.84192626953125,1.4943177700042725,-8.880961418151855,-0.1136590763926506
1695712748756938800,8.851938720703124,1.3028919696807861,-7.966304779052734,0.06340979784727097
1695712748766971000,8.861970947265625,1.0348957777023315,-7.286144733428955,-0.18544375896453857
1695712748777010400,8.872010498046874,-0.09032905846834183,-6.946363925933838,-1.0713863372802734
1695712748787043300,8.882043212890625,-1.0432707071304321,-6.865008354187012,-1.7988044023513794
1695712748797074400,8.892074462890625,-1.210768222808838,-7.214360237121582,-2.2396819591522217
1695712748807107000,8.902107177734376,-1.550549030303955,-7.8418779373168945,-2.531606435775757
1695712748817144000,8.91214404296875,-1.4213366508483887,-8.420941352844238,-2.282752752304077
1695712748827177200,8.92217724609375,-0.6843472719192505,-8.799007415771484,-1.8233308792114258
1695712748837184000,8.93218408203125,0.3355933725833893,-8.698508262634277,-1.5499508380889893
1695712748847214300,8.94221435546875,1.054038405418396,-8.176873207092285,-1.454237937927246
1695712748857280300,8.9522802734375,1.2502498626708984,-7.467999458312988,-1.7413766384124756
1695712748867314400,8.962314453125,1.4225330352783203,-7.310073375701904,-2.5076780319213867
1695712748877338600,8.972338623046875,1.7102699279785156,-8.02373218536377,-3.3505499362945557
1695712748887371800,8.982371826171875,1.317248821258545,-9.474381446838379,-3.3744781017303467
1695712748897396000,8.99239599609375,-0.14775680005550385,-10.814960479736328,-2.5986053943634033
1695712748907428400,9.002428466796875,-2.0823538303375244,-11.432906150817871,-1.4973087310791016
1695712748917462800,9.012462890625,-3.6915271282196045,-11.437692642211914,-0.31465616822242737
1695712748927495200,9.0224951171875,-4.136591911315918,-11.514262199401855,0.5617151260375977
1695712748937503500,9.03250341796875,-3.064009428024292,-12.017353057861328,0.8919246196746826
1695712748947533300,9.042533203125,-1.2921242713928223,-12.333206176757812,0.48035913705825806
1695712748957584600,9.052584716796876,0.03409772366285324,-11.504691123962402,-0.20937198400497437
1695712748967616500,9.062616455078125,0.656829833984375,-10.642677307128906,-0.5778666734695435
1695712748977649000,9.07264892578125,0.7046862840652466,-10.905887603759766,-0.28594231605529785
1695712748987681000,9.082680908203125,-0.10468599200248718,-12.141779899597168,-0.20458634197711945
1695712748997725400,9.092725341796875,-1.526620864868164,-13.16650676727295,-0.6735795736312866
1695712749007758800,9.1027587890625,-3.4468610286712646,-13.97528076171875,-0.9804590940475464
1695712749017787400,9.112787353515625,-3.844667673110962,-15.144174575805664,-0.5635097622871399
1695712749027820300,9.1228203125,-3.4229328632354736,-15.345171928405762,-0.2476571500301361
1695712749037854200,9.132854248046876,-4.098307132720947,-14.20559024810791,-0.3002992272377014
1695712749047887000,9.14288720703125,-3.9212381839752197,-13.171292304992676,-0.11844471842050552
1695712749057912000,9.152912109375,-1.9100706577301025,-12.500703811645508,-0.6352944374084473
1695712749067944200,9.162944091796875,-0.32961133122444153,-12.156137466430664,-2.5938198566436768
1695712749077974800,9.172974853515624,1.5906288623809814,-12.328420639038086,-4.17427921295166
1695712749088007000,9.1830068359375,3.7022948265075684,-12.974482536315918,-4.983651161193848
1695712749098046200,9.193046142578124,3.7740795612335205,-13.917853355407715,-5.950351715087891
1695712749108078800,9.203078857421875,2.801995277404785,-14.631512641906738,-6.912864685058594
1695712749118101500,9.2131015625,1.810768485069275,-14.435300827026367,-7.526025295257568
1695712749128133400,9.22313330078125,1.3028919696807861,-14.215161323547363,-7.669594764709473
1695712749138169300,9.23316943359375,1.2550355195999146,-13.96092414855957,-7.540382385253906
1695712749148201500,9.243201416015625,2.3324038982391357,-13.592429161071777,-7.612166881561279
1695712749158240500,9.253240478515625,1.6671991348266602,-13.401002883911133,-7.430312633514404
1695712749168273400,9.2632734375,0.27337998151779175,-12.926626205444336,-6.898507595062256
1695712749178306000,9.27330615234375,-1.6612170934677124,-12.43848991394043,-6.051448345184326
1695712749188338700,9.283338623046875,-1.709073543548584,-11.648261070251465,-4.265206336975098
1695712749198370300,9.293370361328124,0.23988047242164612,-10.805388450622559,-2.4502503871917725
1695712749208403000,9.30340283203125,1.6576279401779175,-9.948758125305176,-0.8943174481391907
1695712749218435600,9.313435546875,2.035693883895874,-8.837292671203613,-0.26201409101486206
1695712749228468200,9.32346826171875,2.231905221939087,-7.942376613616943,0.2602194547653198
1695712749238475800,9.333475830078125,2.341975212097168,-6.443273067474365,-0.11844471842050552
1695712749248505900,9.343505859375,2.51425838470459,-4.935196876525879,-0.5108676552772522
1695712749258530000,9.353530029296875,2.428116798400879,-3.675973892211914,-0.841675341129303
1695712749268559400,9.363559326171876,2.9072794914245605,-3.345165967941284,-0.8560323119163513
1695712749278624500,9.37362451171875,2.902493953704834,-3.1250264644622803,-1.2245270013809204
1695712749288657400,9.383657470703126,2.610569477081299,-3.0340991020202637,-1.4350954294204712
1695712749298697000,9.393697021484375,2.3132612705230713,-2.7804598808288574,-1.7413766384124756
1695712749308731000,9.40373095703125,1.9926230907440186,-2.5357937812805176,-1.9621145725250244
1695712749318756900,9.4137568359375,1.724626898765564,-2.2295124530792236,-2.201396942138672
1695712749328789500,9.42378955078125,1.3794622421264648,-2.0093727111816406,-2.4502503871917725
1695712749338826200,9.433826171875,0.9487541913986206,-1.82273268699646,-2.9150562286376953
1695712749348859400,9.443859375,0.6137589812278748,-1.5493526458740234,-3.4271202087402344
1695712749358855400,9.45385546875,0.17766708135604858,-1.3914263248443604,-3.8530426025390625
1695712749368885000,9.463885009765624,-0.4588237404823303,-1.5978072881698608,-4.25084924697876
1695712749378949600,9.47394970703125,-1.3160524368286133,-2.0476579666137695,-4.423132419586182
1695712749388982800,9.483982666015624,-2.039283037185669,-2.5405795574188232,-4.3417768478393555
1695712749399018200,9.494018310546876,-2.685943365097046,-3.014956474304199,-4.198207378387451
1695712749409051600,9.5040517578125,-3.830310821533203,-3.5030922889709473,-4.212564468383789
1695712749419077400,9.514077392578125,-6.37747049331665,-4.52781867980957,-4.126422882080078
1695712749429110000,9.524110107421874,-14.383854866027832,-7.080362319946289,-5.165505886077881
1695712749439127000,9.534126953125,-22.08336067199707,-11.423335075378418,-8.014161109924316
1695712749449158000,9.544157958984375,-18.836898803710938,-17.51905059814453,-11.21336555480957
1695712749459161900,9.554161865234375,-15.829718589782715,-24.620349884033203,-13.679168701171875
1695712749469190100,9.564190185546876,-12.363116264343262,-25.06062889099121,-12.506087303161621
1695712749479242200,9.5742421875,-7.272984504699707,-19.611574172973633,-9.513264656066895
1695712749489272800,9.58427294921875,-3.8494534492492676,-14.210375785827637,-5.73978328704834
1695712749499336700,9.594336669921875,-3.954737663269043,-9.287740707397461,-3.3505499362945557
1695712749509370600,9.60437060546875,-5.26181697845459,-5.715256690979004,-3.0346972942352295
1695712749519399700,9.614399658203125,-6.578467845916748,-3.7190446853637695,-5.165505886077881
1695712749529433000,9.62443310546875,-7.765905857086182,-3.738187074661255,-7.798807144165039
1695712749539440600,9.634440673828125,-6.085546016693115,-5.629115104675293,-8.498109817504883
1695712749549471500,9.644471435546874,-0.7513462901115417,-7.76470947265625,-7.7700934410095215
1695712749559530200,9.6545302734375,4.046861171722412,-9.94397258758545,-4.8777689933776855
1695712749569564000,9.66456396484375,5.325226783752441,-11.327622413635254,-0.875174880027771
1695712749579597600,9.67459765625,7.3986077308654785,-11.873186111450195,2.3814568519592285
1695712749589631200,9.68463134765625,5.890531063079834,-11.863615036010742,2.936591625213623
1695712749599639300,9.694639404296876,2.706282377243042,-10.959127426147461,0.8919246196746826
1695712749609670400,9.70467041015625,0.9966106414794922,-9.818947792053223,-1.6408780813217163
1695712749619697700,9.71469775390625,1.1162517070770264,-8.789435386657715,-4.088137626647949
1695712749629728300,9.724728271484375,2.974278450012207,-7.76470947265625,-6.424728870391846
1695712749639774500,9.7347744140625,3.7501513957977295,-7.238288402557373,-7.7461652755737305
1695712749649806600,9.744806640625,2.730210542678833,-7.420143127441406,-7.971090316772461
1695712749659847700,9.75484765625,1.7150555849075317,-8.34437084197998,-6.6592254638671875
1695712749669880800,9.764880859375,1.23589289188385,-9.531808853149414,-4.695914268493652
1695712749679892700,9.774892822265626,0.9487541913986206,-10.384251594543457,-3.1304101943969727
1695712749689923600,9.784923583984375,0.46002015471458435,-10.623534202575684,-2.0865414142608643
1695712749699974100,9.79497412109375,0.03888336941599846,-10.633105278015137,-1.5068800449371338
1695712749710007000,9.805007080078125,0.014955141581594944,-10.446465492248535,-1.2867404222488403
1695712749720030500,9.815030517578125,0.373878538608551,-9.996614456176758,-1.3920245170593262
1695712749730062300,9.825062255859375,0.4408775866031647,-9.66102123260498,-1.3680963516235352
1695712749740083000,9.8350830078125,0.5754738450050354,-9.33559799194336,-1.2867404222488403
1695712749750113500,9.845113525390625,0.40259242057800293,-8.885746955871582,-1.1335997581481934
1695712749760170000,9.855169921875,0.1824527233839035,-8.310871124267578,-1.1096714735031128
1695712749770203400,9.865203369140625,-0.21954147517681122,-7.76470947265625,-1.0426725149154663
1695712749780247800,9.875247802734375,-0.6939185857772827,-7.41535758972168,-1.0713863372802734
1695712749790282200,9.8852822265625,-0.97148597240448,-7.439285755157471,-1.186241865158081
1695712749800306400,9.895306396484376,-1.28255295753479,-7.70249605178833,-1.3920245170593262
1695712749810339800,9.90533984375,-1.5314065217971802,-7.779066562652588,-1.6791633367538452
1695712749820375600,9.91537548828125,-1.6803597211837769,-7.827520847320557,-1.7653049230575562
1695712749830409500,9.925409423828125,-1.594218134880066,-8.004590034484863,-1.9621145725250244
1695712749840433000,9.935432861328126,-1.521835207939148,-8.349156379699707,-2.1056840419769287
1695712749850465500,9.945465576171875,-1.0241280794143677,-8.803792953491211,-2.043470621109009
1695712749860472800,9.955472900390625,0.024526432156562805,-8.779864311218262,-2.1583259105682373
1695712749870503000,9.9655029296875,0.8817551732063293,-8.617152214050293,-2.4598217010498047
1695712749880573400,9.975573486328125,1.3651052713394165,-8.483154296875,-2.493321180343628
1695712749890607600,9.985607666015625,1.3794622421264648,-8.071588516235352,-2.555534601211548
1695712749900636400,9.995636474609375,1.3507484197616577,-7.94716215133667,-2.612962245941162
1695712749910669800,10.005669921875,1.317248821258545,-8.320442199707031,-2.612962245941162
1695712749920695300,10.0156953125,1.077966570854187,-8.880961418151855,-2.5459632873535156
1695712749930728200,10.025728271484375,0.19202402234077454,-9.704092025756836,-2.3162522315979004
1695712749940734500,10.035734375,-1.1676974296569824,-10.350752830505371,-2.0338993072509766
1695712749950764500,10.0457646484375,-2.724228620529175,-10.848459243774414,-1.6169499158859253
1695712749960825300,10.055825439453125,-3.758526086807251,-11.298908233642578,-0.8703892230987549
1695712749970858500,10.0658583984375,-3.4468610286712646,-11.949756622314453,-0.1136590763926506
1695712749980893700,10.075893798828124,-1.8047864437103271,-12.826128005981445,0.37507495284080505
1695712749990927000,10.085927001953126,0.2829512655735016,-13.056436538696289,0.3080759048461914
1695712750000960000,10.0959599609375,1.451246976852417,-12.577274322509766,0.04426721855998039
1695712750010993200,10.1059931640625,1.4991034269332886,-12.43848991394043,0.19740787148475647
1695712750021019000,10.116018798828126,0.3068794906139374,-12.960125923156738,0.4707878530025482
1695712750031051500,10.126051513671875,-1.1389836072921753,-13.281362533569336,-0.04666004329919815
1695712750041078800,10.136078857421875,-2.968296527862549,-12.940982818603516,-0.9421738982200623
1695712750051110700,10.146110595703124,-4.902893543243408,-12.806984901428223,-1.7126628160476685
1695712750061103900,10.156103759765625,-5.242674350738525,-13.520644187927246,-2.445464849472046
1695712750071132000,10.1661318359375,-4.241876125335693,-13.779068946838379,-2.68953275680542
1695712750081210400,10.17621044921875,-4.371088981628418,-13.008580207824707,-2.3258235454559326
1695712750091243300,10.1862431640625,-4.792823791503906,-12.256635665893555,-1.688734531402588
1695712750101269200,10.196269287109375,-1.9770697355270386,-11.696117401123047,-1.5978072881698608
1695712750111301600,10.206301513671875,1.3411771059036255,-11.274980545043945,-2.5938198566436768
1695712750121342200,10.21634228515625,2.778067111968994,-11.337193489074707,-3.968496322631836
1695712750131375400,10.226375244140625,3.352344512939453,-12.151351928710938,-4.8299126625061035
1695712750141407700,10.23640771484375,3.452843189239502,-13.381860733032227,-5.4526448249816895
1695712750151441000,10.24644091796875,3.184846878051758,-14.521442413330078,-6.166304111480713
1695712750161476000,10.25647607421875,2.7110681533813477,-14.961721420288086,-6.262016773223877
1695712750171509200,10.26650927734375,2.3802602291107178,-14.91865062713623,-6.032305717468262
1695712750181542000,10.2765419921875,3.1034910678863525,-14.239089012145996,-5.486144065856934
1695712750191575000,10.286574951171875,2.222334146499634,-13.410574913024902,-4.8538408279418945
1695712750201606000,10.29660595703125,0.7573283910751343,-13.02772331237793,-4.155136585235596
1695712750211639000,10.30663916015625,-1.5361921787261963,-13.089936256408691,-3.7908291816711426
1695712750221659100,10.3166591796875,-2.407777786254883,-12.821341514587402,-3.4845480918884277
1695712750231690800,10.326690673828125,-1.2011969089508057,-11.95454216003418,-3.173480987548828
1695712750241729300,10.336729248046876,0.33080771565437317,-10.733604431152344,-2.550748825073242
1695712750251761700,10.34676171875,1.4799607992172241,-9.378668785095215,-1.7270197868347168
1695712750261769000,10.35676904296875,1.9304096698760986,-8.100302696228027,-0.8991031050682068
1695712750271798800,10.366798828125,1.8299111127853394,-6.970292568206787,-0.28115665912628174
1695712750281859000,10.376859130859375,1.7581263780593872,-5.605186939239502,-0.04187439754605293
1695712750291892000,10.38689208984375,2.107478618621826,-4.4751763343811035,-0.16151553392410278
1695712750301922600,10.396922607421875,2.3563320636749268,-3.872185230255127,-0.5156532526016235
1695712750311955200,10.406955078125,2.437688112258911,-3.8434712886810303,-0.9230313301086426
1695712750321993500,10.416993408203124,2.5286152362823486,-4.307679176330566,-1.277169108390808
1695712750332026600,10.427026611328126,2.437688112258911,-4.542175769805908,-1.7461622953414917
1695712750342053600,10.4370537109375,2.121835470199585,-4.350749969482422,-2.2157537937164307
1695712750352086300,10.447086181640625,2.0644078254699707,-3.872185230255127,-2.368894338607788
1695712750362123000,10.457123046875,2.0213370323181152,-3.541377544403076,-2.335394859313965
1695712750372156200,10.46715625,1.9208383560180664,-3.1106693744659424,-2.612962245941162
1695712750382183000,10.477182861328124,1.7102699279785156,-2.5357937812805176,-2.9964120388031006
1695712750392215000,10.487215087890625,1.3555340766906738,-2.0715861320495605,-3.5228331089019775
1695712750402242600,10.49724267578125,0.9248259663581848,-1.827518343925476,-3.954139471054077
1695712750412274400,10.5072744140625,0.4169493317604065,-1.908874273300171,-4.274777889251709
1695712750422281700,10.51728173828125,-0.23389841616153717,-2.2342982292175293,-4.4374895095825195
1695712750432311000,10.52731103515625,-1.2346965074539185,-2.8139593601226807,-4.408775806427002
1695712750442381000,10.537381103515624,-2.3359930515289307,-3.603590965270996,-4.121636867523193
1695712750452414500,10.54741455078125,-3.6047873497009277,-4.729413986206055,-3.6089746952056885
1695712750462419500,10.55741943359375,-6.420541286468506,-6.2327046394348145,-3.589832067489624
1695712750472450000,10.567449951171875,-13.60319709777832,-8.914461135864258,-4.969294548034668
1695712750482505000,10.5775048828125,-23.26601219177246,-12.668201446533203,-8.042875289916992
1695712750492538000,10.5875380859375,-20.287546157836914,-16.838891983032227,-11.12183952331543
1695712750502571000,10.597571044921875,-15.710077285766602,-22.915464401245117,-12.606586456298828
1695712750512604200,10.607604248046876,-14.163715362548828,-24.725635528564453,-9.829116821289062
1695712750522637300,10.61763720703125,-8.398209571838379,-19.8939266204834,-4.825126647949219
1695712750532670200,10.627670166015625,-5.625525951385498,-14.129019737243652,-1.8855443000793457
1695712750542668300,10.637668212890626,-5.884549140930176,-8.420941352844238,0.29850462079048157
1695712750552697900,10.64769775390625,-6.890132904052734,-4.010969161987305,1.0307083129882812
1695712750562769700,10.657769775390625,-5.736194133758545,-2.0380866527557373,-0.8991031050682068
1695712750572803300,10.66780322265625,-2.551347255706787,-3.9391841888427734,-3.3649067878723145
1695712750582796300,10.67779638671875,0.7621139883995056,-6.653841495513916,-4.025924205780029
1695712750592825900,10.687825927734375,5.325226783752441,-9.07717227935791,-4.36091947555542
1695712750602869000,10.697868896484374,7.03489875793457,-11.341979026794434,-4.9501519203186035
1695712750612900000,10.707900146484375,4.674378871917725,-13.649856567382812,-5.342574596405029
1695712750622928400,10.717928466796875,0.3116651475429535,-15.244672775268555,-4.394418716430664
1695712750632959000,10.727958984375,0.43130627274513245,-13.812568664550781,-4.116851329803467
1695712750642993000,10.737992919921876,3.452843189239502,-10.959127426147461,-4.4614176750183105
1695712750653024000,10.74802392578125,4.7988057136535645,-8.550153732299805,-4.935196876525879
1695712750663083800,10.758083740234374,5.531009674072266,-6.141777515411377,-5.653641700744629
1695712750673117700,10.76811767578125,4.5206403732299805,-4.758127689361572,-6.0849480628967285
1695712750683122400,10.778122314453125,3.510270833969116,-4.594817638397217,-6.285944938659668
1695712750693153300,10.7881533203125,2.7397818565368652,-5.265406131744385,-5.921638011932373
1695712750703184400,10.798184326171874,2.073979139328003,-7.300501823425293,-4.691128730773926
1695712750713215200,10.80821533203125,1.0205388069152832,-10.034899711608887,-3.9397823810577393
1695712750723254800,10.8182548828125,0.6807580590248108,-11.993425369262695,-3.163909673690796
1695712750733286700,10.82828662109375,1.0061819553375244,-12.835699081420898,-2.699103832244873
1695712750743315200,10.838315185546875,1.6193426847457886,-12.75912857055664,-2.115255117416382
1695712750753346600,10.8483466796875,2.7349963188171387,-12.275778770446777,-1.6313068866729736
1695712750763394800,10.858394775390625,2.4329023361206055,-11.322836875915527,-1.5020943880081177
1695712750773428000,10.868427978515625,1.4273186922073364,-10.006186485290527,-1.5308083295822144
1695712750783459300,10.878459228515625,0.7429714202880859,-8.914461135864258,-1.296311616897583
1695712750793492200,10.8884921875,0.3643072545528412,-7.999804496765137,-1.0618150234222412
1695712750803511000,10.898510986328125,0.17766708135604858,-7.362715244293213,-0.8895317912101746
1695712750813542700,10.908542724609376,0.10588239878416061,-6.884150981903076,-1.0474581718444824
1695712750823578600,10.91857861328125,0.1824527233839035,-6.5629143714904785,-1.3728820085525513
1695712750833610800,10.92861083984375,0.24466611444950104,-6.6729841232299805,-1.7509479522705078
1695712750843640000,10.93864013671875,0.20159530639648438,-6.874579429626465,-2.1918256282806396
1695712750853672000,10.948671875,-0.2721835672855377,-7.238288402557373,-2.589034080505371
1695712750863727400,10.958727294921875,-0.550349235534668,-7.568498134613037,-2.6273193359375
1695712750873761300,10.96876123046875,-0.1094716340303421,-7.740781307220459,-2.210968017578125
1695712750883767800,10.978767822265626,0.6472585201263428,-7.837092399597168,-1.9860427379608154
1695712750893799200,10.988799072265625,1.1832507848739624,-8.014161109924316,-1.923829436302185
1695712750903841300,10.99884130859375,1.1593226194381714,-8.353941917419434,-1.8711873292922974
1695712750913873700,11.008873779296875,0.8721838593482971,-8.981459617614746,-1.8424733877182007
1695712750923921400,11.01892138671875,0.4983053207397461,-10.039685249328613,-1.6791633367538452
1695712750933955300,11.028955322265626,-0.41096729040145874,-11.050054550170898,-1.358525037765503
1695712750943965200,11.038965087890626,-1.7282161712646484,-11.662617683410645,-0.6687939167022705
1695712750953996800,11.048996826171875,-3.2315070629119873,-11.839686393737793,0.37028929591178894
1695712750964044000,11.0590439453125,-3.9355950355529785,-11.906685829162598,1.4189438819885254
1695712750974077200,11.0690771484375,-3.0927233695983887,-12.242279052734375,2.1032910346984863
1695712750984118000,11.079117919921876,-1.2059825658798218,-12.77348518371582,1.9884356260299683
1695712750994152000,11.08915185546875,0.6664010882377625,-13.089936256408691,1.212562918663025
1695712751004180200,11.09918017578125,1.4847464561462402,-12.433704376220703,0.16869398951530457
1695712751014213400,11.10921337890625,1.3028919696807861,-11.56690502166748,-1.0666006803512573
1695712751024219400,11.119219482421874,0.5611169338226318,-11.653046607971191,-1.7796618938446045
1695712751034249700,11.129249755859375,-0.4013960063457489,-12.0604248046875,-2.0961127281188965
1695712751044320800,11.13932080078125,-1.4979069232940674,-12.151351928710938,-2.445464849472046
1695712751054355500,11.14935546875,-2.8103702068328857,-11.91625690460205,-2.847458839416504
1695712751064385300,11.15938525390625,-3.9595232009887695,-12.476775169372559,-3.3505499362945557
1695712751074419500,11.16941943359375,-3.61435866355896,-13.094721794128418,-3.5994033813476562
1695712751084450300,11.1794501953125,-2.977867841720581,-12.89791202545166,-2.775674343109131
1695712751094484200,11.189484130859375,-3.0448668003082275,-12.381062507629395,-0.778863787651062
1695712751104499700,11.199499755859375,-2.7433712482452393,-11.815757751464844,0.3846462368965149
1695712751114531600,11.209531494140625,-0.641276478767395,-11.432906150817871,0.40378883481025696
1695712751124546600,11.219546630859375,0.9056833982467651,-11.303693771362305,-0.6735795736312866
1695712751134577000,11.229576904296875,1.815554141998291,-11.423335075378418,-2.6177480220794678
1695712751144608300,11.239608154296874,3.1417760848999023,-12.371491432189941,-4.202992916107178
1695712751154638600,11.249638671875,3.7501513957977295,-13.917853355407715,-5.146363258361816
1695712751164682800,11.259682861328125,3.538984775543213,-15.402599334716797,-5.730212211608887
1695712751174714400,11.26971435546875,2.9790642261505127,-15.775879859924316,-5.969494342803955
1695712751184734200,11.279734130859374,1.9304096698760986,-15.52224063873291,-5.868995666503906
1695712751194764800,11.289764892578125,2.0213370323181152,-14.617155075073242,-5.5005011558532715
1695712751204816100,11.299816162109375,3.0939197540283203,-13.49193000793457,-4.892126083374023
1695712751214848800,11.309848876953126,2.059622049331665,-12.78305721282959,-4.31306266784668
1695712751224897800,11.319897705078125,0.4743770956993103,-12.189637184143066,-4.17427921295166
1695712751234932200,11.32993212890625,-0.44446679949760437,-11.657832145690918,-3.556332588195801
1695712751244939800,11.339939697265624,-0.20518454909324646,-11.030912399291992,-3.3074791431427
1695712751254971100,11.34997119140625,0.5419743061065674,-10.302896499633789,-2.589034080505371
1695712751265028400,11.3600283203125,1.2646067142486572,-9.373882293701172,-1.6408780813217163
1695712751275062500,11.3700625,1.724626898765564,-8.497511863708496,-0.6927221417427063
1695712751285105400,11.38010546875,1.9112670421600342,-7.463213920593262,0.09690931439399719
1695712751295140400,11.390140380859375,1.72941255569458,-5.945566177368164,0.2745763957500458
1695712751305130500,11.400130615234374,1.9926230907440186,-4.456034183502197,0.1495514214038849
1695712751315161000,11.4101611328125,2.830709218978882,-3.723830223083496,-0.15672987699508667
1695712751325223000,11.420222900390625,2.912065267562866,-3.345165967941284,-0.6352944374084473
1695712751335256600,11.430256591796875,2.6536402702331543,-3.2446675300598145,-1.119242787361145
1695712751345262300,11.440262451171876,2.3228325843811035,-3.5126636028289795,-1.7126628160476685
1695712751355293200,11.450293212890625,2.002194404602051,-3.96789813041687,-2.2301106452941895
1695712751365331000,11.4603310546875,1.8203397989273071,-4.647459983825684,-2.421536445617676
1695712751375362600,11.470362548828126,1.3363914489746094,-4.8777689933776855,-2.713460922241211
1695712751385386800,11.48038671875,1.1497513055801392,-4.691128730773926,-3.1304101943969727
1695712751395417600,11.49041748046875,0.9104689955711365,-4.523033142089844,-3.551547050476074
1695712751405471500,11.500471435546874,0.8003991842269897,-4.259822368621826,-4.116851329803467
1695712751415505000,11.5105048828125,0.4456632137298584,-3.910470485687256,-4.762913703918457
1695712751425535000,11.520534912109374,-0.12861421704292297,-3.7334015369415283,-5.26600456237793
1695712751435567900,11.53056787109375,-0.7704889178276062,-3.7573297023773193,-5.514857769012451
1695712751445750800,11.540750732421875,-1.4021940231323242,-3.929612874984741,-5.371288776397705
1695712751455796700,11.550796630859375,-2.3599212169647217,-4.207180500030518,-5.1320061683654785
1695712751465842700,11.5608427734375,-3.59043025970459,-4.542175769805908,-4.868197441101074
1695712751475694600,11.570694580078126,-4.6438703536987305,-4.901697158813477,-4.748556613922119
1695712751485725700,11.5807255859375,-6.659823417663574,-5.792425632476807,-4.715056896209717
1695712751495763700,11.590763671875,-13.15813159942627,-8.085946083068848,-4.786841869354248
1695712751505795300,11.60079541015625,-19.028324127197266,-11.064412117004395,-5.534000396728516
1695712751515837200,11.610837158203125,-18.08495330810547,-14.176876068115234,-6.410371780395508
1695712751525869800,11.620869873046875,-16.643877029418945,-18.50070571899414,-7.205387115478516
1695712751535887600,11.6308876953125,-14.120644569396973,-22.25444793701172,-7.071389198303223
1695712751545918700,11.640918701171875,-9.140582084655762,-20.885154724121094,-4.671986103057861
1695712751555960000,11.6509599609375,-4.917250633239746,-16.40818214416504,-2.550748825073242
1695712751565992200,11.6609921875,-4.835894584655762,-12.462418556213379,-1.5212370157241821
1695712751576022000,11.67102197265625,-6.784848690032959,-9.273384094238281,-1.3968101739883423
1695712751586054000,11.681053955078125,-6.420541286468506,-6.189633846282959,-2.321038007736206
1695712751596068900,11.69106884765625,-4.869394302368164,-4.9878387451171875,-4.001996040344238
1695712751606099000,11.701098876953125,-2.393420934677124,-6.7208404541015625,-4.734199523925781
1695712751616156000,11.711156005859374,2.4185454845428467,-9.440881729125977,-4.657629489898682
1695712751626188800,11.721188720703125,8.164909362792969,-11.700902938842773,-3.9828531742095947
1695712751636218000,11.731218017578126,9.601201057434082,-12.840484619140625,-3.4989049434661865
1695712751646250800,11.741250732421875,9.065208435058594,-12.582059860229492,-2.0673987865448
1695712751656257500,11.751257568359375,6.560521602630615,-10.853245735168457,-1.052243709564209
1695712751666287600,11.76128759765625,2.0452651977539062,-8.411369323730469,-2.2923240661621094
1695712751676346000,11.77134619140625,-0.30568310618400574,-6.725626468658447,-4.384847640991211
1695712751686379000,11.78137890625,0.8003991842269897,-5.5142598152160645,-7.334599494934082
1695712751696408600,11.79140869140625,2.32761812210083,-4.494318962097168,-8.995817184448242
1695712751706441000,11.80144091796875,3.0317063331604004,-4.599603176116943,-9.159127235412598
1695712751716465200,11.811465087890625,1.9878374338150024,-5.720640659332275,-8.569893836975098
1695712751726496800,11.821496826171876,0.98703932762146,-7.573283672332764,-6.750152587890625
1695712751736539100,11.8315390625,0.8147560954093933,-9.790233612060547,-4.638486862182617
1695712751746571800,11.84157177734375,1.1545369625091553,-11.590832710266113,-2.7278177738189697
1695712751756614700,11.85161474609375,1.211964726448059,-12.084352493286133,-1.4111671447753906
1695712751766648300,11.8616484375,1.470389485359192,-11.988639831542969,-0.7357929348945618
1695712751776666400,11.871666259765625,1.9351953268051147,-11.073983192443848,-0.2907279431819916
1695712751786698500,11.881698486328125,1.9208383560180664,-10.432108879089355,-0.8129615187644958
1695712751796734200,11.891734130859374,1.6241283416748047,-10.183255195617676,-0.6544370055198669
1695712751806766800,11.901766845703126,1.0157532691955566,-9.689735412597656,-0.5970092415809631
1695712751816801300,11.91180126953125,0.714257538318634,-9.139386177062988,-0.6161518096923828
1695712751826834000,11.921833984375,0.7429714202880859,-8.263014793395996,-0.784247636795044
1695712751836857000,11.931857177734376,0.589830756187439,-7.582854747772217,-0.8656035661697388
1695712751846888700,11.941888671875,0.014955141581594944,-7.18086051940918,-1.2819547653198242
1695712751856903000,11.95190283203125,-0.6173482537269592,-7.070790767669678,-2.0673987865448
1695712751866932700,11.9619326171875,-0.9044869542121887,-7.085147857666016,-2.7182464599609375
1695712751876998000,11.971997802734375,-1.1389836072921753,-7.200003147125244,-3.2931220531463623
1695712751887031300,11.98203125,-1.550549030303955,-7.616354465484619,-3.455834150314331
1695712751897053700,11.9920537109375,-1.4883357286453247,-8.047660827636719,-2.9772696495056152
1695712751907085800,12.0020859375,-0.5838487148284912,-8.100302696228027,-2.699103832244873
1695712751917099300,12.012099365234375,0.4695914387702942,-7.980661869049072,-2.5842485427856445
1695712751927129600,12.022129638671874,1.322034478187561,-7.827520847320557,-2.50289249420166
1695712751937169000,12.0321689453125,1.877767562866211,-8.10987377166748,-2.3258235454559326
1695712751947200000,12.042199951171876,2.279761791229248,-8.70807933807373,-2.225325107574463
1695712751957224000,12.052223876953125,2.2127628326416016,-9.570094108581543,-2.1918256282806396
1695712751967254500,12.062254638671876,1.293320655822754,-10.446465492248535,-1.9046868085861206
1695712751977294300,12.07229443359375,-0.23389841616153717,-11.064412117004395,-1.052243709564209
1695712751987326000,12.082325927734376,-2.134995937347412,-11.337193489074707,0.10169496387243271
1695712751997365200,12.092365234375,-3.394218921661377,-11.791830062866211,1.064207911491394
1695712752007397600,12.102397705078126,-3.0592236518859863,-12.510274887084961,1.4141582250595093
1695712752017424400,12.11242431640625,-1.2921242713928223,-12.979268074035645,1.0498509407043457
1695712752027456000,12.1224560546875,0.33080771565437317,-12.366705894470215,-0.037088751792907715
1695712752037493800,12.13249365234375,1.0923235416412354,-11.313265800476074,-1.2436695098876953
1695712752047526100,12.142526123046874,1.1976077556610107,-11.24626636505127,-1.5308083295822144
1695712752057558000,12.15255810546875,0.623330295085907,-12.05085277557373,-1.4781662225723267
1695712752067590400,12.16259033203125,-0.3966103494167328,-12.739986419677734,-1.8376877307891846
1695712752077609700,12.172609619140625,-1.7904295921325684,-13.295719146728516,-2.431107759475708
1695712752087640600,12.182640625,-3.1645078659057617,-14.277374267578125,-2.982055187225342
1695712752097697000,12.192697021484374,-3.7154552936553955,-14.535799026489258,-2.541177749633789
1695712752107730700,12.202730712890625,-3.207578659057617,-13.549358367919922,-1.0761719942092896
1695712752117769700,12.212769775390624,-1.9579271078109741,-12.529417991638184,0.18305093050003052
1695712752127804000,12.222803955078126,-0.4827519655227661,-12.385848045349121,0.9445667266845703
1695712752137836000,12.2328359375,-0.07597211748361588,-11.892328262329102,0.26500511169433594
1695712752147869700,12.24286962890625,-0.4492524564266205,-11.576476097106934,-1.5547364950180054
1695712752157870800,12.252870849609375,0.10588239878416061,-12.002996444702148,-3.4366915225982666
1695712752167901400,12.2629013671875,0.9918249845504761,-12.610773086547852,-5.0841498374938965
1695712752177958100,12.272958251953124,1.2406785488128662,-13.381860733032227,-6.39601469039917
1695712752187991300,12.2829912109375,1.3268201351165771,-14.133805274963379,-7.449455261230469
1695712752198015200,12.29301513671875,1.5810575485229492,-14.339588165283203,-8.311469078063965
1695712752208047600,12.303047607421876,1.700698733329773,-14.10987663269043,-8.660821914672852
1695712752218084400,12.31308447265625,2.0404794216156006,-13.716856002807617,-8.48853874206543
1695712752228117000,12.323116943359375,3.012563705444336,-12.873984336853027,-8.062616348266602
1695712752238152400,12.33315234375,2.6392834186553955,-12.194422721862793,-7.468597888946533
1695712752248185300,12.343185302734375,0.9200403094291687,-11.767901420593262,-6.472585201263428
1695712752258202000,12.3532021484375,-1.2346965074539185,-11.648261070251465,-5.285147190093994
1695712752268233500,12.3632333984375,-1.1389836072921753,-11.289337158203125,-3.7812578678131104
1695712752278288400,12.373288330078125,0.5030909776687622,-10.86281681060791,-2.210968017578125
1695712752288322000,12.383322021484375,1.4273186922073364,-10.302896499633789,-0.7890332937240601
1695712752298346000,12.393345947265624,1.7389838695526123,-9.732806205749512,0.10169496387243271
1695712752308378600,12.403378662109375,1.8969101905822754,-8.909674644470215,0.24047867953777313
1695712752318417000,12.4134169921875,2.155334949493408,-7.520641803741455,-0.07537391036748886
1695712752328450000,12.423449951171875,2.5914268493652344,-6.065207004547119,-0.31465616822242737
1695712752338482000,12.43348193359375,2.6536402702331543,-4.810770034790039,-0.6735795736312866
1695712752348515000,12.44351513671875,2.5525436401367188,-3.661616802215576,-0.9421738982200623
1695712752358522400,12.4535224609375,2.428116798400879,-2.9144580364227295,-1.1623135805130005
1695712752368552700,12.463552734375,2.193620204925537,-2.3539392948150635,-1.5499508380889893
1695712752378607400,12.473607421875,2.002194404602051,-1.9519450664520264,-2.053041934967041
1695712752388640000,12.483639892578125,1.9160526990890503,-2.018944025039673,-2.234896421432495
1695712752398672400,12.49367236328125,1.638485312461853,-2.004587173461914,-2.455035924911499
1695712752408705300,12.503705322265626,1.5038890838623047,-1.9232312440872192,-2.7182464599609375
1695712752418707700,12.513707763671874,1.211964726448059,-2.052443504333496,-3.1064820289611816
1695712752428737500,12.523737548828125,1.0444670915603638,-2.0859432220458984,-3.446262836456299
1695712752438807800,12.533807861328125,0.6951149702072144,-2.176870346069336,-3.8626139163970947
1695712752448841700,12.543841796875,0.23030917346477509,-2.38265323638916,-4.0833516120910645
1695712752458845000,12.553844970703125,-0.23389841616153717,-2.6225335597991943,-4.054637908935547
1695712752468875800,12.563875732421875,-0.8901300430297852,-2.9240293502807617,-4.021138668060303
1695712752478925300,12.57392529296875,-2.101496458053589,-3.383451223373413,-3.954139471054077
1695712752488958000,12.5839580078125,-3.9499518871307373,-4.188037872314453,-3.6089746952056885
1695712752498964700,12.59396484375,-6.794419765472412,-5.878567218780518,-3.3170504570007324
1695712752508994800,12.603994873046876,-13.856836318969727,-8.799007415771484,-4.198207378387451
1695712752519037700,12.61403759765625,-20.862422943115234,-12.701701164245605,-6.58265495300293
1695712752529069000,12.624069091796875,-18.511474609375,-17.4951229095459,-9.355338096618652
1695712752539108400,12.6341083984375,-16.213167190551758,-23.624338150024414,-11.907283782958984
1695712752549140500,12.644140380859374,-13.789836883544922,-24.572494506835938,-11.270792961120605
1695712752559194000,12.654194091796874,-8.809774398803711,-19.506290435791016,-7.9519476890563965
1695712752569228500,12.664228515625,-4.749752998352051,-13.908281326293945,-4.537988185882568
1695712752579256800,12.6742568359375,-3.8494534492492676,-8.574081420898438,-1.578664779663086
1695712752589290500,12.68429052734375,-3.988237142562866,-4.05403995513916,0.5377869009971619
1695712752599316500,12.69431640625,-4.864608287811279,-0.8554341197013855,0.9780662655830383
1695712752609349400,12.704349365234375,-4.831109046936035,0.24107688665390015,-1.090528964996338
1695712752619375600,12.714375732421875,-3.55214524269104,-3.153740167617798,-4.088137626647949
1695712752629407700,12.72440771484375,-1.306481122970581,-6.960721015930176,-5.007579803466797
1695712752639442700,12.734442626953125,3.1034910678863525,-10.575677871704102,-5.122435092926025
1695712752649475300,12.744475341796875,6.622735023498535,-13.697712898254395,-5.098506927490234
1695712752659516000,12.754515869140626,4.367499351501465,-15.570096969604492,-5.557928562164307
1695712752669549000,12.764549072265625,-1.5074782371520996,-15.876378059387207,-6.013163089752197
