time,seconds_elapsed,z,y,x
1695712740018776600,0.113776611328125,-0.6052029132843018,-1.3539501428604126,0.58403080701828
1695712740028816600,0.123816650390625,-0.46032705903053284,-1.478585958480835,0.40506649017333984
1695712740038820900,0.13382080078125,-0.2569948434829712,-1.0929604768753052,0.22730062901973724
1695712740048861000,0.14386083984375,-0.10679268091917038,-0.6201165914535522,0.0930774137377739
1695712740058843400,0.153843505859375,0.018908429890871048,-0.3368896245956421,0.012117373757064342
1695712740069043500,0.16404345703125,0.11904320865869522,-0.07803056389093399,-0.09867004305124283
1695712740079073800,0.17407373046875,0.19148114323616028,0.1753690242767334,-0.23915168642997742
1695712740088986400,0.183986328125,0.20639483630657196,0.21478378772735596,-0.40639808773994446
1695712740099022600,0.194022705078125,0.14993585646152496,-0.08122635632753372,-0.5885581374168396
1695712740109007400,0.20400732421875,0.04340949282050133,-0.4901544451713562,-0.7087997794151306
1695712740119092200,0.21409228515625,-0.07376950979232788,-0.8065377473831177,-0.6906903386116028
1695712740129119500,0.224119384765625,-0.15046848356723785,-1.06419837474823,-0.5427518486976624
1695712740139122400,0.234122314453125,-0.17390428483486176,-1.3454279899597168,-0.3201117217540741
1695712740149139500,0.244139404296875,-0.1525990217924118,-1.5402380228042603,-0.12210584431886673
1695712740159220700,0.254220703125,0.030626330524683,-1.5828486680984497,0.030226856470108032
1695712740169265200,0.26426513671875,0.3170490860939026,-1.4125396013259888,0.08135951310396194
1695712740179252500,0.27425244140625,0.5343628525733948,-1.1717900037765503,-0.039015281945466995
1695712740189272600,0.2842724609375,0.7111966609954834,-1.0791120529174805,-0.28815382719039917
1695712740199336000,0.2943359375,0.8239814043045044,-1.1898994445800781,-0.5597960352897644
1695712740209374500,0.30437451171875,0.850612998008728,-1.595631718635559,-0.73649662733078
1695712740219400200,0.314400146484375,0.8921582698822021,-2.1366524696350098,-0.7439534664154053
1695712740229433300,0.324433349609375,0.9475520253181458,-2.4413180351257324,-0.5928192138671875
1695712740239468300,0.33446826171875,0.8953540921211243,-2.3305306434631348,-0.32330751419067383
1695712740249502200,0.344502197265625,0.6600639820098877,-1.7415728569030762,0.053662657737731934
1695712740259528200,0.354528076171875,0.25965800881385803,-0.9725856781005859,0.4434159994125366
1695712740269558800,0.364558837890625,-0.0588558167219162,-0.7117292881011963,0.6127929091453552
1695712740279594800,0.3745947265625,-0.03968106955289841,-1.0929604768753052,0.5052012801170349
1695712740289627600,0.384627685546875,0.14460954070091248,-1.1632678508758545,0.5179844498634338
1695712740299658000,0.394657958984375,0.2660495936870575,-1.1451584100723267,0.6468813419342041
1695712740309689900,0.40468994140625,0.2564622163772583,-1.1451584100723267,0.7470161318778992
1695712740319726300,0.414726318359375,0.2287653684616089,-1.277251124382019,0.7757782340049744
1695712740329760300,0.42476025390625,0.31917962431907654,-1.471129059791565,0.8034750819206238
1695712740339789800,0.434789794921875,0.5727123618125916,-1.5839139223098755,0.8088014125823975
1695712740349822000,0.444822021484375,0.8644614219665527,-1.5061496496200562,0.8748477697372437
1695712740359853000,0.45485302734375,1.0455563068389893,-1.5700654983520508,1.0174599885940552
1695712740369884400,0.464884521484375,1.126516342163086,-1.8353160619735718,1.1964242458343506
1695712740379925000,0.474925048828125,1.1659311056137085,-2.125999927520752,1.4733927249908447
1695712740389960400,0.48496044921875,1.2852405309677124,-2.4125559329986572,1.7896429300308228
1695712740399990500,0.494990478515625,1.5152044296264648,-2.7586333751678467,2.0781962871551514
1695712740410023700,0.505023681640625,1.804956078529358,-3.1068413257598877,2.2603561878204346
1695712740420040700,0.515040771484375,2.095639944076538,-3.2975234985351562,2.274204730987549
1695712740430072300,0.525072265625,2.42360782623291,-3.268761396408081,2.1463730335235596
1695712740440108800,0.53510888671875,2.8273427486419678,-3.1228203773498535,1.9504977464675903
1695712740450140700,0.545140625,3.3055131435394287,-2.8992481231689453,1.8045566082000732
1695712740460184300,0.555184326171875,3.79646635055542,-2.541452646255493,1.734249234199524
1695712740470217200,0.56521728515625,4.134021759033203,-2.275136709213257,1.689508080482483
1695712740480250000,0.57525,4.360922813415527,-2.2218735218048096,1.6756596565246582
1695712740490283300,0.585283203125,4.63349723815918,-2.4551663398742676,1.7310534715652466
1695712740500323600,0.595323486328125,5.0116658210754395,-2.791656494140625,1.8247966766357422
1695712740510357200,0.605357177734375,5.463204383850098,-3.0132312774658203,1.9590197801589966
1695712740520385500,0.615385498046875,6.089446544647217,-3.1920626163482666,2.0270636081695557
1695712740530418700,0.625418701171875,6.733664512634277,-3.1142983436584473,1.8982998132705688
1695712740540452900,0.635452880859375,7.339666366577148,-2.6212143898010254,1.6405060291290283
1695712740550486300,0.645486328125,7.938211441040039,-2.0695409774780273,1.2390347719192505
1695712740560519700,0.655519775390625,8.39614200592041,-1.9492993354797363,0.8279761672019958
1695712740570553000,0.665552978515625,8.700807571411133,-2.2815284729003906,0.5787044763565063
1695712740580584400,0.67558447265625,8.889225959777832,-2.935467004776001,0.5691171288490295
1695712740590617300,0.685617431640625,9.022383689880371,-3.7543885707855225,0.7821698188781738
1695712740600644000,0.69564404296875,9.077776908874512,-4.397674560546875,1.115464210510254
1695712740610676500,0.705676513671875,8.95527172088623,-4.68209981918335,1.3572790622711182
1695712740620711700,0.715711669921875,8.414251327514648,-4.497809410095215,1.4913691282272339
1695712740630744300,0.725744384765625,7.7561845779418945,-3.7479970455169678,1.54995858669281
1695712740640774400,0.7357744140625,7.0756144523620605,-2.7980480194091797,1.6032217741012573
1695712740650806800,0.745806884765625,6.309823036193848,-2.265549421310425,1.714009165763855
1695712740660825000,0.7558251953125,5.575057029724121,-2.2335915565490723,1.9877820014953613
1695712740671005000,0.7660048828125,4.830571174621582,-2.531865358352661,2.3860573768615723
1695712740681036000,0.7760361328125,3.930689573287964,-2.900313377380371,2.706568479537964
1695712740691081500,0.78608154296875,2.8944544792175293,-2.9940567016601562,2.84505295753479
1695712740701113900,0.79611376953125,1.8741981983184814,-2.7405238151550293,2.869554042816162
1695712740711146500,0.806146484375,1.059404730796814,-2.374206304550171,2.8663580417633057
1695712740721026300,0.8160263671875,0.38948702812194824,-2.234656810760498,2.7875285148620605
1695712740731046700,0.826046630859375,-0.20692746341228485,-2.4050989151000977,2.681002378463745
1695712740741094400,0.836094482421875,-0.679771363735199,-2.7831344604492188,2.5584969520568848
1695712740751117600,0.84611767578125,-1.0205225944519043,-2.915227174758911,2.1176109313964844
1695712740761156600,0.856156494140625,-0.7564703226089478,-1.876861333847046,0.58403080701828
1695712740771181300,0.866181396484375,0.23622220754623413,-0.42730388045310974,-1.928260326385498
1695712740781218300,0.87621826171875,-0.004527370445430279,-1.1100046634674072,-2.0305256843566895
1695712740791244300,0.886244384765625,-0.6595313549041748,-2.095107316970825,-1.6705996990203857
1695712740801271000,0.89627099609375,-0.9960215091705322,-2.8278753757476807,-1.2775174379348755
1695712740811297000,0.906297119140625,-1.3506211042404175,-2.1483705043792725,-1.2700605392456055
1695712740821357600,0.916357666015625,-1.767139196395874,-1.92586350440979,-0.7343661189079285
1695712740831387100,0.92638720703125,-1.4763222932815552,-1.7788571119308472,-0.19547587633132935
1695712740841419300,0.936419189453125,-1.2559458017349243,-1.8033581972122192,0.2486059069633484
1695712740851448800,0.94644873046875,-1.3761874437332153,-2.0164108276367188,0.5360939502716064
1695712740861434400,0.956434326171875,-1.31453537940979,-1.707484483718872,0.19747324287891388
1695712740871459600,0.96645947265625,-1.282577395439148,-1.017326831817627,-0.3669833242893219
1695712740881552400,0.976552490234375,-1.3868401050567627,-1.0492846965789795,-0.5438171029090881
1695712740891584500,0.98658447265625,-1.7394423484802246,-1.1547458171844482,-0.22743378579616547
1695712740901605400,0.99660546875,-1.5391727685928345,-0.7032071352005005,0.22623535990715027
1695712740911636200,1.00663623046875,-1.0130656957626343,0.3436806797981262,0.08029424399137497
1695712740921673700,1.016673828125,-0.2324937880039215,1.5929685831069946,-0.2444780021905899
1695712740931705300,1.026705322265625,0.028495801612734795,2.2756693363189697,-0.276435911655426
1695712740941733400,1.0367333984375,0.1861548274755478,2.702707052230835,-0.26471802592277527
1695712740951764500,1.046764404296875,0.3681817352771759,2.3426477909088135,-0.15393058955669403
1695712740961795000,1.056795166015625,0.3585943877696991,1.2755200862884521,-0.0294279083609581
1695712740971826200,1.066826171875,0.390552282333374,0.20519641041755676,0.425306499004364
1695712740981878800,1.076878662109375,0.5652555227279663,-0.4390217661857605,1.0430262088775635
1695712740991912200,1.086912109375,0.7815040349960327,-0.7905587553977966,1.417999029159546
1695712741001937700,1.096937744140625,0.8910930156707764,-0.8693882822990417,1.3636705875396729
1695712741011970300,1.10697021484375,0.8495477437973022,-0.515720784664154,0.9791104197502136
1695712741021971200,1.11697119140625,0.8602004051208496,0.04980107396841049,0.3561975359916687
1695712741032000500,1.12700048828125,1.1211899518966675,0.6854971647262573,-0.3989412188529968
1695712741042070000,1.137070068359375,1.523726463317871,1.0604699850082397,-1.1317094564437866
1695712741052103400,1.147103515625,1.895370364189148,1.452353835105896,-1.6173365116119385
1695712741062105000,1.15710498046875,2.194709300994873,1.541835904121399,-1.7759276628494263
1695712741072135400,1.167135498046875,2.4363911151885986,1.0839056968688965,-1.66953444480896
1695712741082189000,1.17718896484375,2.6803364753723145,0.3117227852344513,-1.3787174224853516
1695712741092221700,1.1872216796875,2.8433218002319336,-0.08548741042613983,-1.0400967597961426
1695712741102242000,1.197241943359375,2.6409218311309814,-0.15153375267982483,-0.710930347442627
1695712741112273400,1.2072734375,2.2415809631347656,-0.2985401451587677,-0.49161916971206665
1695712741122327600,1.21732763671875,2.0104188919067383,-0.3411506712436676,-0.3211769759654999
1695712741132361000,1.22736083984375,2.022136688232422,0.030626330524683,-0.26152223348617554
1695712741142383400,1.23738330078125,2.016810417175293,0.5620597004890442,-0.3105243444442749
1695712741152415700,1.247415771484375,1.8507623672485352,0.7984151244163513,-0.41705071926116943
1695712741162459000,1.257458984375,1.5002906322479248,0.57058185338974,-0.4894886314868927
1695712741172492500,1.267492431640625,1.16060471534729,0.11158636957406998,-0.48629283905029297
1695712741182509800,1.277509765625,0.8921582698822021,-0.3699128031730652,-0.31798118352890015
1695712741192541700,1.287541748046875,0.6579334735870361,-0.5380913019180298,0.009986846707761288
1695712741202580000,1.297580078125,0.401204913854599,-0.5604618191719055,0.44235071539878845
1695712741212612600,1.307612548828125,0.11691268533468246,-0.7117292881011963,0.8130624890327454
1695712741222643700,1.317643798828125,-0.15046848356723785,-1.034371018409729,1.078179955482483
1695712741232676000,1.327676025390625,-0.3878891170024872,-1.4178658723831177,1.2965589761734009
1695712741242712600,1.337712646484375,-0.5562008023262024,-1.8821877241134644,1.5318491458892822
1695712741252745200,1.3477451171875,-0.5444828867912292,-2.35929274559021,1.6650071144104004
1695712741262781200,1.35778125,-0.2005358785390854,-2.556366443634033,1.7363797426223755
1695712741272814300,1.367814453125,0.21491694450378418,-1.6819181442260742,1.9355840682983398
1695712741282833700,1.377833740234375,0.5993439555168152,-0.4304996728897095,1.9632809162139893
1695712741292865300,1.387865234375,1.051947832107544,0.34581121802330017,1.5691334009170532
1695712741302890000,1.397889892578125,1.1446257829666138,0.15086796879768372,0.6479465961456299
1695712741312921000,1.407921142578125,0.9880320429801941,-0.09400951862335205,-0.3424822688102722
1695712741322968600,1.417968505859375,1.0626004934310913,0.457663893699646,-0.857936680316925
1695712741333001200,1.428001220703125,2.111618757247925,1.323456883430481,-0.8131956458091736
1695712741343006200,1.438006103515625,3.6547863483428955,1.9816566705703735,-0.6322339773178101
1695712741353036000,1.4480361328125,5.373722553253174,3.0636982917785645,-0.6567350625991821
1695712741363070200,1.4580703125,6.5835957527160645,3.7826180458068848,-0.8685893416404724
1695712741373100500,1.4681005859375,7.23859977722168,2.7549049854278564,-1.3488900661468506
1695712741383166700,1.478166748046875,7.618765354156494,0.955008864402771,-1.3318458795547485
1695712741393200600,1.48820068359375,7.809314727783203,-0.6073334217071533,-0.502271831035614
1695712741403221200,1.49822119140625,7.576155185699463,-2.106825113296509,0.5328981280326843
1695712741413253600,1.508253662109375,7.097984790802002,-3.656384229660034,1.0994852781295776
1695712741423299300,1.51829931640625,6.381195545196533,-3.994072914123535,0.9556746482849121
1695712741433333200,1.528333251953125,5.546295166015625,-3.275153160095215,0.3242396116256714
1695712741443331800,1.538331787109375,4.8028740882873535,-2.4466443061828613,-0.054994236677885056
1695712741453362200,1.548362060546875,4.361988067626953,-2.1291956901550293,-0.16351796686649323
1695712741463414800,1.558414794921875,4.4749064445495605,-2.0993683338165283,-0.07523424178361893
1695712741473447400,1.568447509765625,4.781569004058838,-1.791640281677246,0.10159952193498611
1695712741483468800,1.57846875,4.597278594970703,-1.6574170589447021,0.14101427793502808
1695712741493500400,1.58850048828125,3.945603370666504,-1.8204023838043213,0.06538055837154388
1695712741503527700,1.598527587890625,3.3151004314422607,-1.8267940282821655,-0.08695214241743088
1695712741513558800,1.608558837890625,2.860366106033325,-1.561543345451355,-0.267913818359375
1695712741523585800,1.618585693359375,1.8411750793457031,-1.0205225944519043,-0.45326969027519226
1695712741533616400,1.628616455078125,-0.2644517123699188,-0.4613923132419586,-0.7343661189079285
1695712741543653600,1.638653564453125,-1.565804362297058,0.16365112364292145,-0.6938861012458801
1695712741553685000,1.64868505859375,-0.9992172718048096,0.5716471076011658,-0.29454538226127625
1695712741563730000,1.65872998046875,-0.18668745458126068,0.2936132848262787,0.0153131652623415
1695712741573762600,1.668762451171875,0.09560741484165192,-0.3454117476940155,0.10479531437158585
1695712741583813600,1.678813720703125,0.12756532430648804,-0.5572660565376282,0.10159952193498611
1695712741593848300,1.688848388671875,0.08602003753185272,-0.25912538170814514,0.11544794589281082
1695712741603865300,1.698865234375,-0.010918952524662018,0.511992335319519,0.20493009686470032
1695712741613898200,1.708898193359375,-0.17496955394744873,1.5727286338806152,0.3998733460903168
1695712741623925200,1.71892529296875,-0.2749711871147156,1.5578149557113647,0.36258912086486816
1695712741633957400,1.728957275390625,-0.20692746341228485,1.2574105262756348,0.3274354040622711
1695712741643974100,1.73897412109375,-0.18242639303207397,0.9933583736419678,0.22943115234375
1695712741654004700,1.749004638671875,-0.17496955394744873,0.6929540038108826,0.06218476593494415
1695712741664058400,1.759058349609375,-0.2962764501571655,0.35539859533309937,-0.08162582665681839
1695712741674091300,1.76909130859375,-0.29201540350914,0.15086796879768372,-0.19867166876792908
1695712741684130800,1.779130859375,-0.24421168863773346,0.14021532237529755,-0.2966759204864502
1695712741694164200,1.789164306640625,-0.21651484072208405,0.40333545207977295,-0.21252009272575378
1695712741704169700,1.799169677734375,-0.3442133069038391,0.4427502155303955,-0.08162582665681839
1695712741714200600,1.80920068359375,-0.3729754388332367,0.3873564898967743,0.05472791939973831
1695712741724264400,1.819264404296875,-0.25060325860977173,0.5854955315589905,0.11970899999141693
1695712741734298600,1.829298583984375,-0.16857796907424927,0.46405547857284546,-0.010253162123262882
1695712741744302800,1.839302734375,-0.09507478028535843,0.09880319982767105,-0.22743378579616547
1695712741754334000,1.849333984375,-0.07483477145433426,-0.18029586970806122,-0.39361491799354553
1695712741764369200,1.859369140625,-0.08335687965154648,-0.2005358785390854,-0.4575307369232178
1695712741774400800,1.86940087890625,-0.06737792491912842,-0.07376950979232788,-0.4287686049938202
1695712741784432600,1.8794326171875,-0.052464235574007034,0.05512739345431328,-0.3392864763736725
1695712741794464000,1.889464111328125,-0.052464235574007034,0.25313326716423035,-0.1933453530073166
1695712741804514600,1.8995146484375,-0.03328948840498924,0.5929523706436157,-0.02090579830110073
1695712741814548000,1.9095478515625,-0.031158961355686188,1.1147984266281128,0.13249216973781586
1695712741824559600,1.9195595703125,-0.12170637398958206,1.5684674978256226,0.2624543309211731
1695712741834591000,1.929591064453125,-0.1994706094264984,1.5588802099227905,0.36152383685112
1695712741844650200,1.939650146484375,-0.20586219429969788,1.2712589502334595,0.4103928208351135
1695712741854684200,1.94968408203125,-0.20160114765167236,0.9624657034873962,0.3806985914707184
1695712741864688600,1.959688720703125,-0.18349166214466095,0.7803056240081787,0.32104381918907166
1695712741874719500,1.969719482421875,-0.20373167097568512,0.6099966168403625,0.2390185296535492
1695712741884779300,1.979779296875,-0.22929799556732178,0.5609944462776184,0.22836589813232422
1695712741894813200,1.989813232421875,-0.21544957160949707,0.45127230882644653,0.18469008803367615
1695712741904845000,1.999844970703125,-0.17070849239826202,0.3767038583755493,0.09201214462518692
1695712741914878700,2.009878662109375,-0.1430116444826126,0.28083011507987976,-0.030493171885609627
1695712741924913700,2.01991357421875,-0.12064110487699509,0.146606907248497,-0.13475584983825684
1695712741934947300,2.029947265625,-0.11744531989097595,0.05512739345431328,-0.1837579756975174
1695712741944948200,2.0399482421875,-0.12170637398958206,0.010386320762336254,-0.17310534417629242
1695712741954978800,2.049978759765625,-0.07909582555294037,-0.0918789878487587,-0.13169321417808533
1695712741965009700,2.060009765625,-0.0492684431374073,-0.24314641952514648,-0.12530162930488586
1695712741975040300,2.070040283203125,-0.04607265070080757,-0.3880222737789154,-0.18162745237350464
1695712741985106400,2.0801064453125,-0.04394212365150452,-0.45500072836875916,-0.26152223348617554
1695712741995140600,2.090140625,-0.031158961355686188,-0.434760719537735,-0.31798118352890015
1695712742005167000,2.1001669921875,-0.006657897960394621,-0.40080544352531433,-0.3488738536834717
1695712742015200500,2.110200439453125,0.023169483989477158,-0.3507380485534668,-0.35100436210632324
1695712742025205200,2.120205322265625,0.03701791167259216,-0.28256118297576904,-0.31798118352890015
1695712742035235600,2.130235595703125,0.06258423626422882,-0.2474074810743332,-0.25193485617637634
1695712742045270300,2.140270263671875,0.06897582113742828,-0.2186453640460968,-0.14008216559886932
1695712742055301000,2.150301025390625,0.048735812306404114,-0.18881797790527344,-0.03368896245956421
1695712742065333500,2.16033349609375,0.02636527456343174,-0.18881797790527344,0.03235738351941109
1695712742075364600,2.170364501953125,-0.0034621069207787514,-0.23995064198970795,0.0504668653011322
1695712742085398300,2.180398193359375,-0.029028434306383133,-0.31558436155319214,0.024900536984205246
1695712742095429600,2.1904296875,0.003994738683104515,-0.27723485231399536,0.01850895583629608
1695712742105492500,2.200492431640625,0.016777902841567993,-0.1898832470178604,0.012117373757064342
1695712742115527200,2.210527099609375,0.014647374860942364,-0.17070849239826202,-0.0294279083609581
1695712742125553400,2.220553466796875,0.02210422046482563,-0.18349166214466095,-0.08482161909341812
1695712742135587000,2.230587158203125,0.03169159218668938,-0.1771000772714615,-0.11677952855825424
1695712742145593000,2.240593017578125,0.035952646285295486,-0.1249021589756012,-0.11784479022026062
1695712742155624000,2.2506240234375,0.03488738462328911,-0.08016108721494675,-0.09653951972723007
1695712742165661200,2.2606611328125,0.024234747514128685,-0.07163897901773453,-0.06032055243849754
1695712742175692500,2.270692626953125,0.015712639316916466,-0.08016108721494675,-0.04221107065677643
1695712742185729800,2.280729736328125,0.010386320762336254,-0.0918789878487587,-0.039015281945466995
1695712742195762000,2.290761962890625,0.0050600022077560425,-0.11957584321498871,-0.04647212475538254
1695712742205791500,2.30079150390625,0.008255792781710625,-0.14088112115859985,-0.051798444241285324
1695712742215823000,2.310822998046875,0.025300011038780212,-0.15579481422901154,-0.04647212475538254
1695712742225884000,2.3208837890625,0.04767054691910744,-0.11424952745437622,-0.010253162123262882
1695712742235918800,2.3309189453125,0.05299686640501022,0.011451584286987782,0.06218476593494415
1695712742245913300,2.340913330078125,0.03169159218668938,0.10199899226427078,0.11544794589281082
1695712742255944000,2.35094384765625,0.011451584286987782,0.10626004636287689,0.1069258376955986
1695712742266013200,2.36101318359375,0.019973693415522575,0.09773793816566467,0.05685844644904137
1695712742276047600,2.371047607421875,0.019973693415522575,0.06471476703882217,-0.011318426579236984
1695712742286077000,2.381076904296875,0.029561065137386322,0.04340949282050133,-0.06671213358640671
1695712742296111000,2.391111083984375,0.03808317333459854,-0.0002663159102667123,-0.0954742506146431
1695712742306118000,2.401117919921875,0.04980107396841049,-0.10892320424318314,-0.10719215124845505
1695712742316149000,2.41114892578125,0.08282424509525299,0.01784316636621952,-0.047537390142679214
1695712742326198800,2.42119873046875,0.06258423626422882,0.06471476703882217,0.0153131652623415
1695712742336232200,2.431232177734375,0.06578002870082855,0.008255792781710625,0.014247900806367397
1695712742346236400,2.441236328125,0.06471476703882217,0.009321057237684727,0.012117373757064342
1695712742356266800,2.451266845703125,0.05193160101771355,0.048735812306404114,0.024900536984205246
1695712742366329000,2.4613291015625,0.044474758207798004,0.0870852991938591,0.0366184376180172
1695712742376362800,2.47136279296875,0.03808317333459854,0.12756532430648804,0.04833633825182915
1695712742386372400,2.481372314453125,0.027430538088083267,0.17110797762870789,0.05472791939973831
1695712742396403500,2.491403564453125,0.03169159218668938,0.15725953876972198,0.04407528415322304
1695712742406437400,2.501437255859375,0.056192658841609955,0.1519332230091095,0.05685844644904137
1695712742416468700,2.51146875,0.06471476703882217,0.17217323184013367,0.07922898232936859
1695712742426509300,2.52150927734375,0.060453712940216064,0.16684691607952118,0.07922898232936859
1695712742436541400,2.53154150390625,0.05299686640501022,0.12223900109529495,0.06751108169555664
1695712742446718700,2.54171875,0.0636495053768158,0.11478215456008911,0.06857634335756302
1695712742456763600,2.551763671875,0.0966726765036583,0.20945745706558228,0.0930774137377739
1695712742466808600,2.56180859375,0.08602003753185272,0.1934785097837448,0.11012163013219833
1695712742476686000,2.57168603515625,0.04767054691910744,0.09773793816566467,0.07709845900535583
1695712742486718000,2.581718017578125,0.04127896577119827,0.07217161357402802,0.040879491716623306
1695712742496721400,2.591721435546875,0.02210422046482563,0.06684529036283493,0.009986846707761288
1695712742506750500,2.60175048828125,0.02210422046482563,0.05725792050361633,-0.012383690103888512
1695712742516790000,2.6117900390625,0.030626330524683,0.05086633935570717,-0.0006657897611148655
1695712742526820000,2.621820068359375,0.024234747514128685,-0.0002663159102667123,0.016378428786993027
1695712742536860000,2.63185986328125,0.03382211923599243,0.0050600022077560425,0.0366184376180172
1695712742546891000,2.64189111328125,0.03701791167259216,0.015712639316916466,0.030226856470108032
1695712742556920800,2.6519208984375,0.021038956940174103,-0.020506324246525764,0.004660528618842363
1695712742566951700,2.66195166015625,0.018908429890871048,0.019973693415522575,0.01957421936094761
1695712742576979200,2.671979248046875,-0.001331579522229731,0.05086633935570717,0.03981423005461693
1695712742587009800,2.682009765625,0.0050600022077560425,0.11584742367267609,0.05898897349834442
1695712742597070000,2.692070068359375,-0.0023968431632965803,0.12223900109529495,0.07070687413215637
1695712742607103500,2.702103515625,-0.008788425475358963,0.08495477586984634,0.049401599913835526
1695712742617112300,2.7121123046875,-0.027963170781731606,0.030626330524683,0.0025300011038780212
1695712742627143200,2.72214306640625,-0.001331579522229731,0.0540621280670166,-0.005992108024656773
1695712742637179400,2.732179443359375,0.023169483989477158,0.11797794699668884,0.049401599913835526
1695712742647211000,2.7422109375,-0.03861580789089203,0.014647374860942364,0.04194475710391998
1695712742657226000,2.75222607421875,-0.06524740159511566,-0.05033370852470398,-0.019840534776449203
1695712742667255800,2.762255859375,-0.04713791608810425,-0.011984216049313545,-0.027297381311655045
1695712742677323300,2.7723232421875,-0.0354200154542923,0.024234747514128685,-0.003861580742523074
1695712742687357200,2.782357177734375,0.01784316636621952,0.13701952993869781,0.05685844644904137
1695712742697388000,2.792387939453125,0.011451584286987782,0.14767217636108398,0.0739026665687561
1695712742707421400,2.80242138671875,-0.017310533672571182,0.10519478470087051,0.02277000993490219
1695712742717462500,2.812462646484375,-0.013049479573965073,0.08069372177124023,-0.04540686309337616
1695712742727496700,2.82249658203125,-0.03755054250359535,-0.07590003311634064,-0.12423637509346008
1695712742737512700,2.8325126953125,-0.008788425475358963,-0.11105373501777649,-0.19121482968330383
1695712742747545000,2.842545166015625,0.0636495053768158,-0.010918952524662018,-0.21891167759895325
1695712742757574100,2.85257421875,0.08815056830644608,-0.029028434306383133,-0.2253032624721527
1695712742767606300,2.862606201171875,0.13076111674308777,-0.019441060721874237,-0.23915168642997742
1695712742777641000,2.872640869140625,0.1573926955461502,-0.007723161485046148,-0.26045694947242737
1695712742787673000,2.882673095703125,0.1531316488981247,-0.05352949723601341,-0.25086960196495056
1695712742797727700,2.892727783203125,0.13715268671512604,-0.2239716798067093,-0.23595589399337769
1695712742807762400,2.902762451171875,0.11691268533468246,-0.42304283380508423,-0.2583264410495758
1695712742817789400,2.91278955078125,0.11584742367267609,-0.5572660565376282,-0.29880645871162415
1695712742827823000,2.922822998046875,0.1392832249403,-0.6233124136924744,-0.31372013688087463
1695712742837857000,2.93285693359375,0.1531316488981247,-0.6776408553123474,-0.27110961079597473
1695712742847890700,2.942890625,0.17550218105316162,-0.7266429662704468,-0.17310534417629242
1695712742857920500,2.95292041015625,0.2095906287431717,-0.6648576855659485,-0.0017310534603893757
1695712742867954000,2.962953857421875,0.19361166656017303,-0.591354489326477,0.17084164917469025
1695712742877949400,2.972949462890625,0.19787272810935974,-0.4858933687210083,0.296542763710022
1695712742887978800,2.982978759765625,0.2277000993490219,-0.3028011918067932,0.40506649017333984
1695712742898018800,2.993018798828125,0.21598219871520996,-0.3699128031730652,0.5254412889480591
1695712742908049400,3.00304931640625,0.2277000993490219,-0.49228495359420776,0.6532729268074036
1695712742918088000,3.013087890625,0.23835274577140808,-0.14194637537002563,0.6756434440612793
1695712742928119300,3.023119384765625,0.204264298081398,-0.016245270147919655,0.6064013242721558
1695712742938171400,3.03317138671875,0.1861548274755478,0.03914843872189522,0.5169191956520081
1695712742948204800,3.043204833984375,0.1808284968137741,0.09347688406705856,0.4199801981449127
1695712742958237000,3.05323681640625,0.19148114323616028,0.09880319982767105,0.32104381918907166
1695712742968270000,3.06327001953125,0.1808284968137741,0.05299686640501022,0.2486059069633484
1695712742978305300,3.07330517578125,0.1627190262079239,-0.010918952524662018,0.22836589813232422
1695712742988339000,3.0833388671875,0.14141374826431274,-0.09081372618675232,0.24967116117477417
1695712742998338300,3.09333837890625,0.12223900109529495,-0.1579253375530243,0.2848248779773712
1695712743008368000,3.1033681640625,0.1009337306022644,-0.17816534638404846,0.31252172589302063
1695712743018436000,3.11343603515625,0.07110634446144104,-0.15366427600383759,0.3199785649776459
1695712743028470000,3.123469970703125,0.04767054691910744,-0.10785794258117676,0.3135869801044464
1695712743038493700,3.13349365234375,0.030626330524683,-0.05033370852470398,0.2986733019351959
1695712743048526300,3.1435263671875,0.01784316636621952,-0.001331579522229731,0.27949854731559753
1695712743058502100,3.153502197265625,0.012516847811639309,0.04127896577119827,0.25499749183654785
1695712743068529200,3.163529052734375,0.014647374860942364,0.07004108279943466,0.2241048365831375
1695712743078621000,3.173620849609375,0.011451584286987782,0.05725792050361633,0.1868206113576889
1695712743088654600,3.183654541015625,0.02210422046482563,0.021038956940174103,0.1495363861322403
1695712743098669000,3.1936689453125,0.03808317333459854,-0.04287686198949814,0.12823110818862915
1695712743108701000,3.203700927734375,0.04660528525710106,-0.09294424951076508,0.13249216973781586
1695712743118757000,3.213757080078125,0.05725792050361633,-0.1249021589756012,0.16018901765346527
1695712743128791300,3.223791259765625,0.0913463607430458,-0.13555480539798737,0.19534271955490112
1695712743138795800,3.233795654296875,0.13076111674308777,-0.12277163565158844,0.2390185296535492
1695712743148827000,3.243826904296875,0.12863057851791382,-0.14088112115859985,0.2720417082309723
1695712743158888400,3.253888427734375,0.0966726765036583,-0.18029586970806122,0.27310696244239807
1695712743168922600,3.263922607421875,0.07430213689804077,-0.21331904828548431,0.2635195851325989
1695712743178956300,3.273956298828125,0.05832318589091301,-0.21225377917289734,0.2571280002593994
1695712743188990500,3.283990478515625,-0.010918952524662018,-0.1909485012292862,0.25925853848457336
1695712743198990600,3.293990478515625,-0.004527370445430279,-0.07909582555294037,0.2869553864002228
1695712743209021200,3.304021240234375,-0.005592633970081806,0.0018642114009708166,0.31571751832962036
1695712743219053600,3.314053466796875,0.013582111336290836,-0.007723161485046148,0.36258912086486816
1695712743229084400,3.32408447265625,-0.008788425475358963,-0.0588558167219162,0.3689807057380676
1695712743239140900,3.334140869140625,-0.020506324246525764,-0.2186453640460968,0.3668501675128937
1695712743249174300,3.34417431640625,-0.0034621069207787514,-0.2655169665813446,0.34447962045669556
1695712743259170600,3.354170654296875,-0.004527370445430279,-0.12809795141220093,0.2635195851325989
1695712743269200100,3.3642001953125,0.00612526573240757,0.013582111336290836,0.1868206113576889
1695712743279274200,3.374274169921875,0.018908429890871048,0.05512739345431328,0.15273217856884003
1695712743289308400,3.384308349609375,0.029561065137386322,0.008255792781710625,0.13249216973781586
1695712743299319800,3.39431982421875,0.044474758207798004,-0.05139897018671036,0.08668582886457443
1695712743309351700,3.4043515625,0.05725792050361633,-0.08761793375015259,-0.004926844500005245
1695712743319403500,3.414403564453125,0.044474758207798004,-0.08974846452474594,-0.08908267319202423
1695712743329437400,3.4244375,0.04127896577119827,-0.07803056389093399,-0.15180006623268127
1695712743339472400,3.434472412109375,0.03488738462328911,-0.03009369783103466,-0.2167811542749405
1695712743349506300,3.44450634765625,0.023169483989477158,-0.0034621069207787514,-0.2913496196269989
1695712743359534600,3.45453466796875,-0.004527370445430279,-0.02583264373242855,-0.3627222776412964
1695712743369568000,3.464568115234375,-0.040746334940195084,-0.07803056389093399,-0.41172438859939575
1695712743379603000,3.47460302734375,-0.07909582555294037,-0.11851058155298233,-0.44368231296539307
1695712743389636600,3.48463671875,-0.12383689731359482,-0.12383689731359482,-0.46818336844444275
1695712743399639000,3.49463916015625,-0.17283903062343597,-0.09081372618675232,-0.49161916971206665
1695712743409669400,3.50466943359375,-0.2143843024969101,-0.03435475379228592,-0.5193160176277161
1695712743419698700,3.51469873046875,-0.23568958044052124,0.014647374860942364,-0.5512739419937134
1695712743429729000,3.52472900390625,-0.25379905104637146,0.029561065137386322,-0.586427628993988
1695712743439796200,3.534796142578125,-0.26764747500419617,0.027430538088083267,-0.6269076466560364
1695712743449830400,3.544830322265625,-0.2792322337627411,0.04127896577119827,-0.6641919016838074
1695712743459839500,3.554839599609375,-0.2941459119319916,0.060453712940216064,-0.7045387625694275
1695712743469871000,3.56487109375,-0.302668035030365,0.09241162240505219,-0.7705850601196289
1695712743479918300,3.57491845703125,-0.30373328924179077,0.13182637095451355,-0.8888293504714966
1695712743489951500,3.584951416015625,-0.31012487411499023,0.09241162240505219,-1.0667283535003662
1695712743499964000,3.5949638671875,-0.3165164589881897,0.003994738683104515,-1.279647946357727
1695712743509995000,3.6049951171875,-0.3218427896499634,-0.08442214131355286,-1.5203975439071655
1695712743520021200,3.615021240234375,-0.34314805269241333,-0.10146636515855789,-1.7737971544265747
1695712743530051800,3.6250517578125,-0.3580617308616638,-0.06950845569372177,-2.00282883644104
1695712743540113200,3.635113037109375,-0.39321544766426086,-0.12809795141220093,-2.19564151763916
1695712743550146800,3.645146728515625,-0.44967442750930786,-0.20799273252487183,-2.33612322807312
1695712743560185300,3.655185302734375,-0.499741792678833,-0.33902016282081604,-2.410691738128662
1695712743570219500,3.665219482421875,-0.5519397258758545,-0.4018706977367401,-2.4224095344543457
1695712743580247600,3.67524755859375,-0.6190513372421265,-0.38589176535606384,-2.3947126865386963
1695712743590281200,3.68528125,-0.6275734305381775,-0.303866446018219,-2.292447328567505
1695712743600286500,3.695286376953125,-0.6094639897346497,-0.2857569754123688,-2.216946840286255
1695712743610317000,3.705317138671875,-0.5071986317634583,-0.35712963342666626,-2.147704601287842
1695712743620376800,3.715376953125,-0.3644533157348633,-0.6627271175384521,-2.1061594486236572
1695712743630410200,3.72541015625,-0.17816534638404846,-0.9544762372970581,-2.0092203617095947
1695712743640410000,3.73541015625,-0.03861580789089203,-1.1302447319030762,-1.8835192918777466
1695712743650440200,3.745440185546875,0.04660528525710106,-1.1100046634674072,-1.7259933948516846
1695712743660471300,3.75547119140625,0.09986846894025803,-1.017326831817627,-1.5544859170913696
1695712743670501400,3.76550146484375,0.13502216339111328,-0.9322388172149658,-1.4021532535552979
1695712743680551000,3.775551025390625,0.19467693567276,-0.8107987642288208,-1.255146861076355
1695712743690583000,3.7855830078125,0.22130851447582245,-0.7127945423126221,-1.117861032485962
1695712743700604400,3.7956044921875,0.19361166656017303,-0.6733797788619995,-0.9942904710769653
1695712743710635500,3.805635498046875,0.17763271927833557,-0.5615270733833313,-0.8366314172744751
1695712743720676400,3.81567626953125,0.14993585646152496,-0.46565335988998413,-0.673646092414856
1695712743730708200,3.825708251953125,0.1201084777712822,-0.4720449447631836,-0.5416865348815918
1695712743740765200,3.83576513671875,0.0870852991938591,-0.5892239809036255,-0.42024651169776917
1695712743750799600,3.845799560546875,0.044474758207798004,-0.6701840162277222,-0.3211769759654999
1695712743760833800,3.855833740234375,-0.0002663159102667123,-0.679771363735199,-0.2498043179512024
1695712743770868200,3.8658681640625,-0.05459476262331009,-0.7266429662704468,-0.16138744354248047
1695712743780892000,3.875891845703125,-0.040746334940195084,-0.7809714078903198,-0.07416898012161255
1695712743790925300,3.88592529296875,-0.001331579522229731,-0.7948198318481445,-0.011318426579236984
1695712743800946000,3.89594580078125,0.03275685757398605,-0.7841671705245972,0.05259739235043526
1695712743810978000,3.90597802734375,0.06258423626422882,-0.7596661448478699,0.11864373832941055
1695712743821002500,3.91600244140625,0.09454214572906494,-0.7309040427207947,0.163384810090065
1695712743831033900,3.926033935546875,0.12543480098247528,-0.7053377032279968,0.17190691828727722
1695712743841074200,3.93607421875,0.1573926955461502,-0.68829345703125,0.13355742394924164
1695712743851106300,3.946106201171875,0.1808284968137741,-0.6456829309463501,0.06218476593494415
1695712743861121300,3.956121337890625,0.19467693567276,-0.591354489326477,-0.015579480677843094
1695712743871151900,3.96615185546875,0.20746009051799774,-0.5327649712562561,-0.06990792602300644
1695712743881351700,3.9763515625,0.19893798232078552,-0.4944154918193817,-0.09440898895263672
1695712743891419400,3.98641943359375,0.1712411344051361,-0.4720449447631836,-0.06990792602300644
1695712743901467000,3.996466796875,0.14141374826431274,-0.46032705903053284,0.005725792143493891
1695712743911303700,4.0063037109375,0.11691268533468246,-0.45500072836875916,0.11438268423080444
1695712743921335000,4.0163349609375,0.09986846894025803,-0.4539354741573334,0.20919114351272583
1695712743931359000,4.02635888671875,0.08388951420783997,-0.4571312665939331,0.26884591579437256
1695712743941389300,4.036389404296875,0.07430213689804077,-0.4486091434955597,0.28375959396362305
1695712743951423200,4.04642333984375,0.0732368752360344,-0.43156492710113525,0.24114905297756195
1695712743961454000,4.0564541015625,0.0636495053768158,-0.4059986174106598,0.15805849432945251
1695712743971470600,4.066470703125,0.04127896577119827,-0.3837612271308899,0.06325002759695053
1695712743981500000,4.0765,0.008255792781710625,-0.38589176535606384,-0.03795001655817032
1695712743991542800,4.086542724609375,-0.029028434306383133,-0.3869570195674896,-0.11038794368505478
1695712744001573600,4.09657373046875,-0.06950845569372177,-0.41345545649528503,-0.11358373612165451
1695712744011628500,4.106628662109375,-0.11851058155298233,-0.47417548298835754,-0.04540686309337616
1695712744021661700,4.11666162109375,-0.17390428483486176,-0.515720784664154,0.0504668653011322
1695712744031670300,4.126670166015625,-0.21651484072208405,-0.48376286029815674,0.15592797100543976
1695712744041700900,4.136700927734375,-0.25379905104637146,-0.4059986174106598,0.27949854731559753
1695712744051771400,4.146771484375,-0.28136277198791504,-0.3091927766799927,0.48922231793403625
1695712744061806000,4.15680615234375,-0.25912538170814514,-0.16964323818683624,0.7171887755393982
1695712744071802000,4.166802001953125,-0.171773761510849,-0.03009369783103466,0.7683213949203491
1695712744081833000,4.1768330078125,-0.0727042406797409,0.05938844755291939,0.6095971465110779
1695712744091897600,4.186897705078125,-0.020506324246525764,0.03488738462328911,0.3988080620765686
1695712744101931800,4.196931884765625,0.012516847811639309,-0.08868319541215897,0.25606274604797363
1695712744111965000,4.20696484375,0.003994738683104515,-0.22610220313072205,0.1921469271183014
1695712744121998800,4.216998779296875,-0.036485280841588974,-0.3837612271308899,0.17829850316047668
1695712744132023800,4.22702392578125,-0.08016108721494675,-0.5476786494255066,0.16658060252666473
1695712744142057000,4.237056884765625,-0.13342426717281342,-0.5221123695373535,0.1676458716392517
1695712744152067000,4.247067138671875,-0.21118851006031036,-0.19201377034187317,0.2720417082309723
1695712744162098000,4.257097900390625,-0.3122554123401642,0.30107012391090393,0.6095971465110779
1695712744172143000,4.26714306640625,-0.4539354741573334,0.6972150802612305,1.1889673471450806
1695712744182175200,4.27717529296875,-0.5657881498336792,0.8356993198394775,1.8514281511306763
1695712744192214800,4.28721484375,-0.6020070910453796,0.6950845122337341,2.362621545791626
1695712744202247700,4.29724755859375,-0.5966808199882507,0.6185187101364136,2.691654920578003
1695712744212279300,4.307279296875,-0.5359607934951782,0.8612656593322754,2.7630276679992676
1695712744222312200,4.317312255859375,-0.44541335105895996,1.4502233266830444,2.5330638885498047
1695712744232322800,4.32732275390625,-0.3729754388332367,2.090313673019409,2.125067710876465
1695712744242353400,4.337353515625,-0.2612559199333191,2.3522353172302246,1.848232388496399
1695712744252385000,4.347385009765625,-0.12703268229961395,2.0242671966552734,1.7970997095108032
1695712744262415600,4.35741552734375,-0.06950845569372177,1.2307789325714111,1.855689287185669
1695712744272454400,4.367454345703125,-0.11638005077838898,0.533297598361969,1.944106101989746
1695712744282485800,4.37748583984375,-0.15153375267982483,0.23289325833320618,1.9877820014953613
1695712744292546300,4.38754638671875,-0.13235901296138763,0.4299670457839966,2.02599835395813
1695712744302580700,4.397580810546875,-0.09081372618675232,0.9209204316139221,2.1112194061279297
1695712744312601600,4.4076015625,-0.04181159660220146,1.4438316822052002,2.2752699851989746
1695712744322634800,4.417634765625,0.02636527456343174,1.8911092281341553,2.4787354469299316
1695712744332651300,4.4276513671875,0.0732368752360344,2.1765999794006348,2.656501293182373
1695712744342682600,4.4376826171875,0.06897582113742828,2.2767348289489746,2.766223430633545
1695712744352730400,4.44773046875,0.011451584286987782,2.1094882488250732,2.7971160411834717
1695712744362763300,4.45776318359375,-0.11957584321498871,1.7165391445159912,2.717221260070801
1695712744372800500,4.467800537109375,-0.21971063315868378,1.25101900100708,2.4606258869171143
1695712744382834000,4.477833984375,-0.2824280261993408,0.820785641670227,2.079261541366577
1695712744392856000,4.48785595703125,-0.2516685426235199,0.47364285588264465,1.7129439115524292
1695712744402888200,4.49788818359375,-0.15686006844043732,0.2414153665304184,1.4787191152572632
1695712744412920000,4.507920166015625,-0.08974846452474594,0.14341111481189728,1.338104248046875
1695712744422952200,4.5179521484375,-0.08016108721494675,0.1753690242767334,1.2124031782150269
1695712744432949800,4.52794970703125,-0.10146636515855789,0.26165539026260376,1.1133337020874023
1695712744442978600,4.537978515625,-0.14088112115859985,0.3884217441082001,1.0632662773132324
1695712744453080800,4.548080810546875,-0.1760348230600357,0.5194491744041443,1.0217210054397583
1695712744463117000,4.558116943359375,-0.2090579867362976,0.6589987277984619,0.9865673184394836
1695712744473102800,4.568102783203125,-0.21971063315868378,0.8080024719238281,0.9556746482849121
1695712744483134000,4.578134033203125,-0.2186453640460968,0.9283772706985474,0.932371973991394
1695712744493165600,4.58816552734375,-0.21225377917289734,0.9901625514030457,0.9270457029342651
1695712744503197000,4.598197021484375,-0.1952095627784729,0.9496825337409973,0.95993572473526
1695712744513223000,4.608222900390625,-0.1664474457502365,0.8431561589241028,1.0131988525390625
1695712744523253500,4.61825341796875,-0.14940322935581207,0.7387603521347046,1.0419609546661377
1695712744533317600,4.628317626953125,-0.13662005960941315,0.6643250584602356,1.0419609546661377
1695712744543351600,4.6383515625,-0.10146636515855789,0.616388201713562,1.0376999378204346
1695712744553369900,4.648369873046875,-0.048203181475400925,0.5663207769393921,1.0515483617782593
1695712744563402200,4.65840234375,0.011451584286987782,0.4853607416152954,1.089897871017456
1695712744573439500,4.668439453125,0.0636495053768158,0.3543333113193512,1.1484873294830322
1695712744583472400,4.678472412109375,0.13182637095451355,0.1934785097837448,1.199620008468628
1695712744593506300,4.68850634765625,0.20106850564479828,0.018908429890871048,1.2273168563842773
1695712744603539200,4.698539306640625,0.2925480306148529,-0.06311687082052231,1.2315778732299805
1695712744613560300,4.708560302734375,0.39800912141799927,0.03382211923599243,1.1634010076522827
1695712744623592200,4.71859228515625,0.48749127984046936,0.3213101327419281,0.9918935894966125
1695712744633621800,4.728621826171875,0.4960133731365204,0.67484450340271,0.7491466403007507
1695712744643653000,4.738653076171875,0.3585943877696991,0.9326383471488953,0.4956139028072357
1695712744653698300,4.7486982421875,0.11904320865869522,1.0295772552490234,0.34447962045669556
1695712744663731200,4.758731201171875,-0.14620743691921234,1.0412951707839966,0.4041343927383423
1695712744673744100,4.768744140625,-0.29947224259376526,1.1627352237701416,0.6095971465110779
1695712744683775000,4.77877490234375,-0.3399522602558136,1.3170653581619263,0.726776123046875
1695712744693839600,4.788839599609375,-0.348474383354187,1.3703285455703735,0.6447508335113525
1695712744703874000,4.7988740234375,-0.3079943358898163,1.269128441810608,0.425306499004364
1695712744713873700,4.808873779296875,-0.27603644132614136,0.9795098900794983,0.17084164917469025
1695712744723904500,4.818904541015625,-0.3175817131996155,0.57058185338974,-0.026232117787003517
1695712744733939000,4.82893896484375,-0.42304283380508423,0.060453712940216064,-0.12636689841747284
1695712744743970000,4.838969970703125,-0.4581965208053589,-0.2655169665813446,-0.29348012804985046
1695712744754023000,4.84902294921875,-0.46458810567855835,-0.0918789878487587,-0.6928208470344543
1695712744764056300,4.859056396484375,-0.5530049800872803,0.3628554344177246,-1.1849726438522339
1695712744774101000,4.86910107421875,-0.6936197876930237,0.7302381992340088,-1.5704649686813354
1695712744784135400,4.879135498046875,-0.8447540402412415,0.9827057123184204,-1.9314560890197754
1695712744794164000,4.8891640625,-0.9523456692695618,1.3117389678955078,-2.345710515975952
1695712744804198000,4.899197998046875,-1.0120004415512085,1.6803202629089355,-2.71429181098938
1695712744814225400,4.909225341796875,-1.0333057641983032,1.9379808902740479,-2.8091001510620117
1695712744824258800,4.9192587890625,-0.9981520175933838,1.91987144947052,-2.574742317199707
1695712744834296000,4.929296142578125,-0.9704551696777344,1.6792550086975098,-2.1604878902435303
1695712744844329700,4.939329833984375,-0.9470193982124329,1.4779201745986938,-1.8132119178771973
1695712744854325500,4.949325439453125,-0.8745814561843872,1.4427664279937744,-1.6982965469360352
1695712744864355300,4.959355224609375,-0.7852324843406677,1.2787158489227295,-1.8302561044692993
1695712744874413000,4.9694130859375,-0.7000113725662231,0.7685877084732056,-2.112550973892212
1695712744884445700,4.97944580078125,-0.6222470998764038,-0.1291632205247879,-2.4245400428771973
1695712744894480600,4.989480712890625,-0.5316997170448303,-0.9491499066352844,-2.6919212341308594
1695712744904513300,4.99951318359375,-0.45500072836875916,-1.35714590549469,-2.922950267791748
1695712744914535400,5.009535400390625,-0.40812912583351135,-1.06419837474823,-3.216963052749634
1695712744924567000,5.019567138671875,-0.4251733422279358,-0.6083986759185791,-3.550257444381714
1695712744934611200,5.029611083984375,-0.5050681233406067,-0.44541335105895996,-3.7910070419311523
1695712744944644000,5.03964404296875,-0.6328997611999512,-0.7021418809890747,-3.9389455318450928
1695712744954689000,5.04968896484375,-0.7703187465667725,-1.2783163785934448,-3.9836864471435547
1695712744964723200,5.05972314453125,-0.8884298801422119,-1.8608824014663696,-3.8783586025238037
1695712744974739500,5.069739501953125,-0.912930965423584,-2.1675450801849365,-3.70898175239563
1695712744984771800,5.079771728515625,-0.8532761931419373,-2.1377177238464355,-3.5182995796203613
1695712744994830600,5.08983056640625,-0.7767103314399719,-1.9301245212554932,-3.32561993598938
1695712745004865800,5.09986572265625,-0.6829671263694763,-1.8907097578048706,-3.136003017425537
1695712745014882600,5.109882568359375,-0.6062681674957275,-1.9567561149597168,-2.9399945735931396
1695712745024915700,5.119915771484375,-0.5253081321716309,-2.0972378253936768,-2.7654244899749756
1695712745034946600,5.129946533203125,-0.41239017248153687,-2.2762022018432617,-2.5907211303710938
1695712745044979500,5.1399794921875,-0.31438592076301575,-2.388054847717285,-2.391516923904419
1695712745055012400,5.150012451171875,-0.2516685426235199,-2.3901853561401367,-2.107224702835083
1695712745065045200,5.160045166015625,-0.1952095627784729,-2.3081600666046143,-1.7153407335281372
1695712745075063600,5.1700634765625,-0.14514216780662537,-2.164349317550659,-1.2412984371185303
1695712745085095000,5.180094970703125,-0.08868319541215897,-1.9908446073532104,-0.727974534034729
1695712745095112700,5.19011279296875,-0.027963170781731606,-1.7937707901000977,-0.20506325364112854
1695712745105142500,5.200142578125,0.02210422046482563,-1.5807180404663086,0.3093259334564209
1695712745115184400,5.210184326171875,0.08495477586984634,-1.3656679391860962,0.7736477255821228
1695712745125215500,5.220215576171875,0.15632744133472443,-1.2016173601150513,1.1825758218765259
1695712745135249000,5.230248779296875,0.2191779911518097,-1.02158784866333,1.5361101627349854
1695712745145280300,5.2402802734375,0.2733732759952545,-0.8161250948905945,1.8237313032150269
1695712745155299300,5.25029931640625,0.32450592517852783,-0.6222470998764038,2.039846658706665
1695712745165329400,5.260329345703125,0.4203796684741974,-0.4677838981151581,2.2113542556762695
1695712745175399400,5.2703994140625,0.554602861404419,-0.27830013632774353,2.3019015789031982
1695712745185433600,5.28043359375,0.6483460664749146,-0.09081372618675232,1.9845861196517944
1695712745195456000,5.2904560546875,0.6930871605873108,-0.016245270147919655,0.8588688373565674
1695712745205489200,5.3004892578125,0.7846998572349548,-0.2559295892715454,-0.6471476554870605
1695712745215526000,5.31052587890625,0.9411604404449463,-1.2484890222549438,-1.7196018695831299
1695712745225559300,5.320559326171875,0.8910930156707764,-1.8800572156906128,-2.3797988891601562
1695712745235565300,5.3305654296875,0.334093302488327,-1.6020233631134033,-2.4831295013427734
1695712745245596000,5.340595947265625,-0.2877543270587921,-1.0492846965789795,-2.1402478218078613
1695712745255632000,5.3506318359375,-0.7745798230171204,-0.8864325284957886,-1.8707361221313477
1695712745265663000,5.3606630859375,-0.9598025679588318,-1.2005521059036255,-1.7153407335281372
1695712745275720200,5.37072021484375,-0.792689323425293,-1.2197269201278687,-1.473525881767273
1695712745285754000,5.380754150390625,-0.4443480968475342,-0.7309040427207947,-0.8526104092597961
1695712745295757000,5.390757080078125,-0.34208279848098755,-0.02157158963382244,0.10799109935760498
1695712745305787600,5.40078759765625,-0.4432828426361084,0.16365112364292145,1.1921632289886475
1695712745315816400,5.41081640625,-0.41345545649528503,-0.09081372618675232,2.1218719482421875
1695712745325847000,5.420846923828125,-0.23995064198970795,-0.28682222962379456,2.5149543285369873
1695712745335883000,5.430883056640625,-0.12064110487699509,-0.19734008610248566,2.1474382877349854
1695712745345913900,5.440913818359375,-0.23675484955310822,0.38522595167160034,0.7672561407089233
1695712745355975000,5.450974853515625,-0.2516685426235199,0.8175898194313049,-0.13369058072566986
1695712745366008800,5.4610087890625,-0.17283903062343597,0.4917523264884949,0.04620581120252609
1695712745376015600,5.471015625,-0.3857586085796356,-0.03861580789089203,0.6607297658920288
1695712745386047000,5.481046875,-0.5508744716644287,-0.29214856028556824,1.3551485538482666
1695712745396077000,5.4910771484375,-0.5764408111572266,-0.032224226742982864,2.0462381839752197
1695712745406108200,5.501108154296875,-0.5231776237487793,0.6929540038108826,2.636261224746704
1695712745416140000,5.51114013671875,-0.3772364854812622,1.4662022590637207,3.0570404529571533
1695712745426171400,5.52117138671875,-0.1664474457502365,2.006157636642456,3.3700947761535645
1695712745436207600,5.53120751953125,0.03488738462328911,2.235189437866211,3.5938000679016113
1695712745446239200,5.5412392578125,0.16165375709533691,2.2660820484161377,3.6629090309143066
1695712745456276000,5.55127587890625,0.1861548274755478,2.2415809631347656,3.5277535915374756
1695712745466308000,5.56130810546875,0.0966726765036583,2.15529465675354,3.2848734855651855
1695712745476351000,5.57135107421875,-0.08655267208814621,1.9006966352462769,2.9707539081573486
1695712745486384000,5.581384033203125,-0.2696448564529419,1.4566148519515991,2.646913766860962
1695712745496434700,5.5914345703125,-0.35593122243881226,0.9081372618675232,2.391383647918701
1695712745506469600,5.6014697265625,-0.3548659384250641,0.3958786129951477,2.209223747253418
1695712745516462300,5.61146240234375,-0.3079943358898163,0.12330426275730133,2.0718045234680176
1695712745526493000,5.621492919921875,-0.22929799556732178,0.04127896577119827,1.9558240175247192
1695712745536550400,5.63155029296875,-0.16538217663764954,0.06684529036283493,1.8514281511306763
1695712745546583800,5.641583740234375,-0.0727042406797409,0.16684691607952118,1.7768597602844238
1695712745556593700,5.65159375,0.04340949282050133,0.2648511826992035,1.7097481489181519
1695712745566624500,5.66162451171875,0.12543480098247528,0.2786996066570282,1.6820513010025024
1695712745576693000,5.67169287109375,0.13502216339111328,0.2680469751358032,1.696964979171753
1695712745586728000,5.68172802734375,0.0913463607430458,0.40333545207977295,1.7544891834259033
1695712745596751000,5.691751220703125,0.04127896577119827,0.6759097576141357,1.8418408632278442
1695712745606784800,5.70178466796875,0.0007989477599039674,0.9912278056144714,1.8961693048477173
1695712745616823600,5.711823486328125,-0.029028434306383133,1.3383705615997314,1.8631460666656494
1695712745626857700,5.721857666015625,-0.02157158963382244,1.5705981254577637,1.745967149734497
1695712745636853200,5.731853271484375,0.023169483989477158,1.5844465494155884,1.562741756439209
1695712745646883300,5.74188330078125,0.10306425392627716,1.398025393486023,1.3359737396240234
1695712745656942000,5.751942138671875,0.22556957602500916,1.0839056968688965,1.1484873294830322
1695712745666975200,5.761975341796875,0.34794172644615173,0.67484450340271,1.0792452096939087
1695712745676981800,5.771981689453125,0.411857545375824,0.23395852744579315,1.1463568210601807
1695712745687012400,5.782012451171875,0.42783650755882263,-0.11851058155298233,1.3167990446090698
1695712745697048300,5.79204833984375,0.39800912141799927,-0.23995064198970795,1.4839122295379639
1695712745707079200,5.8020791015625,0.34687647223472595,-0.09507478028535843,1.5606112480163574
1695712745717134600,5.812134521484375,0.2829606533050537,0.22330589592456818,1.4945648908615112
1695712745727168000,5.82216796875,0.22024326026439667,0.524775505065918,1.2944284677505493
1695712745737181200,5.83218115234375,0.1435442715883255,0.7195855975151062,1.0238515138626099
1695712745747212500,5.842212646484375,0.021038956940174103,0.7376950979232788,0.7278413772583008
1695712745757249800,5.852249755859375,-0.12064110487699509,0.6579334735870361,0.4870918095111847
1695712745767281700,5.86228173828125,-0.2090579867362976,0.6791055798530579,0.3668501675128937
1695712745777305900,5.872305908203125,-0.2569948434829712,0.8548740744590759,0.33063119649887085
1695712745787337000,5.8823369140625,-0.2984069883823395,1.0285120010375977,0.31145647168159485
1695712745797406000,5.892406005859375,-0.3580617308616638,1.0775141716003418,0.285890132188797
1695712745807441000,5.90244091796875,-0.378301739692688,0.9241161942481995,0.3008038103580475
1695712745817439500,5.912439453125,-0.3495396375656128,0.6494113206863403,0.2848248779773712
1695712745827470800,5.922470947265625,-0.3527354300022125,0.54181969165802,0.012117373757064342
1695712745837528000,5.932528076171875,-0.4326302111148834,0.6238450407981873,-0.47244441509246826
1695712745847562000,5.94256201171875,-0.5306344628334045,0.6153228878974915,-0.8781766891479492
1695712745857579500,5.95257958984375,-0.5743102431297302,0.6472808122634888,-1.2093405723571777
1695712745867611600,5.962611572265625,-0.6488786935806274,0.976314127445221,-1.6173365116119385
1695712745877636400,5.97263623046875,-0.7767103314399719,1.4289180040359497,-2.1061594486236572
1695712745887667700,5.982667724609375,-0.9629983305931091,1.6984297037124634,-2.5118916034698486
1695712745897700600,5.99270068359375,-1.0450236797332764,1.8239976167678833,-2.792056083679199
1695712745907732200,6.002732177734375,-1.0524804592132568,1.8069534301757812,-2.8952534198760986
1695712745917770800,6.012770751953125,-1.0460889339447021,1.561010718345642,-2.7249443531036377
1695712745927803100,6.02280322265625,-1.068459391593933,1.138234257698059,-2.3947126865386963
1695712745937830400,6.032830322265625,-1.0855036973953247,0.7472824454307556,-2.172205686569214
1695712745947862000,6.042862060546875,-0.9704551696777344,0.4235754609107971,-2.1402478218078613
1695712745957916200,6.052916259765625,-0.7522093057632446,0.1519332230091095,-2.270210027694702
1695712745967950000,6.0629501953125,-0.5508744716644287,-0.052464235574007034,-2.5033695697784424
1695712745977984300,6.072984375,-0.44115230441093445,-0.27297380566596985,-2.673811674118042
1695712745988018400,6.083018310546875,-0.4283691346645355,-0.6009418368339539,-2.744119167327881
1695712745998050800,6.09305078125,-0.4198470413684845,-0.8800409436225891,-2.8048391342163086
1695712746008084700,6.103084716796875,-0.4283691346645355,-0.9066725373268127,-2.9399945735931396
1695712746018115000,6.113114990234375,-0.48376286029815674,-0.8938893675804138,-3.171156644821167
1695712746028148500,6.1231484375,-0.5924197435379028,-1.0759162902832031,-3.370227813720703
1695712746038146300,6.133146240234375,-0.7245124578475952,-1.5093454122543335,-3.490602731704712
1695712746048176400,6.14317626953125,-0.8149266839027405,-1.9322550296783447,-3.5023205280303955
1695712746058214400,6.15321435546875,-0.8916256427764893,-2.1664798259735107,-3.4075121879577637
1695712746068245000,6.163244873046875,-0.9874994158744812,-2.2080252170562744,-3.249986171722412
1695712746078302700,6.173302734375,-0.9661940932273865,-2.1132166385650635,-3.0699565410614014
1695712746088336100,6.183336181640625,-0.8309056162834167,-1.992975115776062,-2.8995144367218018
1695712746098371000,6.19337109375,-0.6648576855659485,-2.026930332183838,-2.729205369949341
1695712746108404700,6.20340478515625,-0.5285038948059082,-2.1419789791107178,-2.574742317199707
1695712746118416100,6.213416015625,-0.42304283380508423,-2.2612884044647217,-2.450106382369995
1695712746128447500,6.223447509765625,-0.3346259295940399,-2.3656842708587646,-2.315883159637451
1695712746138479000,6.23347900390625,-0.2781669795513153,-2.467949628829956,-2.1402478218078613
1695712746148510500,6.243510498046875,-0.22610220313072205,-2.5094947814941406,-1.8952372074127197
1695712746158541600,6.25354150390625,-0.20373167097568512,-2.477536916732788,-1.5843133926391602
1695712746168573000,6.263572998046875,-0.1813611388206482,-2.408294677734375,-1.2030820846557617
1695712746178604300,6.273604248046875,-0.14194637537002563,-2.280463218688965,-0.7514103651046753
1695712746188635600,6.2836357421875,-0.09081372618675232,-2.0844545364379883,-0.24341274797916412
1695712746198672000,6.293671875,-0.0354200154542923,-1.854490876197815,0.27843329310417175
1695712746208703500,6.303703369140625,0.028495801612734795,-1.6499602794647217,0.7651256322860718
1695712746218742800,6.31374267578125,0.10199899226427078,-1.5050843954086304,1.194293737411499
1695712746228775400,6.323775390625,0.1627190262079239,-1.4253227710723877,1.5957648754119873
1695712746238805500,6.333805419921875,0.22130851447582245,-1.35714590549469,1.9739335775375366
1695712746248838000,6.343837890625,0.3159838318824768,-1.2676637172698975,2.263552188873291
1695712746258863000,6.353863037109375,0.4810996949672699,-1.178181529045105,2.4201457500457764
1695712746268894700,6.363894775390625,0.7090660929679871,-0.9428914785385132,2.2763352394104004
1695712746278956800,6.373956787109375,0.8655267357826233,-0.5253081321716309,1.2134684324264526
1695712746288991500,6.383991455078125,0.8708530068397522,-0.4018706977367401,-0.46818336844444275
1695712746298987500,6.393987548828125,0.7122619152069092,-1.0066741704940796,-1.4724606275558472
1695712746309018400,6.404018310546875,0.37563860416412354,-1.5498254299163818,-1.9676750898361206
1695712746319057700,6.4140576171875,0.08175898343324661,-1.5381075143814087,-2.196706771850586
1695712746329089300,6.42408935546875,-0.05779055133461952,-1.1536805629730225,-2.0156118869781494
1695712746339149300,6.4341494140625,-0.16325165331363678,-0.6861629486083984,-1.747165560722351
1695712746349183700,6.444183837890625,-0.2569948434829712,-0.3166496157646179,-1.6705996990203857
1695712746359215400,6.45421533203125,-0.27177539467811584,-0.06418213248252869,-1.6855133771896362
1695712746369249500,6.46424951171875,-0.17070849239826202,0.37563860416412354,-1.4671343564987183
1695712746379279600,6.474279541015625,-0.0822916179895401,0.7526087760925293,-0.9101346135139465
1695712746389313500,6.4843134765625,-0.02263685315847397,0.5886912941932678,-0.343547523021698
1695712746399346200,6.49434619140625,0.018908429890871048,0.19028271734714508,0.26991117000579834
1695712746409379800,6.5043798828125,-0.029028434306383133,-0.5860281586647034,1.0973546504974365
1695712746419381000,6.514381103515625,-0.10892320424318314,-1.4965622425079346,1.6777902841567993
1695712746429411000,6.5244111328125,-0.22184115648269653,-1.8992319107055664,1.6937692165374756
1695712746439446300,6.5344462890625,-0.3719101548194885,-1.2005521059036255,1.291232705116272
1695712746449477000,6.54447705078125,-0.47311022877693176,0.6068007946014404,1.0462220907211304
1695712746459507200,6.554507080078125,-0.38469332456588745,2.156359910964966,1.4169337749481201
1695712746469537800,6.564537841796875,-0.3218427896499634,2.592984914779663,2.1069583892822266
1695712746479602200,6.574602294921875,-0.39321544766426086,2.2319936752319336,2.630934953689575
1695712746489636400,6.58463623046875,-0.4102596640586853,1.7271918058395386,2.8439877033233643
1695712746499663400,6.594663330078125,-0.302668035030365,1.4715285301208496,2.8322696685791016
1695712746509696800,6.60469677734375,-0.11744531989097595,1.3958948850631714,2.7374613285064697
1695712746519737000,6.614737060546875,0.04660528525710106,1.4065474271774292,2.770484447479248
1695712746529771300,6.624771240234375,0.148870587348938,1.4044169187545776,3.0197560787200928
1695712746539794700,6.634794677734375,0.18508955836296082,1.4662022590637207,3.3200273513793945
1695712746549827800,6.644827880859375,0.13289164006710052,1.7261265516281128,3.49153470993042
1695712746559862300,6.6548623046875,-0.04181159660220146,2.140380859375,3.461707353591919
1695712746569895400,6.6648955078125,-0.29947224259376526,2.4534354209899902,3.233741044998169
1695712746579924500,6.674924560546875,-0.4773712754249573,2.3927152156829834,2.9132297039031982
1695712746589957400,6.684957275390625,-0.5103944540023804,2.076465129852295,2.5989768505096436
1695712746599962600,6.694962646484375,-0.4486091434955597,1.646231770515442,2.331728935241699
1695712746609992700,6.70499267578125,-0.39854174852371216,1.1829752922058105,2.0963056087493896
1695712746620023600,6.7150234375,-0.38043227791786194,0.8154593110084534,1.8461018800735474
1695712746630053400,6.725053466796875,-0.3580617308616638,0.5620597004890442,1.5978955030441284
1695712746640117500,6.735117431640625,-0.2888196110725403,0.39800912141799927,1.3988243341445923
1695712746650151000,6.74515087890625,-0.19414429366588593,0.325571209192276,1.2827105522155762
1695712746660155000,6.75515478515625,-0.10359688848257065,0.29041749238967896,1.258209466934204
1695712746670185200,6.765185302734375,-0.011984216049313545,0.16471639275550842,1.328516960144043
1695712746680249300,6.775249267578125,0.10306425392627716,0.0732368752360344,1.4584790468215942
1695712746690283300,6.785283203125,0.20106850564479828,0.2179795652627945,1.5915038585662842
1695712746700318000,6.79531787109375,0.2095906287431717,0.4629902243614197,1.6777902841567993
1695712746710352000,6.805351806640625,0.15100112557411194,0.6780403256416321,1.6937692165374756
1695712746720365000,6.815364990234375,0.13182637095451355,0.820785641670227,1.6213312149047852
1695712746730397000,6.82539697265625,0.18189376592636108,0.9145288467407227,1.4839122295379639
1695712746740448800,6.83544873046875,0.24474431574344635,0.8996151685714722,1.325321078300476
1695712746750482700,6.845482666015625,0.2925480306148529,0.6876276731491089,1.1910978555679321
1695712746760508000,6.8555078125,0.3596596419811249,0.3394196331501007,1.1761841773986816
1695712746770540800,6.865540771484375,0.4342280924320221,-0.031158961355686188,1.2827105522155762
1695712746780543200,6.875543212890625,0.49281758069992065,-0.35819488763809204,1.4584790468215942
1695712746790573000,6.885572998046875,0.5364934206008911,-0.5625923871994019,1.6309186220169067
1695712746800640800,6.895640869140625,0.5641902685165405,-0.6115944981575012,1.7310534715652466
1695712746810674400,6.90567431640625,0.5652555227279663,-0.43689125776290894,1.7470324039459229
1695712746820680200,6.91568017578125,0.5780386924743652,-0.07909582555294037,1.6490280628204346
1695712746830711300,6.925711181640625,0.6110618710517883,0.39481332898139954,1.417999029159546
1695712746840773600,6.935773681640625,0.5812344551086426,0.7259771823883057,1.0590052604675293
1695712746850807600,6.9458076171875,0.43209755420684814,0.712128758430481,0.6735129356384277
1695712746860796400,6.95579638671875,0.2095906287431717,0.5737776160240173,0.4306328296661377
1695712746870825700,6.96582568359375,0.030626330524683,0.5695165991783142,0.38815543055534363
1695712746880899300,6.9758994140625,-0.10040109604597092,0.7728487849235535,0.4157191216945648
1695712746890933200,6.985933349609375,-0.22503694891929626,0.9976193904876709,0.3945470154285431
1695712746900939300,6.995939208984375,-0.3580617308616638,1.076448917388916,0.2848248779773712
1695712746910970400,7.005970458984375,-0.48269757628440857,1.0732531547546387,0.049401599913835526
1695712746920996400,7.015996337890625,-0.575375497341156,1.0626004934310913,-0.30839383602142334
1695712746931027000,7.02602685546875,-0.6243776679039001,0.900680422782898,-0.6832334399223328
1695712746941069800,7.03606982421875,-0.6765755414962769,0.690823495388031,-1.0709894895553589
1695712746951101700,7.046101806640625,-0.7511440515518188,0.6675208210945129,-1.4927006959915161
1695712746961127400,7.05612744140625,-0.8436887860298157,0.8005456328392029,-1.9048244953155518
1695712746971158800,7.06615869140625,-0.9331709742546082,0.9347688555717468,-2.2275993824005127
1695712746981222000,7.076221923828125,-1.0258488655090332,1.081775188446045,-2.435192584991455
1695712746991256300,7.08625634765625,-1.068459391593933,1.2446273565292358,-2.570481061935425
1695712747001286400,7.096286376953125,-1.0524804592132568,1.3426316976547241,-2.584329605102539
1695712747011320300,7.1063203125,-1.0279793739318848,1.2776505947113037,-2.4522368907928467
1695712747021340000,7.11633984375,-0.997086763381958,1.1329078674316406,-2.270210027694702
1695712747031372300,7.126372314453125,-0.8926909565925598,1.1030805110931396,-2.166879415512085
1695712747041414100,7.1364140625,-0.7596661448478699,1.059404730796814,-2.1785972118377686
1695712747051447600,7.146447509765625,-0.671249270439148,0.8580698370933533,-2.2723405361175537
1695712747061490200,7.156490234375,-0.575375497341156,0.4161186218261719,-2.35636305809021
1695712747071524400,7.1665244140625,-0.5434176325798035,-0.4059986174106598,-2.3446452617645264
1695712747081545200,7.176545166015625,-0.5327649712562561,-1.172855257987976,-2.372342109680176
1695712747091578000,7.186578125,-0.508263885974884,-1.6797876358032227,-2.530001163482666
1695712747101579000,7.1965791015625,-0.5125249624252319,-1.7405076026916504,-2.8270764350891113
1695712747111608800,7.20660888671875,-0.5316997170448303,-1.4901707172393799,-3.2233545780181885
1695712747121651200,7.216651123046875,-0.5838976502418518,-1.344362735748291,-3.5555837154388428
1695712747131682300,7.226682373046875,-0.6787061095237732,-1.5210633277893066,-3.7398743629455566
1695712747141715200,7.236715087890625,-0.7873629927635193,-1.8054887056350708,-3.7654407024383545
1695712747151746600,7.24674658203125,-0.8799077868461609,-2.075932502746582,-3.6919374465942383
1695712747161805300,7.256805419921875,-0.9278446435928345,-2.215481996536255,-3.5214953422546387
1695712747171839200,7.266839111328125,-0.8884298801422119,-2.253831624984741,-3.271291494369507
1695712747181844000,7.276843994140625,-0.7948198318481445,-2.3710105419158936,-3.04758620262146
1695712747191875000,7.286875,-0.6893587112426758,-2.438122272491455,-2.918689250946045
1695712747201905200,7.2969052734375,-0.5998765826225281,-2.547844409942627,-2.8048391342163086
1695712747211936000,7.30693603515625,-0.5189165472984314,-2.6297364234924316,-2.6706159114837646
1695712747221978400,7.316978271484375,-0.4539354741573334,-2.6861953735351562,-2.491651773452759
1695712747232010200,7.32701025390625,-0.3410175144672394,-2.7405238151550293,-2.216946840286255
1695712747242066000,7.33706591796875,-0.23888537287712097,-2.7309365272521973,-1.8654098510742188
1695712747252100600,7.3471005859375,-0.15153375267982483,-2.6393237113952637,-1.4287848472595215
1695712747262094600,7.357094482421875,-0.09081372618675232,-2.4455790519714355,-0.8920251131057739
1695712747272125000,7.367125,-0.0684431865811348,-2.1568925380706787,-0.3392864763736725
1695712747282168600,7.37716845703125,-0.0727042406797409,-1.8054887056350708,0.1729721873998642
1695712747292200200,7.3872001953125,-0.0684431865811348,-1.5136064291000366,0.6287718415260315
1695712747302239700,7.39723974609375,-0.02157158963382244,-1.3156006336212158,1.0462220907211304
1695712747312272400,7.4072724609375,0.028495801612734795,-1.1696594953536987,1.442500114440918
1695712747322305000,7.417304931640625,0.06258423626422882,-1.051415205001831,1.8439713716506958
1695712747332337700,7.427337646484375,0.13182637095451355,-0.9418262243270874,2.2070930004119873
1695712747342378800,7.437378662109375,0.27230802178382874,-0.7958850860595703,2.5000405311584473
1695712747352412200,7.447412109375,0.4523375630378723,-0.5807018280029297,2.6596970558166504
1695712747362434000,7.45743408203125,0.5854955315589905,-0.2324937880039215,2.3104236125946045
1695712747372466200,7.467466064453125,0.7197187542915344,0.19028271734714508,0.9142625331878662
1695712747382499800,7.477499755859375,0.8932235836982727,0.03701791167259216,-0.7354313731193542
1695712747392532000,7.487531982421875,0.9507477879524231,-0.8427566885948181,-1.8174729347229004
1695712747402558000,7.497557861328125,0.7516766786575317,-1.3859080076217651,-2.460758924484253
1695712747412589600,7.507589599609375,0.2607232630252838,-1.3592764139175415,-2.4096262454986572
1695712747422632000,7.5176318359375,-0.11211899667978287,-0.9619330763816833,-1.8185381889343262
1695712747432664600,7.52766455078125,-0.3878891170024872,-0.6510092616081238,-1.2956268787384033
1695712747442688300,7.537688232421875,-0.515720784664154,-0.5689839720726013,-0.9942904710769653
1695712747452720000,7.54772021484375,-0.3495396375656128,-0.30493173003196716,-0.749279797077179
1695712747462766300,7.557766357421875,0.07643266767263412,0.15832480788230896,-0.49268442392349243
1695712747472799700,7.5677998046875,0.20319904386997223,0.49814391136169434,-0.21358536183834076
1695712747482808000,7.57780810546875,0.019973693415522575,0.5801692008972168,0.39667755365371704
1695712747492838700,7.587838623046875,-0.171773761510849,0.31917962431907654,1.248622179031372
1695712747502900500,7.597900390625,-0.2888196110725403,-0.10679268091917038,1.8503628969192505
1695712747512934400,7.607934326171875,-0.46884915232658386,-0.1898832470178604,1.8269271850585938
1695712747522939600,7.617939697265625,-0.696815550327301,0.3724428117275238,1.3945633172988892
1695712747532970500,7.627970458984375,-0.6595313549041748,0.863396167755127,1.2677968740463257
1695712747543002400,7.63800244140625,-0.6222470998764038,0.8932235836982727,1.5403711795806885
1695712747553033200,7.648033203125,-0.612659752368927,0.7994803786277771,1.9536935091018677
1695712747563070500,7.658070556640625,-0.5434176325798035,0.8261119723320007,2.3796658515930176
1695712747573102000,7.66810205078125,-0.367649108171463,1.0455563068389893,2.7470486164093018
1695712747583161900,7.678161865234375,-0.07803056389093399,1.3383705615997314,3.0165603160858154
1695712747593196300,7.6881962890625,0.261788547039032,1.6398402452468872,3.187934637069702
1695712747603199000,7.698198974609375,0.5301018357276917,1.8772608041763306,3.3402674198150635
1695712747613230000,7.70822998046875,0.646215558052063,1.9859176874160767,3.5139052867889404
1695712747623263000,7.718262939453125,0.5183839201927185,1.9880483150482178,3.6479952335357666
1695712747633294300,7.72829443359375,0.15419691801071167,1.9188060760498047,3.686344861984253
1695712747643329500,7.73832958984375,-0.21544957160949707,1.8836524486541748,3.530949592590332
1695712747653361200,7.748361083984375,-0.3868238627910614,1.7494292259216309,3.2454588413238525
1695712747663396900,7.75839697265625,-0.4379565119743347,1.5801854133605957,2.929208755493164
1695712747673429000,7.768428955078125,-0.43156492710113525,1.3149348497390747,2.617086410522461
1695712747683454700,7.778454833984375,-0.3953459560871124,1.0700572729110718,2.3104236125946045
1695712747693486300,7.788486328125,-0.33249542117118835,0.909202516078949,2.0291941165924072
1695712747703543800,7.798543701171875,-0.25806012749671936,0.7781751155853271,1.7864471673965454
1695712747713578000,7.808577880859375,-0.1664474457502365,0.6185187101364136,1.6085480451583862
1695712747723618000,7.8186181640625,-0.0727042406797409,0.4342280924320221,1.5265227556228638
1695712747733652700,7.82865283203125,0.003994738683104515,0.2552638053894043,1.5190659761428833
1695712747743648300,7.838648193359375,0.060453712940216064,0.19987009465694427,1.5712639093399048
1695712747753679000,7.84867919921875,0.07110634446144104,0.3170490860939026,1.6724638938903809
1695712747763742500,7.858742431640625,0.06151897460222244,0.5993439555168152,1.7789902687072754
1695712747773776400,7.8687763671875,0.03914843872189522,1.005076289176941,1.8279924392700195
1695712747783808500,7.87880859375,0.018908429890871048,1.3490232229232788,1.7992303371429443
1695712747793842400,7.888842529296875,0.030626330524683,1.5098780393600464,1.701225996017456
1695712747803876600,7.898876708984375,0.08175898343324661,1.4598106145858765,1.575524926185608
1695712747813910500,7.90891064453125,0.1723063886165619,1.1595394611358643,1.482846975326538
1695712747823910000,7.918909912109375,0.31811434030532837,0.6844319105148315,1.4456958770751953
1695712747833940200,7.928940185546875,0.466185986995697,0.1519332230091095,1.455283284187317
1695712747844010500,7.939010498046875,0.5439502596855164,-0.26871275901794434,1.490303874015808
1695712747854045000,7.949044921875,0.5237102508544922,-0.46991443634033203,1.5414364337921143
1695712747864040400,7.95904052734375,0.45020705461502075,-0.41345545649528503,1.582981824874878
1695712747874070800,7.96907080078125,0.35539859533309937,-0.11424952745437622,1.5542196035385132
1695712747884133600,7.979133544921875,0.2925480306148529,0.40759649872779846,1.395628571510315
1695712747894167300,7.989167236328125,0.2468748539686203,0.8996151685714722,1.0920283794403076
1695712747904194800,7.99919482421875,0.12650005519390106,1.0498173236846924,0.7022750377655029
1695712747914228000,8.00922802734375,-0.02583264373242855,0.9219856858253479,0.38602492213249207
1695712747924265500,8.019265380859375,-0.13662005960941315,0.8154593110084534,0.27843329310417175
1695712747934299000,8.029298828125,-0.1760348230600357,0.8910930156707764,0.2912164330482483
1695712747944324900,8.039324951171874,-0.1813611388206482,1.022120475769043,0.26458486914634705
1695712747954357800,8.049357666015625,-0.2601906359195709,1.034903645515442,0.1729721873998642
1695712747964373000,8.059373046875,-0.3814975321292877,0.8410256505012512,0.12397005409002304
1695712747974403800,8.06940380859375,-0.491219699382782,0.5524723529815674,0.06325002759695053
1695712747984455400,8.079455322265625,-0.5562008023262024,0.4960133731365204,-0.2721748650074005
1695712747994488600,8.089488525390625,-0.5711144804954529,0.5471460223197937,-0.8249135613441467
1695712748004526000,8.099526123046875,-0.5838976502418518,0.6632598042488098,-1.3680648803710938
1695712748014559500,8.1095595703125,-0.6829671263694763,0.94648677110672,-1.8845845460891724
1695712748024555300,8.11955517578125,-0.854341447353363,1.2659326791763306,-2.357428550720215
1695712748034585000,8.129585205078126,-1.039697289466858,1.5471622943878174,-2.6567676067352295
1695712748044618000,8.139617919921875,-1.1408973932266235,1.628122329711914,-2.7803380489349365
1695712748054648000,8.14964794921875,-1.131309986114502,1.4257222414016724,-2.793121337890625
1695712748064684800,8.159684814453126,-1.0482194423675537,1.0945583581924438,-2.6461148262023926
1695712748074715400,8.16971533203125,-0.9566067457199097,0.8218508958816528,-2.4181485176086426
1695712748084775700,8.179775634765624,-0.8522109389305115,0.6705834865570068,-2.2680795192718506
1695712748094809300,8.189809326171876,-0.7586008906364441,0.503470242023468,-2.2180120944976807
1695712748104837400,8.19983740234375,-0.6904240250587463,0.14554163813591003,-2.297773599624634
1695712748114870500,8.20987060546875,-0.6147902607917786,-0.38056543469429016,-2.450106382369995
1695712748124921000,8.219921142578125,-0.508263885974884,-1.1068089008331299,-2.5086958408355713
1695712748134955800,8.229955810546874,-0.4209122955799103,-1.6595475673675537,-2.57900333404541
1695712748144982800,8.239982666015624,-0.42304283380508423,-1.7437033653259277,-2.76435923576355
1695712748155016700,8.2500166015625,-0.4944154918193817,-1.3624721765518188,-3.1146976947784424
1695712748165043700,8.260043701171876,-0.5689839720726013,-0.9523456692695618,-3.4575793743133545
1695712748175076900,8.270076904296875,-0.679771363735199,-0.9343693852424622,-3.7057859897613525
1695712748185115400,8.280115478515626,-0.8341014385223389,-1.3528847694396973,-3.876228094100952
1695712748195149000,8.290149169921875,-0.9587372541427612,-1.8928403854370117,-3.9165749549865723
1695712748205167400,8.30016748046875,-1.0610026121139526,-2.3571622371673584,-3.8485312461853027
1695712748215199500,8.310199462890624,-1.1046783924102783,-2.6201491355895996,-3.648261547088623
1695712748225203700,8.32020361328125,-1.0226531028747559,-2.6308016777038574,-3.361705780029297
1695712748235233000,8.33023291015625,-0.8660593628883362,-2.6244101524353027,-3.0848703384399414
1695712748245282300,8.3402822265625,-0.68829345703125,-2.638258457183838,-2.8654260635375977
1695712748255313700,8.350313720703125,-0.5253081321716309,-2.6265406608581543,-2.6865949630737305
1695712748265362400,8.360362548828125,-0.3814975321292877,-2.593517541885376,-2.5033695697784424
1695712748275395600,8.3703955078125,-0.30479857325553894,-2.6446502208709717,-2.2787320613861084
1695712748285400600,8.380400634765625,-0.24953800439834595,-2.622279644012451,-1.9943066835403442
1695712748295430700,8.3904306640625,-0.2186453640460968,-2.516951560974121,-1.6460986137390137
1695712748305472300,8.40047216796875,-0.2047969400882721,-2.3859243392944336,-1.230645775794983
1695712748315503400,8.41050341796875,-0.18349166214466095,-2.215481996536255,-0.7535408735275269
1695712748325551400,8.42055126953125,-0.1760348230600357,-2.0036277770996094,-0.2402169555425644
1695712748335584300,8.430584228515626,-0.1621863842010498,-1.7714003324508667,0.27417221665382385
1695712748345618700,8.44061865234375,-0.16538217663764954,-1.5679348707199097,0.7736477255821228
1695712748355651800,8.45065185546875,-0.1760348230600357,-1.3550153970718384,1.2507526874542236
1695712748365665300,8.460665283203125,-0.13129374384880066,-1.105743646621704,1.6554197072982788
1695712748375696400,8.4706962890625,-0.09720530360937119,-0.8523440957069397,1.981390357017517
1695712748385723400,8.480723388671874,-0.031158961355686188,-0.5508744716644287,2.20389723777771
1695712748395754000,8.49075390625,0.12117373943328857,-0.2655169665813446,2.3146846294403076
1695712748405791200,8.500791259765625,0.34794172644615173,0.10199899226427078,2.184722661972046
1695712748415822600,8.510822509765624,0.5503418445587158,0.587626039981842,1.3029506206512451
1695712748425885200,8.52088525390625,0.7261103391647339,0.7536740303039551,-0.267913818359375
1695712748435920000,8.530919921875,0.8111982345581055,-0.13662005960941315,-1.4447637796401978
1695712748446069500,8.541069580078124,0.7261103391647339,-1.1004173755645752,-2.116811990737915
1695712748456114000,8.551114013671874,0.39481332898139954,-1.374190092086792,-2.425605297088623
1695712748466158600,8.56115869140625,0.029561065137386322,-1.1835079193115234,-2.24570894241333
1695712748476039700,8.571039794921875,-0.35699647665023804,-1.0876342058181763,-1.8451697826385498
1695712748486071600,8.581071533203126,-0.604137659072876,-1.118526816368103,-1.5118753910064697
1695712748496082700,8.591082763671874,-0.6201165914535522,-1.0855036973953247,-1.2009515762329102
1695712748506112500,8.601112548828125,-0.3527354300022125,-0.7223818898200989,-0.8824377655982971
1695712748516145700,8.611145751953124,0.10199899226427078,-0.27830013632774353,-0.46711811423301697
1695712748526175700,8.62117578125,0.05512739345431328,0.2914827764034271,0.11438268423080444
1695712748536223500,8.631223388671875,-0.29095011949539185,0.511992335319519,1.127182126045227
1695712748546255400,8.64125537109375,-0.49335023760795593,0.16897743940353394,2.219876289367676
1695712748556277800,8.65127783203125,-0.5689839720726013,-0.20799273252487183,2.774745464324951
1695712748566308600,8.66130859375,-0.7383608818054199,0.26698169112205505,2.2550299167633057
1695712748576340200,8.67134033203125,-0.7735145688056946,1.1989542245864868,0.9004141092300415
1695712748586371000,8.68137109375,-0.4326302111148834,0.8644614219665527,0.2997385561466217
1695712748596417000,8.6914169921875,-0.40280282497406006,0.011451584286987782,0.6309024095535278
1695712748606449400,8.701449462890626,-0.6052029132843018,-0.27723485231399536,1.3668663501739502
1695712748616493300,8.711493408203125,-0.6595313549041748,0.03701791167259216,2.2358553409576416
1695712748626527000,8.72152685546875,-0.508263885974884,0.917724609375,3.0208213329315186
1695712748636557600,8.7315576171875,-0.19734008610248566,1.966742992401123,3.5692989826202393
1695712748646591000,8.741591064453125,0.17976324260234833,2.8453192710876465,3.8525259494781494
1695712748656627700,8.751627685546875,0.4725775718688965,3.219226837158203,3.9505302906036377
1695712748666661000,8.7616611328125,0.6643250584602356,3.0977866649627686,3.972900867462158
1695712748676680400,8.771680419921875,0.713327169418335,2.736795425415039,3.937747001647949
1695712748686712600,8.781712646484374,0.5641902685165405,2.3192121982574463,3.8685050010681152
1695712748696751900,8.791751953125,0.279764860868454,2.0381157398223877,3.7481300830841064
1695712748706784800,8.80178466796875,-0.05033370852470398,1.7600818872451782,3.5181663036346436
1695712748716790500,8.81179052734375,-0.2696448564529419,1.4662022590637207,3.19858717918396
1695712748726820600,8.821820556640626,-0.36977964639663696,1.1456910371780396,2.829073905944824
1695712748736892200,8.83189208984375,-0.40386807918548584,0.8111982345581055,2.4254722595214844
1695712748746926300,8.84192626953125,-0.3580617308616638,0.5982787013053894,2.0387814044952393
1695712748756938800,8.851938720703124,-0.2655169665813446,0.46938177943229675,1.7204008102416992
1695712748766971000,8.861970947265625,-0.16431692242622375,0.37563860416412354,1.4977606534957886
1695712748777010400,8.872010498046874,-0.07163897901773453,0.3032006621360779,1.3498221635818481
1695712748787043300,8.882043212890625,-0.015180006623268127,0.27230802178382874,1.2965589761734009
1695712748797074400,8.892074462890625,-0.017310533672571182,0.08282424509525299,1.4456958770751953
1695712748807107000,8.902107177734376,-0.05139897018671036,0.1796300858259201,1.7843165397644043
1695712748817144000,8.91214404296875,-0.08548741042613983,0.8239814043045044,2.149568796157837
1695712748827177200,8.92217724609375,-0.14194637537002563,1.7717998027801514,2.381796360015869
1695712748837184000,8.93218408203125,-0.2047969400882721,2.4768710136413574,2.3636868000030518
1695712748847214300,8.94221435546875,-0.20160114765167236,2.668618679046631,2.1208066940307617
1695712748857280300,8.9522802734375,-0.08655267208814621,2.3682141304016113,1.758750319480896
1695712748867314400,8.962314453125,0.17017586529254913,1.590838074684143,1.399889588356018
1695712748877338600,8.972338623046875,0.5066660046577454,0.4938828647136688,1.1836410760879517
1695712748887371800,8.982371826171875,0.7495461106300354,-0.46991443634033203,1.1804453134536743
1695712748897396000,8.99239599609375,0.788960874080658,-0.9651288390159607,1.2720578908920288
1695712748907428400,9.002428466796875,0.7069355845451355,-0.9459540843963623,1.2880369424819946
1695712748917462800,9.012462890625,0.5822997093200684,-0.5018723607063293,1.1729884147644043
1695712748927495200,9.0224951171875,0.4374238848686218,0.2222406268119812,0.9663273096084595
1695712748937503500,9.03250341796875,0.2287653684616089,0.9123983383178711,0.7555382251739502
1695712748947533300,9.042533203125,-0.05779055133461952,1.2201263904571533,0.5648560523986816
1695712748957584600,9.052584716796876,-0.2516685426235199,1.2179957628250122,0.4041343927383423
1695712748967616500,9.062616455078125,-0.29521119594573975,1.1723226308822632,0.2624543309211731
1695712748977649000,9.07264892578125,-0.2696448564529419,1.1542131900787354,0.1537974327802658
1695712748987681000,9.082680908203125,-0.25806012749671936,1.0114678144454956,0.01957421936094761
1695712748997725400,9.092725341796875,-0.2984069883823395,0.6472808122634888,-0.1741705983877182
1695712749007758800,9.1027587890625,-0.39321544766426086,0.3117227852344513,-0.4809665381908417
1695712749017787400,9.112787353515625,-0.5466133952140808,0.27656906843185425,-0.9048082828521729
1695712749027820300,9.1228203125,-0.7831019163131714,0.4235754609107971,-1.255146861076355
1695712749037854200,9.132854248046876,-0.9363667368888855,0.7217161059379578,-1.6301196813583374
1695712749047887000,9.14288720703125,-1.051415205001831,1.1531479358673096,-2.1785972118377686
1695712749057912000,9.152912109375,-1.2197269201278687,1.54396653175354,-2.678072690963745
1695712749067944200,9.162944091796875,-1.3134701251983643,1.7058866024017334,-2.9847354888916016
1695712749077974800,9.172974853515624,-1.247423768043518,1.6185349225997925,-3.1083061695098877
1695712749088007000,9.1830068359375,-1.1504846811294556,1.457680106163025,-2.9154934883117676
1695712749098046200,9.193046142578124,-1.1004173755645752,1.3383705615997314,-2.5672852993011475
1695712749108078800,9.203078857421875,-1.0375667810440063,1.280846357345581,-2.3350579738616943
1695712749118101500,9.2131015625,-0.9086698889732361,1.2350400686264038,-2.2648837566375732
1695712749128133400,9.22313330078125,-0.7447524666786194,1.056208848953247,-2.33612322807312
1695712749138169300,9.23316943359375,-0.6105292439460754,0.6769750714302063,-2.4522368907928467
1695712749148201500,9.243201416015625,-0.5050681233406067,0.060453712940216064,-2.5268054008483887
1695712749158240500,9.253240478515625,-0.4379565119743347,-0.9045419692993164,-2.6067001819610596
1695712749168273400,9.2632734375,-0.4304996728897095,-1.7266591787338257,-2.844120740890503
1695712749178306000,9.27330615234375,-0.4155859649181366,-1.8917750120162964,-3.1626346111297607
1695712749188338700,9.283338623046875,-0.47311022877693176,-1.3709943294525146,-3.515103816986084
1695712749198370300,9.293370361328124,-0.6510092616081238,-0.9002809524536133,-3.6919374465942383
1695712749208403000,9.30340283203125,-0.9225183129310608,-0.892824113368988,-3.683415412902832
1695712749218435600,9.313435546875,-1.168594241142273,-1.180312156677246,-3.5619752407073975
1695712749228468200,9.32346826171875,-1.3209269046783447,-1.6062843799591064,-3.436274290084839
1695712749238475800,9.333475830078125,-1.3474253416061401,-2.0940420627593994,-3.3894026279449463
1695712749248505900,9.343505859375,-1.172855257987976,-2.4168169498443604,-3.365966796875
1695712749258530000,9.353530029296875,-0.8681898713111877,-2.5604944229125977,-3.3469252586364746
1695712749268559400,9.363559326171876,-0.5615270733833313,-2.6467807292938232,-3.291531562805176
1695712749278624500,9.37362451171875,-0.34740909934043884,-2.8640944957733154,-3.1892662048339844
1695712749288657400,9.383657470703126,-0.15472954511642456,-3.1025803089141846,-3.0294766426086426
1695712749298697000,9.393697021484375,0.003994738683104515,-3.3859405517578125,-2.7845990657806396
1695712749308731000,9.40373095703125,0.10945583879947662,-3.536142587661743,-2.4341273307800293
1695712749318756900,9.4137568359375,0.15632744133472443,-3.4988584518432617,-2.007089853286743
1695712749328789500,9.42378955078125,0.14674006402492523,-3.3369383811950684,-1.527854323387146
1695712749338826200,9.433826171875,0.09773793816566467,-3.1025803089141846,-0.9953557252883911
1695712749348859400,9.443859375,0.03488738462328911,-2.810831308364868,-0.40213701128959656
1695712749358855400,9.45385546875,-0.02157158963382244,-2.5148210525512695,0.22090904414653778
1695712749368885000,9.463885009765624,-0.0684431865811348,-2.249570608139038,0.8279761672019958
1695712749378949600,9.47394970703125,-0.08335687965154648,-1.9769961833953857,1.395628571510315
1695712749388982800,9.483982666015624,-0.08761793375015259,-1.6361117362976074,1.9281271696090698
1695712749399018200,9.494018310546876,-0.05779055133461952,-1.2463585138320923,2.3935141563415527
1695712749409051600,9.5040517578125,0.044474758207798004,-0.8352998495101929,2.735330820083618
1695712749419077400,9.514077392578125,0.24900537729263306,-0.41878175735473633,2.834400177001953
1695712749429110000,9.524110107421874,0.49281758069992065,0.025300011038780212,2.3445122241973877
1695712749439127000,9.534126953125,0.7772429585456848,0.5428850054740906,0.7512772083282471
1695712749449158000,9.544157958984375,1.0082720518112183,0.20093534886837006,-0.908004105091095
1695712749459161900,9.554161865234375,1.0487520694732666,-0.9768467545509338,-1.80255925655365
1695712749469190100,9.564190185546876,0.7314366698265076,-1.7660739421844482,-2.221207857131958
1695712749479242200,9.5742421875,0.40333545207977295,-1.3582111597061157,-2.2776668071746826
1695712749489272800,9.58427294921875,0.18508955836296082,-0.5924197435379028,-1.9772624969482422
1695712749499336700,9.594336669921875,0.008255792781710625,-0.14407691359519958,-1.7259933948516846
1695712749509370600,9.60437060546875,-0.04607265070080757,0.17643429338932037,-1.6109449863433838
1695712749519399700,9.614399658203125,0.08388951420783997,0.38948702812194824,-1.3989574909210205
1695712749529433000,9.62443310546875,0.35539859533309937,0.4352933466434479,-1.1061431169509888
1695712749539440600,9.634440673828125,0.49814391136169434,0.31385329365730286,-0.8089345693588257
1695712749549471500,9.644471435546874,0.5002744197845459,0.11478215456008911,-0.2253032624721527
1695712749559530200,9.6545302734375,0.3351585865020752,0.09560741484165192,0.7150582075119019
1695712749569564000,9.66456396484375,-0.03968106955289841,-0.3731085956096649,1.4776538610458374
1695712749579597600,9.67459765625,-0.5402218103408813,-0.7330345511436462,2.060086727142334
1695712749589631200,9.68463134765625,-1.0034784078598022,-0.40706387162208557,2.606433868408203
1695712749599639300,9.694639404296876,-1.2250531911849976,0.5641902685165405,2.839726448059082
1695712749609670400,9.70467041015625,-1.0823078155517578,1.6345138549804688,2.765158176422119
1695712749619697700,9.71469775390625,-0.7479482293128967,2.384193181991577,2.562757968902588
1695712749629728300,9.724728271484375,-0.3165164589881897,2.7485134601593018,2.51175856590271
1695712749639774500,9.7347744140625,0.04234423115849495,2.5802016258239746,2.616021156311035
1695712749649806600,9.744806640625,0.21065588295459747,1.875130295753479,2.6650233268737793
1695712749659847700,9.75484765625,0.24580958485603333,0.8687224984169006,2.6405222415924072
1695712749669880800,9.764880859375,0.25007063150405884,0.24354590475559235,2.7044379711151123
1695712749679892700,9.774892822265626,0.20213377475738525,0.24780695140361786,2.8663580417633057
1695712749689923600,9.784923583984375,0.04340949282050133,0.6536723971366882,3.028278112411499
1695712749699974100,9.79497412109375,-0.17390428483486176,1.2361053228378296,3.1325409412384033
1695712749710007000,9.805007080078125,-0.3506048917770386,1.737844467163086,3.149585008621216
1695712749720030500,9.815030517578125,-0.42410808801651,1.9805914163589478,3.0900635719299316
1695712749730062300,9.825062255859375,-0.4049333333969116,1.9486335515975952,2.953709840774536
1695712749740083000,9.8350830078125,-0.3825628161430359,1.6558191776275635,2.7332000732421875
1695712749750113500,9.845113525390625,-0.378301739692688,1.1989542245864868,2.480865955352783
1695712749760170000,9.855169921875,-0.3687143921852112,0.7163897752761841,2.2454426288604736
1695712749770203400,9.865203369140625,-0.31864699721336365,0.2968090772628784,2.064347743988037
1695712749780247800,9.875247802734375,-0.24847275018692017,0.04554001986980438,1.956889271736145
1695712749790282200,9.8852822265625,-0.16005586087703705,-0.031158961355686188,1.9078872203826904
1695712749800306400,9.895306396484376,-0.10359688848257065,0.015712639316916466,1.8759292364120483
1695712749810339800,9.90533984375,-0.10679268091917038,0.14341111481189728,1.8492976427078247
1695712749820375600,9.91537548828125,-0.13342426717281342,0.2978743314743042,1.8365144729614258
1695712749830409500,9.925409423828125,-0.15046848356723785,0.5183839201927185,1.880190372467041
1695712749840433000,9.935432861328126,-0.14514216780662537,0.8442214131355286,1.9515630006790161
1695712749850465500,9.945465576171875,-0.1760348230600357,1.2446273565292358,1.956889271736145
1695712749860472800,9.955472900390625,-0.19201377034187317,1.5620759725570679,1.9046913385391235
1695712749870503000,9.9655029296875,-0.14620743691921234,1.6643413305282593,1.8152092695236206
1695712749880573400,9.975573486328125,-0.05139897018671036,1.5109432935714722,1.671398639678955
1695712749890607600,9.985607666015625,0.0774979293346405,1.1638004779815674,1.5041522979736328
1695712749900636400,9.995636474609375,0.25007063150405884,0.7068024277687073,1.3721927404403687
1695712749910669800,10.005669921875,0.4054659605026245,0.17856481671333313,1.3295822143554688
1695712749920695300,10.0156953125,0.5066660046577454,-0.29640960693359375,1.3849759101867676
1695712749930728200,10.025728271484375,0.5279712677001953,-0.5647228956222534,1.495630145072937
1695712749940734500,10.035734375,0.5013396739959717,-0.5870934128761292,1.579785943031311
1695712749950764500,10.0457646484375,0.4768386483192444,-0.42730388045310974,1.5723291635513306
1695712749960825300,10.055825439453125,0.4534028470516205,-0.13022847473621368,1.4137380123138428
1695712749970858500,10.0658583984375,0.40866175293922424,0.27230802178382874,1.1293126344680786
1695712749980893700,10.075893798828124,0.2968090772628784,0.6025397181510925,0.7693866491317749
1695712749990927000,10.085927001953126,0.11371689289808273,0.6801708340644836,0.44235071539878845
1695712750000960000,10.0959599609375,-0.05033370852470398,0.6504766345024109,0.29760801792144775
1695712750010993200,10.1059931640625,-0.14514216780662537,0.6972150802612305,0.29228171706199646
1695712750021019000,10.116018798828126,-0.228232741355896,0.787762463092804,0.24008379876613617
1695712750031051500,10.126051513671875,-0.32823434472084045,0.7781751155853271,0.10799109935760498
1695712750041078800,10.136078857421875,-0.4571312665939331,0.5695165991783142,-0.0624510794878006
1695712750051110700,10.146110595703124,-0.5775060653686523,0.38416069746017456,-0.3478085696697235
1695712750061103900,10.156103759765625,-0.6776408553123474,0.4619249403476715,-0.8121303915977478
1695712750071132000,10.1661318359375,-0.7458177208900452,0.6812360882759094,-1.3510205745697021
1695712750081210400,10.17621044921875,-0.7873629927635193,0.8314382433891296,-1.9101508855819702
1695712750091243300,10.1862431640625,-0.8468846082687378,1.0796446800231934,-2.534262180328369
1695712750101269200,10.196269287109375,-0.9811078310012817,1.5375748872756958,-3.0060408115386963
1695712750111301600,10.206301513671875,-1.1217225790023804,1.9092187881469727,-3.061434507369995
1695712750121342200,10.21634228515625,-1.155811071395874,2.0082883834838867,-2.8750133514404297
1695712750131375400,10.226375244140625,-1.105743646621704,1.9156103134155273,-2.6216137409210205
1695712750141407700,10.23640771484375,-1.0482194423675537,1.8048229217529297,-2.3638200759887695
1695712750151441000,10.24644091796875,-0.9491499066352844,1.6323833465576172,-2.206294059753418
1695712750161476000,10.25647607421875,-0.8001461625099182,1.2925642728805542,-2.191380500793457
1695712750171509200,10.26650927734375,-0.658466100692749,0.7462171912193298,-2.2935125827789307
1695712750181542000,10.2765419921875,-0.5647228956222534,-0.10359688848257065,-2.4192137718200684
1695712750191575000,10.286574951171875,-0.4965460002422333,-1.0333057641983032,-2.500173807144165
1695712750201606000,10.29660595703125,-0.44967442750930786,-1.69044029712677,-2.6855297088623047
1695712750211639000,10.30663916015625,-0.4581965208053589,-1.7735308408737183,-3.008171319961548
1695712750221659100,10.3166591796875,-0.521047055721283,-1.2420973777770996,-3.4266867637634277
1695712750231690800,10.326690673828125,-0.6382260918617249,-0.6691187024116516,-3.7366786003112793
1695712750241729300,10.336729248046876,-0.8245140314102173,-0.5689839720726013,-3.871967077255249
1695712750251761700,10.34676171875,-1.0322405099868774,-1.0194573402404785,-3.8485312461853027
1695712750261769000,10.35676904296875,-1.1792469024658203,-1.7532907724380493,-3.6514575481414795
1695712750271798800,10.366798828125,-1.2367711067199707,-2.3315958976745605,-3.3522515296936035
1695712750281859000,10.376859130859375,-1.2069437503814697,-2.4455790519714355,-3.051847219467163
1695712750291892000,10.38689208984375,-1.0620678663253784,-2.389120101928711,-2.8165571689605713
1695712750301922600,10.396922607421875,-0.829840362071991,-2.397642135620117,-2.6972475051879883
1695712750311955200,10.406955078125,-0.5934849977493286,-2.4807326793670654,-2.64931058883667
1695712750321993500,10.416993408203124,-0.44115230441093445,-2.603104829788208,-2.6109611988067627
1695712750332026600,10.427026611328126,-0.3580617308616638,-2.787395477294922,-2.5076305866241455
1695712750342053600,10.4370537109375,-0.2644517123699188,-2.9184229373931885,-2.311622142791748
1695712750352086300,10.447086181640625,-0.18775272369384766,-2.9322712421417236,-2.0763320922851562
1695712750362123000,10.457123046875,-0.15366427600383759,-2.916292428970337,-1.7833844423294067
1695712750372156200,10.46715625,-0.13981585204601288,-2.792721748352051,-1.4287848472595215
1695712750382183000,10.477182861328124,-0.12596742808818817,-2.613757610321045,-0.9868336319923401
1695712750392215000,10.487215087890625,-0.11424952745437622,-2.352900981903076,-0.46924862265586853
1695712750402242600,10.49724267578125,-0.10892320424318314,-2.075932502746582,0.10159952193498611
1695712750412274400,10.5072744140625,-0.1291632205247879,-1.8363813161849976,0.6937529444694519
1695712750422281700,10.51728173828125,-0.12596742808818817,-1.6180022954940796,1.291232705116272
1695712750432311000,10.52731103515625,-0.07909582555294037,-1.3720595836639404,1.8503628969192505
1695712750442381000,10.537381103515624,0.0007989477599039674,-1.0556762218475342,2.351969003677368
1695712750452414500,10.54741455078125,0.08921582996845245,-0.6052029132843018,2.790724515914917
1695712750462419500,10.55741943359375,0.148870587348938,-0.0492684431374073,3.099517822265625
1695712750472450000,10.567449951171875,0.21704746782779694,0.5929523706436157,2.979276180267334
1695712750482505000,10.5775048828125,0.3884217441082001,1.323456883430481,1.7480976581573486
1695712750492538000,10.5875380859375,0.6952176690101624,1.106276273727417,-0.09440898895263672
1695712750502571000,10.597571044921875,0.9166593551635742,-0.591354489326477,-1.3723258972167969
1695712750512604200,10.607604248046876,0.6824344992637634,-1.7117455005645752,-2.2956430912017822
1695712750522637300,10.61763720703125,0.15526217222213745,-1.7980319261550903,-2.6109611988067627
1695712750532670200,10.627670166015625,-0.22610220313072205,-1.6265244483947754,-2.096571922302246
1695712750542668300,10.637668212890626,-0.5306344628334045,-1.135571002960205,-1.4287848472595215
1695712750552697900,10.64769775390625,-0.6989461183547974,-0.44967442750930786,-0.8803072571754456
1695712750562769700,10.657769775390625,-0.4816323220729828,0.5695165991783142,-0.3307643532752991
1695712750572803300,10.66780322265625,0.002929474925622344,1.4491580724716187,0.26032379269599915
1695712750582796300,10.67779638671875,0.12756532430648804,1.7994966506958008,0.735298216342926
1695712750592825900,10.687825927734375,0.0018642114009708166,1.444896936416626,1.1964242458343506
1695712750602869000,10.697868896484374,-0.25912538170814514,0.7408908605575562,1.6266576051712036
1695712750612900000,10.707900146484375,-0.4752407371997833,0.0007989477599039674,1.7768597602844238
1695712750622928400,10.717928466796875,-0.5966808199882507,-0.228232741355896,1.4382390975952148
1695712750632959000,10.727958984375,-0.554070234298706,0.07643266767263412,0.8386288285255432
1695712750642993000,10.737992919921876,-0.41771650314331055,0.06897582113742828,0.5371592044830322
1695712750653024000,10.74802392578125,-0.40386807918548584,-0.23568958044052124,0.6799045205116272
1695712750663083800,10.758083740234374,-0.41239017248153687,-0.4432828426361084,1.2827105522155762
1695712750673117700,10.76811767578125,-0.27603644132614136,0.002929474925622344,2.2113542556762695
1695712750683122400,10.778122314453125,-0.03968106955289841,1.0402299165725708,3.0794107913970947
1695712750693153300,10.7881533203125,0.2181127369403839,2.1574251651763916,3.681018590927124
1695712750703184400,10.798184326171874,0.37031227350234985,2.935866594314575,3.9654438495635986
1695712750713215200,10.80821533203125,0.4491417706012726,3.205378293991089,3.998466968536377
1695712750723254800,10.8182548828125,0.45979443192481995,3.015761375427246,3.814176559448242
1695712750733286700,10.82828662109375,0.38948702812194824,2.5503742694854736,3.625757932662964
1695712750743315200,10.838315185546875,0.21598219871520996,2.081791400909424,3.496860980987549
1695712750753346600,10.8483466796875,-0.07163897901773453,1.6014907360076904,3.40631365776062
1695712750763394800,10.858394775390625,-0.302668035030365,1.1392995119094849,3.3147010803222656
1695712750773428000,10.868427978515625,-0.4251733422279358,0.9102677702903748,3.109105110168457
1695712750783459300,10.878459228515625,-0.434760719537735,0.917724609375,2.7981812953948975
1695712750793492200,10.8884921875,-0.40386807918548584,1.0157288312911987,2.472343683242798
1695712750803511000,10.898510986328125,-0.3346259295940399,1.173387885093689,2.213484764099121
1695712750813542700,10.908542724609376,-0.21971063315868378,1.3330442905426025,2.0291941165924072
1695712750823578600,10.91857861328125,-0.07590003311634064,1.3884379863739014,1.9036260843276978
1695712750833610800,10.92861083984375,0.044474758207798004,1.2064111232757568,1.8237313032150269
1695712750843640000,10.93864013671875,0.10732531547546387,0.8399603962898254,1.822666049003601
1695712750853672000,10.948671875,0.13502216339111328,0.6110618710517883,1.9196051359176636
1695712750863727400,10.958727294921875,0.16165375709533691,0.8058719635009766,2.013348340988159
1695712750873761300,10.96876123046875,0.16378428041934967,1.29362952709198,2.0568909645080566
1695712750883767800,10.978767822265626,0.17869797348976135,1.7218655347824097,2.049434185028076
1695712750893799200,10.988799072265625,0.26391905546188354,1.8133450746536255,1.9515630006790161
1695712750903841300,10.99884130859375,0.40759649872779846,1.6078822612762451,1.7789902687072754
1695712750913873700,11.008873779296875,0.5833650231361389,1.193627953529358,1.5723291635513306
1695712750923921400,11.01892138671875,0.7527419328689575,0.5780386924743652,1.3945633172988892
1695712750933955300,11.028955322265626,0.8474172353744507,-0.08655267208814621,1.3125379085540771
1695712750943965200,11.038965087890626,0.8133288025856018,-0.5764408111572266,1.3189295530319214
1695712750953996800,11.048996826171875,0.6728471517562866,-0.7117292881011963,1.3359737396240234
1695712750964044000,11.0590439453125,0.4800344407558441,-0.3848264813423157,1.2667316198349
1695712750974077200,11.0690771484375,0.2733732759952545,0.2595248520374298,1.0877673625946045
1695712750984118000,11.079117919921876,0.08602003753185272,0.8729835748672485,0.8301066756248474
1695712750994152000,11.08915185546875,-0.06205160543322563,1.1403647661209106,0.5637907981872559
1695712751004180200,11.09918017578125,-0.19840535521507263,1.0668615102767944,0.4082622826099396
1695712751014213400,11.10921337890625,-0.2930806577205658,0.8921582698822021,0.41465386748313904
1695712751024219400,11.119219482421874,-0.29095011949539185,0.7898929715156555,0.416784405708313
1695712751034249700,11.129249755859375,-0.2792322337627411,0.7398256063461304,0.2635195851325989
1695712751044320800,11.13932080078125,-0.3154512047767639,0.6643250584602356,0.07496792823076248
1695712751054355500,11.14935546875,-0.38362807035446167,0.5450155138969421,-0.09121319651603699
1695712751064385300,11.15938525390625,-0.46352285146713257,0.5822997093200684,-0.34674331545829773
1695712751074419500,11.16941943359375,-0.5572660565376282,0.8165245652198792,-0.7439534664154053
1695712751084450300,11.1794501953125,-0.6094639897346497,0.9582046270370483,-1.2073432207107544
1695712751094484200,11.189484130859375,-0.658466100692749,0.9859014749526978,-1.756752848625183
1695712751104499700,11.199499755859375,-0.7745798230171204,1.081775188446045,-2.3829946517944336
1695712751114531600,11.209531494140625,-0.9598025679588318,1.3255873918533325,-2.8260111808776855
1695712751124546600,11.219546630859375,-1.1707247495651245,1.4917685985565186,-2.9889965057373047
1695712751134577000,11.229576904296875,-1.2932300567626953,1.5311833620071411,-2.971952438354492
1695712751144608300,11.239608154296874,-1.2378363609313965,1.4172000885009766,-2.808034896850586
1695712751154638600,11.249638671875,-1.1217225790023804,1.1712573766708374,-2.5630242824554443
1695712751164682800,11.259682861328125,-1.01413094997406,0.9582046270370483,-2.3691463470458984
1695712751174714400,11.26971435546875,-0.8916256427764893,0.6504766345024109,-2.3052306175231934
1695712751184734200,11.279734130859374,-0.7500787377357483,0.28509119153022766,-2.381929397583008
1695712751194764800,11.289764892578125,-0.6137250065803528,-0.13662005960941315,-2.5225443840026855
1695712751204816100,11.299816162109375,-0.5242428779602051,-0.8033419251441956,-2.569415807723999
1695712751214848800,11.309848876953126,-0.5263733863830566,-1.4689985513687134,-2.5960474014282227
1695712751224897800,11.319897705078125,-0.5593965649604797,-1.6733959913253784,-2.7515759468078613
1695712751234932200,11.32993212890625,-0.5892239809036255,-1.478585958480835,-3.022019863128662
1695712751244939800,11.339939697265624,-0.6467481851577759,-1.3017522096633911,-3.3320114612579346
1695712751254971100,11.34997119140625,-0.7404913902282715,-1.30707848072052,-3.5875415802001953
1695712751265028400,11.3600283203125,-0.912930965423584,-1.6275897026062012,-3.7697017192840576
1695712751275062500,11.3700625,-1.0748510360717773,-2.080193519592285,-3.8197691440582275
1695712751285105400,11.38010546875,-1.1941605806350708,-2.593517541885376,-3.7260258197784424
1695712751295140400,11.390140380859375,-1.239966869354248,-2.936532497406006,-3.514038324356079
1695712751305130500,11.400130615234374,-1.172855257987976,-2.980208158493042,-3.261704206466675
1695712751315161000,11.4101611328125,-1.0194573402404785,-2.974881887435913,-3.016693592071533
1695712751325223000,11.420222900390625,-0.8149266839027405,-3.000448226928711,-2.8218834400177
1695712751335256600,11.430256591796875,-0.6328997611999512,-2.9631640911102295,-2.679137945175171
1695712751345262300,11.440262451171876,-0.491219699382782,-2.950380802154541,-2.5566327571868896
1695712751355293200,11.450293212890625,-0.37084490060806274,-2.9194881916046143,-2.4021694660186768
1695712751365331000,11.4603310546875,-0.31438592076301575,-2.959968090057373,-2.141313076019287
1695712751375362600,11.470362548828126,-0.3207775056362152,-2.9322712421417236,-1.7993634939193726
1695712751385386800,11.48038671875,-0.33782172203063965,-2.826810121536255,-1.4149364233016968
1695712751395417600,11.49041748046875,-0.3548659384250641,-2.67767333984375,-0.9910946488380432
1695712751405471500,11.500471435546874,-0.37084490060806274,-2.492450714111328,-0.4990760087966919
1695712751415505000,11.5105048828125,-0.36551859974861145,-2.2708756923675537,0.04301001876592636
1695712751425535000,11.520534912109374,-0.3356912136077881,-1.9546256065368652,0.5861613154411316
1695712751435567900,11.53056787109375,-0.28988486528396606,-1.6009581089019775,1.0941588878631592
1695712751445750800,11.540750732421875,-0.19627483189105988,-1.2676637172698975,1.5361101627349854
1695712751455796700,11.550796630859375,-0.0684431865811348,-0.9576719999313354,1.9174745082855225
1695712751465842700,11.5608427734375,0.08069372177124023,-0.6062681674957275,2.2166805267333984
1695712751475694600,11.570694580078126,0.2564622163772583,-0.2516685426235199,2.421211004257202
1695712751485725700,11.5807255859375,0.47790390253067017,0.09560741484165192,2.5234763622283936
1695712751495763700,11.590763671875,0.6749776601791382,0.4715123176574707,2.2017667293548584
1695712751505795300,11.60079541015625,0.7932219505310059,0.6886929273605347,1.0515483617782593
1695712751515837200,11.610837158203125,0.8974846005439758,0.39481332898139954,-0.2721748650074005
1695712751525869800,11.620869873046875,0.9859014749526978,-0.5103944540023804,-1.0901641845703125
1695712751535887600,11.6308876953125,0.9219856858253479,-1.2974910736083984,-1.5619428157806396
1695712751545918700,11.640918701171875,0.5056007504463196,-1.4349101781845093,-1.723862886428833
1695712751555960000,11.6509599609375,0.10945583879947662,-1.1462236642837524,-1.4895049333572388
1695712751565992200,11.6609921875,-0.2005358785390854,-0.6446176767349243,-1.217862606048584
1695712751576022000,11.67102197265625,-0.37084490060806274,-0.1664474457502365,-1.146623134613037
1695712751586054000,11.681053955078125,-0.28988486528396606,0.23289325833320618,-0.9942904710769653
1695712751596068900,11.69106884765625,0.0540621280670166,0.5641902685165405,-0.7301050424575806
1695712751606099000,11.701098876953125,0.3021354079246521,0.6780403256416321,-0.4713791608810425
1695712751616156000,11.711156005859374,0.2786996066570282,0.67484450340271,-0.07523424178361893
1695712751626188800,11.721188720703125,-0.019441060721874237,0.4203796684741974,0.5701823830604553
1695712751636218000,11.731218017578126,-0.43156492710113525,-0.18242639303207397,1.253948450088501
1695712751646250800,11.741250732421875,-0.7916240692138672,-0.7862977385520935,1.7470324039459229
1695712751656257500,11.751257568359375,-1.081242561340332,-0.838495671749115,2.0069568157196045
1695712751666287600,11.76128759765625,-1.1792469024658203,-0.3560643792152405,1.8769944906234741
1695712751676346000,11.77134619140625,-1.0290446281433105,0.47790390253067017,1.5180007219314575
1695712751686379000,11.78137890625,-0.6840324401855469,1.2531495094299316,1.4211949110031128
1695712751696408600,11.79140869140625,-0.20373167097568512,1.6025559902191162,1.788577675819397
1695712751706441000,11.80144091796875,0.20319904386997223,1.6046864986419678,2.4552996158599854
1695712751716465200,11.811465087890625,0.5258407592773438,1.6291875839233398,3.0495834350585938
1695712751726496800,11.821496826171876,0.7527419328689575,1.8218671083450317,3.3647682666778564
1695712751736539100,11.8315390625,0.7878956198692322,1.966742992401123,3.4883389472961426
1695712751746571800,11.84157177734375,0.6206492185592651,1.9763303995132446,3.566103219985962
1695712751756614700,11.85161474609375,0.2733732759952545,1.917740821838379,3.6437342166900635
1695712751766648300,11.8616484375,-0.08442214131355286,1.8463681936264038,3.710845947265625
1695712751776666400,11.871666259765625,-0.36019226908683777,1.6430360078811646,3.7193679809570312
1695712751786698500,11.881698486328125,-0.4667186439037323,1.523726463317871,3.646929979324341
1695712751796734200,11.891734130859374,-0.4752407371997833,1.368198037147522,3.4350757598876953
1695712751806766800,11.901766845703126,-0.5285038948059082,1.1797795295715332,3.0357351303100586
1695712751816801300,11.91180126953125,-0.5316997170448303,1.0285120010375977,2.550107955932617
1695712751826834000,11.921833984375,-0.44008705019950867,0.8921582698822021,2.084587812423706
1695712751836857000,11.931857177734376,-0.2728406488895416,0.8069372177124023,1.7299880981445312
1695712751846888700,11.941888671875,-0.13662005960941315,0.8293077349662781,1.5062828063964844
1695712751856903000,11.95190283203125,-0.05779055133461952,0.8836361765861511,1.3966938257217407
1695712751866932700,11.9619326171875,-0.013049479573965073,0.7440866827964783,1.3988243341445923
1695712751876998000,11.971997802734375,0.013582111336290836,0.46405547857284546,1.5723291635513306
1695712751887031300,11.98203125,0.048735812306404114,0.524775505065918,1.8397103548049927
1695712751897053700,11.9920537109375,0.0540621280670166,1.0210552215576172,2.0112178325653076
1695712751907085800,12.0020859375,0.04234423115849495,1.608947515487671,2.0387814044952393
1695712751917099300,12.012099365234375,0.08815056830644608,1.9635472297668457,1.9664766788482666
1695712751927129600,12.022129638671874,0.20213377475738525,1.96248197555542,1.84290611743927
1695712751937169000,12.0321689453125,0.35646384954452515,1.6494275331497192,1.7150744199752808
1695712751947200000,12.042199951171876,0.5194491744041443,1.0924278497695923,1.6074827909469604
1695712751957224000,12.052223876953125,0.6856303215026855,0.3777691125869751,1.5488933324813843
1695712751967254500,12.062254638671876,0.7953524589538574,-0.2655169665813446,1.5286533832550049
1695712751977294300,12.07229443359375,0.7942872047424316,-0.6776408553123474,1.508413314819336
1695712751987326000,12.082325927734376,0.6749776601791382,-0.7362303137779236,1.4275864362716675
1695712751997365200,12.092365234375,0.5024049878120422,-0.3848264813423157,1.2401000261306763
1695712752007397600,12.102397705078126,0.32770171761512756,0.19560903310775757,0.9716535806655884
1695712752017424400,12.11242431640625,0.11797794699668884,0.7025413513183594,0.7076013684272766
1695712752027456000,12.1224560546875,-0.12809795141220093,0.9443562030792236,0.5307676196098328
1695712752037493800,12.13249365234375,-0.2559295892715454,1.0860363245010376,0.45193809270858765
1695712752047526100,12.142526123046874,-0.24314641952514648,1.1574089527130127,0.4082622826099396
1695712752057558000,12.15255810546875,-0.23995064198970795,1.0359688997268677,0.29334697127342224
1695712752067590400,12.16259033203125,-0.31012487411499023,0.7238466143608093,0.10586057603359222
1695712752077609700,12.172609619140625,-0.4209122955799103,0.3830954432487488,-0.11358373612165451
1695712752087640600,12.182640625,-0.5199818015098572,0.18708692491054535,-0.408528596162796
1695712752097697000,12.192697021484374,-0.6115944981575012,0.17643429338932037,-0.8345009088516235
1695712752107730700,12.202730712890625,-0.7053377032279968,0.38416069746017456,-1.3030837774276733
1695712752117769700,12.212769775390624,-0.8033419251441956,0.7813708782196045,-1.7270586490631104
1695712752127804000,12.222803955078126,-0.9406278133392334,1.0849710702896118,-2.1050941944122314
1695712752137836000,12.2328359375,-1.1291794776916504,1.1297121047973633,-2.451171636581421
1695712752147869700,12.24286962890625,-1.215465784072876,1.0988194942474365,-2.767554998397827
1695712752157870800,12.252870849609375,-1.1696594953536987,1.0956236124038696,-2.987931251525879
1695712752167901400,12.2629013671875,-1.047154188156128,1.1701921224594116,-2.9943230152130127
1695712752177958100,12.272958251953124,-0.9108003973960876,1.2456926107406616,-2.893122911453247
1695712752187991300,12.2829912109375,-0.8181225061416626,1.3298485279083252,-2.76435923576355
1695712752198015200,12.29301513671875,-0.742621898651123,1.3863074779510498,-2.61415696144104
1695712752208047600,12.303047607421876,-0.6637924313545227,1.3596758842468262,-2.4575631618499756
1695712752218084400,12.31308447265625,-0.6265081763267517,1.1297121047973633,-2.3233399391174316
1695712752228117000,12.323116943359375,-0.5924197435379028,0.5396891832351685,-2.2531657218933105
1695712752238152400,12.33315234375,-0.5125249624252319,-0.5849629044532776,-2.271275281906128
1695712752248185300,12.343185302734375,-0.41345545649528503,-1.5359770059585571,-2.5278706550598145
1695712752258202000,12.3532021484375,-0.3346259295940399,-1.8427729606628418,-2.9293417930603027
1695712752268233500,12.3632333984375,-0.3303648829460144,-1.4848443269729614,-3.4181647300720215
1695712752278288400,12.373288330078125,-0.42730388045310974,-1.0929604768753052,-3.733482837677002
1695712752288322000,12.383322021484375,-0.6222470998764038,-0.9587372541427612,-3.8591837882995605
1695712752298346000,12.393345947265624,-0.8596677780151367,-1.1206573247909546,-3.8879458904266357
1695712752308378600,12.403378662109375,-1.047154188156128,-1.4679332971572876,-3.861314296722412
1695712752318417000,12.4134169921875,-1.0993521213531494,-1.8182718753814697,-3.7494616508483887
1695712752328450000,12.423449951171875,-1.0088046789169312,-2.121738910675049,-3.564105749130249
1695712752338482000,12.43348193359375,-0.8202530145645142,-2.4796674251556396,-3.376619338989258
1695712752348515000,12.44351513671875,-0.5679186582565308,-2.6798038482666016,-3.2073757648468018
1695712752358522400,12.4535224609375,-0.3506048917770386,-2.7149574756622314,-2.9943230152130127
1695712752368552700,12.463552734375,-0.23355905711650848,-2.6861953735351562,-2.7366623878479004
1695712752378607400,12.473607421875,-0.10785794258117676,-2.6808691024780273,-2.4437148571014404
1695712752388640000,12.483639892578125,-0.016245270147919655,-2.7351975440979004,-2.0646140575408936
1695712752398672400,12.49367236328125,0.016777902841567993,-2.6691513061523438,-1.589639663696289
1695712752408705300,12.503705322265626,0.040213704109191895,-2.5446484088897705,-1.0912294387817383
1695712752418707700,12.513707763671874,0.048735812306404114,-2.393381118774414,-0.5938844680786133
1695712752428737500,12.523737548828125,0.05725792050361633,-2.184589385986328,-0.09867004305124283
1695712752438807800,12.533807861328125,0.04660528525710106,-1.9940403699874878,0.4103928208351135
1695712752448841700,12.543841796875,0.05086633935570717,-1.8225328922271729,0.9142625331878662
1695712752458845000,12.553844970703125,0.04767054691910744,-1.6648739576339722,1.3945633172988892
1695712752468875800,12.563875732421875,0.04554001986980438,-1.4848443269729614,1.8311882019042969
1695712752478925300,12.57392529296875,0.09773793816566467,-1.2484890222549438,2.1911141872406006
1695712752488958000,12.5839580078125,0.23941799998283386,-0.9088030457496643,2.4201457500457764
1695712752498964700,12.59396484375,0.4299670457839966,-0.39974018931388855,2.4638216495513916
1695712752508994800,12.603994873046876,0.6046702861785889,0.3308975100517273,2.065412998199463
1695712752519037700,12.61403759765625,0.7783082723617554,1.068992018699646,0.7629950642585754
