time,seconds_elapsed,z,y,x
1695713127271233000,0.10823291015625,-0.13022847473621368,-0.11851058155298233,-0.17204007506370544
1695713127281271800,0.118271728515625,-0.10359688848257065,-0.05566002428531647,-0.1784316599369049
1695713127291309300,0.128309326171875,-0.08442214131355286,0.013582111336290836,-0.17630113661289215
1695713127301348000,0.13834814453125,-0.06737792491912842,0.003994738683104515,-0.17097482085227966
1695713127311359200,0.148359130859375,-0.05139897018671036,-0.05139897018671036,-0.15286533534526825
1695713127321543000,0.15854296875,-0.04181159660220146,-0.12170637398958206,-0.1093226820230484
1695713127331605500,0.16860546875,-0.03328948840498924,-0.20266640186309814,-0.05392897129058838
1695713127341632500,0.178632568359375,-0.03861580789089203,-0.25379905104637146,0.006791055668145418
1695713127351509500,0.188509521484375,-0.0492684431374073,-0.2761695981025696,0.049401599913835526
1695713127361512200,0.19851220703125,-0.07590003311634064,-0.23568958044052124,0.0739026665687561
1695713127371485700,0.208485595703125,-0.10146636515855789,-0.16964323818683624,0.08029424399137497
1695713127381606100,0.218606201171875,-0.10679268091917038,-0.10892320424318314,0.07177213579416275
1695713127391641900,0.228641845703125,-0.1291632205247879,-0.08868319541215897,0.05472791939973831
1695713127401671200,0.238671142578125,-0.13555480539798737,-0.1579253375530243,0.029161592945456505
1695713127411704000,0.2487041015625,-0.11957584321498871,-0.23675484955310822,-0.008122635073959827
1695713127421730800,0.258730712890625,-0.11744531989097595,-0.2900180220603943,-0.01771000772714615
1695713127431761200,0.26876123046875,-0.10785794258117676,-0.35819488763809204,-0.015579480677843094
1695713127441767400,0.278767333984375,-0.09614004194736481,-0.3848264813423157,-0.0017310534603893757
1695713127451787300,0.288787353515625,-0.07590003311634064,-0.3613906800746918,0.01957421936094761
1695713127461849300,0.298849365234375,-0.05459476262331009,-0.3123885691165924,0.03874896466732025
1695713127471887000,0.30888720703125,-0.03968106955289841,-0.2804306447505951,0.05472791939973831
1695713127481926700,0.3189267578125,-0.020506324246525764,-0.20586219429969788,0.06857634335756302
1695713127491965200,0.328965087890625,-0.019441060721874237,-0.13235901296138763,0.07070687413215637
1695713127501959700,0.338959716796875,-0.0141147430986166,-0.13129374384880066,0.03874896466732025
1695713127511979300,0.348979248046875,-0.04287686198949814,-0.1483379602432251,0.0003994738799519837
1695713127522032400,0.359032470703125,-0.09294424951076508,-0.1621863842010498,-0.0070573715493083
1695713127532066300,0.36906640625,-0.10466215014457703,-0.24953800439834595,0.011052110232412815
1695713127542112300,0.3791123046875,-0.0822916179895401,-0.38056543469429016,0.03448791056871414
1695713127552151300,0.3891513671875,-0.07163897901773453,-0.48376286029815674,0.07603318989276886
1695713127562185700,0.399185791015625,-0.0822916179895401,-0.6808366179466248,0.1261005848646164
1695713127572222700,0.40922265625,-0.21012325584888458,-0.951280415058136,0.19960378110408783
1695713127582263300,0.41926318359375,-0.34634384512901306,-1.0908299684524536,0.3189133107662201
1695713127592301800,0.4293017578125,-0.49761128425598145,-1.0290446281433105,0.4125233590602875
1695713127602298400,0.43929833984375,-0.5700492262840271,-1.2165310382843018,0.4391549229621887
1695713127612319000,0.449319091796875,-0.5870934128761292,-1.4434322118759155,0.42424124479293823
1695713127622392800,0.459392822265625,-0.5956155061721802,-1.4444974660873413,0.34447962045669556
1695713127632436200,0.469436279296875,-0.5796365737915039,-1.2953605651855469,0.15060164034366608
1695713127642465300,0.47946533203125,-0.5615270733833313,-1.0333057641983032,-0.051798444241285324
1695713127652502500,0.48950244140625,-0.5604618191719055,-0.7948198318481445,-0.26152223348617554
1695713127662516000,0.499515869140625,-0.5732449889183044,-0.7990809082984924,-0.5629918575286865
1695713127672543000,0.50954296875,-0.5380913019180298,-0.9375651478767395,-0.9612672924995422
1695713127682570500,0.519570556640625,-0.37084490060806274,-1.01413094997406,-1.3584774732589722
1695713127692597500,0.529597412109375,-0.2047969400882721,-1.1345057487487793,-1.6791218519210815
1695713127702655700,0.53965576171875,-0.13768532872200012,-1.3539501428604126,-1.9261298179626465
1695713127712686000,0.54968603515625,-0.08335687965154648,-1.6265244483947754,-2.051831007003784
1695713127722718500,0.559718505859375,0.007190529722720385,-1.67552649974823,-2.0699403285980225
1695713127732748800,0.569748779296875,0.07643266767263412,-1.4807164669036865,-1.8963024616241455
1695713127742919200,0.579919189453125,0.09454214572906494,-1.2623374462127686,-1.5566165447235107
1695713127752949800,0.58994970703125,0.16058848798274994,-1.2239879369735718,-1.105077862739563
1695713127762995200,0.5999951171875,0.2872216999530792,-1.411474347114563,-0.7546061277389526
1695713127773027000,0.610027099609375,0.3490070104598999,-2.1132166385650635,-0.4575307369232178
1695713127783059200,0.62005908203125,0.45446810126304626,-2.692586898803711,-0.11358373612165451
1695713127792935000,0.629934814453125,0.57058185338974,-3.0515809059143066,0.16658060252666473
1695713127802954500,0.63995458984375,0.6877608299255371,-3.503119468688965,0.45726442337036133
1695713127813011700,0.65001171875,0.833568811416626,-4.00792121887207,0.743820309638977
1695713127823035100,0.66003515625,1.0189247131347656,-4.456264019012451,0.9398288726806641
1695713127833041200,0.670041259765625,1.3596758842468262,-4.437089443206787,0.9313067197799683
1695713127843062800,0.680062744140625,1.7229307889938354,-4.776775360107422,1.0174599885940552
1695713127853110800,0.69011083984375,2.1670124530792236,-5.235903739929199,1.011068344116211
1695713127863135200,0.70013525390625,2.6004416942596436,-5.7076826095581055,1.011068344116211
1695713127873170000,0.710169921875,3.1031129360198975,-6.248703479766846,1.106942057609558
1695713127883195100,0.720195068359375,3.5716958045959473,-6.755635738372803,1.1335736513137817
1695713127893257200,0.73025732421875,4.155327320098877,-7.181608200073242,1.1932284832000732
1695713127903286300,0.740286376953125,4.854006767272949,-7.509575843811035,1.3615400791168213
1695713127913317000,0.750317138671875,5.641103744506836,-7.800393104553223,1.6575502157211304
1695713127923346400,0.760346435546875,6.255494594573975,-7.863243579864502,2.0824573040008545
1695713127933383400,0.770383544921875,6.630467414855957,-7.609710693359375,2.6394569873809814
1695713127943413500,0.78041357421875,6.839125633239746,-7.216761589050293,3.308309316635132
1695713127953464600,0.790464599609375,6.873214244842529,-6.804637908935547,3.997401714324951
1695713127963496700,0.80049658203125,6.793319225311279,-6.202897071838379,4.585294246673584
1695713127973529600,0.810529541015625,6.729403495788574,-5.611808776855469,5.000613689422607
1695713127983562000,0.82056201171875,6.463220596313477,-5.019655227661133,5.135902404785156
1695713127993578800,0.830578857421875,5.958418846130371,-4.296474456787109,5.016592979431152
1695713128003609300,0.840609375,5.331111907958984,-3.392332077026367,4.841889381408691
1695713128013658600,0.85065869140625,4.554800987243652,-2.5435831546783447,4.639622688293457
1695713128023691300,0.860691162109375,3.6462643146514893,-1.8853834867477417,4.3839592933654785
1695713128033717000,0.870717041015625,2.717620611190796,-1.3347753286361694,4.034686088562012
1695713128043748900,0.880748779296875,1.9209367036819458,-0.8395609259605408,3.525623083114624
1695713128053785600,0.89078564453125,1.2436952590942383,-0.35712963342666626,2.834400177001953
1695713128063817700,0.900817626953125,0.6366282105445862,0.04127896577119827,2.0473036766052246
1695713128073820700,0.910820556640625,0.1531316488981247,0.19773955643177032,1.3093421459197998
1695713128083850000,0.92085009765625,-0.10785794258117676,0.1700427085161209,0.7747129797935486
1695713128093911000,0.9309111328125,-0.18881797790527344,0.14021532237529755,0.4157191216945648
1695713128103943400,0.940943359375,-0.22610220313072205,-0.07376950979232788,0.3093259334564209
1695713128113971700,0.9509716796875,-0.3250385820865631,-0.4326302111148834,0.4668518006801605
1695713128124003800,0.96100390625,-0.545548141002655,-0.9258472323417664,0.7246456146240234
1695713128134038000,0.9710380859375,-0.7383608818054199,-1.239966869354248,0.7129276990890503
1695713128144070100,0.981070068359375,-0.6158555150032043,-0.3880222737789154,-0.9335704445838928
1695713128154106000,0.991106201171875,-0.4528702199459076,0.18389113247394562,-3.5459964275360107
1695713128164138800,1.001138671875,-0.29521119594573975,0.18815219402313232,-3.102979898452759
1695713128174167600,1.01116748046875,-0.6819018721580505,-0.14727269113063812,-2.2275993824005127
1695713128184199700,1.02119970703125,-0.7159903049468994,-0.3368896245956421,-1.2700605392456055
1695713128194228000,1.03122802734375,-0.4145207107067108,-0.6030724048614502,-0.9996167421340942
1695713128204259800,1.041259765625,-0.44115230441093445,-0.6669881939888,-0.962332546710968
1695713128214310100,1.05131005859375,-0.45073968172073364,-0.6829671263694763,-0.7386271953582764
1695713128224343800,1.06134375,-0.30479857325553894,-0.6733797788619995,-0.6842987537384033
1695713128234375400,1.07137548828125,0.03488738462328911,-0.8491482734680176,-0.8611325025558472
1695713128244409000,1.0814091796875,0.6994787454605103,-0.9173251390457153,-1.0539451837539673
1695713128254436900,1.091436767578125,0.6344976425170898,-1.2974910736083984,-0.5161202549934387
1695713128264469800,1.1014697265625,-0.007723161485046148,-1.1419626474380493,0.6500771641731262
1695713128274503400,1.11150341796875,-0.3292996287345886,-0.9088030457496643,1.2933632135391235
1695713128284536300,1.121536376953125,-0.1430116444826126,-0.29640960693359375,0.9482178092002869
1695713128294561000,1.13156103515625,0.22237378358840942,0.25206801295280457,0.38709017634391785
1695713128304593200,1.14159326171875,0.3585943877696991,0.4768386483192444,0.296542763710022
1695713128314633000,1.151633056640625,0.21704746782779694,0.32450592517852783,0.5052012801170349
1695713128324665900,1.161665771484375,0.04554001986980438,0.0913463607430458,0.7704519033432007
1695713128334662100,1.171662109375,0.003994738683104515,-0.11424952745437622,1.005742073059082
1695713128344691200,1.181691162109375,0.1808284968137741,-0.13768532872200012,1.1932284832000732
1695713128354731800,1.191731689453125,0.2575274705886841,-0.24314641952514648,1.2049462795257568
1695713128364762000,1.20176220703125,0.325571209192276,-0.20160114765167236,1.4456958770751953
1695713128374829600,1.21182958984375,0.5609944462776184,-0.16431692242622375,1.5893733501434326
1695713128384863500,1.221863525390625,0.879375159740448,0.08495477586984634,1.5584807395935059
1695713128394855700,1.231855712890625,1.1765836477279663,0.31917962431907654,1.3871064186096191
1695713128404885500,1.241885498046875,1.532248616218567,0.41824913024902344,1.17405366897583
1695713128414959400,1.25195947265625,1.9379808902740479,0.6121271252632141,0.95247882604599
1695713128424993800,1.261993896484375,2.2873873710632324,0.8729835748672485,0.6340981721878052
1695713128435021300,1.272021240234375,2.4566311836242676,0.972053050994873,0.21771325170993805
1695713128445054700,1.2820546875,2.5546352863311768,0.6483460664749146,-0.1699095517396927
1695713128455063300,1.292063232421875,2.633464813232422,0.825046718120575,-0.07523424178361893
1695713128465094400,1.302094482421875,2.6015069484710693,1.093493103981018,0.1868206113576889
1695713128475116000,1.312115966796875,2.614290237426758,0.9528783559799194,0.21132168173789978
1695713128485146000,1.32214599609375,2.612159490585327,0.600409209728241,-0.011318426579236984
1695713128495219000,1.332218994140625,2.7240123748779297,0.7185203433036804,-0.19014956057071686
1695713128505253400,1.34225341796875,3.036001443862915,0.503470242023468,-0.4191812574863434
1695713128515278800,1.35227880859375,3.671830654144287,-0.3933486044406891,-1.4128059148788452
1695713128525312500,1.3623125,4.30765962600708,-0.8438219428062439,-2.3893864154815674
1695713128535339000,1.372339111328125,4.290615558624268,-1.1408973932266235,-2.417083263397217
1695713128545372000,1.382371826171875,3.7996623516082764,-0.591354489326477,-1.740907073020935
1695713128555410200,1.39241015625,3.2426624298095703,0.38522595167160034,-0.7631282210350037
1695713128565443600,1.402443603515625,2.941326141357422,0.7675224542617798,0.10586057603359222
1695713128575475700,1.412475830078125,2.8486480712890625,0.42677125334739685,0.5904223918914795
1695713128585509000,1.422509033203125,2.5855278968811035,-0.1952095627784729,0.6841655969619751
1695713128595544600,1.432544677734375,2.2511684894561768,-0.5689839720726013,0.5137233734130859
1695713128605578000,1.442577880859375,1.9081535339355469,-0.6073334217071533,0.19960378110408783
1695713128615571200,1.4525712890625,1.214933156967163,-0.3368896245956421,-0.16671375930309296
1695713128625600800,1.462600830078125,0.25007063150405884,-0.1621863842010498,-0.21358536183834076
1695713128635672600,1.472672607421875,-0.4091944098472595,0.0774979293346405,0.07709845900535583
1695713128645706200,1.482706298828125,-0.696815550327301,-0.0822916179895401,0.3647196292877197
1695713128655710700,1.492710693359375,-0.9203878045082092,-0.5178512930870056,0.5137233734130859
1695713128665741600,1.502741455078125,-1.3719264268875122,0.048735812306404114,0.5339633822441101
1695713128675800300,1.51280029296875,-0.6169208288192749,0.6759097576141357,0.5243760347366333
1695713128685833700,1.522833740234375,0.9986846446990967,-0.8118640780448914,0.2763027548789978
1695713128695865000,1.532864990234375,2.785797595977783,-1.615871787071228,0.5243760347366333
1695713128705898500,1.5428984375,4.444013595581055,-1.0620678663253784,1.3061463832855225
1695713128715928800,1.5529287109375,5.587840557098389,-1.1025478839874268,1.9313229322433472
1695713128725961700,1.562961669921875,6.668816566467285,-1.6978970766067505,2.0154788494110107
1695713128735996400,1.572996337890625,7.017024993896484,-3.7586495876312256,2.095240354537964
1695713128746029300,1.583029296875,6.518614768981934,-6.99199104309082,2.188983678817749
1695713128756033500,1.593033447265625,5.516467571258545,-7.867504596710205,1.659680724143982
1695713128766063900,1.60306396484375,4.63349723815918,-6.833399772644043,1.0707231760025024
1695713128776092700,1.6130927734375,4.154262065887451,-4.963196277618408,0.28269433975219727
1695713128786122500,1.62312255859375,3.7677042484283447,-2.9290754795074463,-0.7791072130203247
1695713128796167700,1.633167724609375,3.0786118507385254,-2.111086130142212,-1.3733911514282227
1695713128806199300,1.64319921875,1.90495765209198,-2.4903199672698975,-1.225319504737854
1695713128816226600,1.6532265625,0.8996151685714722,-2.8491806983947754,-0.8909598588943481
1695713128826257700,1.663257568359375,0.4768386483192444,-2.8875303268432617,-0.5171855092048645
1695713128836303600,1.6733037109375,0.4896217882633209,-2.39444637298584,-0.22956430912017822
1695713128846336300,1.683336181640625,0.5886912941932678,-1.4381059408187866,-0.1603221744298935
1695713128856349400,1.693349365234375,0.5524723529815674,-0.515720784664154,-0.3105243444442749
1695713128866380000,1.703380126953125,0.4896217882633209,0.29574382305145264,-0.5342296957969666
1695713128876424000,1.713423828125,0.37989965081214905,0.9997498989105225,-0.6641919016838074
1695713128886455800,1.723455810546875,0.2692453861236572,1.5269222259521484,-0.623711884021759
1695713128896498000,1.733497802734375,0.25326642394065857,1.798431396484375,-0.47777074575424194
1695713128906530800,1.74353076171875,0.2914827764034271,1.8836524486541748,-0.36059173941612244
1695713128916566500,1.75356640625,0.37457332015037537,1.690972924232483,-0.3382211923599243
1695713128926599700,1.763599609375,0.4800344407558441,1.2574105262756348,-0.4095938801765442
1695713128936647000,1.77364697265625,0.5801692008972168,0.7270424365997314,-0.5193160176277161
1695713128946681600,1.783681640625,0.6174534559249878,0.23076273500919342,-0.6279729008674622
1695713128956678100,1.79367822265625,0.6057355403900146,-0.18242639303207397,-0.7290397882461548
1695713128966708700,1.803708740234375,0.5631250143051147,-0.5402218103408813,-0.7396924495697021
1695713128976739300,1.8137392578125,0.4864259958267212,-0.7724493145942688,-0.6439518928527832
1695713128986770000,1.82377001953125,0.3958786129951477,-0.779906153678894,-0.4852275848388672
1695713128996805000,1.83380517578125,0.325571209192276,-0.38589176535606384,-0.25193485617637634
1695713129006836200,1.843836181640625,0.3032006621360779,1.1669963598251343,0.24114905297756195
1695713129016879900,1.8538798828125,0.15952323377132416,2.219210386276245,0.4348938763141632
1695713129026912300,1.863912353515625,0.040213704109191895,0.5482112765312195,0.0025300011038780212
1695713129036969700,1.8739697265625,0.09773793816566467,-0.16005586087703705,0.08029424399137497
1695713129047004700,1.884004638671875,0.08069372177124023,0.09773793816566467,0.26032379269599915
1695713129056993300,1.8939931640625,0.0540621280670166,0.3213101327419281,0.22836589813232422
1695713129067023400,1.9040234375,-0.016245270147919655,0.19667430222034454,0.053662657737731934
1695713129077099000,1.91409912109375,-0.07376950979232788,-0.07483477145433426,-0.07523424178361893
1695713129087133700,1.9241337890625,-0.0492684431374073,-0.32836753129959106,-0.15712638199329376
1695713129097162200,1.934162353515625,0.07110634446144104,-0.4379565119743347,-0.19014956057071686
1695713129107196400,1.944196533203125,0.19148114323616028,-0.11744531989097595,-0.19441060721874237
1695713129117197300,1.954197265625,0.18828535079956055,1.7090823650360107,-0.6013413071632385
1695713129127228000,1.964227783203125,0.251135915517807,1.553553819656372,-0.7780419588088989
1695713129137262800,1.974262939453125,0.2191779911518097,0.3692470192909241,-0.3520696461200714
1695713129147294200,1.984294189453125,0.10945583879947662,-0.10359688848257065,-0.04008054360747337
1695713129157331500,1.99433154296875,0.028495801612734795,-0.1387505829334259,0.13675321638584137
1695713129167363300,2.00436328125,-0.007723161485046148,0.13488900661468506,0.21238693594932556
1695713129177426700,2.0144267578125,-0.006657897960394621,0.32770171761512756,0.26458486914634705
1695713129187461600,2.024461669921875,0.00612526573240757,0.36072489619255066,0.2986733019351959
1695713129197454800,2.034454833984375,0.03808317333459854,0.31385329365730286,0.31145647168159485
1695713129207485700,2.044485595703125,0.04767054691910744,0.0636495053768158,0.28269433975219727
1695713129217523700,2.054523681640625,0.028495801612734795,-0.21651484072208405,0.24221432209014893
1695713129227555300,2.064555419921875,0.016777902841567993,-0.37630438804626465,0.18149429559707642
1695713129237618000,2.074617919921875,-0.011984216049313545,-0.39441385865211487,0.11544794589281082
1695713129247652600,2.084652587890625,-0.02583264373242855,-0.3848264813423157,0.09094688296318054
1695713129257654300,2.094654296875,-0.056725289672613144,-0.44221755862236023,0.08775109052658081
1695713129267685600,2.104685546875,-0.10466215014457703,-0.5221123695373535,0.07709845900535583
1695713129277745700,2.11474560546875,-0.11318425834178925,-0.48269757628440857,0.07070687413215637
1695713129287779800,2.12477978515625,-0.11105373501777649,-0.4018706977367401,0.05153212696313858
1695713129297812500,2.1348125,-0.105727419257164,-0.39121806621551514,0.040879491716623306
1695713129307846700,2.1448466796875,-0.09400951862335205,-0.47950178384780884,0.017443692311644554
1695713129317876700,2.154876708984375,-0.0822916179895401,-0.6073334217071533,0.029161592945456505
1695713129327910400,2.164910400390625,-0.03968106955289841,-0.7415566444396973,0.10479531437158585
1695713129337936600,2.1749365234375,0.01784316636621952,-0.6637924313545227,0.16125428676605225
1695713129347969500,2.184969482421875,0.06684529036283493,-0.5487439036369324,0.18788588047027588
1695713129358010400,2.19501025390625,0.11797794699668884,-0.4944154918193817,0.1910816729068756
1695713129368044000,2.2050439453125,0.1573926955461502,-0.499741792678833,0.17190691828727722
1695713129378070800,2.21507080078125,0.15632744133472443,-0.491219699382782,0.13355742394924164
1695713129388103700,2.225103759765625,0.12756532430648804,-0.43689125776290894,0.08455529808998108
1695713129398137000,2.23513720703125,0.07217161357402802,-0.3411506712436676,0.0366184376180172
1695713129408170200,2.245170166015625,0.030626330524683,-0.22184115648269653,-0.01664474420249462
1695713129418206200,2.255206298828125,-0.016245270147919655,-0.10892320424318314,-0.06777740269899368
1695713129428239600,2.265239501953125,-0.0492684431374073,-0.004527370445430279,-0.07203845679759979
1695713129438264800,2.275264892578125,-0.0918789878487587,0.048735812306404114,-0.043276336044073105
1695713129448297500,2.28529736328125,-0.11424952745437622,0.02210422046482563,-0.011318426579236984
1695713129458281000,2.295281005859375,-0.10679268091917038,-0.056725289672613144,0.014247900806367397
1695713129468308500,2.30530859375,-0.08335687965154648,-0.04607265070080757,0.025965800508856773
1695713129478390800,2.315390869140625,-0.052464235574007034,0.027430538088083267,0.03129211813211441
1695713129488423700,2.325423583984375,-0.020506324246525764,0.1201084777712822,0.04301001876592636
1695713129498458000,2.3354580078125,0.012516847811639309,0.16471639275550842,0.03874896466732025
1695713129508491300,2.3454912109375,0.04127896577119827,0.15832480788230896,0.01850895583629608
1695713129518497300,2.355497314453125,0.060453712940216064,0.1423458606004715,-0.005992108024656773
1695713129528527600,2.365527587890625,0.060453712940216064,0.17856481671333313,-0.014514217153191566
1695713129538591700,2.375591796875,0.03701791167259216,0.2414153665304184,-0.02090579830110073
1695713129548625400,2.38562548828125,0.011451584286987782,0.26698169112205505,-0.04114580899477005
1695713129558656800,2.39565673828125,-0.013049479573965073,0.19134798645973206,-0.07736477255821228
1695713129568690400,2.4056904296875,-0.0354200154542923,0.08388951420783997,-0.10612688958644867
1695713129578713300,2.41571337890625,-0.13555480539798737,-0.0684431865811348,-0.12104058265686035
1695713129588745700,2.425745849609375,-0.20692746341228485,-0.10359688848257065,-0.08908267319202423
1695713129598791700,2.435791748046875,-0.18668745458126068,0.048735812306404114,-0.003861580742523074
1695713129608825600,2.44582568359375,-0.13129374384880066,0.05512739345431328,0.033422645181417465
1695713129618852000,2.45585205078125,-0.05352949723601341,-0.06737792491912842,-0.013448953628540039
1695713129628885200,2.46588525390625,0.003994738683104515,-0.13235901296138763,-0.07736477255821228
1695713129638909400,2.475909423828125,0.04127896577119827,-0.027963170781731606,-0.09760478138923645
1695713129648941600,2.485941650390625,-0.00985368900001049,-0.07590003311634064,-0.11997532099485397
1695713129658974700,2.495974609375,-0.036485280841588974,-0.14194637537002563,-0.1464737504720688
1695713129669007000,2.506007080078125,-0.010918952524662018,0.016777902841567993,-0.09227846562862396
1695713129679044000,2.516044189453125,0.025300011038780212,0.14021532237529755,-0.030493171885609627
1695713129689077000,2.526076904296875,0.023169483989477158,0.1009337306022644,-0.0017310534603893757
1695713129699112200,2.5361123046875,-0.0002663159102667123,0.030626330524683,-0.02090579830110073
1695713129709145000,2.54614501953125,0.028495801612734795,0.07536740601062775,-0.04966791719198227
1695713129719167200,2.556167236328125,0.05086633935570717,0.1988048255443573,-0.06671213358640671
1695713129729199000,2.56619921875,0.04340949282050133,0.23821958899497986,-0.08482161909341812
1695713129739234800,2.57623486328125,0.09986846894025803,0.28509119153022766,-0.06351634114980698
1695713129749267000,2.586266845703125,0.08495477586984634,0.2318280041217804,-0.04008054360747337
1695713129759289000,2.5962890625,0.002929474925622344,0.110521100461483,-0.08056056499481201
1695713129769320200,2.6063203125,-0.02263685315847397,0.02210422046482563,-0.1454084813594818
1695713129779336200,2.616336181640625,0.09986846894025803,0.029561065137386322,-0.1358211189508438
1695713129789365800,2.62636572265625,0.16484954953193665,-0.020506324246525764,-0.08695214241743088
1695713129799441700,2.636441650390625,0.17443692684173584,-0.23355905711650848,-0.06032055243849754
1695713129809475800,2.646475830078125,0.17017586529254913,-0.40506649017333984,-0.06671213358640671
1695713129819466200,2.65646630859375,0.15206637978553772,-0.46991443634033203,-0.06777740269899368
1695713129829496000,2.66649609375,0.17763271927833557,-0.515720784664154,-0.01771000772714615
1695713129839554300,2.67655419921875,0.1808284968137741,-0.6083986759185791,0.049401599913835526
1695713129849587000,2.6865869140625,0.17869797348976135,-0.755405068397522,0.08668582886457443
1695713129859594200,2.69659423828125,0.1957421898841858,-0.914129376411438,0.06431528925895691
1695713129869624300,2.706624267578125,0.27550381422042847,-1.0993521213531494,0.033422645181417465
1695713129879663900,2.716663818359375,0.3628554344177246,-1.3464932441711426,0.0035952648613601923
1695713129889695000,2.726695068359375,0.41292282938957214,-1.4402364492416382,0.02277000993490219
1695713129899758800,2.7367587890625,0.44594597816467285,-1.2175962924957275,0.15805849432945251
1695713129909793300,2.746793212890625,0.4864259958267212,-0.9640635848045349,0.3285006880760193
1695713129919805400,2.756805419921875,0.579103946685791,-0.6723145246505737,0.4444812536239624
1695713129930005200,2.767005126953125,0.6419544816017151,-0.34754225611686707,0.49348339438438416
1695713129940016600,2.7770166015625,0.6110618710517883,-0.11105373501777649,0.5179844498634338
1695713129950048800,2.787048828125,0.49814391136169434,0.03382211923599243,0.5510076284408569
1695713129960102100,2.79710205078125,0.3532680571079254,0.10519478470087051,0.5861613154411316
1695713129970134500,2.807134521484375,0.19467693567276,0.12223900109529495,0.5936181545257568
1695713129980166400,2.81716650390625,0.030626330524683,0.13595427572727203,0.5392897129058838
1695713129990190800,2.82719091796875,-0.08868319541215897,0.10412952303886414,0.4434159994125366
1695713130000223000,2.837222900390625,-0.09400951862335205,-0.016245270147919655,0.36258912086486816
1695713130010240800,2.84724072265625,-0.05033370852470398,-0.1771000772714615,0.3274354040622711
1695713130020268800,2.857268798828125,-0.04713791608810425,-0.3230412006378174,0.3338269889354706
1695713130030301000,2.867301025390625,-0.06205160543322563,-0.3880222737789154,0.35513225197792053
1695713130040347600,2.87734765625,-0.06311687082052231,-0.3635212182998657,0.39135122299194336
1695713130050378800,2.887378662109375,-0.05992107838392258,-0.28256118297576904,0.4338286221027374
1695713130060402400,2.89740234375,-0.04713791608810425,-0.237820103764534,0.47324338555336
1695713130070425900,2.90742578125,-0.02583264373242855,-0.24101589620113373,0.49880969524383545
1695713130080457000,2.91745703125,0.0018642114009708166,-0.29534435272216797,0.5190497040748596
1695713130090492400,2.927492431640625,0.05299686640501022,-0.39547911286354065,0.538224458694458
1695713130100523500,2.9375234375,0.09454214572906494,-0.5093291997909546,0.5328981280326843
1695713130110588400,2.94758837890625,0.1243695318698883,-0.6318345069885254,0.5339633822441101
1695713130120596500,2.957596435546875,0.13608743250370026,-0.704272449016571,0.5499423742294312
1695713130130627300,2.96762744140625,0.1435442715883255,-0.7213166356086731,0.5787044763565063
1695713130140654800,2.97765478515625,0.12223900109529495,-0.6808366179466248,0.6074665784835815
1695713130150696000,2.987696044921875,0.0870852991938591,-0.6371608376502991,0.6490118503570557
1695713130160727000,2.99772705078125,0.05725792050361633,-0.5689839720726013,0.6958834528923035
1695713130170772200,3.007772216796875,0.019973693415522575,-0.47417548298835754,0.7086666226387024
1695713130180798200,3.017798095703125,0.011451584286987782,-0.4091944098472595,0.6916224360466003
1695713130190829300,3.027829345703125,-0.005592633970081806,-0.4018706977367401,0.6660560965538025
1695713130200855300,3.037855224609375,-0.013049479573965073,-0.5050681233406067,0.6788392663002014
1695713130210886700,3.04788671875,-0.005592633970081806,-0.6083986759185791,0.6937529444694519
1695713130220921600,3.057921630859375,0.009321057237684727,-0.6382260918617249,0.6788392663002014
1695713130230956300,3.067956298828125,0.021038956940174103,-0.6105292439460754,0.6564686894416809
1695713130240991200,3.0779912109375,0.04554001986980438,-0.4986765384674072,0.6234455704689026
1695713130251026000,3.08802587890625,0.03382211923599243,-0.31878015398979187,0.559529721736908
1695713130261060600,3.098060546875,0.02210422046482563,-0.14727269113063812,0.5126581192016602
1695713130271095600,3.108095458984375,0.030626330524683,-0.0588558167219162,0.500940203666687
1695713130281130200,3.118130126953125,0.048735812306404114,-0.052464235574007034,0.5062665343284607
1695713130291161600,3.12816162109375,0.06151897460222244,-0.07057371735572815,0.500940203666687
1695713130301145900,3.138145751953125,0.08069372177124023,-0.10253162682056427,0.48496127128601074
1695713130311177200,3.14817724609375,0.08815056830644608,-0.12383689731359482,0.4530033767223358
1695713130321071600,3.158071533203125,0.06684529036283493,-0.13022847473621368,0.406131774187088
1695713130331091700,3.168091796875,0.07110634446144104,-0.14727269113063812,0.3689807057380676
1695713130341155000,3.178155029296875,0.07962846010923386,-0.1771000772714615,0.3455449044704437
1695713130351179800,3.1881796875,0.08388951420783997,-0.20586219429969788,0.3242396116256714
1695713130361204200,3.198204345703125,0.0679105594754219,-0.20586219429969788,0.2986733019351959
1695713130371394800,3.208394775390625,0.05938844755291939,-0.18881797790527344,0.28802067041397095
1695713130381452500,3.21845263671875,0.06151897460222244,-0.14514216780662537,0.2848248779773712
1695713130391466200,3.22846630859375,0.06258423626422882,-0.12064110487699509,0.285890132188797
1695713130401490700,3.23849072265625,0.0732368752360344,-0.12383689731359482,0.2773680090904236
1695713130411554800,3.248554931640625,0.09347688406705856,-0.14514216780662537,0.2635195851325989
1695713130421561300,3.258561279296875,0.0966726765036583,-0.17816534638404846,0.23795326054096222
1695713130431603700,3.268603759765625,0.11584742367267609,-0.22184115648269653,0.2241048365831375
1695713130441628200,3.278628173828125,0.1296958476305008,-0.2143843024969101,0.20386482775211334
1695713130451670500,3.28867041015625,0.10306425392627716,-0.16431692242622375,0.17510271072387695
1695713130461696800,3.29869677734375,0.10306425392627716,-0.10785794258117676,0.1687111258506775
1695713130471735000,3.308735107421875,0.1009337306022644,-0.052464235574007034,0.1729721873998642
1695713130481773600,3.318773681640625,0.10199899226427078,-0.0023968431632965803,0.17510271072387695
1695713130491811800,3.328811767578125,0.10839057713747025,0.021038956940174103,0.1729721873998642
1695713130501838000,3.338838134765625,0.11371689289808273,0.056192658841609955,0.15273217856884003
1695713130511836400,3.34883642578125,0.10626004636287689,0.0966726765036583,0.11225215345621109
1695713130521862700,3.358862548828125,0.11371689289808273,0.12330426275730133,0.0834900364279747
1695713130531775700,3.368775634765625,0.1201084777712822,0.1296958476305008,0.07070687413215637
1695713130541793000,3.37879296875,0.12650005519390106,0.12223900109529495,0.06644582003355026
1695713130551843300,3.38884326171875,0.1201084777712822,0.110521100461483,0.07177213579416275
1695713130561864000,3.398864013671875,0.12117373943328857,0.0966726765036583,0.07496792823076248
1695713130571917300,3.408917236328125,0.1243695318698883,0.08602003753185272,0.06964161247015
1695713130581941000,3.41894091796875,0.13076111674308777,0.0679105594754219,0.07496792823076248
1695713130591976400,3.4289765625,0.11158636957406998,0.08175898343324661,0.049401599913835526
1695713130602001700,3.439001708984375,0.09028109163045883,0.09241162240505219,0.021704746410250664
1695713130612035300,3.449035400390625,0.09028109163045883,0.10732531547546387,-0.0006657897611148655
1695713130622061300,3.459061279296875,0.10199899226427078,0.12543480098247528,-0.01771000772714615
1695713130632106000,3.46910595703125,0.08921582996845245,0.18176060914993286,-0.052863709628582
1695713130642134000,3.479134033203125,0.05938844755291939,0.2595248520374298,-0.11358373612165451
1695713130652170000,3.489169921875,0.05832318589091301,0.2872216999530792,-0.1688442826271057
1695713130662198500,3.499198486328125,0.07430213689804077,0.2318280041217804,-0.22317273914813995
1695713130672230400,3.50923046875,0.08602003753185272,0.1009337306022644,-0.28815382719039917
1695713130682259200,3.51925927734375,0.11904320865869522,-0.07803056389093399,-0.36378753185272217
1695713130692293600,3.529293701171875,0.16591481864452362,-0.2527337968349457,-0.4554001986980438
1695713130702323200,3.5393232421875,0.1904158741235733,-0.3890875577926636,-0.5576655268669128
1695713130712523300,3.549523193359375,0.17017586529254913,-0.44115230441093445,-0.6556697487831116
1695713130722581500,3.55958154296875,0.11904320865869522,-0.3986749053001404,-0.7428882122039795
1695713130732610800,3.56961083984375,0.11584742367267609,-0.32091066241264343,-0.7982819676399231
1695713130742628900,3.57962890625,0.15632744133472443,-0.29214856028556824,-0.8643282651901245
1695713130752669400,3.58966943359375,0.2000032514333725,-0.360325425863266,-0.9847030639648438
1695713130762698800,3.59969873046875,0.25859275460243225,-0.4816323220729828,-1.1530147790908813
1695713130772730400,3.60973046875,0.32237541675567627,-0.5838976502418518,-1.3243889808654785
1695713130782758400,3.61975830078125,0.37989965081214905,-0.6243776679039001,-1.5001574754714966
1695713130792788000,3.6297880859375,0.4107922911643982,-0.5040028691291809,-1.6951007843017578
1695713130802819600,3.639819580078125,0.37563860416412354,-0.3688475489616394,-1.8963024616241455
1695713130812857000,3.649857177734375,0.27763432264328003,-0.5050681233406067,-2.117877244949341
1695713130822886700,3.65988671875,0.17550218105316162,-0.6627271175384521,-2.3680810928344727
1695713130832916200,3.669916259765625,0.1243695318698883,-0.6616618633270264,-2.6812686920166016
1695713130842945800,3.67994580078125,0.07962846010923386,-0.6723145246505737,-3.0454556941986084
1695713130852975400,3.689975341796875,-0.0034621069207787514,-0.6819018721580505,-3.3723583221435547
1695713130863005000,3.7000048828125,-0.11744531989097595,-0.633965015411377,-3.568366765975952
1695713130873034500,3.710034423828125,-0.25806012749671936,-0.6893587112426758,-3.592867851257324
1695713130883064000,3.72006396484375,-0.4049333333969116,-0.9608678221702576,-3.4565141201019287
1695713130893093600,3.73009375,-0.45073968172073364,-1.2314447164535522,-3.1253504753112793
1695713130903123200,3.740123291015625,-0.41665124893188477,-1.5668696165084839,-2.703639030456543
1695713130913142000,3.75014208984375,-0.35593122243881226,-1.8523603677749634,-2.4490411281585693
1695713130923059700,3.760059814453125,-0.2655169665813446,-1.9897793531417847,-2.489521026611328
1695713130933255000,3.7702548828125,-0.1153147891163826,-1.9247982501983643,-2.663159132003784
1695713130943299000,3.780299072265625,0.04980107396841049,-1.8257287740707397,-2.7664897441864014
1695713130953318000,3.79031787109375,0.23196116089820862,-1.7042887210845947,-2.654637098312378
1695713130963323600,3.80032373046875,0.3308975100517273,-1.6968318223953247,-2.365950584411621
1695713130973394200,3.810394287109375,0.4139880836009979,-1.537042260169983,-2.0294604301452637
1695713130983413000,3.8204130859375,0.4565986394882202,-1.2783163785934448,-1.7833844423294067
1695713130993433600,3.83043359375,0.4299670457839966,-1.0610026121139526,-1.61946702003479
1695713131003474200,3.84047412109375,0.3394196331501007,-0.980042576789856,-1.4777870178222656
1695713131013493000,3.850492919921875,0.24154852330684662,-0.951280415058136,-1.3073447942733765
1695713131023540700,3.860540771484375,0.15526217222213745,-0.9375651478767395,-1.122122049331665
1695713131033589500,3.870589599609375,0.08175898343324661,-0.9629983305931091,-0.9495493769645691
1695713131043607600,3.880607666015625,-0.006657897960394621,-1.0130656957626343,-0.7844334840774536
1695713131053623300,3.890623291015625,-0.09081372618675232,-1.047154188156128,-0.5853623747825623
1695713131063638800,3.900638671875,-0.15579481422901154,-0.9960215091705322,-0.34993910789489746
1695713131073654300,3.910654296875,-0.18455693125724792,-0.855539858341217,-0.09014793485403061
1695713131083670000,3.920669921875,-0.1856221854686737,-0.6456829309463501,0.16977639496326447
1695713131093685500,3.930685546875,-0.18029586970806122,-0.4198470413684845,0.40200385451316833
1695713131103701000,3.940700927734375,-0.1813611388206482,-0.22716747224330902,0.6064013242721558
1695713131113716700,3.950716796875,-0.18455693125724792,-0.10998847335577011,0.7619298100471497
1695713131123732200,3.960732177734375,-0.1898832470178604,-0.048203181475400925,0.856738269329071
1695713131133747700,3.970747802734375,-0.1952095627784729,-0.017310533672571182,0.8972182869911194
1695713131143763500,3.980763427734375,-0.1856221854686737,0.02210422046482563,0.8727172613143921
1695713131153784600,3.99078466796875,-0.1664474457502365,0.02210422046482563,0.8045403361320496
1695713131163819800,4.00081982421875,-0.14407691359519958,-0.056725289672613144,0.718254029750824
1695713131173855000,4.01085498046875,-0.13235901296138763,-0.1813611388206482,0.6458160877227783
1695713131183890400,4.020890380859375,-0.1249021589756012,-0.2985401451587677,0.5957486629486084
1695713131193925600,4.030925537109375,-0.11424952745437622,-0.3699128031730652,0.5755086541175842
1695713131203960800,4.0409609375,-0.08974846452474594,-0.38163068890571594,0.5765739679336548
1695713131213996000,4.05099609375,-0.06205160543322563,-0.3933486044406891,0.5542033910751343
1695713131224031200,4.06103125,-0.03968106955289841,-0.40812912583351135,0.49987494945526123
1695713131234066400,4.07106640625,-0.0141147430986166,-0.4326302111148834,0.4030691385269165
1695713131244101600,4.0811015625,0.021038956940174103,-0.4720449447631836,0.26458486914634705
1695713131254136800,4.09113671875,0.07004108279943466,-0.5114597082138062,0.09520793706178665
1695713131264159700,4.10115966796875,0.10626004636287689,-0.5071986317634583,-0.07843003422021866
1695713131274189800,4.11118994140625,0.12330426275730133,-0.44008705019950867,-0.20293273031711578
1695713131284220000,4.121219970703125,0.07962846010923386,-0.3081275224685669,-0.20612850785255432
1695713131294250000,4.13125,0.008255792781710625,-0.20799273252487183,-0.118910051882267
1695713131304280000,4.141280029296875,-0.052464235574007034,-0.2005358785390854,0.009986846707761288
1695713131314310100,4.15131005859375,-0.12170637398958206,-0.1813611388206482,0.14207953214645386
1695713131324340500,4.161340576171875,-0.2143843024969101,-0.105727419257164,0.29228171706199646
1695713131334370600,4.17137060546875,-0.22610220313072205,-0.019441060721874237,0.546746551990509
1695713131344400600,4.181400634765625,-0.12809795141220093,0.04340949282050133,0.7789740562438965
1695713131354430700,4.1914306640625,-0.007723161485046148,0.04554001986980438,0.8056056499481201
1695713131364460800,4.201460693359375,0.04767054691910744,-0.0023968431632965803,0.58403080701828
1695713131374485200,4.2114853515625,0.003994738683104515,-0.19201377034187317,0.22730062901973724
1695713131384516600,4.2215166015625,-0.013049479573965073,-0.5572660565376282,-0.11038794368505478
1695713131394548000,4.2315478515625,-0.0727042406797409,-0.8747146129608154,-0.34141698479652405
1695713131404579300,4.241579345703125,-0.16964323818683624,-0.8640619516372681,-0.4575307369232178
1695713131414610700,4.251610595703125,-0.311190128326416,-0.42304283380508423,-0.354200154542923
1695713131424642000,4.26164208984375,-0.4965460002422333,0.2882869839668274,0.18362481892108917
1695713131434673400,4.27167333984375,-0.7362303137779236,1.1510173082351685,1.102681040763855
1695713131444704800,4.281704833984375,-0.8937562108039856,1.9401113986968994,2.031324625015259
1695713131454736100,4.291736083984375,-0.8809730410575867,2.3319952487945557,2.6650233268737793
1695713131464767500,4.301767578125,-0.7969503402709961,2.458761692047119,2.919621229171753
1695713131474793500,4.31179345703125,-0.6861629486083984,2.524807929992676,2.7225475311279297
1695713131484827000,4.321826904296875,-0.5647228956222534,2.528003692626953,2.1655478477478027
1695713131494860300,4.3318603515625,-0.40386807918548584,2.3479743003845215,1.8034913539886475
1695713131504893700,4.341893798828125,-0.22929799556732178,2.1041619777679443,1.910017728805542
1695713131514927000,4.351927001953125,-0.10892320424318314,1.8761955499649048,2.2454426288604736
1695713131524960500,4.36196044921875,-0.09827057272195816,1.785648226737976,2.521345853805542
1695713131534994000,4.371993896484375,-0.16964323818683624,1.8367807865142822,2.5648884773254395
1695713131545027300,4.38202734375,-0.27603644132614136,1.8804566860198975,2.465952157974243
1695713131555060700,4.392060791015625,-0.31332066655158997,1.7654081583023071,2.3615562915802
1695713131565094100,4.40209423828125,-0.24953800439834595,1.5077475309371948,2.297640562057495
1695713131575127600,4.41212744140625,-0.16857796907424927,1.3128042221069336,2.2507688999176025
1695713131585161000,4.422160888671875,-0.09294424951076508,1.2520842552185059,2.2124195098876953
1695713131595240200,4.432240234375,-0.05139897018671036,1.2584757804870605,2.233724594116211
1695713131605319700,4.442319580078125,-0.06418213248252869,1.2851073741912842,2.302966833114624
1695713131615399000,4.45239892578125,-0.12277163565158844,1.2361053228378296,2.382861614227295
1695713131625478400,4.462478515625,-0.1898832470178604,1.1254510879516602,2.4052321910858154
1695713131635511600,4.472511474609375,-0.23568958044052124,1.009337306022644,2.278465747833252
1695713131645536300,4.482536376953125,-0.2623211741447449,0.9123983383178711,1.9845861196517944
1695713131655419100,4.492419189453125,-0.30905961990356445,0.812263548374176,1.5989607572555542
1695713131665593900,4.50259375,-0.3857586085796356,0.5631250143051147,1.2901674509048462
1695713131675659300,4.5126591796875,-0.42410808801651,0.2914827764034271,1.1048115491867065
1695713131685677300,4.52267724609375,-0.4944154918193817,0.269112229347229,1.0195904970169067
1695713131695704300,4.532704345703125,-0.5796365737915039,0.457663893699646,1.0590052604675293
1695713131705734100,4.542734130859375,-0.6190513372421265,0.7920235395431519,1.1793800592422485
1695713131715752200,4.552752197265625,-0.6243776679039001,1.143560528755188,1.3263863325119019
1695713131725798100,4.562798095703125,-0.5838976502418518,1.4459621906280518,1.4456958770751953
1695713131735855400,4.57285546875,-0.4816323220729828,1.6398402452468872,1.5062828063964844
1695713131745873400,4.582873291015625,-0.3388870060443878,1.700560212135315,1.5488933324813843
1695713131755899100,4.592899169921875,-0.17816534638404846,1.6717981100082397,1.5978955030441284
1695713131765948400,4.602948486328125,-0.0034621069207787514,1.5429012775421143,1.6138744354248047
1695713131775969800,4.6129697265625,0.16911059617996216,1.2680631875991821,1.617070198059082
1695713131786005000,4.6230048828125,0.3213101327419281,0.8953540921211243,1.65009343624115
1695713131796040400,4.63304052734375,0.44168493151664734,0.5577986836433411,1.7022912502288818
1695713131806076000,4.643075927734375,0.524775505065918,0.4054659605026245,1.734249234199524
1695713131816111400,4.653111328125,0.5428850054740906,0.5364934206008911,1.689508080482483
1695713131826146800,4.663146728515625,0.4917523264884949,0.7494129538536072,1.5435670614242554
1695713131836182300,4.673182373046875,0.37457332015037537,0.787762463092804,1.2571442127227783
1695713131846217700,4.6832177734375,0.24474431574344635,0.6281060576438904,0.8343677520751953
1695713131856238800,4.69323876953125,0.12650005519390106,0.4672512710094452,0.4295675754547119
1695713131866234400,4.703234375,-0.005592633970081806,0.5151881575584412,0.19853851199150085
1695713131876116000,4.713115966796875,-0.12064110487699509,0.7984151244163513,0.11544794589281082
1695713131886123800,4.723123779296875,-0.2005358785390854,1.1627352237701416,0.11331742256879807
1695713138126364700,10.96336474609375,-0.3207775056362152,0.269112229347229,-2.544914722442627
1695713138136396300,10.973396240234376,-0.23355905711650848,-0.4944154918193817,-2.4373230934143066
1695713138146428200,10.98342822265625,-0.22077588737010956,-1.4923012256622314,-2.307361125946045
1695713138156460000,10.9934599609375,-0.1621863842010498,-2.413621187210083,-2.3339927196502686
1695713138166492000,11.003491943359375,-0.05779055133461952,-2.934401750564575,-2.604569673538208
1695713138176523800,11.013523681640624,0.018908429890871048,-2.811896562576294,-3.073152542114258
1695713138186555600,11.0235556640625,-0.023702116683125496,-1.9375814199447632,-3.5513226985931396
1695713138196587500,11.03358740234375,-0.228232741355896,-1.148354172706604,-3.831486940383911
1695713138206619100,11.043619140625,-0.4581965208053589,-0.8704535365104675,-3.94214129447937
1695713138216651000,11.053651123046874,-0.7298387289047241,-1.2133352756500244,-3.9538590908050537
1695713138226683600,11.06368359375,-0.9587372541427612,-1.796966552734375,-3.9346845149993896
1695713138236717300,11.07371728515625,-1.0535457134246826,-2.303899049758911,-3.9005959033966064
1695713138246751000,11.0837509765625,-1.0301098823547363,-2.72774076461792,-3.8410744667053223
1695713138256785000,11.093784912109374,-0.9235835671424866,-3.064363956451416,-3.6503922939300537
1695713138266818600,11.103818603515625,-0.7628619074821472,-3.284740447998047,-3.3362724781036377
1695713138276852200,11.113852294921875,-0.5508744716644287,-3.3166983127593994,-2.9549081325531006
1695713138286886000,11.123885986328125,-0.36019226908683777,-3.1473214626312256,-2.570481061935425
1695713138296919600,11.13391943359375,-0.21544957160949707,-2.951446056365967,-2.200967788696289
1695713138306953200,11.143953125,-0.13662005960941315,-2.7703511714935303,-1.8078855276107788
1695713138316987000,11.15398681640625,-0.13129374384880066,-2.562624931335449,-1.3819133043289185
1695713138327020500,11.1640205078125,-0.18455693125724792,-2.2623536586761475,-0.9090693593025208
1695713138337053200,11.17405322265625,-0.2685796022415161,-1.9162760972976685,-0.38722333312034607
1695713138347085300,11.184085205078125,-0.34740909934043884,-1.6041538715362549,0.15486270189285278
1695713138357117400,11.194117431640626,-0.3740406930446625,-1.3635374307632446,0.6990792751312256
1695713138367149600,11.204149658203125,-0.4145207107067108,-1.1760510206222534,1.2305126190185547
1695713138377181700,11.214181640625,-0.46991443634033203,-0.9290430545806885,1.7353144884109497
1695713138387213800,11.2242138671875,-0.5061333775520325,-0.5807018280029297,2.209223747253418
1695713138397246000,11.234245849609374,-0.45926177501678467,-0.14727269113063812,2.626673936843872
1695713138407278000,11.244278076171875,-0.28988486528396606,0.34155014157295227,2.973949670791626
1695713138417310500,11.254310546875,-0.026897907257080078,0.8910930156707764,3.1900651454925537
1695713138427342600,11.264342529296876,0.23622220754623413,1.353284239768982,2.9174907207489014
1695713138437374700,11.274374755859375,0.6259755492210388,1.4459621906280518,1.6650071144104004
1695713138447406800,11.28440673828125,1.186171054840088,0.5822997093200684,0.08455529808998108
1695713138457438000,11.29443798828125,1.5162696838378906,-0.8363651037216187,-1.2743216753005981
1695713138467468800,11.30446875,1.3937642574310303,-1.6797876358032227,-2.524674892425537
1695713138477500000,11.3145,0.8591351509094238,-1.7959012985229492,-2.958103895187378
1695713138487530800,11.32453076171875,0.4139880836009979,-1.2783163785934448,-2.515087366104126
1695713138497561900,11.334561767578125,-0.02583264373242855,-0.8725841045379639,-1.8121466636657715
1695713138507592700,11.3445927734375,-0.3964112401008606,-0.8981503844261169,-1.1689937114715576
1695713138517623800,11.354623779296874,-0.5402218103408813,-0.9704551696777344,-0.5672528743743896
1695713138527654700,11.364654541015625,-0.31012487411499023,-0.8363651037216187,-0.12956269085407257
1695713138537685800,11.374685791015626,-0.07696529477834702,-0.5476786494255066,-0.008122635073959827
1695713138547716600,11.384716552734375,-0.23888537287712097,-0.0034621069207787514,0.21771325170993805
1695713138557749000,11.3947490234375,-0.6435524225234985,0.5503418445587158,1.0536788702011108
1695713138567780600,11.404780517578125,-0.9225183129310608,0.7771098017692566,2.2518341541290283
1695713138577812500,11.4148125,-1.0610026121139526,1.0434256792068481,3.052779197692871
1695713138587844400,11.42484423828125,-1.1494194269180298,2.0136146545410156,2.8876633644104004
1695713138597876200,11.434876220703124,-0.9108003973960876,2.7634270191192627,2.1655478477478027
1695713138607907800,11.444907958984375,-0.46032705903053284,2.5844626426696777,1.3562138080596924
1695713138617939700,11.454939697265624,-0.10785794258117676,1.5961644649505615,0.4881570637226105
1695713138627971600,11.4649716796875,-0.056725289672613144,0.016777902841567993,0.2059953510761261
1695713138638003200,11.475003173828124,0.00612526573240757,-0.8917587995529175,0.9716535806655884
1695713138648035000,11.48503515625,0.2277000993490219,-0.2143843024969101,2.416949987411499
1695713138658067000,11.49506689453125,0.38096490502357483,1.5674022436141968,3.7566521167755127
1695713138668099600,11.505099609375,0.2522011697292328,3.229879379272461,4.670515060424805
1695713138678134000,11.515134033203125,-0.11318425834178925,4.154262065887451,5.1348371505737305
1695713138688168700,11.525168701171875,-0.3974764943122864,4.418447494506836,5.050681114196777
1695713138698203400,11.535203369140625,-0.4539354741573334,4.2021989822387695,4.619382858276367
1695713138708238000,11.545238037109375,-0.5018723607063293,3.5514557361602783,4.1049933433532715
1695713138718272800,11.555272705078124,-0.6009418368339539,2.612159490585327,3.5874085426330566
1695713138728307500,11.565307373046876,-0.6307692527770996,1.6504929065704346,3.0559749603271484
1695713138738342100,11.575342041015626,-0.5998765826225281,1.0231857299804688,2.5224111080169678
1695713138748376800,11.585376953125,-0.47417548298835754,0.7611308693885803,2.134655237197876
1695713138758411500,11.59541162109375,-0.3207775056362152,0.825046718120575,1.889777660369873
1695713138768446000,11.605446044921875,-0.1909485012292862,0.8889625072479248,1.758750319480896
1695713138778478600,11.615478515625,-0.040746334940195084,0.7866972088813782,1.738510251045227
1695713138788510500,11.625510498046875,0.06578002870082855,0.8261119723320007,1.8247966766357422
1695713138798542000,11.6355419921875,0.015712639316916466,1.335174798965454,1.9728682041168213
1695713138808574000,11.645573974609375,-0.06311687082052231,1.8761955499649048,2.099501371383667
1695713138818605800,11.655605712890624,-0.04713791608810425,2.0679430961608887,2.1314594745635986
1695713138828637400,11.665637451171875,0.04980107396841049,2.1286630630493164,2.079261541366577
1695713138838669300,11.67566943359375,0.15632744133472443,2.1244020462036133,1.9632809162139893
1695713138848701200,11.685701171875,0.2138516753911972,1.992309331893921,1.84290611743927
1695713138858733000,11.695733154296875,0.2660495936870575,1.7165391445159912,1.7534239292144775
1695713138868764700,11.7057646484375,0.3585943877696991,1.3447622060775757,1.6831165552139282
1695713138878800400,11.71580029296875,0.4917523264884949,0.9496825337409973,1.624527096748352
1695713138888851000,11.725850830078125,0.6217144727706909,0.5130575895309448,1.5840470790863037
1695713138898901500,11.735901611328124,0.713327169418335,0.08815056830644608,1.5819164514541626
1695713138908952000,11.7459521484375,0.7325019240379333,-0.24953800439834595,1.5819164514541626
1695713138919002600,11.756002685546875,0.6739124059677124,-0.303866446018219,1.4849774837493896
1695713138929053200,11.76605322265625,0.5290365815162659,-0.01837579719722271,1.2677968740463257
1695713138939103700,11.776103759765626,0.3063964545726776,0.40866175293922424,0.9908283352851868
1695713138949154300,11.786154296875,-0.0002663159102667123,0.7430213689804077,0.7544729709625244
1695713138959204900,11.796204833984374,-0.2834932804107666,1.0178594589233398,0.6330329179763794
1695713138969240600,11.806240478515624,-0.4145207107067108,1.3468927145004272,0.5339633822441101
1695713138979255000,11.816255126953125,-0.4390217661857605,1.6025559902191162,0.37856805324554443
1695713138989155600,11.826155517578124,-0.43582597374916077,1.549292802810669,0.15699322521686554
1695713138999177200,11.83617724609375,-0.4443480968475342,1.2275831699371338,-0.19547587633132935
1695713139009361400,11.846361328125,-0.4773712754249573,0.9155941009521484,-0.6938861012458801
1695713139019399700,11.856399658203125,-0.5977460741996765,0.6950845122337341,-1.1562105417251587
1695713139029421300,11.86642138671875,-0.7223818898200989,0.43635863065719604,-1.542768120765686
1695713139039483600,11.876483642578124,-0.7383608818054199,0.203065887093544,-2.017742395401001
1695713139049491500,11.886491455078126,-0.7287734746932983,0.1380847990512848,-2.69937801361084
1695713139059513000,11.89651318359375,-0.8831035494804382,0.3266364634037018,-3.350121021270752
1695713139069565400,11.9065654296875,-1.0950909852981567,0.7675224542617798,-3.580084800720215
1695713139079587000,11.916587158203125,-1.1664637327194214,1.1520826816558838,-3.381945848464966
1695713139089630700,11.926630615234375,-1.1302447319030762,1.269128441810608,-2.9996492862701416
1695713139099680000,11.936679931640626,-1.0311752557754517,1.1989542245864868,-2.7110960483551025
1695713139109702000,11.946701904296875,-0.8159919381141663,1.0434256792068481,-2.5971126556396484
1695713139119713000,11.956713134765625,-0.5285038948059082,0.7813708782196045,-2.6120264530181885
1695713139129736000,11.96673583984375,-0.3314301371574402,0.3202448785305023,-2.732401132583618
1695713139139774000,11.97677392578125,-0.26764747500419617,-0.32836753129959106,-2.7760770320892334
1695713139149796900,11.986796875,-0.27177539467811584,-1.178181529045105,-2.663159132003784
1695713139159813400,11.9968134765625,-0.26764747500419617,-2.015345573425293,-2.619483232498169
1695713139169836300,12.006836181640624,-0.22184115648269653,-2.4519705772399902,-2.853708028793335
1695713139179907800,12.016907958984374,-0.1387505829334259,-2.250635862350464,-3.2691609859466553
1695713139189931000,12.026930908203125,-0.09933583438396454,-1.6297202110290527,-3.702589988708496
1695713139199982800,12.03698291015625,-0.16005586087703705,-1.1952258348464966,-3.9048569202423096
1695713139210030000,12.047030029296875,-0.359127014875412,-1.1494194269180298,-3.933619260787964
1695713139220053200,12.05705322265625,-0.6233124136924744,-1.465802788734436,-3.9240317344665527
1695713139230053000,12.06705322265625,-0.8096003532409668,-1.9674087762832642,-3.917640209197998
1695713139240094700,12.0770947265625,-0.8628635406494141,-2.408294677734375,-3.9112486839294434
1695713139250117600,12.08711767578125,-0.7884282469749451,-2.7202837467193604,-3.867706060409546
1695713139260144600,12.09714453125,-0.6542050242424011,-2.989795684814453,-3.7750279903411865
1695713139270202400,12.107202392578126,-0.48908916115760803,-3.229346752166748,-3.5577142238616943
1695713139280227600,12.1172275390625,-0.34208279848098755,-3.2272162437438965,-3.244659900665283
1695713139290264000,12.12726416015625,-0.24953800439834595,-3.0814082622528076,-2.8824703693389893
1695713139300300500,12.137300537109375,-0.228232741355896,-2.9173576831817627,-2.4671506881713867
1695713139310336800,12.147336669921875,-0.2516685426235199,-2.8289408683776855,-1.9900456666946411
1695713139320373200,12.157373291015626,-0.2655169665813446,-2.757568120956421,-1.4554164409637451
1695713139330398500,12.1673984375,-0.29521119594573975,-2.6393237113952637,-0.8728504180908203
1695713139340394000,12.17739404296875,-0.34208279848098755,-2.4349262714385986,-0.2348906397819519
1695713139350270000,12.18727001953125,-0.4113249182701111,-2.219743013381958,0.41465386748313904
1695713139360280000,12.197280029296875,-0.508263885974884,-2.0780630111694336,1.0398304462432861
1695713139370320000,12.20731982421875,-0.5604618191719055,-1.931189775466919,1.6287881135940552
1695713139380333000,12.2173330078125,-0.5146554708480835,-1.6520907878875732,2.1612868309020996
1695713139390418400,12.22741845703125,-0.40280282497406006,-1.25701105594635,2.6085643768310547
1695713139400438800,12.237438720703125,-0.2516685426235199,-0.7234471440315247,2.924947738647461
1695713139410477300,12.247477294921875,-0.06950845569372177,-0.05352949723601341,3.0197560787200928
1695713139420499500,12.25749951171875,0.204264298081398,0.7462171912193298,2.2848572731018066
1695713139430543600,12.267543701171874,0.7420892715454102,0.9017456769943237,0.6234455704689026
1695713139440568000,12.277568115234375,1.3543496131896973,-0.7095987200737,-0.65353924036026
1695713139450609000,12.28760888671875,1.5556844472885132,-2.229330539703369,-2.0944414138793945
1695713139460635100,12.29763525390625,0.9816404581069946,-2.7991132736206055,-2.9112324714660645
1695713139470665000,12.3076650390625,0.19254639744758606,-2.2634189128875732,-2.558763265609741
1695713139480691500,12.31769140625,-0.15472954511642456,-1.1451584100723267,-1.9208035469055176
1695713139490746400,12.327746337890625,-0.4209122955799103,-0.8171903491020203,-1.4863090515136719
1695713139500775700,12.337775634765626,-0.6137250065803528,-0.9428914785385132,-1.309475302696228
1695713139510801000,12.34780078125,-0.46991443634033203,-0.8619314432144165,-1.0390315055847168
1695713139520829700,12.35782958984375,-0.008788425475358963,-0.42730388045310974,-0.623711884021759
1695713139530878500,12.36787841796875,0.23835274577140808,0.11797794699668884,-0.023036325350403786
1695713139540909600,12.37790966796875,0.1904158741235733,0.7376950979232788,1.005742073059082
1695713139551126300,12.388126220703125,0.1296958476305008,0.9890972971916199,1.9675419330596924
1695713139561150000,12.39814990234375,0.07004108279943466,0.5737776160240173,2.577671766281128
1695713139571181000,12.40818115234375,-0.036485280841588974,0.279764860868454,2.5128238201141357
1695713139581208800,12.418208740234375,-0.18668745458126068,0.7174550890922546,1.701225996017456
1695713139591245300,12.428245361328125,-0.17496955394744873,1.1201246976852417,1.291232705116272
1695713139601276200,12.438276123046874,-0.2047969400882721,1.106276273727417,1.5915038585662842
1695713139611311600,12.4483115234375,-0.4251733422279358,0.93902987241745,2.079261541366577
1695713139621327000,12.4583271484375,-0.6403566002845764,0.9592698812484741,2.545846939086914
1695713139631358200,12.468358154296874,-0.6403566002845764,1.1126679182052612,3.0069730281829834
1695713139641383400,12.478383544921876,-0.4986765384674072,1.3863074779510498,3.377551555633545
1695713139651415300,12.488415283203125,-0.4113249182701111,1.6664718389511108,3.5735599994659424
1695713139661452500,12.49845263671875,-0.3953459560871124,1.7504944801330566,3.6682353019714355
1695713139671489800,12.50848974609375,-0.434760719537735,1.5972297191619873,3.685279607772827
1695713139681527300,12.51852734375,-0.5189165472984314,1.3500884771347046,3.6268231868743896
1695713139691564500,12.528564453125,-0.6723145246505737,1.2222568988800049,3.446793556213379
1695713139701601800,12.538601806640624,-0.8054724931716919,1.205345869064331,3.2135009765625
1695713139711633700,12.548633544921875,-0.8617982864379883,1.0945583581924438,2.91536021232605
1695713139721647600,12.558647705078124,-0.7831019163131714,1.005076289176941,2.5893895626068115
1695713139731661600,12.56866162109375,-0.6733797788619995,1.059404730796814,2.312554121017456
1695713139741571600,12.578571533203124,-0.6115944981575012,1.2552800178527832,2.159156322479248
1695713139751753700,12.588753662109376,-0.5647228956222534,1.306412696838379,2.1357204914093018
1695713139761804000,12.598803955078125,-0.5071986317634583,1.0135983228683472,2.1772656440734863
1695713139771825000,12.608824951171876,-0.43156492710113525,0.5396891832351685,2.193244695663452
1695713139781828400,12.618828369140624,-0.3772364854812622,0.5407544374465942,2.159156322479248
1695713139791889000,12.628888916015624,-0.38362807035446167,1.0839056968688965,2.1314594745635986
1695713139801910000,12.638909912109375,-0.36658385396003723,1.6994949579238892,2.115480422973633
1695713139811957000,12.64895703125,-0.3165164589881897,2.2682125568389893,2.0568909645080566
1695713139821977600,12.6589775390625,-0.24101589620113373,2.6952502727508545,1.952628254890442
1695713139831998700,12.668998779296874,-0.1483379602432251,2.8081681728363037,1.8311882019042969
1695713139842023400,12.6790234375,0.009321057237684727,2.4971110820770264,1.7257270812988281
1695713139852054000,12.689053955078125,0.23835274577140808,1.837846040725708,1.6660723686218262
1695713139862078500,12.699078369140626,0.48749127984046936,1.0008151531219482,1.6522239446640015
1695713139872118500,12.709118408203125,0.6952176690101624,0.23395852744579315,1.6479628086090088
1695713139882158800,12.719158935546876,0.8060051202774048,-0.24101589620113373,1.6287881135940552
1695713139892199200,12.72919921875,0.8080024719238281,-0.4581965208053589,1.6053522825241089
1695713139902239200,12.7392392578125,0.7229145169258118,-0.5093291997909546,1.55741548538208
1695713139912279600,12.749279541015625,0.5727123618125916,-0.3560643792152405,1.425455927848816
1695713139922303700,12.7593037109375,0.37989965081214905,0.10199899226427078,1.1612704992294312
1695713139932314600,12.769314697265624,0.18295903503894806,0.6961497664451599,0.8162582516670227
1695713139942338800,12.7793388671875,-0.001331579522229731,1.1350383758544922,0.46578651666641235
1695713139952238800,12.78923876953125,-0.15579481422901154,1.306412696838379,0.24647536873817444
1695713139962414600,12.79941455078125,-0.2090579867362976,1.3074779510498047,0.17510271072387695
1695713139972450600,12.809450439453125,-0.21544957160949707,1.209473729133606,0.1495363861322403
1695713139982483200,12.819483154296876,-0.26764747500419617,1.022120475769043,0.0739026665687561
1695713139992498200,12.829498291015625,-0.4145207107067108,0.7472824454307556,-0.024101590737700462
1695713140002562600,12.8395625,-0.5902892351150513,0.4203796684741974,-0.0997353047132492
1695713140012596000,12.849595947265625,-0.7149250507354736,0.25739431381225586,-0.3616569936275482
1695713140022611000,12.85961083984375,-0.7277082204818726,0.14447638392448425,-0.8920251131057739
1695713140032651000,12.869651123046875,-0.6286386847496033,-0.005592633970081806,-1.5438333749771118
1695713140042696700,12.87969677734375,-0.5796365737915039,0.11797794699668884,-2.2744710445404053
1695713140052738800,12.88973876953125,-0.6733797788619995,0.5002744197845459,-2.9666261672973633
1695713140062757000,12.899757080078125,-0.8213182687759399,0.917724609375,-3.395794153213501
1695713140072793300,12.90979345703125,-0.8884298801422119,1.1925626993179321,-3.5332131385803223
1695713140082829300,12.919829345703125,-0.8703203797340393,1.2201263904571533,-3.386206865310669
1695713140092865500,12.929865478515625,-0.8703203797340393,1.034903645515442,-3.0454556941986084
1695713140102901500,12.939901611328125,-0.8181225061416626,0.7600656151771545,-2.7355971336364746
1695713140112937500,12.9499375,-0.6691187024116516,0.47896915674209595,-2.545980215072632
1695713140122956000,12.9599560546875,-0.4986765384674072,0.11371689289808273,-2.5374579429626465
1695713140132937000,12.96993701171875,-0.38362807035446167,-0.434760719537735,-2.6258747577667236
1695713140142955300,12.979955322265624,-0.32823434472084045,-1.0897647142410278,-2.643984317779541
1695713140152883200,12.98988330078125,-0.302668035030365,-1.712810754776001,-2.5736770629882812
1695713140163064000,13.00006396484375,-0.24634221196174622,-2.2218735218048096,-2.5427842140197754
1695713140173105200,13.010105224609376,-0.1621863842010498,-2.5297348499298096,-2.744119167327881
1695713140183135200,13.02013525390625,-0.09933583438396454,-2.268745183944702,-3.1786136627197266
1695713140193146000,13.03014599609375,-0.18242639303207397,-1.5050843954086304,-3.6408047676086426
1695713140203206700,13.04020654296875,-0.3953459560871124,-0.9843035936355591,-3.855988025665283
1695713140213255000,13.0502548828125,-0.7021418809890747,-1.0727205276489258,-3.9208359718322754
1695713140223264500,13.060264404296875,-1.0194573402404785,-1.645699143409729,-3.9165749549865723
1695713140233275100,13.070275146484375,-1.2538152933120728,-2.250635862350464,-3.877293348312378
1695713140243323600,13.08032373046875,-1.331579566001892,-2.6840648651123047,-3.7803542613983154
1695713140253321700,13.09032177734375,-1.2687289714813232,-2.8832693099975586,-3.6067163944244385
1695713140263332400,13.100332275390626,-1.1100046634674072,-3.030275583267212,-3.375554084777832
1695713140273343200,13.11034326171875,-0.9139962196350098,-3.180344581604004,-3.1093714237213135
1695713140283366100,13.1203662109375,-0.734099805355072,-3.229346752166748,-2.8302724361419678
1695713140293388800,13.130388916015624,-0.5998765826225281,-3.093126058578491,-2.5363926887512207
1695713140303411700,13.14041162109375,-0.4954807460308075,-2.8342671394348145,-2.1849889755249023
1695713140313434600,13.1504345703125,-0.42410808801651,-2.573277473449707,-1.7833844423294067
1695713140323457500,13.16045751953125,-0.4113249182701111,-2.319877862930298,-1.3339763879776
1695713140333480400,13.17048046875,-0.4113249182701111,-2.0738019943237305,-0.8526104092597961
1695713140343503400,13.18050341796875,-0.3772364854812622,-1.858751893043518,-0.3382211923599243
1695713140353526300,13.1905263671875,-0.3442133069038391,-1.695766568183899,0.18149429559707642
1695713140363549200,13.200549072265625,-0.33782172203063965,-1.5647391080856323,0.7001445293426514
1695713140373608000,13.21060791015625,-0.3175817131996155,-1.4253227710723877,1.229447364807129
1695713140383666700,13.220666748046876,-0.25060325860977173,-1.252750039100647,1.755554437637329
1695713140393725400,13.230725341796875,-0.15472954511642456,-0.9938910007476807,2.2262678146362305
1695713140403784200,13.2407841796875,0.028495801612734795,-0.6275734305381775,2.6351959705352783
1695713140413843000,13.250843017578125,0.2564622163772583,-0.21971063315868378,2.9664928913116455
1695713140423901700,13.260901611328125,0.4534028470516205,0.2360890507698059,2.993124485015869
1695713140433921500,13.270921630859375,0.6877608299255371,0.6737792491912842,1.9089524745941162
1695713140443977000,13.28097705078125,1.0913625955581665,0.6121271252632141,0.011052110232412815
1695713140453996500,13.29099658203125,1.457680106163025,-0.8267777562141418,-1.1263831853866577
1695713151068055800,23.905055908203124,-0.02263685315847397,0.003994738683104515,-0.02516685426235199
1695713151078068500,23.915068359375,-0.03009369783103466,0.0018642114009708166,-0.0294279083609581
1695713151088081200,23.9250810546875,-0.036485280841588974,-0.005592633970081806,-0.02197106182575226
1695713151098093800,23.93509375,-0.03861580789089203,-0.0034621069207787514,-0.002796316985040903
1695713151108125400,23.94512548828125,-0.03861580789089203,0.012516847811639309,0.025965800508856773
1695713151118157300,23.9551572265625,-0.0354200154542923,0.03169159218668938,0.05153212696313858
1695713151128189200,23.965189208984373,-0.03755054250359535,0.048735812306404114,0.0600542388856411
1695713151138221000,23.975220947265626,-0.03435475379228592,0.056192658841609955,0.04833633825182915
1695713151148253000,23.9852529296875,-0.03328948840498924,0.03914843872189522,0.028096329420804977
1695713151158284800,23.995284912109376,-0.032224226742982864,0.019973693415522575,0.005725792143493891
1695713151168316700,24.005316650390625,-0.03009369783103466,-0.0002663159102667123,-0.008122635073959827
1695713151178348500,24.0153486328125,-0.03009369783103466,-0.010918952524662018,-0.008122635073959827
1695713151188380400,24.02538037109375,-0.03328948840498924,-0.00985368900001049,0.001464737462811172
1695713151198412300,24.035412353515625,-0.03861580789089203,0.003994738683104515,0.006791055668145418
1695713151208444200,24.045444091796874,-0.03755054250359535,0.010386320762336254,0.00892158318310976
1695713151218475800,24.055475830078127,-0.03968106955289841,0.015712639316916466,0.0025300011038780212
1695713151228507000,24.0655068359375,-0.03861580789089203,0.011451584286987782,-0.003861580742523074
1695713151238538000,24.0755380859375,-0.03861580789089203,0.0018642114009708166,-0.002796316985040903
1695713151248569300,24.0855693359375,-0.03328948840498924,-0.0023968431632965803,0.001464737462811172
1695713151258600400,24.095600341796874,-0.031158961355686188,-0.001331579522229731,0.009986846707761288
1695713151268631800,24.1056318359375,-0.02583264373242855,0.00612526573240757,0.016378428786993027
1695713151278663000,24.115662841796876,-0.017310533672571182,0.018908429890871048,0.01957421936094761
1695713151288694000,24.125694091796873,-0.004527370445430279,0.030626330524683,0.014247900806367397
1695713151298725400,24.135725341796874,0.0050600022077560425,0.023169483989477158,-0.011318426579236984
1695713151308756500,24.145756591796875,0.002929474925622344,-0.005592633970081806,-0.03688475489616394
1695713151318788000,24.1557880859375,0.0007989477599039674,-0.023702116683125496,-0.03688475489616394
1695713151328820200,24.1658203125,0.0007989477599039674,-0.026897907257080078,-0.01771000772714615
1695713151338852400,24.175852294921874,0.0050600022077560425,-0.02583264373242855,0.0035952648613601923
1695713151348884500,24.185884521484375,0.008255792781710625,-0.020506324246525764,0.011052110232412815
1695713151358916400,24.195916259765625,0.011451584286987782,-0.010918952524662018,0.001464737462811172
1695713151368948500,24.205948486328126,0.010386320762336254,-0.008788425475358963,-0.015579480677843094
1695713151378980600,24.215980712890627,0.007190529722720385,-0.0141147430986166,-0.031558435410261154
1695713151389012700,24.2260126953125,0.002929474925622344,-0.02583264373242855,-0.03795001655817032
1695713151399044900,24.236044921875,-0.001331579522229731,-0.027963170781731606,-0.03262370079755783
1695713151409077000,24.246076904296874,-0.004527370445430279,-0.02263685315847397,-0.01771000772714615
1695713151419112400,24.256112548828124,-0.0034621069207787514,-0.008788425475358963,0.0003994738799519837
1695713151429165800,24.266165771484374,0.0007989477599039674,-0.0002663159102667123,0.006791055668145418
1695713151439219200,24.27621923828125,0.002929474925622344,-0.0002663159102667123,-0.0006657897611148655
1695713151449272800,24.28627294921875,-0.0002663159102667123,-0.008788425475358963,-0.01771000772714615
1695713151459326200,24.296326171875,-0.005592633970081806,-0.0141147430986166,-0.030493171885609627
1695713151469379600,24.306379638671874,-0.010918952524662018,-0.02263685315847397,-0.034754227846860886
1695713151479433000,24.316432861328124,-0.0141147430986166,-0.029028434306383133,-0.031558435410261154
1695713151489486600,24.326486572265626,-0.016245270147919655,-0.027963170781731606,-0.02197106182575226
1695713151499540000,24.3365400390625,-0.017310533672571182,-0.017310533672571182,-0.0070573715493083
1695713151509572600,24.346572509765625,-0.020506324246525764,0.0007989477599039674,0.004660528618842363
1695713151519594200,24.35659423828125,-0.02263685315847397,0.014647374860942364,0.00892158318310976
1695713151529616000,24.366615966796875,-0.024767380207777023,0.021038956940174103,0.007856319658458233
1695713151539637500,24.376637451171874,-0.026897907257080078,0.018908429890871048,0.0035952648613601923
1695713151549659400,24.386659423828124,-0.026897907257080078,0.01784316636621952,0.0003994738799519837
1695713151559681000,24.396680908203123,-0.026897907257080078,0.014647374860942364,-0.0006657897611148655
1695713151569702700,24.40670263671875,-0.024767380207777023,0.013582111336290836,0.0025300011038780212
1695713151579724300,24.416724365234376,-0.023702116683125496,0.015712639316916466,0.006791055668145418
1695713151589746000,24.426745849609375,-0.023702116683125496,0.018908429890871048,0.012117373757064342
1695713151599767600,24.436767578125,-0.023702116683125496,0.021038956940174103,0.014247900806367397
1695713151609789200,24.4467890625,-0.024767380207777023,0.019973693415522575,0.012117373757064342
1695713151619820300,24.4568203125,-0.027963170781731606,0.018908429890871048,0.009986846707761288
1695713151629843200,24.46684326171875,-0.03009369783103466,0.019973693415522575,0.011052110232412815
1695713151639865900,24.476865966796876,-0.031158961355686188,0.016777902841567993,0.01318263728171587
1695713151649888800,24.486888671875,-0.03009369783103466,0.009321057237684727,0.007856319658458233
1695713151659911700,24.49691162109375,-0.024767380207777023,0.0018642114009708166,0.0003994738799519837
1695713151669934300,24.506934326171876,-0.016245270147919655,-0.0023968431632965803,-0.011318426579236984
1695713151679957200,24.516957275390624,-0.007723161485046148,-0.004527370445430279,-0.02090579830110073
1695713151689980200,24.526980224609375,-0.0002663159102667123,-0.010918952524662018,-0.0294279083609581
1695713151700003000,24.537003173828126,0.0007989477599039674,-0.016245270147919655,-0.030493171885609627
1695713151710025700,24.547025634765625,0.003994738683104515,-0.016245270147919655,-0.0294279083609581
1695713151720057000,24.55705712890625,0.0050600022077560425,-0.017310533672571182,-0.027297381311655045
1695713151730090200,24.56709033203125,0.003994738683104515,-0.0141147430986166,-0.02090579830110073
1695713151740123100,24.577123046875,0.003994738683104515,-0.008788425475358963,-0.009187898598611355
1695713151750156000,24.587156005859374,0.0018642114009708166,0.0007989477599039674,0.0003994738799519837
1695713151760189200,24.597189208984375,-0.0002663159102667123,0.009321057237684727,0.00892158318310976
1695713151770222000,24.60722216796875,-0.0034621069207787514,0.013582111336290836,0.016378428786993027
1695713151780255200,24.617255126953125,-0.005592633970081806,0.024234747514128685,0.021704746410250664
1695713151790288100,24.6272880859375,-0.00985368900001049,0.03382211923599243,0.02383527345955372
1695713151800321300,24.6373212890625,-0.015180006623268127,0.040213704109191895,0.01850895583629608
1695713151810354200,24.647354248046874,-0.01837579719722271,0.040213704109191895,0.0153131652623415
1695713151820392000,24.657391845703124,-0.02263685315847397,0.03914843872189522,0.012117373757064342
1695713151830465300,24.66746533203125,-0.02263685315847397,0.04234423115849495,0.0153131652623415
1695713151840538600,24.67753857421875,-0.02583264373242855,0.04340949282050133,0.0153131652623415
1695713151850612000,24.687612060546876,-0.026897907257080078,0.040213704109191895,0.011052110232412815
1695713151860685300,24.697685302734374,-0.02583264373242855,0.03275685757398605,0.01318263728171587
1695713151870722600,24.70772265625,-0.024767380207777023,0.03169159218668938,0.012117373757064342
1695713151880757000,24.717757080078126,-0.02583264373242855,0.03169159218668938,0.009986846707761288
1695713151890791700,24.727791748046876,-0.02583264373242855,0.02636527456343174,0.006791055668145418
1695713151900826000,24.737826171875,-0.02583264373242855,0.018908429890871048,0.005725792143493891
1695713151910863400,24.74786328125,-0.023702116683125496,0.00612526573240757,0.006791055668145418
1695713151920888600,24.757888671875,-0.01837579719722271,-0.0002663159102667123,0.007856319658458233
1695713151930925800,24.76792578125,-0.013049479573965073,-0.0002663159102667123,0.006791055668145418
1695713151940962800,24.777962890625,-0.008788425475358963,0.0018642114009708166,0.005725792143493891
1695713151950980600,24.787980712890626,-0.005592633970081806,0.0018642114009708166,0.005725792143493891
1695713151960872400,24.79787255859375,-0.005592633970081806,0.0050600022077560425,0.0035952648613601923
1695713151970894600,24.80789453125,-0.0023968431632965803,0.0018642114009708166,0.001464737462811172
1695713151980908800,24.81790869140625,-0.0023968431632965803,-0.005592633970081806,0.0025300011038780212
1695713151990930200,24.82793017578125,0.0007989477599039674,-0.007723161485046148,0.011052110232412815
1695713152000969000,24.837968994140624,0.002929474925622344,-0.006657897960394621,0.014247900806367397
1695713152010992000,24.8479921875,0.0050600022077560425,-0.007723161485046148,0.012117373757064342
1695713152021032700,24.85803271484375,0.00612526573240757,-0.013049479573965073,0.006791055668145418
1695713152031057700,24.8680576171875,0.0018642114009708166,-0.01837579719722271,-0.0006657897611148655
1695713152041096000,24.878095947265624,-0.004527370445430279,-0.019441060721874237,-0.0017310534603893757
1695713152051122200,24.8881220703125,-0.005592633970081806,-0.005592633970081806,-0.0006657897611148655
1695713152061179400,24.898179443359375,-0.007723161485046148,0.0007989477599039674,-0.0017310534603893757
1695713152071208700,24.908208740234375,-0.011984216049313545,0.0050600022077560425,0.0035952648613601923
1695713152081245200,24.9182451171875,-0.011984216049313545,0.016777902841567993,0.009986846707761288
1695713152091425800,24.92842578125,-0.011984216049313545,0.023169483989477158,0.0153131652623415
1695713152101468200,24.93846826171875,-0.007723161485046148,0.025300011038780212,0.005725792143493891
1695713152111498200,24.948498291015625,-0.011984216049313545,0.013582111336290836,-0.008122635073959827
1695713152121495300,24.958495361328126,-0.031158961355686188,0.015712639316916466,-0.011318426579236984
1695713152131566800,24.96856689453125,-0.03861580789089203,0.035952646285295486,-0.004926844500005245
1695713152141597000,24.978596923828125,-0.040746334940195084,0.03914843872189522,0.001464737462811172
1695713152151629600,24.988629638671874,-0.031158961355686188,0.03701791167259216,0.001464737462811172
1695713152161667300,24.998667236328124,-0.026897907257080078,0.03808317333459854,-0.0017310534603893757
1695713152171697700,25.00869775390625,-0.019441060721874237,0.04234423115849495,-0.012383690103888512
1695713152181723100,25.01872314453125,-0.010918952524662018,0.035952646285295486,-0.02090579830110073
1695713152191737300,25.0287373046875,-0.007723161485046148,0.024234747514128685,-0.028362644836306572
1695713152201768200,25.038768310546875,-0.010918952524662018,0.015712639316916466,-0.026232117787003517
1695713152211803100,25.04880322265625,-0.015180006623268127,0.015712639316916466,-0.018775271251797676
1695713152221838000,25.058838134765626,-0.01837579719722271,0.03169159218668938,-0.005992108024656773
1695713152231873300,25.068873291015624,-0.0141147430986166,0.04767054691910744,0.005725792143493891
1695713152241908200,25.078908203125,-0.007723161485046148,0.048735812306404114,0.006791055668145418
1695713152251943200,25.088943115234375,-0.0023968431632965803,0.044474758207798004,0.0035952648613601923
1695713152261978000,25.09897802734375,0.0018642114009708166,0.03275685757398605,-0.002796316985040903
1695713152272009000,25.109009033203126,0.00612526573240757,0.024234747514128685,-0.0006657897611148655
1695713152282030000,25.119030029296876,0.012516847811639309,0.012516847811639309,0.001464737462811172
1695713152292050700,25.12905078125,0.016777902841567993,0.0050600022077560425,0.0025300011038780212
1695713152301959700,25.138959716796876,0.02210422046482563,0.002929474925622344,0.0035952648613601923
1695713152311979500,25.1489794921875,0.027430538088083267,0.007190529722720385,0.0025300011038780212
1695713152322171100,25.159171142578124,0.027430538088083267,0.009321057237684727,-0.0017310534603893757
1695713152332205800,25.169205810546874,0.027430538088083267,0.0018642114009708166,-0.005992108024656773
1695713152342225700,25.1792255859375,0.024234747514128685,-0.0023968431632965803,-0.009187898598611355
1695713152352267500,25.189267578125,0.019973693415522575,-0.0034621069207787514,-0.0070573715493083
1695713152362307800,25.199307861328126,0.014647374860942364,0.0007989477599039674,0.001464737462811172
1695713152372328000,25.209327880859377,0.012516847811639309,0.003994738683104515,0.011052110232412815
1695713152382364000,25.219364013671875,0.008255792781710625,0.002929474925622344,0.0153131652623415
1695713152392394800,25.229394775390624,0.0050600022077560425,0.0007989477599039674,0.014247900806367397
1695713152402414800,25.239414794921874,0.0007989477599039674,-0.0002663159102667123,0.00892158318310976
1695713152412455400,25.249455322265625,-0.005592633970081806,0.0007989477599039674,0.004660528618842363
1695713152422478600,25.259478515625,-0.007723161485046148,0.002929474925622344,0.001464737462811172
1695713152432526000,25.269526123046877,-0.010918952524662018,0.003994738683104515,-0.0017310534603893757
1695713152442573300,25.2795732421875,-0.011984216049313545,0.00612526573240757,-0.0006657897611148655
1695713152452596700,25.2895966796875,-0.008788425475358963,0.007190529722720385,0.006791055668145418
1695713152462579700,25.299579833984374,-0.005592633970081806,0.007190529722720385,0.012117373757064342
1695713152472603100,25.30960302734375,-0.0034621069207787514,0.0050600022077560425,0.017443692311644554
1695713152482626300,25.319626220703125,-0.004527370445430279,0.012516847811639309,0.01850895583629608
1695713152492710100,25.329710205078126,-0.004527370445430279,0.024234747514128685,0.014247900806367397
1695713152502768400,25.339768310546877,-0.005592633970081806,0.03169159218668938,0.006791055668145418
1695713152512791800,25.349791748046876,-0.005592633970081806,0.025300011038780212,-0.004926844500005245
1695713152522804200,25.35980419921875,-0.0023968431632965803,0.011451584286987782,-0.018775271251797676
1695713152532848600,25.3698486328125,0.0007989477599039674,-0.008788425475358963,-0.0294279083609581
1695713152542871800,25.379871826171875,0.007190529722720385,-0.02157158963382244,-0.030493171885609627
1695713152552921900,25.389921875,0.011451584286987782,-0.027963170781731606,-0.02197106182575226
1695713152562955800,25.399955810546874,0.014647374860942364,-0.029028434306383133,-0.011318426579236984
1695713152572979000,25.40997900390625,0.01784316636621952,-0.029028434306383133,-0.008122635073959827
1695713152583006000,25.420005859375,0.016777902841567993,-0.029028434306383133,-0.013448953628540039
1695713152593029000,25.430029052734376,0.010386320762336254,-0.0354200154542923,-0.02090579830110073
1695713152603054800,25.440054931640624,0.00612526573240757,-0.036485280841588974,-0.024101590737700462
1695713152613096400,25.450096435546875,-0.0002663159102667123,-0.0354200154542923,-0.023036325350403786
1695713152623137800,25.4601376953125,-0.005592633970081806,-0.031158961355686188,-0.015579480677843094
1695713152633179400,25.470179443359374,-0.010918952524662018,-0.017310533672571182,-0.002796316985040903
1695713152643205000,25.480205078125,-0.019441060721874237,0.0007989477599039674,0.007856319658458233
1695713152653200400,25.490200439453126,-0.026897907257080078,0.013582111336290836,0.012117373757064342
1695713152663111200,25.500111083984375,-0.031158961355686188,0.01784316636621952,0.007856319658458233
1695713152673311000,25.51031103515625,-0.032224226742982864,0.015712639316916466,0.0035952648613601923
1695713152683333600,25.520333740234374,-0.032224226742982864,0.010386320762336254,-0.002796316985040903
1695713152693348000,25.53034814453125,-0.029028434306383133,0.0050600022077560425,-0.0070573715493083
1695713152703391200,25.54039111328125,-0.026897907257080078,-0.0002663159102667123,-0.010253162123262882
1695713152713437000,25.55043701171875,-0.024767380207777023,-0.0023968431632965803,-0.011318426579236984
1695713152723451400,25.560451416015624,-0.023702116683125496,-0.001331579522229731,-0.011318426579236984
1695713152733501400,25.57050146484375,-0.01837579719722271,-0.0023968431632965803,-0.011318426579236984
1695713152743530000,25.580530029296874,-0.017310533672571182,-0.004527370445430279,-0.011318426579236984
1695713152753544700,25.590544677734375,-0.013049479573965073,-0.006657897960394621,-0.011318426579236984
1695713152763609600,25.600609619140624,-0.004527370445430279,-0.00985368900001049,-0.010253162123262882
1695713152773638000,25.610637939453124,0.002929474925622344,-0.015180006623268127,-0.012383690103888512
1695713152783655400,25.620655517578125,0.011451584286987782,-0.017310533672571182,-0.0070573715493083
1695713152793687000,25.63068701171875,0.019973693415522575,-0.016245270147919655,-0.002796316985040903
1695713152803718700,25.64071875,0.027430538088083267,-0.01837579719722271,-0.0006657897611148655
1695713152813750500,25.65075048828125,0.03169159218668938,-0.023702116683125496,-0.002796316985040903
1695713152823782100,25.6607822265625,0.03275685757398605,-0.026897907257080078,-0.008122635073959827
1695713152833814000,25.67081396484375,0.035952646285295486,-0.029028434306383133,-0.013448953628540039
1695713152843845600,25.680845703125,0.03382211923599243,-0.031158961355686188,-0.015579480677843094
1695713152853863200,25.69086328125,0.03275685757398605,-0.027963170781731606,-0.012383690103888512
1695713152863863300,25.70086328125,0.030626330524683,-0.016245270147919655,-0.004926844500005245
1695713152873880800,25.710880859375,0.029561065137386322,-0.004527370445430279,0.0035952648613601923
1695713153084466200,25.921466064453124,-0.016245270147919655,-0.010918952524662018,0.0003994738799519837
1695713153094482700,25.931482666015626,-0.013049479573965073,-0.011984216049313545,0.0003994738799519837
1695713153104502800,25.941502685546876,-0.007723161485046148,-0.010918952524662018,0.001464737462811172
1695713153114534700,25.95153466796875,-0.0034621069207787514,-0.011984216049313545,-0.0006657897611148655
1695713153124566500,25.96156640625,0.002929474925622344,-0.010918952524662018,-0.002796316985040903
1695713153134598400,25.971598388671875,0.007190529722720385,-0.011984216049313545,-0.002796316985040903
1695713153144630300,25.98163037109375,0.008255792781710625,-0.011984216049313545,-0.003861580742523074
1695713153154662100,25.991662109375,0.007190529722720385,-0.008788425475358963,-0.003861580742523074
1695713153164694000,26.001694091796875,0.00612526573240757,-0.006657897960394621,-0.003861580742523074
1695713153174726000,26.011725830078124,0.002929474925622344,-0.005592633970081806,-0.002796316985040903
1695713153184757800,26.0217578125,0.002929474925622344,-0.005592633970081806,-0.0006657897611148655
1695713153194789600,26.03178955078125,0.0007989477599039674,-0.007723161485046148,0.001464737462811172
1695713153204821500,26.041821533203127,0.002929474925622344,-0.00985368900001049,0.0025300011038780212
1695713153214844400,26.051844482421874,0.002929474925622344,-0.007723161485046148,0.0035952648613601923
1695713153224879400,26.06187939453125,0.0050600022077560425,-0.00985368900001049,0.0035952648613601923
1695713153234914000,26.0719140625,0.0050600022077560425,-0.008788425475358963,0.001464737462811172
1695713153244949000,26.081948974609375,0.00612526573240757,-0.008788425475358963,-0.0006657897611148655
1695713153254984000,26.09198388671875,0.002929474925622344,-0.006657897960394621,-0.0017310534603893757
1695713153265019000,26.102018798828126,-0.0002663159102667123,-0.006657897960394621,-0.0006657897611148655
1695713153275053600,26.112053466796876,-0.005592633970081806,-0.00985368900001049,-0.0017310534603893757
1695713153285088500,26.122088623046874,-0.010918952524662018,-0.011984216049313545,-0.003861580742523074
1695713153295123500,26.13212353515625,-0.011984216049313545,-0.00985368900001049,-0.002796316985040903
1695713153305158100,26.142158203125,-0.0141147430986166,-0.0034621069207787514,-0.0017310534603893757
1695713153315193000,26.152193115234375,-0.015180006623268127,-0.0002663159102667123,0.0003994738799519837
1695713153325218300,26.16221826171875,-0.011984216049313545,0.0007989477599039674,0.0025300011038780212
1695713153335254300,26.172254150390625,-0.008788425475358963,0.0007989477599039674,0.0025300011038780212
1695713153345290500,26.18229052734375,-0.005592633970081806,-0.001331579522229731,0.0035952648613601923
1695713153355326700,26.19232666015625,-0.0002663159102667123,-0.0023968431632965803,0.001464737462811172
1695713153365363000,26.202363037109375,0.003994738683104515,-0.006657897960394621,-0.002796316985040903
1695713153375399000,26.21239892578125,0.0050600022077560425,-0.013049479573965073,-0.004926844500005245
1695713153385435100,26.22243505859375,0.007190529722720385,-0.0141147430986166,-0.0070573715493083
1695713153395471400,26.232471435546874,0.008255792781710625,-0.010918952524662018,-0.008122635073959827
1695713153405507600,26.242507568359375,0.0018642114009708166,-0.0034621069207787514,-0.002796316985040903
1695713153415543600,26.25254345703125,-0.0023968431632965803,0.0007989477599039674,0.0025300011038780212
1695713153425573600,26.26257373046875,-0.008788425475358963,0.002929474925622344,0.011052110232412815
1695713153435628300,26.272628173828124,-0.010918952524662018,0.007190529722720385,0.016378428786993027
1695713153445682700,26.2826826171875,-0.0141147430986166,0.01784316636621952,0.021704746410250664
1695713153455737000,26.292737060546877,-0.0141147430986166,0.02210422046482563,0.021704746410250664
1695713153465791700,26.302791748046875,-0.013049479573965073,0.021038956940174103,0.01957421936094761
1695713153475846100,26.31284619140625,-0.017310533672571182,0.019973693415522575,0.01957421936094761
1695713153485900800,26.32290087890625,-0.024767380207777023,0.024234747514128685,0.021704746410250664
1695713153495955200,26.332955078125,-0.031158961355686188,0.035952646285295486,0.02383527345955372
1695713153505982200,26.342982177734374,-0.03009369783103466,0.04554001986980438,0.0270310640335083
1695713153515997400,26.35299755859375,-0.020506324246525764,0.04980107396841049,0.024900536984205246
1695713153526013000,26.363012939453125,0.0050600022077560425,0.04980107396841049,0.007856319658458233
1695713153536028200,26.373028076171874,0.009321057237684727,0.019973693415522575,-0.02197106182575226
1695713153546043600,26.383043701171875,0.002929474925622344,-0.0034621069207787514,-0.023036325350403786
1695713153556059100,26.39305908203125,0.013582111336290836,0.0018642114009708166,-0.008122635073959827
1695713153566074400,26.403074462890626,0.018908429890871048,-0.010918952524662018,-0.0017310534603893757
1695713153576089900,26.41308984375,0.027430538088083267,-0.02157158963382244,-0.0017310534603893757
1695713153586105000,26.42310498046875,0.03808317333459854,-0.006657897960394621,-0.005992108024656773
1695713153596120600,26.43312060546875,0.03808317333459854,0.00612526573240757,-0.01771000772714615
1695713153606135800,26.4431357421875,0.035952646285295486,0.011451584286987782,-0.028362644836306572
1695713153616164000,26.4531640625,0.03169159218668938,0.00612526573240757,-0.03368896245956421
1695713153626198300,26.4631982421875,0.029561065137386322,-0.001331579522229731,-0.03795001655817032
1695713153636232200,26.473232177734374,0.025300011038780212,-0.007723161485046148,-0.04114580899477005
1695713153646266400,26.483266357421876,0.025300011038780212,-0.006657897960394621,-0.04008054360747337
1695713153656300500,26.493300537109373,0.025300011038780212,0.0007989477599039674,-0.04114580899477005
1695713153666334500,26.50333447265625,0.02636527456343174,0.009321057237684727,-0.04966791719198227
1695713153676368600,26.51336865234375,0.028495801612734795,0.010386320762336254,-0.059255290776491165
1695713153686402800,26.52340283203125,0.029561065137386322,0.007190529722720385,-0.06777740269899368
1695713153696436700,26.533436767578124,0.030626330524683,0.003994738683104515,-0.07523424178361893
1695713153706471000,26.543470947265625,0.035952646285295486,-0.0023968431632965803,-0.07949529588222504
1695713153716504800,26.5535048828125,0.04554001986980438,-0.013049479573965073,-0.08162582665681839
1695713153726534000,26.563533935546875,0.05725792050361633,-0.023702116683125496,-0.08375635743141174
1695713153736566500,26.57356640625,0.0732368752360344,-0.03755054250359535,-0.08482161909341812
1695713153746599200,26.58359912109375,0.08815056830644608,-0.04713791608810425,-0.08482161909341812
1695713153756631600,26.593631591796875,0.1009337306022644,-0.05033370852470398,-0.08162582665681839
1695713153766664200,26.603664306640624,0.11158636957406998,-0.03968106955289841,-0.07523424178361893
1695713153776696600,26.613696533203125,0.1201084777712822,-0.02583264373242855,-0.06671213358640671
1695713153786729200,26.623729248046875,0.12117373943328857,-0.005592633970081806,-0.06138581782579422
1695713153796761600,26.63376171875,0.11797794699668884,0.0050600022077560425,-0.054994236677885056
1695713153806794200,26.643794189453125,0.11265163123607635,0.00612526573240757,-0.043276336044073105
1695713153816827000,26.653826904296874,0.10412952303886414,0.00612526573240757,-0.03688475489616394
1695713153826859300,26.663859375,0.09773793816566467,0.0018642114009708166,-0.026232117787003517
1695713153836893200,26.67389306640625,0.09454214572906494,0.0018642114009708166,-0.019840534776449203
1695713153846958800,26.683958740234374,0.09347688406705856,0.010386320762336254,-0.019840534776449203
1695713153857024300,26.694024169921875,0.0870852991938591,0.00612526573240757,-0.018775271251797676
1695713153867090000,26.70408984375,0.07643266767263412,0.007190529722720385,-0.024101590737700462
1695713153877155300,26.7141552734375,0.05938844755291939,0.0007989477599039674,-0.024101590737700462
1695713153887189200,26.724189208984374,0.02636527456343174,0.0007989477599039674,-0.02090579830110073
1695713153897241600,26.73424169921875,-0.008788425475358963,0.009321057237684727,-0.005992108024656773
1695713153907275500,26.744275634765625,-0.03009369783103466,0.028495801612734795,0.012117373757064342
1695713153917316400,26.75431640625,-0.036485280841588974,0.04127896577119827,0.024900536984205246
1695713153927350300,26.764350341796874,-0.03968106955289841,0.035952646285295486,0.029161592945456505
1695713153937363500,26.774363525390626,-0.04500738903880119,0.027430538088083267,0.03235738351941109
1695713153947379700,26.784379638671876,-0.05566002428531647,0.024234747514128685,0.030226856470108032
1695713153957413600,26.79441357421875,-0.06524740159511566,0.024234747514128685,0.030226856470108032
1695713153967445500,26.804445556640626,-0.07163897901773453,0.03382211923599243,0.028096329420804977
1695713153977500000,26.8145,-0.0727042406797409,0.035952646285295486,0.020639482885599136
1695713153987533800,26.824533935546874,-0.06950845569372177,0.029561065137386322,0.017443692311644554
1695713153997571300,26.8345712890625,-0.06205160543322563,0.018908429890871048,0.017443692311644554
1695713154007561700,26.844561767578124,-0.052464235574007034,0.016777902841567993,0.0270310640335083
1695713154017595600,26.854595703125,-0.03755054250359535,0.03169159218668938,0.0366184376180172
1695713154027650600,26.864650634765624,-0.01837579719722271,0.03488738462328911,0.03874896466732025
1695713154037675800,26.87467578125,-0.001331579522229731,0.013582111336290836,0.021704746410250664
1695713154047709700,26.884709716796873,0.01784316636621952,-0.01837579719722271,-0.009187898598611355
1695713154057732900,26.89473291015625,0.03169159218668938,-0.036485280841588974,-0.028362644836306572
1695713154067766800,26.904766845703126,0.04340949282050133,-0.02583264373242855,-0.023036325350403786
1695713154077800700,26.91480078125,0.04980107396841049,-0.010918952524662018,-0.010253162123262882
1695713154087817200,26.924817138671877,0.056192658841609955,-0.004527370445430279,-0.005992108024656773
1695713154097851100,26.93485107421875,0.05512739345431328,-0.007723161485046148,-0.005992108024656773
1695713154107885000,26.944885009765624,0.05512739345431328,-0.006657897960394621,-0.009187898598611355
1695713154117919000,26.9549189453125,0.05299686640501022,-0.007723161485046148,-0.013448953628540039
1695713154127975200,26.96497509765625,0.04340949282050133,-0.013049479573965073,-0.01664474420249462
1695713154137998600,26.97499853515625,0.03488738462328911,-0.020506324246525764,-0.013448953628540039
1695713154148032500,26.985032470703125,0.019973693415522575,-0.02263685315847397,-0.0070573715493083
1695713154158040000,26.9950400390625,0.0050600022077560425,-0.02157158963382244,0.0003994738799519837
1695713154168082700,27.005082763671876,-0.006657897960394621,-0.017310533672571182,0.007856319658458233
1695713154178118400,27.015118408203126,-0.016245270147919655,-0.011984216049313545,0.011052110232412815
1695713154188166700,27.025166748046875,-0.02157158963382244,-0.0002663159102667123,0.014247900806367397
1695713154198202400,27.035202392578125,-0.026897907257080078,0.00612526573240757,0.016378428786993027
1695713154208221700,27.0452216796875,-0.031158961355686188,0.008255792781710625,0.017443692311644554
1695713154218257200,27.055257080078125,-0.03435475379228592,0.007190529722720385,0.014247900806367397
1695713155692844000,28.529843994140624,0.04127896577119827,-0.026897907257080078,-0.002796316985040903
1695713155702881300,28.53988134765625,0.04340949282050133,-0.0354200154542923,-0.0017310534603893757
1695713155712918500,28.54991845703125,0.044474758207798004,-0.032224226742982864,0.0003994738799519837
1695713155722950700,28.55995068359375,0.04554001986980438,-0.019441060721874237,0.004660528618842363
1695713155732982000,28.56998193359375,0.04660528525710106,-0.0034621069207787514,0.006791055668145418
1695713155743013600,28.580013671875,0.04340949282050133,0.0050600022077560425,0.00892158318310976
1695713155753045000,28.590044921875,0.030626330524683,0.011451584286987782,0.011052110232412815
1695713155763076600,28.60007666015625,0.015712639316916466,0.021038956940174103,0.0153131652623415
1695713155773108200,28.610108154296874,-0.0002663159102667123,0.030626330524683,0.02383527345955372
1695713155783139600,28.6201396484375,-0.015180006623268127,0.04340949282050133,0.03555317223072052
1695713155793171200,28.630171142578124,-0.024767380207777023,0.05299686640501022,0.0504668653011322
1695713155803202600,28.64020263671875,-0.032224226742982864,0.05725792050361633,0.05898897349834442
1695713155813234200,28.650234130859374,-0.036485280841588974,0.06151897460222244,0.06325002759695053
1695713155823266600,28.6602666015625,-0.03755054250359535,0.0636495053768158,0.05898897349834442
1695713155833300000,28.670300048828125,-0.032224226742982864,0.06151897460222244,0.04620581120252609
1695713155843333000,28.6803330078125,-0.029028434306383133,0.05725792050361633,0.033422645181417465
1695713155853366800,28.69036669921875,-0.032224226742982864,0.05086633935570717,0.021704746410250664
1695713155863400000,28.70039990234375,-0.0354200154542923,0.04340949282050133,0.01957421936094761
1695713155873433300,28.710433349609374,-0.04287686198949814,0.03275685757398605,0.017443692311644554
1695713155883466800,28.720466796875,-0.04181159660220146,0.027430538088083267,0.016378428786993027
1695713155893500200,28.730500244140625,-0.03755054250359535,0.027430538088083267,0.012117373757064342
1695713155903533600,28.740533447265626,-0.029028434306383133,0.016777902841567993,0.007856319658458233
1695713155913567000,28.75056689453125,-0.02263685315847397,0.002929474925622344,0.004660528618842363
1695713155923602200,28.760602294921874,-0.01837579719722271,-0.004527370445430279,-0.002796316985040903
1695713155933650400,28.770650390625,-0.00985368900001049,-0.008788425475358963,-0.005992108024656773
1695713155943698400,28.780698486328124,0.0050600022077560425,-0.011984216049313545,-0.010253162123262882
1695713155953746700,28.79074658203125,0.019973693415522575,-0.00985368900001049,-0.013448953628540039
1695713155963795000,28.800794921875,0.029561065137386322,-0.0141147430986166,-0.013448953628540039
1695713155973843000,28.810843017578126,0.03275685757398605,-0.02157158963382244,-0.01664474420249462
1695713155983891200,28.82089111328125,0.029561065137386322,-0.03009369783103466,-0.014514217153191566
1695713155993939500,28.830939453125,0.024234747514128685,-0.04500738903880119,-0.011318426579236984
1695713156003987500,28.840987548828124,0.02210422046482563,-0.05459476262331009,-0.008122635073959827
1695713156014019000,28.85101904296875,0.025300011038780212,-0.04607265070080757,-0.002796316985040903
1695713156024036000,28.8610361328125,0.025300011038780212,-0.03328948840498924,-0.0017310534603893757
1695713156034052900,28.871052978515625,0.011451584286987782,-0.023702116683125496,-0.003861580742523074
1695713156044069600,28.881069580078126,-0.007723161485046148,-0.020506324246525764,-0.005992108024656773
1695713156054086400,28.89108642578125,-0.024767380207777023,-0.020506324246525764,-0.0070573715493083
1695713156064103400,28.901103515625,-0.03435475379228592,-0.02263685315847397,-0.004926844500005245
1695713156074120200,28.9111201171875,-0.04394212365150452,-0.024767380207777023,-0.0006657897611148655
1695713156084137000,28.921136962890625,-0.05459476262331009,-0.01837579719722271,0.011052110232412815
1695713156094154000,28.931154052734374,-0.06631266325712204,-0.010918952524662018,0.0270310640335083
1695713156104170800,28.941170654296876,-0.08016108721494675,-0.0002663159102667123,0.040879491716623306
1695713156114187500,28.9511875,-0.09614004194736481,0.016777902841567993,0.0504668653011322
1695713156124219400,28.961219482421875,-0.11211899667978287,0.030626330524683,0.049401599913835526
1695713156134252300,28.971252197265624,-0.11957584321498871,0.040213704109191895,0.04301001876592636
1695713156144285200,28.98128515625,-0.11957584321498871,0.04234423115849495,0.028096329420804977
1695713156154317800,28.99131787109375,-0.11105373501777649,0.03169159218668938,0.011052110232412815
1695713156164350700,29.001350830078124,-0.10998847335577011,0.025300011038780212,0.007856319658458233
1695713156174383400,29.01138330078125,-0.11211899667978287,0.024234747514128685,0.02277000993490219
1695713156184416300,29.021416259765626,-0.11105373501777649,0.02636527456343174,0.03874896466732025
1695713156194449200,29.03144921875,-0.09614004194736481,0.029561065137386322,0.040879491716623306
1695713156204481800,29.041481689453125,-0.0727042406797409,0.027430538088083267,0.0270310640335083
1695713156214514700,29.0515146484375,-0.04394212365150452,0.015712639316916466,0.005725792143493891
1695713156224547300,29.06154736328125,-0.02263685315847397,-0.001331579522229731,-0.003861580742523074
1695713156234579000,29.071578857421876,-0.008788425475358963,-0.008788425475358963,-0.002796316985040903
1695713156244609500,29.081609619140625,0.002929474925622344,-0.008788425475358963,0.0003994738799519837
1695713156254639900,29.091639892578126,0.015712639316916466,-0.0023968431632965803,0.0003994738799519837
1695713156264670200,29.101670166015627,0.025300011038780212,-0.0034621069207787514,-0.003861580742523074
1695713156274700500,29.111700439453124,0.03382211923599243,-0.0023968431632965803,-0.002796316985040903
1695713156284731000,29.12173095703125,0.035952646285295486,0.0007989477599039674,0.001464737462811172
1695713156294761500,29.131761474609377,0.03808317333459854,0.0018642114009708166,0.005725792143493891
1695713156304791800,29.141791748046874,0.03701791167259216,-0.0002663159102667123,0.007856319658458233
1695713156314822100,29.151822265625,0.03488738462328911,0.0007989477599039674,0.007856319658458233
1695713156324852500,29.1618525390625,0.03169159218668938,0.007190529722720385,0.007856319658458233
1695713156334882800,29.1718828125,0.024234747514128685,0.010386320762336254,0.00892158318310976
1695713156344914700,29.181914794921877,0.014647374860942364,0.008255792781710625,0.007856319658458233
1695713156354947300,29.191947265625,0.002929474925622344,0.003994738683104515,0.005725792143493891
1695713156364979700,29.201979736328123,-0.0034621069207787514,-0.001331579522229731,0.0035952648613601923
1695713156375012400,29.212012451171876,-0.010918952524662018,-0.006657897960394621,0.0035952648613601923
1695713156385044700,29.222044677734374,-0.01837579719722271,-0.005592633970081806,0.006791055668145418
1695713156395077400,29.232077392578127,-0.023702116683125496,-0.0023968431632965803,0.011052110232412815
1695713156405110000,29.242110107421876,-0.02583264373242855,0.00612526573240757,0.012117373757064342
1695713156415142400,29.252142333984374,-0.026897907257080078,0.014647374860942364,0.012117373757064342
1695713156425175000,29.262175048828126,-0.026897907257080078,0.018908429890871048,0.009986846707761288
1695713156435207400,29.27220751953125,-0.026897907257080078,0.014647374860942364,0.004660528618842363
1695713156445244000,29.282243896484374,-0.02263685315847397,0.00612526573240757,-0.0017310534603893757
1695713156455306200,29.29230615234375,-0.019441060721874237,-0.00985368900001049,-0.005992108024656773
1695713156465368600,29.30236865234375,-0.015180006623268127,-0.01837579719722271,-0.008122635073959827
1695713156475431000,29.312430908203126,-0.008788425475358963,-0.01837579719722271,-0.012383690103888512
1695713156485493200,29.3224931640625,-0.007723161485046148,-0.01837579719722271,-0.011318426579236984
1695713156495555600,29.3325556640625,-0.00985368900001049,-0.008788425475358963,-0.008122635073959827
1695713156505592000,29.342592041015624,-0.015180006623268127,-0.0002663159102667123,-0.003861580742523074
1695713156515615500,29.352615478515624,-0.02157158963382244,0.00612526573240757,0.0035952648613601923
1695713156525483300,29.362483154296875,-0.029028434306383133,0.013582111336290836,0.009986846707761288
1695713156535600000,29.37260009765625,-0.032224226742982864,0.019973693415522575,0.0153131652623415
1695713156545717200,29.38271728515625,-0.031158961355686188,0.02210422046482563,0.01318263728171587
1695713156555783000,29.392782958984377,-0.027963170781731606,0.016777902841567993,0.006791055668145418
1695713156565799000,29.402798828125,-0.02157158963382244,0.007190529722720385,0.001464737462811172
1695713156575838500,29.41283837890625,-0.0141147430986166,-0.0002663159102667123,-0.0017310534603893757
1695713156585870300,29.422870361328126,-0.00985368900001049,-0.0002663159102667123,0.0003994738799519837
1695713156595886600,29.432886474609376,-0.007723161485046148,0.0050600022077560425,0.005725792143493891
1695713156605938000,29.44293798828125,-0.0034621069207787514,0.012516847811639309,0.00892158318310976
1695713156615979000,29.45297900390625,-0.001331579522229731,0.016777902841567993,0.0153131652623415
1695713156625995000,29.4629951171875,0.0018642114009708166,0.016777902841567993,0.01957421936094761
1695713156636008200,29.47300830078125,0.0050600022077560425,0.013582111336290836,0.01318263728171587
1695713156646028000,29.483028076171873,0.0050600022077560425,0.003994738683104515,0.004660528618842363
1695713156656067300,29.4930673828125,0.00612526573240757,-0.005592633970081806,-0.0006657897611148655
1695713156666106600,29.503106689453126,0.007190529722720385,-0.008788425475358963,-0.0017310534603893757
1695713156676146200,29.513146240234374,0.007190529722720385,-0.008788425475358963,-0.0017310534603893757
1695713156686185500,29.523185546875,0.008255792781710625,-0.006657897960394621,-0.0017310534603893757
1695713156696224800,29.533224853515627,0.011451584286987782,-0.0023968431632965803,0.0003994738799519837
1695713156706244600,29.54324462890625,0.010386320762336254,0.0018642114009708166,0.0025300011038780212
1695713156716227600,29.5532275390625,0.009321057237684727,0.007190529722720385,0.0035952648613601923
1695713156726143500,29.5631435546875,0.007190529722720385,0.012516847811639309,0.007856319658458233
1695713156736323000,29.573322998046876,0.002929474925622344,0.015712639316916466,0.00892158318310976
1695713156746395600,29.583395751953127,-0.0034621069207787514,0.015712639316916466,0.00892158318310976
1695713156756403500,29.593403564453126,-0.00985368900001049,0.015712639316916466,0.00892158318310976
1695713156766477000,29.60347705078125,-0.015180006623268127,0.01784316636621952,0.011052110232412815
1695713156776498400,29.61349853515625,-0.017310533672571182,0.018908429890871048,0.014247900806367397
1695713156786506200,29.62350634765625,-0.01837579719722271,0.018908429890871048,0.0153131652623415
1695713156796548900,29.633548828125,-0.016245270147919655,0.01784316636621952,0.0153131652623415
1695713156806596900,29.643596923828124,-0.011984216049313545,0.016777902841567993,0.0153131652623415
1695713156816604700,29.653604736328123,-0.006657897960394621,0.015712639316916466,0.012117373757064342
1695713156826615800,29.66361572265625,0.002929474925622344,0.011451584286987782,0.006791055668145418
1695713156836697900,29.67369775390625,0.012516847811639309,0.0007989477599039674,0.001464737462811172
1695713156846705700,29.68370556640625,0.023169483989477158,-0.006657897960394621,0.0003994738799519837
1695713156856713500,29.69371337890625,0.03275685757398605,-0.015180006623268127,-0.0017310534603893757
1695713156866723000,29.70372314453125,0.03488738462328911,-0.015180006623268127,-0.0006657897611148655
1695713156876740600,29.71374072265625,0.03488738462328911,-0.006657897960394621,0.001464737462811172
1695713156886758100,29.723758056640627,0.028495801612734795,-0.0023968431632965803,0.0003994738799519837
1695713156896775700,29.733775634765625,0.023169483989477158,-0.0023968431632965803,-0.005992108024656773
1695713156906793200,29.743793212890626,0.015712639316916466,-0.0002663159102667123,-0.010253162123262882
1695713156916810800,29.753810791015624,0.009321057237684727,0.00612526573240757,-0.011318426579236984
1695713156926828300,29.763828369140626,-0.0002663159102667123,0.008255792781710625,-0.010253162123262882
1695713156936845800,29.773845703125,-0.0034621069207787514,0.012516847811639309,-0.008122635073959827
1695713156946863400,29.78386328125,-0.005592633970081806,0.011451584286987782,-0.004926844500005245
1695713156956881000,29.793880859375,-0.00985368900001049,0.012516847811639309,-0.003861580742523074
1695713156966898400,29.8038984375,-0.0141147430986166,0.015712639316916466,0.004660528618842363
1695713156976990000,29.813989990234376,-0.017310533672571182,0.028495801612734795,0.01318263728171587
1695713156987081500,29.82408154296875,-0.02157158963382244,0.04234423115849495,0.020639482885599136
1695713156997173200,29.83417333984375,-0.02263685315847397,0.044474758207798004,0.02277000993490219
1695713157007194000,29.844194091796876,-0.027963170781731606,0.030626330524683,0.017443692311644554
1695713157017212000,29.8542119140625,-0.03328948840498924,0.019973693415522575,0.01318263728171587
1695713157027229200,29.864229248046875,-0.029028434306383133,0.009321057237684727,0.009986846707761288
1695713157037246700,29.874246826171873,-0.01837579719722271,0.0007989477599039674,0.005725792143493891
1695713157047264300,29.88426416015625,-0.005592633970081806,-0.00985368900001049,0.0025300011038780212
1695713157057281800,29.89428173828125,0.0050600022077560425,-0.020506324246525764,-0.0017310534603893757
1695713157067299300,29.90429931640625,0.012516847811639309,-0.03435475379228592,-0.008122635073959827
1695713157077316900,29.91431689453125,0.01784316636621952,-0.04287686198949814,-0.012383690103888512
1695713157087334400,29.92433447265625,0.024234747514128685,-0.04500738903880119,-0.012383690103888512
1695713157097352000,29.93435205078125,0.024234747514128685,-0.04500738903880119,-0.011318426579236984
1695713157107369500,29.944369384765626,0.019973693415522575,-0.04500738903880119,-0.012383690103888512
1695713157117417500,29.95441748046875,0.016777902841567993,-0.04607265070080757,-0.013448953628540039
1695713157127465200,29.96446533203125,0.009321057237684727,-0.04394212365150452,-0.013448953628540039
1695713157137513000,29.974512939453124,0.0018642114009708166,-0.036485280841588974,-0.011318426579236984
1695713157147560700,29.984560791015625,-0.00985368900001049,-0.027963170781731606,-0.004926844500005245
1695713157157608700,29.994608642578125,-0.02263685315847397,-0.011984216049313545,0.0003994738799519837
1695713157167656400,30.004656494140626,-0.032224226742982864,0.00612526573240757,0.0035952648613601923
1695713157177704200,30.0147041015625,-0.04181159660220146,0.025300011038780212,0.005725792143493891
1695713157187752000,30.024751953125,-0.04500738903880119,0.03488738462328911,0.006791055668145418
1695713157197800000,30.034800048828124,-0.04607265070080757,0.035952646285295486,0.009986846707761288
1695713157207847700,30.04484765625,-0.04287686198949814,0.029561065137386322,0.007856319658458233
1695713157217873400,30.054873291015625,-0.03861580789089203,0.01784316636621952,0.007856319658458233
1695713157227895000,30.06489501953125,-0.031158961355686188,0.009321057237684727,0.006791055668145418
1695713157237920800,30.074920654296875,-0.027963170781731606,0.007190529722720385,0.005725792143493891
1695713157247946500,30.084946533203127,-0.023702116683125496,0.010386320762336254,0.004660528618842363
1695713157257999000,30.0949990234375,-0.02263685315847397,0.010386320762336254,0.0025300011038780212
1695713157268024800,30.10502490234375,-0.02157158963382244,0.008255792781710625,-0.0006657897611148655
1695713157278076700,30.11507666015625,-0.01837579719722271,0.00612526573240757,-0.0006657897611148655
1695713157288110000,30.125110107421875,-0.0141147430986166,0.0018642114009708166,-0.0006657897611148655
1695713157298135800,30.1351357421875,-0.008788425475358963,-0.0034621069207787514,-0.002796316985040903
1695713157308188000,30.14518798828125,-0.0034621069207787514,-0.00985368900001049,-0.003861580742523074
1695713157318193000,30.15519287109375,0.0018642114009708166,-0.015180006623268127,-0.004926844500005245
1695713157328218600,30.165218505859375,0.008255792781710625,-0.013049479573965073,-0.003861580742523074
1695713157338253000,30.175253173828125,0.011451584286987782,-0.010918952524662018,-0.004926844500005245
1695713157348294700,30.185294677734376,0.018908429890871048,-0.007723161485046148,-0.003861580742523074
1695713157358320400,30.1953203125,0.023169483989477158,-0.008788425475358963,-0.005992108024656773
1695713157368345900,30.205345947265624,0.02636527456343174,-0.006657897960394621,-0.008122635073959827
1695713157378392300,30.215392333984376,0.023169483989477158,-0.006657897960394621,-0.009187898598611355
1695713157388420400,30.22542041015625,0.013582111336290836,-0.004527370445430279,-0.004926844500005245
1695713157398457900,30.235457763671874,0.009321057237684727,0.007190529722720385,0.004660528618842363
1695713157408495400,30.245495361328125,0.002929474925622344,0.016777902841567993,0.012117373757064342
1695713157418523400,30.2555234375,0.0018642114009708166,0.015712639316916466,0.011052110232412815
1695713157428551700,30.2655517578125,0.00612526573240757,0.009321057237684727,0.007856319658458233
1695713157438599200,30.27559912109375,0.009321057237684727,-0.0002663159102667123,0.0025300011038780212
1695713157448595000,30.285594970703126,0.014647374860942364,-0.010918952524662018,-0.003861580742523074
1695713157458623000,30.295623046875,0.015712639316916466,-0.016245270147919655,-0.011318426579236984
1695713157468664000,30.3056640625,0.015712639316916466,-0.01837579719722271,-0.015579480677843094
1695713157478732500,30.315732666015624,0.011451584286987782,-0.01837579719722271,-0.014514217153191566
1695713157488760600,30.325760498046876,0.007190529722720385,-0.016245270147919655,-0.012383690103888512
1695713157498777600,30.335777587890625,0.0050600022077560425,-0.013049479573965073,-0.004926844500005245
1695713157508812000,30.34581201171875,0.0007989477599039674,-0.0034621069207787514,0.001464737462811172
1695713157518840300,30.35584033203125,-0.0002663159102667123,-0.0002663159102667123,0.004660528618842363
1695713157528882200,30.365882080078126,-0.001331579522229731,0.0018642114009708166,0.004660528618842363
1695713157538910200,30.37591015625,-0.0002663159102667123,-0.001331579522229731,0.0025300011038780212
1695713157548938200,30.385938232421875,0.002929474925622344,-0.007723161485046148,-0.002796316985040903
1695713157558966300,30.39596630859375,0.003994738683104515,-0.015180006623268127,-0.0070573715493083
1695713157568994300,30.405994384765624,0.0018642114009708166,-0.01837579719722271,-0.008122635073959827
1695713157579022600,30.416022705078124,-0.004527370445430279,-0.015180006623268127,-0.010253162123262882
1695713157589050600,30.426050537109376,-0.011984216049313545,-0.004527370445430279,-0.005992108024656773
1695713157599078700,30.43607861328125,-0.017310533672571182,0.0050600022077560425,-0.0017310534603893757
1695713157609098800,30.4460986328125,-0.023702116683125496,0.012516847811639309,0.004660528618842363
1695713157618996700,30.455996826171877,-0.02583264373242855,0.012516847811639309,0.006791055668145418
1695713157629193200,30.466193115234375,-0.026897907257080078,0.011451584286987782,0.00892158318310976
1695713157639236900,30.47623681640625,-0.027963170781731606,0.008255792781710625,0.011052110232412815
1695713157649230800,30.48623095703125,-0.026897907257080078,0.00612526573240757,0.011052110232412815
1695713157659246800,30.496246826171873,-0.023702116683125496,0.0007989477599039674,0.009986846707761288
1695713157669328000,30.506327880859374,-0.020506324246525764,-0.0034621069207787514,0.007856319658458233
1695713157679343900,30.51634375,-0.020506324246525764,-0.008788425475358963,0.001464737462811172
1695713157689371400,30.526371337890627,-0.01837579719722271,-0.008788425475358963,-0.003861580742523074
1695713157699409400,30.536409423828125,-0.017310533672571182,-0.008788425475358963,-0.008122635073959827
1695713157709445600,30.546445556640624,-0.015180006623268127,-0.008788425475358963,-0.011318426579236984
1695713157719461600,30.556461669921877,-0.0141147430986166,-0.008788425475358963,-0.011318426579236984
1695713157729534700,30.56653466796875,-0.011984216049313545,-0.011984216049313545,-0.010253162123262882
1695713157739550500,30.576550537109377,-0.008788425475358963,-0.007723161485046148,-0.004926844500005245
1695713157749564200,30.586564208984374,-0.008788425475358963,0.0007989477599039674,0.0003994738799519837
1695713157759577600,30.59657763671875,-0.007723161485046148,0.008255792781710625,0.005725792143493891
1695713157769591300,30.60659130859375,-0.001331579522229731,0.011451584286987782,0.007856319658458233
1695713157779605000,30.61660498046875,0.00612526573240757,0.009321057237684727,0.009986846707761288
1695713157789618700,30.62661865234375,0.011451584286987782,0.002929474925622344,0.007856319658458233
1695713157799632400,30.63663232421875,0.02210422046482563,-0.004527370445430279,0.0035952648613601923
1695713157809646000,30.64664599609375,0.028495801612734795,-0.00985368900001049,-0.002796316985040903
1695713157819659800,30.65665966796875,0.03169159218668938,-0.02157158963382244,-0.010253162123262882
1695713157829673500,30.666673583984377,0.03488738462328911,-0.02263685315847397,-0.012383690103888512
1695713157839692300,30.6766923828125,0.028495801612734795,-0.020506324246525764,-0.012383690103888512
1695713157849725000,30.686724853515624,0.024234747514128685,-0.017310533672571182,-0.013448953628540039
1695713157859757800,30.6967578125,0.016777902841567993,-0.013049479573965073,-0.015579480677843094
1695713157869790500,30.70679052734375,0.008255792781710625,-0.011984216049313545,-0.015579480677843094
1695713157879823400,30.7168232421875,0.0007989477599039674,-0.008788425475358963,-0.015579480677843094
1695713157889856300,30.726856201171874,-0.004527370445430279,-0.007723161485046148,-0.012383690103888512
1695713157899889000,30.736888916015626,-0.010918952524662018,-0.005592633970081806,-0.003861580742523074
1695713157909921800,30.746921875,-0.015180006623268127,0.0007989477599039674,0.001464737462811172
1695713157919954400,30.756954345703125,-0.01837579719722271,0.008255792781710625,0.005725792143493891
1695713157929987300,30.7669873046875,-0.02157158963382244,0.014647374860942364,0.00892158318310976
1695713157940041700,30.777041748046877,-0.02583264373242855,0.021038956940174103,0.00892158318310976
