time,seconds_elapsed,z,y,x
1696082391993363500,0.061363525390625,-1.189702033996582,-0.6171708106994629,-0.5240448713302612
1696082392003363300,0.07136328125,-1.1977558135986328,-0.6016383171081543,-0.4992721974849701
1696082392013363500,0.081363525390625,-1.2506499290466309,-0.43890881538391113,-0.7677412033081055
1696082392023363300,0.09136328125,-1.1234865188598633,-0.32529139518737793,-1.2849701642990112
1696082392033363500,0.101363525390625,-0.9691591262817383,-0.26415371894836426,-1.587205410003662
1696082392043363300,0.11136328125,-1.017655372619629,-0.14445257186889648,-1.4295415878295898
1696082392053363500,0.121363525390625,-1.211113452911377,0.012006521224975586,-1.2518246173858643
1696082392063363300,0.13136328125,-1.633826732635498,0.10808277130126953,-1.2664340734481812
1696082392073363500,0.141363525390625,-1.4871973991394043,-0.1689603328704834,-1.2021327018737793
1696082392083363300,0.15136328125,-1.1659412384033203,-0.4855377674102783,-1.203668236732483
1696082392093363500,0.161363525390625,-0.7669591903686523,-0.6353275775909424,-1.1179847717285156
1696082392103363300,0.17136328125,-0.2570219039916992,-0.6497879028320312,-1.1412460803985596
1696082392113363500,0.181363525390625,0.0833749771118164,-0.6126551628112793,-1.2839635610580444
1696082392123363300,0.19136328125,0.27579784393310547,-0.5990159511566162,-1.234708309173584
1696082392133363500,0.201363525390625,0.34877777099609375,-0.6392629146575928,-1.2378456592559814
1696082392143363300,0.21136328125,0.5772190093994141,-0.6867237091064453,-1.125792384147644
1696082392153363500,0.221363525390625,0.5811185836791992,-0.944272518157959,-1.5276727676391602
1696082392163363300,0.23136328125,0.4956645965576172,-1.0383367538452148,-1.2303324937820435
1696082392173363500,0.241363525390625,0.43915557861328125,-0.9331569671630859,-1.502111554145813
1696082392183363300,0.25136328125,-0.060250282287597656,-0.8951561450958252,-1.4866431951522827
1696082392193363500,0.261363525390625,-0.27639007568359375,-0.886103630065918,-1.7404998540878296
1696082392203363300,0.27136328125,-0.46823978424072266,-0.9536550045013428,-2.1894707679748535
1696082392213363500,0.281363525390625,-0.6834163665771484,-1.1322352886199951,-2.464728355407715
1696082392223363300,0.29136328125,-0.5753936767578125,-1.2586231231689453,-2.691319465637207
1696082392233363500,0.301363525390625,-0.3568401336669922,-1.1875529289245605,-2.6296963691711426
1696082392243363300,0.31136328125,-0.10408782958984375,-1.1875102519989014,-2.491753101348877
1696082392253363500,0.321363525390625,0.012133598327636719,-1.4947774410247803,-2.550050735473633
1696082392263363300,0.33136328125,0.33275508880615234,-1.5352141857147217,-2.5164074897766113
1696082392273363500,0.341363525390625,0.8149261474609375,-1.379969596862793,-2.080575704574585
1696082392283363300,0.35136328125,1.4631147384643555,-1.0475752353668213,-1.8060789108276367
1696082392293363500,0.361363525390625,1.6420831680297852,-0.7221560478210449,-1.6970205307006836
1696082392303363300,0.37136328125,1.1964101791381836,-0.4939846992492676,-1.7414886951446533
1696082392313363500,0.381363525390625,0.1604766845703125,-0.16831731796264648,-1.8566932678222656
1696082392323363300,0.39136328125,-0.9569416046142578,-0.1175079345703125,-1.8755841255187988
1696082392333363500,0.401363525390625,-1.8555293083190918,-1.165449857711792,-1.4581613540649414
1696082392343363300,0.41136328125,-0.45220136642456055,-1.563391923904419,-1.9261865615844727
1696082392353363500,0.421363525390625,1.1085643768310547,-0.9959290027618408,-2.0583043098449707
1696082392363363300,0.43136328125,0.9519410133361816,-0.4482264518737793,-2.943535327911377
1696082392373363500,0.441363525390625,0.49420738220214844,-0.6439125537872314,-3.8071908950805664
1696082392383363300,0.45136328125,-0.03126382827758789,-0.9809613227844238,-5.351871490478516
1696082392393363500,0.461363525390625,0.317197322845459,-0.9948520660400391,-5.510859489440918
1696082392403363300,0.47136328125,-3.0423879623413086,-2.5824038982391357,-6.696847915649414
1696082392413363200,0.48136328125,-5.254306793212891,-4.671455383300781,-5.106780052185059
1696082392423363300,0.49136328125,-5.8643293380737305,-6.327301979064941,-4.100431442260742
1696082392433363200,0.50136328125,-5.565023899078369,-7.473977565765381,-4.271348476409912
1696082392443363300,0.51136328125,-4.612709999084473,-8.002657890319824,-4.73210334777832
1696082392453363200,0.52136328125,-4.108356475830078,-8.502537727355957,-5.340021133422852
1696082392463362800,0.53136279296875,-3.208683729171753,-9.086114883422852,-5.574514389038086
1696082392473363000,0.541363037109375,-1.6194161176681519,-9.386063575744629,-5.245049476623535
1696082392483362800,0.55136279296875,0.15273785591125488,-10.17888069152832,-5.058234214782715
1696082392493363000,0.561363037109375,1.553401231765747,-10.559223175048828,-4.815524101257324
1696082392503362800,0.57136279296875,2.1055784225463867,-10.246562957763672,-4.411317825317383
1696082392513363000,0.581363037109375,1.63155198097229,-9.390536308288574,-3.3047313690185547
1696082392523362800,0.59136279296875,0.8710262775421143,-8.308229446411133,-1.428575038909912
1696082392533363000,0.601363037109375,-0.06649255752563477,-7.406205177307129,0.6603527069091797
1696082392543362800,0.61136279296875,-0.7742054462432861,-6.827443599700928,3.040172576904297
1696082392553363000,0.621363037109375,-1.431621789932251,-6.442410469055176,5.141335487365723
1696082392563362800,0.63136279296875,-1.5075559616088867,-6.009829521179199,7.466303825378418
1696082392573362700,0.64136279296875,-1.2599594593048096,-5.81100606918335,10.150735855102539
1696082392583362800,0.65136279296875,-0.7026028633117676,-5.654241561889648,12.96926498413086
1696082392593362700,0.66136279296875,-0.21029019355773926,-5.065511226654053,15.35993766784668
1696082392603362800,0.67136279296875,0.23798322677612305,-4.032260894775391,17.198646545410156
1696082392613362700,0.68136279296875,0.7008163928985596,-3.3330376148223877,18.69231605529785
1696082392623362800,0.69136279296875,1.1941449642181396,-2.934033155441284,20.279264450073242
1696082392633362700,0.70136279296875,1.7435297966003418,-2.3186466693878174,22.031558990478516
1696082392643362800,0.71136279296875,2.2161216735839844,-1.5495281219482422,23.47068214416504
1696082392653362700,0.72136279296875,2.273682117462158,-0.9307794570922852,23.75402069091797
1696082392663362800,0.73136279296875,2.854013681411743,-1.0772705078125,22.21817398071289
1696082392673362700,0.74136279296875,3.2715446949005127,-0.7110333442687988,20.580371856689453
1696082392683362800,0.75136279296875,3.588178873062134,0.2221965789794922,18.97272491455078
1696082392693362700,0.76136279296875,4.02208137512207,0.870112419128418,16.36188316345215
1696082392703362800,0.77136279296875,4.31235408782959,1.303666591644287,13.004368782043457
1696082392713363000,0.781363037109375,3.564321756362915,1.8845040798187256,10.502095222473145
1696082392723362800,0.79136279296875,3.8172643184661865,2.2404470443725586,7.797849655151367
1696082392733363000,0.801363037109375,4.157378196716309,2.5541741847991943,5.425239562988281
1696082392743362800,0.81136279296875,4.496819019317627,2.648228645324707,2.6534624099731445
1696082392753363000,0.821363037109375,4.821603775024414,2.677417516708374,-0.12559795379638672
1696082392763363000,0.831363037109375,5.417567253112793,2.679622173309326,-2.599867820739746
1696082392773363200,0.84136328125,5.914004325866699,2.7107105255126953,-5.194086074829102
1696082392783363000,0.851363037109375,6.0828447341918945,3.169936180114746,-6.971545696258545
1696082392793363200,0.86136328125,6.390659332275391,3.6548590660095215,-8.36130428314209
1696082392803363000,0.871363037109375,6.816551208496094,3.881988048553467,-9.817388534545898
1696082392813363200,0.88136328125,7.2949934005737305,3.7671120166778564,-11.37979793548584
1696082392823363000,0.891363037109375,7.654947280883789,3.5400326251983643,-13.088871955871582
1696082392833363200,0.90136328125,7.769681930541992,3.329824924468994,-14.76655387878418
1696082392843363000,0.911363037109375,7.674654006958008,3.234452247619629,-15.958215713500977
1696082392853363200,0.92136328125,7.032833099365234,2.872311592102051,-16.51341438293457
1696082392863363000,0.931363037109375,6.779740810394287,2.981055736541748,-15.907804489135742
1696082392873363200,0.94136328125,6.430459022521973,2.8758013248443604,-14.389762878417969
1696082392883363000,0.951363037109375,5.948627948760986,2.3709235191345215,-12.506101608276367
1696082392893363200,0.96136328125,5.358099460601807,1.9727416038513184,-10.24361515045166
1696082392903363000,0.971363037109375,4.3814616203308105,1.6635539531707764,-7.919073104858398
1696082392913363200,0.98136328125,2.9578006267547607,1.2927792072296143,-6.205197334289551
1696082392923363000,0.991363037109375,1.2166578769683838,0.7834653854370117,-4.335026741027832
1696082392933363000,1.001363037109375,-0.7659211158752441,0.6630634069442749,-2.7173080444335938
1696082392943363000,1.011363037109375,-2.8939170837402344,1.1148113012313843,-0.5548286437988281
1696082392953363200,1.02136328125,-5.050148963928223,1.6300228834152222,2.3115644454956055
1696082392963363000,1.031363037109375,-6.380578994750977,1.2313288450241089,4.410848617553711
1696082392973363200,1.04136328125,-6.913500785827637,0.5477430820465088,5.49859619140625
1696082392983363000,1.051363037109375,-7.044793128967285,0.2154991626739502,5.615433692932129
1696082392993363200,1.06136328125,-7.204585075378418,0.32039690017700195,4.754878044128418
1696082393003363000,1.071363037109375,-6.892169952392578,1.0413858890533447,5.2243146896362305
1696082393013363200,1.08136328125,-5.368324279785156,1.5069307088851929,6.505634307861328
1696082393023362800,1.09136279296875,-3.254361867904663,1.5908690690994263,7.684955596923828
1696082393033362700,1.10136279296875,-1.029646873474121,1.3641164302825928,8.334327697753906
1696082393043362800,1.11136279296875,1.138746976852417,0.5234169960021973,8.638989448547363
1696082393053362700,1.12136279296875,5.0181097984313965,-1.283644437789917,13.891365051269531
1696082393063362800,1.13136279296875,4.166214466094971,-1.2874274253845215,16.993986129760742
1696082393073362700,1.14136279296875,-0.22739434242248535,-0.008756875991821289,14.281415939331055
1696082393083362800,1.15136279296875,0.29701995849609375,-0.08403134346008301,6.95839786529541
1696082393093362700,1.16136279296875,3.0750017166137695,-0.7170162200927734,1.6953763961791992
1696082393103362800,1.17136279296875,4.382055282592773,-1.6539099216461182,-1.162900447845459
1696082393113362700,1.18136279296875,3.2787461280822754,-3.661461353302002,-3.8267407417297363
1696082393123362800,1.19136279296875,1.1869537830352783,-2.7817611694335938,-1.989884853363037
1696082393133362700,1.20136279296875,2.711339235305786,-4.043296813964844,-2.7376480102539062
1696082393143362800,1.21136279296875,2.6039788722991943,-5.258477687835693,-2.6459999084472656
1696082393153362700,1.22136279296875,2.2582831382751465,-3.805760145187378,-2.9600696563720703
1696082393163363300,1.23136328125,1.9190889596939087,-2.7300260066986084,-3.0316367149353027
1696082393173363500,1.241363525390625,1.9678667783737183,-2.4961929321289062,-2.2682809829711914
1696082393183363300,1.25136328125,1.8830692768096924,-2.2258553504943848,-1.8550195693969727
1696082393193363500,1.261363525390625,2.2225780487060547,-1.670906662940979,-1.9016623497009277
1696082393203363300,1.27136328125,3.7264890670776367,-0.613682210445404,-3.9395909309387207
1696082393213363500,1.281363525390625,0.6443526744842529,-0.5149003863334656,-4.295145511627197
1696082393223363600,1.291363525390625,0.1751725673675537,1.7993634939193726,-7.672309875488281
1696082393233363700,1.30136376953125,5.4089789390563965,6.9122772216796875,-17.537647247314453
1696082393243363600,1.311363525390625,0.1806025505065918,3.3241562843322754,-6.673713684082031
1696082393253363500,1.321363525390625,-1.7225897312164307,0.3430708050727844,5.0865478515625
1696082393263363600,1.331363525390625,-6.701475620269775,-1.6571199893951416,17.062713623046875
1696082393273363200,1.34136328125,-10.364201545715332,-3.060257911682129,20.742101669311523
1696082393283363300,1.35136328125,-7.97326135635376,-0.3398471474647522,12.980488777160645
1696082393293363200,1.36136328125,-2.7847182750701904,2.1812477111816406,3.596771240234375
1696082393303363300,1.37136328125,0.7736150026321411,3.9521610736846924,-1.4987468719482422
1696082393313363200,1.38136328125,2.3402979373931885,4.599701404571533,-1.9353466033935547
1696082393323363800,1.39136376953125,2.7125296592712402,4.263360023498535,0.5109014511108398
1696082393333363700,1.40136376953125,1.376664638519287,3.6182243824005127,2.193753242492676
1696082393343363800,1.41136376953125,1.473783254623413,2.912700653076172,2.6031599044799805
1696082393353363700,1.42136376953125,1.5998125076293945,2.067192554473877,1.775832176208496
1696082393363363800,1.43136376953125,0.6064928770065308,3.313005208969116,2.312593460083008
1696082393373363700,1.44136376953125,3.376868724822998,2.5811548233032227,-1.2377891540527344
1696082393386808000,1.45480810546875,3.5012974739074707,2.2048773765563965,-5.484561920166016
1696082393396808000,1.464807861328125,1.368189811706543,0.8074319362640381,-8.547098159790039
1696082393406808000,1.47480810546875,-0.8062841892242432,-1.0283318758010864,-9.12197208404541
1696082393416808000,1.484807861328125,-2.6627230644226074,-2.060495138168335,-8.895069122314453
1696082393426808000,1.49480810546875,-5.116998672485352,-3.4372458457946777,-9.49187183380127
1696082393436808000,1.504807861328125,-6.118610382080078,-4.811497211456299,-10.9627046585083
1696082393446808000,1.51480810546875,-3.6105360984802246,-7.0818891525268555,-11.520835876464844
1696082393456808000,1.524807861328125,-1.5466885566711426,-6.653436183929443,-10.070291519165039
1696082393466807600,1.5348076171875,3.4089772701263428,-7.794666290283203,-6.985111236572266
1696082393476807400,1.544807373046875,2.5480599403381348,-8.53619384765625,-8.634001731872559
1696082393486807600,1.5548076171875,1.8366700410842896,-6.863180160522461,-10.104623794555664
1696082393496807400,1.564807373046875,-0.8278298377990723,-3.6962361335754395,-13.986346244812012
1696082393506807600,1.5748076171875,-1.0968117713928223,-6.210919380187988,-11.988473892211914
1696082393516807400,1.584807373046875,0.27839383482933044,-8.038406372070312,-12.101410865783691
1696082393526807600,1.5948076171875,0.6731510162353516,-7.507598400115967,-9.36385440826416
1696082393536807400,1.604807373046875,1.5771175622940063,-6.648174285888672,-6.493990898132324
1696082393546807600,1.6148076171875,1.4006612300872803,-6.32147216796875,-2.576716899871826
1696082393556807400,1.624807373046875,-1.112689733505249,-5.658572673797607,-1.5605874061584473
1696082393566807600,1.6348076171875,-1.643269419670105,-6.459817409515381,1.666877269744873
1696082393576807700,1.6448076171875,-1.4228359460830688,-7.026005744934082,7.236929416656494
1696082393586807800,1.654807861328125,-1.2266000509262085,-8.405396461486816,11.34360122680664
1696082393596807700,1.6648076171875,2.67368483543396,-10.490171432495117,14.446196556091309
1696082393606807600,1.6748076171875,5.222935676574707,-14.033838272094727,20.399314880371094
1696082393616807700,1.6848076171875,4.365868091583252,-11.874110221862793,18.88941764831543
1696082393626807600,1.6948076171875,4.548081874847412,-8.712322235107422,15.177014350891113
1696082393636807700,1.7048076171875,5.503188133239746,-5.591849327087402,9.756952285766602
1696082393646807600,1.7148076171875,4.7055182456970215,-2.638774871826172,4.193087577819824
1696082393656807700,1.7248076171875,2.605478048324585,-0.18760299682617188,0.6592323780059814
1696082393666807600,1.7348076171875,0.2274877279996872,1.735102653503418,-1.3851664066314697
1696082393676807700,1.7448076171875,-2.462299108505249,3.3093724250793457,-2.3341429233551025
1696082393686807600,1.7548076171875,-3.936694860458374,3.813929557800293,-2.8823225498199463
1696082393696808000,1.764807861328125,-3.399425745010376,4.0724873542785645,-2.8483147621154785
1696082393706807800,1.774807861328125,-2.6077075004577637,4.238307476043701,-3.0277976989746094
1696082393716808000,1.784807861328125,-1.8093750476837158,4.239076137542725,-3.566847324371338
1696082393726807800,1.794807861328125,-1.2974079847335815,4.221864700317383,-3.8006415367126465
1696082393736808000,1.804807861328125,-0.81208336353302,4.2762131690979,-3.8431570529937744
1696082393746807800,1.814807861328125,0.09870749711990356,4.213081359863281,-3.924936056137085
1696082393756808000,1.824807861328125,1.0367255210876465,4.081240177154541,-3.878875970840454
1696082393766807800,1.834807861328125,1.3733479976654053,4.014016628265381,-3.589431047439575
1696082393776808000,1.844807861328125,0.7487626671791077,4.169428825378418,-3.1116864681243896
1696082393786807800,1.854807861328125,-0.49223852157592773,4.461834907531738,-2.0293993949890137
1696082393796808000,1.864807861328125,-0.5894711017608643,4.6544013023376465,-1.3652081489562988
1696082393806807800,1.874807861328125,0.08204817771911621,5.03358268737793,-0.9168672561645508
1696082393816808000,1.884807861328125,0.9417518377304077,4.202043056488037,-0.8174781799316406
1696082393826807800,1.894807861328125,1.049298882484436,4.076674461364746,-0.6600167751312256
1696082393836808000,1.904807861328125,0.4850757122039795,1.3545637130737305,1.1288843154907227
1696082393846807800,1.914807861328125,0.925360918045044,-3.428415298461914,1.9018089771270752
1696082393856808000,1.924807861328125,0.6270692348480225,-8.041561126708984,2.342775344848633
1696082393866807800,1.934807861328125,0.6993169784545898,-10.758803367614746,3.6503357887268066
1696082393876808000,1.944807861328125,-0.09749531745910645,-13.886120796203613,3.9172229766845703
1696082393886807800,1.954807861328125,-2.588106155395508,-17.717105865478516,3.341132164001465
1696082393896808000,1.964807861328125,-4.4173736572265625,-18.418689727783203,3.3267226219177246
1696082393906807800,1.974807861328125,-2.245168447494507,-13.54610538482666,1.0395021438598633
1696082393916808000,1.984807861328125,0.3728904724121094,-7.206494331359863,-2.4343409538269043
1696082393926807800,1.994807861328125,1.6990941762924194,-2.704958915710449,-4.146172046661377
1696082393936808000,2.004807861328125,2.4965767860412598,0.46451282501220703,-4.8380022048950195
1696082393946807800,2.014807861328125,3.5145063400268555,2.5548901557922363,-4.999578475952148
1696082393956808000,2.024807861328125,4.563691139221191,3.693554401397705,-4.3539533615112305
1696082393966808000,2.03480810546875,4.60258674621582,3.9441184997558594,-3.513303279876709
1696082393976808000,2.044807861328125,3.541320323944092,3.4470415115356445,-2.5670337677001953
1696082393986808000,2.05480810546875,2.3582653999328613,2.3688321113586426,-1.5851173400878906
1696082393996808000,2.064807861328125,1.2816423177719116,1.14471435546875,-0.9132176041603088
1696082394006808000,2.07480810546875,0.5539560317993164,0.16122817993164062,-0.5677890777587891
1696082394016808000,2.084807861328125,0.06898975372314453,-0.38619518280029297,-0.32706165313720703
1696082394026808000,2.09480810546875,-0.34008169174194336,-0.7227630615234375,-0.16588544845581055
1696082394036808000,2.104807861328125,-0.599318265914917,-0.8721733093261719,-0.04754471778869629
1696082394046808000,2.11480810546875,-0.8353762626647949,-0.8050174713134766,0.04936861991882324
1696082394056808000,2.124807861328125,-0.9390468597412109,-0.6086807250976562,0.3890261650085449
1696082394066808000,2.13480810546875,-0.7982583045959473,-0.3502006530761719,0.7803617715835571
1696082394076808000,2.144807861328125,-0.5100963115692139,-0.15524959564208984,0.9604499340057373
1696082394086808000,2.15480810546875,-0.14400243759155273,0.09461212158203125,0.8937807083129883
1696082394096808000,2.164807861328125,0.17955517768859863,0.3411226272583008,0.8086003065109253
1696082394106808000,2.17480810546875,0.40428900718688965,0.4726104736328125,0.8086085319519043
1696082394116808000,2.184807861328125,0.569304347038269,0.4627561569213867,0.7618502378463745
1696082394126808000,2.19480810546875,0.7552493810653687,0.39040660858154297,0.6791415214538574
1696082394136808000,2.204807861328125,0.8568589687347412,0.2841529846191406,0.5990017652511597
1696082394146808000,2.21480810546875,0.9122042655944824,0.2159585952758789,0.49598824977874756
1696082394156808000,2.224807861328125,0.789460301399231,0.16241073608398438,0.39585578441619873
1696082394166808000,2.23480810546875,0.5988973379135132,0.15736865997314453,0.20654511451721191
1696082394176808000,2.244807861328125,0.31300175189971924,0.2393350601196289,0.03994643688201904
1696082394186808000,2.25480810546875,0.04923200607299805,0.3173389434814453,-0.014808177947998047
1696082394196808000,2.264807861328125,-0.0875554084777832,0.3959369659423828,0.007522940635681152
1696082394206808000,2.27480810546875,-0.07508993148803711,0.43379783630371094,0.17456936836242676
1696082394216808000,2.284807861328125,0.0457453727722168,0.35628414154052734,0.3911893367767334
1696082394226808000,2.29480810546875,0.2076091766357422,0.18259143829345703,0.6474658250808716
1696082394236808000,2.304807861328125,0.3114408254623413,0.01575469970703125,0.8685061931610107
1696082394246808000,2.31480810546875,0.26707708835601807,-0.09861278533935547,0.9497429132461548
1696082394256808000,2.324807861328125,0.11660599708557129,-0.19397830963134766,0.9665175676345825
1696082394266807800,2.334807861328125,-0.0678708553314209,-0.3255348205566406,0.9518362283706665
1696082394276808000,2.344807861328125,-0.19207000732421875,-0.41931724548339844,0.8264032602310181
1696082394286807800,2.354807861328125,-0.24531984329223633,-0.4515829086303711,0.5713236331939697
1696082394296808000,2.364807861328125,-0.17421865463256836,-0.37711238861083984,0.2266150712966919
1696082394306807800,2.374807861328125,-0.021561861038208008,-0.2556886672973633,-0.06309497356414795
1696082394316808000,2.384807861328125,0.17187118530273438,-0.24268817901611328,-0.2912099361419678
1696082394326807800,2.394807861328125,0.3459736108779907,-0.3091106414794922,-0.44661885499954224
1696082394336808000,2.404807861328125,0.516432523727417,-0.4425640106201172,-0.595161497592926
1696082394346807800,2.414807861328125,0.6430093050003052,-0.48946285247802734,-0.7446626424789429
1696082394356808000,2.424807861328125,0.7336273193359375,-0.5834360122680664,-0.8541861176490784
1696082394366807800,2.434807861328125,0.7499189376831055,-0.5496044158935547,-0.9303139448165894
1696082394376808000,2.444807861328125,0.7393269538879395,-0.4645042419433594,-1.0401965379714966
1696082394386807800,2.454807861328125,0.6591976881027222,-0.3018531799316406,-1.095134973526001
1696082394396808000,2.464807861328125,0.514467716217041,-0.15495586395263672,-1.0607211589813232
1696082394406807800,2.474807861328125,0.38931071758270264,-0.016605377197265625,-1.0223510265350342
1696082394416808000,2.484807861328125,0.38777244091033936,-0.013946533203125,-1.0061825513839722
1696082394426807800,2.494807861328125,0.1778092384338379,0.08746719360351562,-0.7320281863212585
1696082394436808000,2.504807861328125,0.1023557186126709,0.0886993408203125,-0.5617876052856445
1696082394446808000,2.51480810546875,0.006054878234863281,0.10678863525390625,-0.4009941816329956
1696082394456808000,2.524807861328125,-0.007520198822021484,0.2132587432861328,-0.23170173168182373
1696082394466808000,2.53480810546875,-0.004422187805175781,0.42926788330078125,-0.11240220069885254
1696082394476808000,2.544807861328125,0.07885217666625977,0.6131353378295898,-0.0007942914962768555
1696082394486808000,2.55480810546875,0.25073671340942383,0.757415771484375,0.0625159740447998
1696082394496808000,2.564807861328125,0.34407973289489746,0.7206897735595703,0.18268287181854248
1696082394506808000,2.57480810546875,0.3725113868713379,0.6899394989013672,0.1925969123840332
1696082394516808000,2.584807861328125,0.41747474670410156,0.6990642547607422,0.10777008533477783
1696082394526807800,2.594807861328125,0.4201486110687256,0.7220134735107422,0.008893251419067383
1696082394536808000,2.604807861328125,0.4118044376373291,0.7468414306640625,-0.0768589973449707
1696082394546807800,2.614807861328125,0.45625758171081543,0.7254505157470703,-0.11935758590698242
1696082394556808000,2.624807861328125,0.6148260831832886,0.6742687225341797,-0.13685309886932373
1696082394566807800,2.634807861328125,0.8185112476348877,0.5763778686523438,-0.11491626501083374
1696082394576808000,2.644807861328125,1.0353732109069824,0.5061054229736328,-0.12601560354232788
1696082394586807800,2.654807861328125,1.1969798803329468,0.44220542907714844,-0.19913357496261597
1696082394596808000,2.664807861328125,1.3624379634857178,0.4112129211425781,-0.24535119533538818
1696082394606807800,2.674807861328125,1.5574663877487183,0.3271913528442383,-0.2587621212005615
1696082394616808000,2.684807861328125,1.7651972770690918,0.26920318603515625,-0.2290014624595642
1696082394626807800,2.694807861328125,2.0161805152893066,0.14167404174804688,-0.20580953359603882
1696082394636808000,2.704807861328125,2.253000020980835,-0.03626728057861328,-0.15560191869735718
1696082394646807800,2.714807861328125,2.4847192764282227,-0.2669992446899414,-0.10284620523452759
1696082394656808000,2.724807861328125,2.7803401947021484,-0.6078395843505859,0.021486103534698486
1696082394666807800,2.734807861328125,3.213358163833618,-1.0059375762939453,0.1720009446144104
1696082394676808000,2.744807861328125,3.862600088119507,-1.2984075546264648,0.37497127056121826
1696082394686807800,2.754807861328125,4.637095928192139,-1.4350547790527344,0.6468299031257629
1696082394696808000,2.764807861328125,5.425682067871094,-1.4025888442993164,1.0106738805770874
1696082394706807800,2.774807861328125,6.009984016418457,-1.3479204177856445,1.5041826963424683
1696082394716808000,2.784807861328125,6.265486717224121,-1.295760154724121,2.1066172122955322
1696082394726807800,2.794807861328125,6.249181747436523,-1.3902807235717773,2.761186122894287
1696082394736808000,2.804807861328125,5.996442794799805,-1.5881643295288086,3.4307165145874023
1696082394746807800,2.814807861328125,5.747652053833008,-1.8203973770141602,3.9573750495910645
1696082394756808000,2.824807861328125,5.80858039855957,-1.9288873672485352,4.198245525360107
1696082394766807800,2.834807861328125,6.3188581466674805,-1.9347686767578125,4.0950422286987305
1696082394776808000,2.844807861328125,7.0006608963012695,-2.086080551147461,4.077991962432861
1696082394786807800,2.854807861328125,7.318476676940918,-2.760496139526367,4.481238842010498
1696082394796808000,2.864807861328125,7.0226616859436035,-3.495760917663574,4.989459037780762
1696082394806807800,2.874807861328125,6.10781192779541,-3.658514976501465,5.2923970222473145
1696082394816808000,2.884807861328125,4.9597368240356445,-3.171698570251465,5.4616875648498535
1696082394826807800,2.894807861328125,3.8337111473083496,-2.641537666320801,5.538496971130371
1696082394836808000,2.904807861328125,2.880481004714966,-2.5173215866088867,5.610063076019287
1696082394846807800,2.914807861328125,2.2028262615203857,-2.701566696166992,5.385890483856201
1696082394856808000,2.924807861328125,1.789705753326416,-3.2990121841430664,4.689635753631592
1696082394866807800,2.934807861328125,1.0869972705841064,-3.880873680114746,3.2066454887390137
1696082394876808000,2.944807861328125,0.34376060962677,-4.471480369567871,1.407543420791626
1696082394886807800,2.954807861328125,-0.5323804616928101,-4.819466590881348,-0.11120659112930298
1696082394896808000,2.964807861328125,-1.350364327430725,-4.9678449630737305,-1.4115791320800781
1696082394906807800,2.974807861328125,-1.9630825519561768,-4.874032974243164,-2.4397199153900146
1696082394916808000,2.984807861328125,-2.6305480003356934,-4.459952354431152,-2.8603339195251465
1696082394926807800,2.994807861328125,-3.2874507904052734,-3.924811363220215,-3.1511073112487793
1696082394936808000,3.004807861328125,-3.436495542526245,-3.351832389831543,-3.478438138961792
1696082394946807800,3.014807861328125,-3.2018799781799316,-2.952157974243164,-3.3151767253875732
1696082394956808000,3.024807861328125,-2.6791563034057617,-2.4696273803710938,-2.719989776611328
1696082394966807800,3.034807861328125,-1.890112042427063,-1.874176025390625,-2.2747764587402344
1696082394976808000,3.044807861328125,-1.5020493268966675,-1.2038707733154297,-1.7554324865341187
1696082394986807800,3.054807861328125,-1.1238219738006592,-0.6523046493530273,-0.9038035869598389
1696082394996808000,3.064807861328125,-0.5848504900932312,-0.20487403869628906,-0.2544584274291992
1696082395006807800,3.074807861328125,-0.048735737800598145,0.2625274658203125,-0.3842928409576416
1696082395016808000,3.084807861328125,0.0048558712005615234,0.6704683303833008,-0.5938293933868408
1696082395026807800,3.094807861328125,-1.1336312294006348,0.9463644027709961,-0.8644170761108398
1696082395036808000,3.104807861328125,-2.4418869018554688,1.252854347229004,-1.1942243576049805
1696082395046807800,3.114807861328125,-3.347728729248047,1.4459266662597656,-1.2483760118484497
1696082395056808000,3.124807861328125,-3.430067300796509,1.4743261337280273,-1.4288356304168701
1696082395066807800,3.134807861328125,-2.7202775478363037,1.580721378326416,-1.4959242343902588
1696082395076808000,3.144807861328125,-2.0159621238708496,1.6647539138793945,-1.6350102424621582
1696082395086807800,3.154807861328125,-2.087246894836426,1.7459921836853027,-1.8672027587890625
1696082395096808000,3.164807861328125,-2.6159350872039795,1.7188119888305664,-2.227891206741333
1696082395106807800,3.174807861328125,-3.1306090354919434,1.630091667175293,-2.8385753631591797
1696082395116808000,3.184807861328125,-3.448901653289795,1.4738445281982422,-3.4151246547698975
1696082395126807800,3.194807861328125,-3.3811769485473633,1.354753017425537,-3.9198269844055176
1696082395136808000,3.204807861328125,-3.189894676208496,1.266923427581787,-4.3058624267578125
1696082395146807800,3.214807861328125,-3.1367263793945312,1.2563648223876953,-4.58919620513916
1696082395156808000,3.224807861328125,-3.283766746520996,1.3091912269592285,-4.776800155639648
1696082395166807800,3.234807861328125,-3.553931474685669,1.5095252990722656,-4.938512802124023
1696082395176808000,3.244807861328125,-3.6975340843200684,1.9082989692687988,-4.9685869216918945
1696082395186807800,3.254807861328125,-3.599407196044922,2.35567569732666,-4.936374664306641
1696082395196808000,3.264807861328125,-3.3913400173187256,2.744527816772461,-4.845120429992676
1696082395206807800,3.274807861328125,-3.174689292907715,3.0986580848693848,-4.671301364898682
1696082395216808000,3.284807861328125,-2.9134011268615723,3.3697614669799805,-4.369142055511475
1696082395226808000,3.29480810546875,-2.540353536605835,3.5915493965148926,-4.060502529144287
1696082395236808000,3.304807861328125,-2.0092899799346924,3.728245258331299,-3.5276708602905273
1696082395246808000,3.31480810546875,-1.3189280033111572,3.696599006652832,-2.8274168968200684
1696082395256808000,3.324807861328125,-0.6230405569076538,3.3862671852111816,-1.91633939743042
1696082395266807800,3.334807861328125,0.1715691089630127,2.7581944465637207,-1.0064482688903809
1696082395276808000,3.344807861328125,1.260995864868164,1.9308762550354004,0.03332209587097168
1696082395286807800,3.354807861328125,2.3742728233337402,1.108769416809082,1.148493766784668
1696082395296808000,3.364807861328125,3.044480085372925,0.534092903137207,2.1748080253601074
1696082395306807800,3.374807861328125,3.338608741760254,0.12628650665283203,3.3596384525299072
1696082395316808000,3.384807861328125,3.866832971572876,-0.2703886032104492,4.606940746307373
1696082395326807800,3.394807861328125,5.0237226486206055,-0.893305778503418,5.436878204345703
1696082395336807700,3.4048076171875,5.806717395782471,-1.9282817840576172,5.396789073944092
1696082395346807600,3.4148076171875,5.485735893249512,-3.073580741882324,4.886614799499512
1696082395356807700,3.4248076171875,5.713582992553711,-4.042276382446289,4.551396369934082
1696082395366807600,3.4348076171875,5.976022720336914,-4.347623825073242,4.127166271209717
1696082395376807700,3.4448076171875,4.807621002197266,-3.3171396255493164,2.63451886177063
1696082395386807600,3.4548076171875,3.0049495697021484,-1.439164161682129,0.8936805725097656
1696082395396807700,3.4648076171875,1.6283798217773438,0.5990514755249023,-0.28123998641967773
1696082395406807600,3.4748076171875,1.2266476154327393,1.163325309753418,-1.075340747833252
1696082395416807700,3.4848076171875,1.3356707096099854,0.27857398986816406,-1.414075493812561
1696082395426807600,3.4948076171875,1.1832746267318726,-0.5831727981567383,-1.8865127563476562
1696082395436807700,3.5048076171875,0.2760152816772461,-1.7567224502563477,-2.640424966812134
1696082395446807800,3.514807861328125,-1.2655153274536133,-3.4427385330200195,-3.147622585296631
1696082395456807700,3.5248076171875,-2.1869797706604004,-4.930267333984375,-3.4616708755493164
1696082395466807800,3.534807861328125,-1.6792137622833252,-5.891382217407227,-3.603696346282959
1696082395476807700,3.5448076171875,-0.015516877174377441,-6.601221084594727,-3.227104425430298
1696082395486807800,3.554807861328125,-0.6119688153266907,-6.0196332931518555,-3.055392265319824
1696082395496807700,3.5648076171875,-1.3369793891906738,-4.217130661010742,-3.004835367202759
1696082395506807800,3.574807861328125,-2.6906654834747314,-1.611466407775879,-3.587411403656006
1696082395516807700,3.5848076171875,-4.431454658508301,1.3560209274291992,-4.696961402893066
1696082395526807800,3.594807861328125,-6.212946891784668,3.9598307609558105,-5.859231948852539
1696082395536807700,3.6048076171875,-7.570348739624023,5.341280460357666,-6.50590705871582
1696082395546807800,3.614807861328125,-8.171624183654785,5.629843711853027,-6.074791431427002
1696082395556807700,3.6248076171875,-7.487375259399414,4.646001815795898,-5.0146307945251465
1696082395566807800,3.634807861328125,-6.104887962341309,3.0777153968811035,-3.9250197410583496
1696082395576807700,3.6448076171875,-4.884548664093018,1.6426925659179688,-3.498262882232666
1696082395586807800,3.654807861328125,-4.181541442871094,0.28616809844970703,-3.0743517875671387
1696082395596807700,3.6648076171875,-3.766613006591797,-0.8842248916625977,-2.571254014968872
1696082395606807800,3.674807861328125,-3.3698365688323975,-1.7231578826904297,-1.8034701347351074
1696082395616807700,3.6848076171875,-2.7651240825653076,-2.008441925048828,-0.671406626701355
1696082395626807800,3.694807861328125,-1.3365671634674072,-1.9514751434326172,0.7240524291992188
1696082395636808000,3.704807861328125,1.0192840099334717,-1.6107635498046875,2.1068644523620605
1696082395646807800,3.714807861328125,3.2681827545166016,-1.1534948348999023,3.0358099937438965
1696082395656808000,3.724807861328125,4.618993282318115,-0.38252925872802734,3.2723758220672607
1696082395666807800,3.734807861328125,4.771572113037109,0.5108642578125,2.741921901702881
1696082395676808000,3.744807861328125,3.764871597290039,1.0467290878295898,1.9007482528686523
1696082395686808000,3.75480810546875,2.2306504249572754,1.3000049591064453,0.9045467376708984
1696082395696808000,3.764807861328125,0.7665671706199646,0.964503288269043,0.43265557289123535
1696082395706808000,3.77480810546875,-0.21716994047164917,0.3861265182495117,0.08491086959838867
1696082395716808000,3.784807861328125,-0.7614163756370544,0.02376842498779297,-0.29707133769989014
1696082395726808000,3.79480810546875,-1.012524127960205,-0.1473684310913086,-0.622763454914093
1696082395736808000,3.804807861328125,-1.0135431289672852,-0.027062416076660156,-0.928151547908783
1696082395746807800,3.814807861328125,-0.7537213563919067,0.24332904815673828,-1.131111741065979
1696082395756808000,3.824807861328125,-0.5230282545089722,0.46051025390625,-1.047861099243164
1696082395766807800,3.834807861328125,-0.371715784072876,0.4666128158569336,-0.8463876843452454
1696082395776808000,3.844807861328125,-0.23725688457489014,0.4220714569091797,-0.5381574034690857
1696082395786807800,3.854807861328125,-0.16528356075286865,0.3556671142578125,-0.26560407876968384
1696082395796808000,3.864807861328125,-0.020211100578308105,0.3964815139770508,0.05752921104431152
1696082395806807800,3.874807861328125,0.17142713069915771,0.4845619201660156,0.3805481791496277
1696082395816808000,3.884807861328125,0.47341054677963257,0.5600156784057617,0.7375192046165466
1696082395826807800,3.894807861328125,0.6555022597312927,0.5726289749145508,0.9252234697341919
1696082395836808000,3.904807861328125,0.7454968094825745,0.5321455001831055,0.8395714163780212
1696082395846807800,3.914807861328125,0.7563678622245789,0.3668050765991211,0.5858629941940308
1696082395856808000,3.924807861328125,0.6961907744407654,-0.016702651977539062,0.368044912815094
1696082395866807800,3.934807861328125,0.7401198148727417,-0.4246683120727539,0.18319803476333618
1696082395876808000,3.944807861328125,1.0275037288665771,-0.6228532791137695,-0.07084053754806519
1696082395886807800,3.954807861328125,1.6511130332946777,-0.6211614608764648,-0.28762561082839966
1696082395896808000,3.964807861328125,2.610167980194092,-0.5683050155639648,-0.3232267200946808
1696082395906807800,3.974807861328125,3.9145686626434326,-0.44565296173095703,-0.19564218819141388
1696082395916808000,3.984807861328125,5.069832801818848,-0.30588722229003906,0.3154989182949066
1696082395926807800,3.994807861328125,5.553808212280273,-0.2822408676147461,1.2063180208206177
1696082395936808000,4.004807861328125,5.056364059448242,-0.33377838134765625,2.2935094833374023
1696082395946807800,4.014807861328125,3.850048780441284,-0.45287322998046875,3.3261361122131348
1696082395956808000,4.024807861328125,2.4184839725494385,-0.6524105072021484,4.221932411193848
1696082395966774500,4.0347744140625,1.3501368761062622,-0.9067296981811523,5.034648418426514
1696082395976741400,4.044741455078125,0.5141583681106567,-1.304220199584961,5.803606986999512
1696082395986708000,4.0547080078125,0.10620379447937012,-1.6629505157470703,6.721782207489014
1696082395996674600,4.064674560546875,0.3520395755767822,-1.841360092163086,7.512229919433594
1696082396006641200,4.07464111328125,1.4563820362091064,-1.6951723098754883,7.810665130615234
1696082396016608000,4.08460791015625,2.9010367393493652,-1.8522672653198242,7.621384143829346
1696082396026574600,4.09457470703125,4.05100154876709,-2.480229377746582,7.164975166320801
1696082396036541200,4.104541259765625,4.785340309143066,-2.98268985748291,6.379394054412842
1696082396046507800,4.1145078125,4.784970283508301,-2.9798173904418945,6.333977699279785
1696082396056474600,4.124474609375,5.300520420074463,-3.586721420288086,4.650087356567383
1696082396066441200,4.134441162109375,5.402437686920166,-3.7970457077026367,3.769054889678955
1696082396076407800,4.14440771484375,5.811007976531982,-3.3322525024414062,2.268674612045288
1696082396086374700,4.154374755859375,6.439301490783691,-2.7973365783691406,0.8693152666091919
1696082396096341200,4.16434130859375,6.800472259521484,-2.6128768920898438,0.015639759600162506
1696082396106307800,4.174307861328125,5.788026809692383,-2.880110740661621,-0.45735448598861694
1696082396116274700,4.184274658203125,3.825383424758911,-3.283806800842285,-0.8369322419166565
1696082396126241300,4.1942412109375,1.4867262840270996,-3.695408821105957,-1.7057147026062012
1696082396136208000,4.204207763671875,-0.43017613887786865,-4.253354072570801,-2.6124427318573
1696082396146174500,4.214174560546875,-1.6387953758239746,-5.094876289367676,-3.114060878753662
1696082396156141300,4.224141357421875,-3.3159332275390625,-5.734353065490723,-3.436149835586548
1696082396166108000,4.23410791015625,-4.861865997314453,-5.724509239196777,-3.74351167678833
1696082396176074500,4.244074462890625,-5.387710094451904,-5.160008430480957,-4.16190242767334
1696082396186041300,4.254041259765625,-5.352302551269531,-4.257392883300781,-4.074641704559326
1696082396196008000,4.264008056640625,-3.920233964920044,-3.321643829345703,-3.5322625637054443
1696082396205974500,4.273974609375,-3.460681200027466,-2.696042060852051,-2.3575944900512695
1696082396215941000,4.283941162109375,-1.974869728088379,-2.0373830795288086,-1.3388187885284424
1696082396225908000,4.293907958984375,-0.3062547445297241,-1.5163307189941406,-0.1386873722076416
1696082396235874600,4.30387451171875,0.14843428134918213,-1.1426582336425781,0.6766958236694336
1696082396245841200,4.313841064453125,0.12617278099060059,-0.7163200378417969,0.6861927509307861
1696082396255808000,4.32380810546875,-0.49215400218963623,-0.21018218994140625,0.09396576881408691
1696082396265808000,4.333807861328125,-1.5282485485076904,0.2275676727294922,-0.3885984420776367
1696082396275808000,4.34380810546875,-2.463792324066162,0.668126106262207,-1.0348076820373535
1696082396285807900,4.353807861328125,-2.79811692237854,1.0916814804077148,-1.818211317062378
1696082396295808000,4.36380810546875,-2.9271159172058105,1.4086780548095703,-2.6044528484344482
1696082396305808000,4.373807861328125,-3.3711650371551514,1.58585786819458,-3.1138076782226562
1696082396315808000,4.38380810546875,-3.512279510498047,1.8176164627075195,-3.553842782974243
1696082396325807900,4.393807861328125,-3.3095085620880127,2.13985538482666,-4.120860576629639
1696082396335808000,4.40380810546875,-3.257274627685547,2.411832809448242,-4.644382476806641
1696082396345808000,4.413807861328125,-3.45246958732605,2.5516796112060547,-5.03179931640625
1696082396355808000,4.42380810546875,-3.709552764892578,2.5710525512695312,-5.2033915519714355
1696082396365807900,4.433807861328125,-3.759695053100586,2.5101728439331055,-5.2285614013671875
1696082396375807700,4.443807861328125,-3.8785295486450195,2.430448532104492,-5.068625450134277
1696082396385808000,4.453807861328125,-3.990009307861328,2.3663158416748047,-4.886415004730225
1696082396395807700,4.463807861328125,-4.1363725662231445,2.356576919555664,-4.80850076675415
1696082396405807900,4.473807861328125,-4.377993106842041,2.427621364593506,-4.963048934936523
1696082396415807700,4.483807861328125,-4.662878513336182,2.512848377227783,-5.333796501159668
1696082396425808000,4.493807861328125,-4.832738399505615,2.68751859664917,-5.796633720397949
1696082396435808000,4.50380810546875,-4.810929298400879,2.9674739837646484,-6.130547046661377
1696082396445807900,4.513807861328125,-4.525610446929932,3.363370418548584,-6.373636722564697
1696082396455808000,4.52380810546875,-3.9961323738098145,3.8253822326660156,-6.532661437988281
1696082396465808000,4.533807861328125,-3.1563665866851807,4.190186977386475,-6.671006679534912
1696082396475808000,4.54380810546875,-2.286618709564209,4.338412284851074,-6.423526763916016
1696082396485807900,4.553807861328125,-1.3793915510177612,4.136074066162109,-5.312416076660156
1696082396495808000,4.56380810546875,-0.3445925712585449,3.5646119117736816,-3.293041229248047
1696082396505808000,4.573807861328125,1.2854115962982178,2.582359790802002,-0.9637420177459717
1696082396515808000,4.58380810546875,3.2117223739624023,1.018355369567871,1.3852696418762207
1696082396525807900,4.593807861328125,4.62154483795166,-0.8667593002319336,3.8859639167785645
1696082396535808000,4.60380810546875,4.451645374298096,-2.718076705932617,5.73682975769043
1696082396545808000,4.613807861328125,3.9388349056243896,-3.9739274978637695,6.843630790710449
1696082396555808000,4.62380810546875,4.064661026000977,-4.205650329589844,7.060328960418701
1696082396565807900,4.633807861328125,5.271113395690918,-3.820248603820801,7.171489715576172
1696082396575808000,4.64380810546875,5.991596698760986,-3.1780052185058594,7.401832580566406
1696082396585808000,4.653807861328125,5.476739883422852,-2.4625940322875977,6.089942932128906
1696082396595808000,4.66380810546875,5.361952781677246,-2.2221860885620117,4.203958034515381
1696082396605807900,4.673807861328125,5.726353645324707,-2.2785091400146484,2.4880144596099854
1696082396615808000,4.68380810546875,4.206909656524658,-1.390639305114746,0.9455957412719727
1696082396625808000,4.693807861328125,2.3532044887542725,0.5033550262451172,-0.4030463695526123
1696082396635808000,4.70380810546875,0.8202309608459473,2.0642271041870117,-2.01981258392334
1696082396645807900,4.713807861328125,0.1784954071044922,1.4532432556152344,-2.9092206954956055
1696082396655808000,4.72380810546875,0.005255937576293945,-0.31425952911376953,-3.417384147644043
1696082396665808000,4.733807861328125,-0.7378839254379272,-2.899608612060547,-4.440911293029785
1696082396675808000,4.74380810546875,-2.0308661460876465,-5.943645477294922,-4.769670009613037
1696082396685807900,4.753807861328125,-2.831857681274414,-8.317374229431152,-4.694977760314941
1696082396695808000,4.76380810546875,-1.4045493602752686,-9.93716812133789,-5.367125034332275
1696082396705808000,4.773807861328125,0.17761802673339844,-9.173382759094238,-5.4793806076049805
1696082396715808000,4.78380810546875,-1.9290868043899536,-5.948065757751465,-4.734935760498047
1696082396725807900,4.793807861328125,-2.3638532161712646,-3.0997114181518555,-3.590841770172119
1696082396735807700,4.803807861328125,-2.610696792602539,-0.7991266250610352,-2.9938783645629883
1696082396745808000,4.813807861328125,-3.297863006591797,1.191110610961914,-3.7538790702819824
1696082396755807700,4.823807861328125,-4.4837870597839355,3.4560317993164062,-4.751443862915039
1696082396765807900,4.833807861328125,-5.694531440734863,5.184430122375488,-5.678092956542969
1696082396775807700,4.843807861328125,-6.5096306800842285,5.225564002990723,-5.283595085144043
1696082396785808000,4.853807861328125,-6.957661151885986,3.902876853942871,-4.333970069885254
1696082396795807700,4.863807861328125,-6.699010372161865,2.2057108879089355,-3.143841028213501
1696082396805807900,4.873807861328125,-6.062117576599121,1.0486869812011719,-2.2617321014404297
1696082396815807700,4.883807861328125,-5.368881702423096,0.2572002410888672,-1.9936892986297607
1696082396825808000,4.893807861328125,-4.747251033782959,-0.1873016357421875,-1.4631153345108032
1696082396835807700,4.903807861328125,-4.1556267738342285,-0.630284309387207,-0.7281140089035034
1696082396845807900,4.913807861328125,-3.748429775238037,-1.0255727767944336,0.09645164012908936
1696082396855807700,4.923807861328125,-2.4745800495147705,-1.0547189712524414,0.9930810928344727
1696082396865808000,4.933807861328125,0.9476122856140137,-1.1946191787719727,2.6362662315368652
1696082396875807700,4.943807861328125,4.557183265686035,-1.1214208602905273,3.9924488067626953
1696082396885807900,4.953807861328125,7.166582107543945,-0.6038675308227539,4.348888397216797
1696082396895807700,4.963807861328125,7.998213768005371,0.31535911560058594,3.7708935737609863
1696082396905808000,4.973807861328125,6.729162216186523,1.2612533569335938,2.391465187072754
1696082396915807700,4.983807861328125,4.014435768127441,1.8960833549499512,0.7932083606719971
1696082396925807900,4.993807861328125,1.1873366832733154,1.8686981201171875,-0.43043118715286255
1696082396935807700,5.003807861328125,-0.5359885692596436,0.996063232421875,-0.9077077507972717
1696082396945808000,5.013807861328125,-1.5361568927764893,0.34263038635253906,-1.2412023544311523
1696082396955808000,5.02380810546875,-1.9842710494995117,0.26128673553466797,-1.5476912260055542
1696082396965807900,5.033807861328125,-2.327078342437744,0.28969764709472656,-1.6830681562423706
1696082396975808000,5.04380810546875,-2.92537522315979,0.41395092010498047,-1.3637815713882446
1696082396985808000,5.053807861328125,-3.1508827209472656,0.6104354858398438,-0.898080587387085
1696082396995808000,5.06380810546875,-2.7665650844573975,0.8091144561767578,-0.3840870261192322
1696082397005807900,5.073807861328125,-1.8468713760375977,0.8366127014160156,0.1982935667037964
1696082397015808000,5.08380810546875,-0.6411448121070862,0.6464862823486328,0.818315327167511
1696082397025808000,5.093807861328125,0.9007505774497986,0.4471321105957031,1.3547027111053467
1696082397035808000,5.10380810546875,2.128056764602661,0.43393802642822266,1.6045687198638916
1696082397045807900,5.113807861328125,3.13065242767334,0.576812744140625,1.7341400384902954
1696082397055808000,5.12380810546875,3.4580678939819336,0.5818929672241211,1.5884788036346436
1696082397065808000,5.133807861328125,3.1656877994537354,0.5028305053710938,1.121969223022461
1696082397075808000,5.14380810546875,2.498556137084961,0.23761844635009766,0.5138340592384338
1696082397085807900,5.153807861328125,1.8082607984542847,-0.1240377426147461,-0.01265367865562439
1696082397095808000,5.16380810546875,1.4358479976654053,-0.43042659759521484,-0.4361742436885834
1696082397105808000,5.173807861328125,1.7611584663391113,-0.5911197662353516,-0.7656142711639404
1696082397115808000,5.18380810546875,2.7301712036132812,-0.7222661972045898,-0.9126046895980835
1696082397125807900,5.193807861328125,3.8926310539245605,-1.0237302780151367,-0.8005418181419373
1696082397135808000,5.20380810546875,4.77520227432251,-1.4264554977416992,-0.16970965266227722
1696082397145808000,5.213807861328125,4.969484806060791,-1.6204423904418945,0.8715665936470032
1696082397155808000,5.22380810546875,4.378976345062256,-1.6725854873657227,2.15842866897583
1696082397165808000,5.23380810546875,3.1828298568725586,-1.6837177276611328,3.3154566287994385
1696082397175808000,5.24380810546875,1.8068218231201172,-1.6867866516113281,4.226970672607422
1696082397185808100,5.25380810546875,0.6119099855422974,-1.7622671127319336,5.137271881103516
1696082397195808000,5.26380810546875,-0.14325106143951416,-1.8002386093139648,6.104752540588379
1696082397205808000,5.27380810546875,-0.2502371072769165,-1.7193317413330078,7.001021862030029
1696082397215808000,5.28380810546875,0.5951189994812012,-1.3560810089111328,7.577123165130615
1696082397225808100,5.29380810546875,2.1791820526123047,-0.8241977691650391,7.453988075256348
1696082397235808000,5.30380810546875,4.050693988800049,-0.6071758270263672,6.786226272583008
1696082397245808000,5.31380810546875,5.529457092285156,-0.9328041076660156,6.003612041473389
1696082397255808000,5.32380810546875,6.445725917816162,-1.6200408935546875,5.3077392578125
1696082397265808100,5.33380810546875,6.662876605987549,-2.282029151916504,4.763272285461426
1696082397275808000,5.34380810546875,6.8087263107299805,-2.818704605102539,4.144706726074219
1696082397285808000,5.35380810546875,7.048672676086426,-3.046297073364258,3.079411268234253
1696082397295808000,5.36380810546875,7.270803451538086,-2.797043800354004,1.7289737462997437
1696082397305808100,5.37380810546875,6.485380172729492,-2.3320484161376953,1.3458820581436157
1696082397315808000,5.38380810546875,4.248254776000977,-2.0579490661621094,1.5491108894348145
1696082397325808000,5.39380810546875,1.6316983699798584,-2.1851301193237305,1.679016351699829
1696082397335808000,5.40380810546875,-0.6103441119194031,-2.6236419677734375,1.551047444343567
1696082397345808100,5.41380810546875,-2.253138780593872,-3.4611387252807617,0.9427779912948608
1696082397355807700,5.423807861328125,-2.7790687084198,-4.714699745178223,0.0034788846969604492
1696082397365807600,5.4338076171875,-3.2907869815826416,-6.304592132568359,-0.7692753672599792
1696082397375807700,5.443807861328125,-3.9265713691711426,-7.641325950622559,-2.0652878284454346
1696082397385807600,5.4538076171875,-4.871923446655273,-8.276933670043945,-3.3804664611816406
1696082397395807700,5.463807861328125,-5.858261585235596,-7.35666561126709,-3.9044127464294434
1696082397405807600,5.4738076171875,-6.245851039886475,-5.419142723083496,-3.9342143535614014
1696082397415807700,5.483807861328125,-3.811711311340332,-3.5355567932128906,-4.180861473083496
1696082397425807600,5.4938076171875,-0.9860975742340088,-2.366901397705078,-3.4527111053466797
1696082397435807700,5.503807861328125,0.9903382062911987,-1.5164031982421875,-1.8223155736923218
1696082397445807600,5.5138076171875,1.2908854484558105,-0.841649055480957,-0.522042989730835
1696082397455807500,5.523807373046875,0.12847328186035156,-0.2816333770751953,-0.23604679107666016
1696082397465807400,5.533807373046875,-1.2220743894577026,0.20464420318603516,-0.4118177890777588
1696082397475807500,5.543807373046875,-2.346691846847534,0.8852128982543945,-0.9804128408432007
1696082397485807400,5.553807373046875,-3.2561159133911133,1.5880126953125,-1.3637889623641968
1696082397495807500,5.563807373046875,-3.576272487640381,2.2039875984191895,-1.5417993068695068
1696082397505807400,5.573807373046875,-3.51265287399292,2.6537303924560547,-1.922776222229004
1696082397515807500,5.583807373046875,-3.609955310821533,2.831672191619873,-2.2987966537475586
1696082397525807400,5.593807373046875,-3.5735883712768555,2.880463123321533,-2.7680470943450928
1696082397535807500,5.603807373046875,-3.6054110527038574,2.7843098640441895,-3.297457695007324
1696082397545807400,5.613807373046875,-3.9852895736694336,2.515392780303955,-3.884136199951172
1696082397555807500,5.623807373046875,-4.272034645080566,2.2409653663635254,-4.555248260498047
1696082397565807400,5.633807373046875,-4.42120361328125,1.9841651916503906,-5.064477920532227
1696082397575807500,5.643807373046875,-4.450331687927246,1.7480545043945312,-5.2329816818237305
1696082397585807400,5.653807373046875,-4.473340034484863,1.634310245513916,-5.1392107009887695
1696082397595807500,5.663807373046875,-4.251190662384033,1.6736483573913574,-5.0946760177612305
1696082397605807400,5.673807373046875,-4.119027614593506,1.8333582878112793,-5.195628643035889
1696082397615807500,5.683807373046875,-4.158560276031494,2.015080451965332,-5.504583835601807
1696082397625807400,5.693807373046875,-4.354485511779785,2.223315715789795,-6.052215576171875
1696082397635807500,5.703807373046875,-4.594510555267334,2.388850212097168,-6.606010437011719
1696082397645807400,5.713807373046875,-4.683099269866943,2.7426366806030273,-7.04062557220459
1696082397655807700,5.723807861328125,-4.44681978225708,3.14239501953125,-7.236490249633789
1696082397665808000,5.733807861328125,-3.8955516815185547,3.6179018020629883,-7.179028034210205
1696082397675807700,5.743807861328125,-3.207510471343994,4.018898963928223,-6.928424835205078
1696082397685807900,5.753807861328125,-2.377896785736084,4.208531379699707,-6.274723052978516
1696082397695807700,5.763807861328125,-1.473883867263794,4.1101813316345215,-4.955775737762451
1696082397705808000,5.773807861328125,-0.5849666595458984,3.743926525115967,-3.1293349266052246
1696082397715807700,5.783807861328125,0.522899866104126,3.0183610916137695,-1.2609188556671143
1696082397725807900,5.793807861328125,2.181271553039551,1.8207268714904785,0.5461723804473877
1696082397735807700,5.803807861328125,4.138228416442871,0.2663898468017578,2.071913003921509
1696082397745808000,5.813807861328125,5.2954511642456055,-1.4138031005859375,3.9889447689056396
1696082397755807700,5.823807861328125,5.817824363708496,-3.037325859069824,5.767565727233887
1696082397765807900,5.833807861328125,5.547540664672852,-4.364201545715332,7.537487030029297
1696082397775807700,5.843807861328125,5.753727912902832,-5.396509170532227,9.256664276123047
1696082397785808000,5.853807861328125,5.682747840881348,-5.906861305236816,10.021939277648926
1696082397795807500,5.863807373046875,5.275336742401123,-5.442095756530762,8.933172225952148
1696082397805807400,5.873807373046875,5.360640525817871,-3.972116470336914,6.143017292022705
1696082397815807500,5.883807373046875,5.168243408203125,-2.265894889831543,3.6501872539520264
1696082397825807400,5.893807373046875,3.7343273162841797,-0.5993671417236328,1.732715368270874
1696082397835807500,5.903807373046875,2.131904125213623,-0.16490745544433594,0.6478395462036133
1696082397845807400,5.913807373046875,1.5924067497253418,-1.6183185577392578,-0.15063261985778809
1696082397855807500,5.923807373046875,1.3118829727172852,-3.537548065185547,-0.9358398914337158
1696082397865807400,5.933807373046875,0.021346092224121094,-5.118921279907227,-2.1621975898742676
1696082397875807500,5.943807373046875,-1.4243484735488892,-6.131143569946289,-3.730713367462158
1696082397885807400,5.953807373046875,-0.13770771026611328,-7.209878921508789,-4.795041561126709
1696082397895807500,5.963807373046875,3.431969165802002,-7.689785003662109,-5.650379180908203
1696082397905807400,5.973807373046875,0.17533564567565918,-5.565255165100098,-5.391399383544922
1696082397915807500,5.983807373046875,-2.719076633453369,-3.062472343444824,-5.017711162567139
1696082397925807400,5.993807373046875,-4.379581451416016,-0.6651382446289062,-4.671422004699707
1696082397935807500,6.003807373046875,-5.96630859375,1.6232900619506836,-4.9235687255859375
1696082397945807400,6.013807373046875,-7.369595050811768,3.304495334625244,-5.063861846923828
1696082397955807500,6.023807373046875,-7.821893692016602,4.523287773132324,-5.216070175170898
1696082397965807400,6.033807373046875,-7.884739398956299,5.10286283493042,-5.720714569091797
1696082397975807500,6.043807373046875,-6.841550827026367,4.661037921905518,-5.434996604919434
1696082397985807400,6.053807373046875,-5.6978840827941895,3.8705668449401855,-4.3287529945373535
1696082397995807500,6.063807373046875,-4.6848554611206055,2.73781681060791,-3.481297016143799
1696082398005807400,6.073807373046875,-4.250117301940918,1.2524242401123047,-2.735637664794922
1696082398015807500,6.083807373046875,-3.6884536743164062,0.022406578063964844,-2.2934908866882324
1696082398025807400,6.093807373046875,-3.1277456283569336,-0.8840866088867188,-1.686511754989624
1696082398035807500,6.103807373046875,-2.5617289543151855,-1.4454336166381836,-0.7709180116653442
1696082398045807400,6.113807373046875,-1.5070998668670654,-1.6071395874023438,0.43469977378845215
1696082398055807500,6.123807373046875,-0.04934567213058472,-1.5472822189331055,1.9698318243026733
1696082398065807400,6.133807373046875,1.3367528915405273,-1.2154560089111328,3.2379133701324463
1696082398075807500,6.143807373046875,1.9045387506484985,-0.6046810150146484,3.748300075531006
1696082398085807600,6.1538076171875,1.9420610666275024,0.14980602264404297,3.615077018737793
1696082398095808000,6.16380810546875,1.8187260627746582,0.8857583999633789,2.7705674171447754
1696082398105808000,6.173807861328125,1.7046781778335571,1.4626035690307617,1.6469926834106445
1696082398115808000,6.18380810546875,1.1593470573425293,1.6171550750732422,0.7560015916824341
1696082398125807900,6.193807861328125,0.5700990557670593,1.4286069869995117,0.14407622814178467
1696082398135808000,6.20380810546875,0.16678278148174286,1.0174074172973633,-0.5778869986534119
1696082398145808000,6.213807861328125,-0.2880485951900482,0.608088493347168,-1.3195974826812744
1696082398155808000,6.22380810546875,-1.0147514343261719,0.19133853912353516,-1.835161566734314
1696082398165807900,6.233807861328125,-1.9873710870742798,0.16025066375732422,-2.0951321125030518
1696082398175808000,6.24380810546875,-2.6034514904022217,0.27357959747314453,-1.6896770000457764
1696082398185808000,6.253807861328125,-2.8860411643981934,0.41901588439941406,-1.3735028505325317
1696082398195808000,6.26380810546875,-2.9046530723571777,0.5146322250366211,-1.1875470876693726
1696082398205807900,6.273807861328125,-2.861813545227051,0.45651912689208984,-0.9165158867835999
1696082398215808000,6.28380810546875,-2.340555191040039,0.5188894271850586,-0.8508039116859436
1696082398225808000,6.293807861328125,-1.1859846115112305,0.5547456741333008,-0.9293911457061768
1696082398235808000,6.30380810546875,0.27450084686279297,0.5730323791503906,-0.9338334202766418
1696082398245807900,6.313807861328125,1.6714189052581787,0.5187807083129883,-0.9921821355819702
1696082398255808000,6.32380810546875,2.715207099914551,0.17183494567871094,-0.8036022186279297
1696082398265808000,6.333807861328125,3.354763984680176,-0.3421049118041992,-0.42311128973960876
1696082398275807700,6.343807861328125,3.696570634841919,-0.7750635147094727,-0.045652568340301514
1696082398285807900,6.353807861328125,3.7928194999694824,-1.1021442413330078,0.28162211179733276
1696082398295808000,6.36380810546875,4.082260608673096,-1.199509620666504,0.6482992172241211
1696082398305808000,6.373807861328125,4.628483295440674,-1.0964078903198242,1.137362003326416
1696082398315807700,6.383807861328125,5.1045074462890625,-0.8800182342529297,1.5975513458251953
1696082398325807900,6.393807861328125,5.047607421875,-0.7146463394165039,2.114644765853882
1696082398335808000,6.40380810546875,4.281007766723633,-0.6842784881591797,2.680025577545166
1696082398345808000,6.413807861328125,3.3453941345214844,-0.6429328918457031,3.20035982131958
1696082398355807700,6.423807861328125,2.6557376384735107,-0.5402488708496094,3.7778775691986084
1696082398365807900,6.433807861328125,2.2811615467071533,-0.5704240798950195,4.426499843597412
1696082398375807700,6.443807861328125,1.86324942111969,-0.6517086029052734,5.23555326461792
1696082398385808000,6.453807861328125,1.3555474281311035,-0.7494516372680664,6.1421284675598145
1696082398395807700,6.463807861328125,0.8791824579238892,-0.7369070053100586,6.988553524017334
1696082398405807900,6.473807861328125,0.6677792072296143,-0.5350608825683594,7.814634323120117
1696082398415807700,6.483807861328125,1.0108718872070312,-0.3052244186401367,8.345720291137695
1696082398425808000,6.493807861328125,1.9595558643341064,-0.4388246536254883,8.419307708740234
1696082398435807700,6.503807861328125,3.2392334938049316,-1.0839271545410156,7.825279235839844
1696082398445807900,6.513807861328125,4.648226737976074,-1.9625368118286133,6.715961456298828
1696082398455807700,6.523807861328125,5.717267990112305,-2.6456174850463867,5.56646203994751
1696082398465808000,6.533807861328125,6.185213088989258,-3.0837697982788086,4.372400283813477
1696082398475807700,6.543807861328125,6.480624198913574,-3.410673141479492,3.2774605751037598
1696082398485807900,6.553807861328125,6.791679382324219,-3.585953712463379,2.624479055404663
1696082398495807700,6.563807861328125,6.291643142700195,-3.565256118774414,2.536041021347046
1696082398505808000,6.573807861328125,3.7740674018859863,-3.365097999572754,2.6599674224853516
1696082398515807700,6.583807861328125,0.7249478101730347,-3.2112550735473633,2.401749610900879
1696082398525807900,6.593807861328125,-1.2611501216888428,-3.3624486923217773,1.363813042640686
1696082398535807700,6.603807861328125,-2.3562564849853516,-4.177529335021973,0.14014986157417297
1696082398545808000,6.613807861328125,-2.7270097732543945,-5.577834129333496,-1.2376970052719116
1696082398555807700,6.623807861328125,-3.046234607696533,-7.192422866821289,-3.0646884441375732
1696082398565807900,6.633807861328125,-3.462108850479126,-8.393549919128418,-4.369534015655518
1696082398575807700,6.643807861328125,-4.3087897300720215,-8.700060844421387,-4.823756694793701
1696082398585808000,6.653807861328125,-4.745212078094482,-8.413971900939941,-5.46208381652832
1696082398595807700,6.663807861328125,-4.301116943359375,-6.465939521789551,-5.578490734100342
1696082398605807900,6.673807861328125,-3.482422351837158,-4.4986572265625,-5.102705001831055
1696082398615807700,6.683807861328125,-1.7148618698120117,-3.0547409057617188,-4.364563941955566
1696082398625808000,6.693807861328125,0.16931688785552979,-2.1397390365600586,-2.8698253631591797
1696082398635807700,6.703807861328125,0.5301200151443481,-1.5882577896118164,-1.7684259414672852
1696082398645807900,6.713807861328125,-0.799845278263092,-1.1857471466064453,-1.199934959411621
1696082398655807700,6.723807861328125,-1.9476344585418701,-0.9143714904785156,-1.4465364217758179
1696082398665808000,6.733807861328125,-2.130594253540039,-0.4220542907714844,-2.001615047454834
1696082398675807700,6.743807861328125,-1.7751684188842773,0.252655029296875,-2.3589088916778564
1696082398685807900,6.753807861328125,-1.573814034461975,1.044407844543457,-2.6140122413635254
1696082398695807700,6.763807861328125,-1.6939395666122437,1.722867488861084,-2.8873748779296875
1696082398705808000,6.773807861328125,-1.9417717456817627,2.3350272178649902,-3.1153697967529297
1696082398715807700,6.783807861328125,-2.453551769256592,2.700789451599121,-3.3864011764526367
1696082398725807900,6.793807861328125,-3.106046438217163,2.951338291168213,-3.7684154510498047
1696082398735807700,6.803807861328125,-3.245936393737793,3.1347789764404297,-4.541561126708984
1696082398745808000,6.813807861328125,-3.1330976486206055,3.154393196105957,-5.264970779418945
1696082398755807700,6.823807861328125,-2.9271974563598633,3.0604238510131836,-5.693454742431641
1696082398765807400,6.833807373046875,-2.8615522384643555,2.9365339279174805,-5.825524806976318
1696082398775807500,6.843807373046875,-3.088596820831299,2.9438443183898926,-5.94096565246582
1696082398785807400,6.853807373046875,-3.846794605255127,2.8907790184020996,-5.772350311279297
1696082398795807500,6.863807373046875,-4.464507579803467,2.8118104934692383,-5.521965980529785
1696082398805807400,6.873807373046875,-4.717411518096924,2.7658634185791016,-5.310068130493164
1696082398815807500,6.883807373046875,-4.778938293457031,2.7972731590270996,-5.225803852081299
1696082398825807400,6.893807373046875,-4.727343559265137,2.832930564880371,-5.30045747756958
1696082398835807500,6.903807373046875,-4.738457679748535,2.974048137664795,-5.481513500213623
1696082398845807400,6.913807373046875,-4.590773105621338,3.177945613861084,-5.751077651977539
1696082398855807500,6.923807373046875,-4.30877161026001,3.493027687072754,-5.961997032165527
1696082398865807400,6.933807373046875,-3.7223024368286133,3.836641311645508,-6.045563697814941
1696082398875807500,6.943807373046875,-3.0151147842407227,4.103213310241699,-5.912349700927734
1696082398885807400,6.953807373046875,-2.2878360748291016,4.129770278930664,-5.35418176651001
1696082398895807500,6.963807373046875,-1.7270621061325073,3.8240365982055664,-3.9610493183135986
1696082398905807400,6.973807373046875,-0.9204424619674683,3.1788716316223145,-1.937751054763794
1696082398915807500,6.983807373046875,0.33432817459106445,2.119344711303711,0.4074563980102539
1696082398925807400,6.993807373046875,2.5301311016082764,0.6334095001220703,2.8742144107818604
1696082398935807500,7.003807373046875,4.5674638748168945,-1.1810579299926758,5.170252323150635
1696082398945807400,7.013807373046875,5.265024185180664,-2.919407844543457,6.869837760925293
1696082398955807500,7.023807373046875,4.7742156982421875,-4.094028472900391,7.9415283203125
1696082398965807400,7.033807373046875,5.170170783996582,-4.900580406188965,9.470556259155273
1696082398975807500,7.043807373046875,6.409292221069336,-5.4797821044921875,10.256595611572266
1696082398985807400,7.053807373046875,6.518692493438721,-5.864011764526367,9.633626937866211
1696082398995807500,7.063807373046875,5.502403259277344,-5.381352424621582,7.055075645446777
1696082399005807400,7.073807373046875,4.489898681640625,-4.328962326049805,3.445768356323242
1696082399015807000,7.083806884765625,3.683871269226074,-2.5465660095214844,1.112062692642212
1696082399025806800,7.093806884765625,2.6429896354675293,0.1532907485961914,-0.14054489135742188
1696082399035807000,7.103806884765625,1.5288035869598389,3.2988762855529785,-1.0377724170684814
1696082399045807000,7.11380712890625,0.48391151428222656,5.570618152618408,-2.2138354778289795
1696082399055807000,7.123806884765625,-0.4410245418548584,5.38079833984375,-3.0154316425323486
1696082399065807400,7.133807373046875,-0.9840261340141296,3.502439022064209,-3.8069236278533936
1696082399075807500,7.143807373046875,-0.8718493580818176,3.5364861488342285,-3.769202470779419
1696082399085807400,7.153807373046875,-1.5781461000442505,-3.545283317565918,-4.378586292266846
1696082399095807500,7.163807373046875,-2.783609390258789,-6.607565879821777,-4.039477825164795
1696082399105807400,7.173807373046875,-3.7647671699523926,-8.925292015075684,-4.346809387207031
1696082399115807500,7.183807373046875,-2.2430362701416016,-11.774992942810059,-5.816515922546387
1696082399125807400,7.193807373046875,-3.045781135559082,-11.375410079956055,-5.380136489868164
1696082399135807500,7.203807373046875,-2.8618040084838867,-7.848931312561035,-4.318267345428467
1696082399145807400,7.213807373046875,-2.2678518295288086,-4.149564743041992,-3.6876769065856934
1696082399155807500,7.223807373046875,-2.6147913932800293,-0.8039321899414062,-4.347551345825195
1696082399165807400,7.233807373046875,-3.3170065879821777,2.408703327178955,-5.725015640258789
1696082399175807500,7.243807373046875,-3.509626626968384,4.728207588195801,-6.159929275512695
1696082399185807400,7.253807373046875,-3.901923179626465,5.287904262542725,-5.903985977172852
1696082399195807500,7.263807373046875,-5.999777317047119,4.632618427276611,-4.855190753936768
1696082399205807400,7.273807373046875,-6.418051242828369,3.3134236335754395,-3.701338768005371
1696082399215807500,7.283807373046875,-5.218019962310791,2.0340957641601562,-2.7545833587646484
1696082399225807400,7.293807373046875,-4.472918510437012,1.0771255493164062,-1.8770642280578613
1696082399235807500,7.303807373046875,-4.195923328399658,0.23670578002929688,-1.2225539684295654
1696082399245807400,7.313807373046875,-4.06208610534668,-0.25874805450439453,-0.6419730186462402
1696082399255807500,7.323807373046875,-3.793221950531006,-0.5493326187133789,-0.029402494430541992
1696082399265807400,7.333807373046875,-2.8373610973358154,-0.4547262191772461,0.4602928161621094
1696082399275807500,7.343807373046875,-0.6078935861587524,-0.47400474548339844,1.5068912506103516
1696082399285807400,7.353807373046875,1.5027129650115967,-0.6330986022949219,2.804955005645752
1696082399295807500,7.363807373046875,3.156008005142212,-0.5086784362792969,3.3464958667755127
1696082399305807400,7.373807373046875,4.613462448120117,-0.0829305648803711,3.059058427810669
1696082399315807700,7.383807861328125,5.601105690002441,0.5053844451904297,1.9967854022979736
1696082399325807900,7.393807861328125,5.250415325164795,1.1058979034423828,0.4428563117980957
1696082399335807700,7.403807861328125,3.8712916374206543,1.3528928756713867,-0.7412824630737305
1696082399345808000,7.413807861328125,2.038217306137085,1.020559310913086,-1.2416073083877563
1696082399355807700,7.423807861328125,0.30047354102134705,0.7883081436157227,-1.5351706743240356
1696082399365807900,7.433807861328125,-1.1121501922607422,0.6355533599853516,-1.629562258720398
1696082399375807700,7.443807861328125,-2.158012628555298,0.30321788787841797,-1.500306487083435
1696082399385808000,7.453807861328125,-2.77992582321167,-0.012151718139648438,-1.1498559713363647
1696082399395807700,7.463807861328125,-3.0718796253204346,-0.18844318389892578,-0.6409279704093933
1696082399405807900,7.473807861328125,-3.135343313217163,0.0060882568359375,-0.014712810516357422
1696082399415807700,7.483807861328125,-2.281182289123535,0.46016979217529297,0.48049575090408325
1696082399425808000,7.493807861328125,-0.7456320524215698,0.6715965270996094,0.8567277789115906
1696082399435807700,7.503807861328125,0.8630897998809814,0.717707633972168,1.1286287307739258
1696082399445807900,7.513807861328125,2.294813632965088,0.6534252166748047,1.4768707752227783
1696082399455807700,7.523807861328125,3.30387020111084,0.5585088729858398,1.733870267868042
1696082399465808000,7.533807861328125,3.5674619674682617,0.503535270690918,1.6315898895263672
1696082399475807700,7.543807861328125,3.233463764190674,0.4921092987060547,1.2017741203308105
1696082399485807900,7.553807861328125,2.462798833847046,0.5106410980224609,0.7274707555770874
1696082399495807700,7.563807861328125,2.050955057144165,0.468505859375,0.4564347267150879
1696082399505808000,7.573807861328125,2.1109771728515625,0.28238677978515625,0.24674847722053528
1696082399515807700,7.583807861328125,2.777456760406494,-0.0011072158813476562,0.153255894780159
1696082399525807900,7.593807861328125,3.577510356903076,-0.32239818572998047,0.31797194480895996
1696082399535807700,7.603807861328125,3.9875383377075195,-0.7115755081176758,0.8567309379577637
1696082399545808000,7.613807861328125,3.8764147758483887,-0.9582881927490234,1.6768966913223267
1696082399555807700,7.623807861328125,3.3641858100891113,-1.0080146789550781,2.6041061878204346
1696082399565807900,7.633807861328125,2.7372095584869385,-1.0013513565063477,3.4359452724456787
1696082399575807700,7.643807861328125,2.181410312652588,-1.0418729782104492,3.9892988204956055
1696082399585808000,7.653807861328125,1.6341657638549805,-1.0995655059814453,4.494908809661865
1696082399595807700,7.663807861328125,1.1773101091384888,-1.144179344177246,5.026774883270264
1696082399605807900,7.673807861328125,0.9508907198905945,-1.1308908462524414,5.574261665344238
1696082399615807700,7.683807861328125,1.2607964277267456,-1.1201725006103516,6.08278751373291
1696082399625808000,7.693807861328125,2.2420501708984375,-1.0533580780029297,6.336843013763428
1696082399635807700,7.703807861328125,3.7402663230895996,-1.2230968475341797,6.146303653717041
1696082399645807900,7.713807861328125,4.846889495849609,-2.041863441467285,6.033140659332275
1696082399655807700,7.723807861328125,5.454092502593994,-3.3667993545532227,5.951621055603027
1696082399665808000,7.733807861328125,6.011744499206543,-4.066805839538574,5.4425578117370605
1696082399675807700,7.743807861328125,6.347466468811035,-3.9550113677978516,4.867751121520996
1696082399685807900,7.753807861328125,6.5830817222595215,-3.4863338470458984,4.524506092071533
1696082399695807700,7.763807861328125,6.948947906494141,-2.9474058151245117,4.28051233291626
1696082399705808000,7.773807861328125,6.165041446685791,-2.537212371826172,3.9797956943511963
1696082399715807700,7.783807861328125,5.967461585998535,-2.5080032348632812,3.8677237033843994
1696082399725807900,7.793807861328125,1.3535511493682861,-2.341315269470215,3.173962354660034
1696082399735807700,7.803807861328125,-0.9546287655830383,-2.8847885131835938,2.2375080585479736
1696082399745808000,7.813807861328125,-2.483891010284424,-3.829042434692383,1.086111068725586
1696082399755807700,7.823807861328125,-2.748994827270508,-3.831066131591797,0.8526297211647034
1696082399765807900,7.833807861328125,-3.0901052951812744,-6.708148956298828,-1.905442714691162
1696082399775807700,7.843807861328125,-4.166547775268555,-7.780774116516113,-2.9366455078125
1696082399785808000,7.853807861328125,-5.418784141540527,-7.788003921508789,-3.867588996887207
1696082399795807700,7.863807861328125,-6.741910457611084,-6.861814498901367,-4.559151649475098
1696082399805807900,7.873807861328125,-7.255001544952393,-4.918619155883789,-4.855971336364746
1696082399815807700,7.883807861328125,-4.763797760009766,-3.1933059692382812,-5.08277702331543
1696082399825808000,7.893807861328125,-1.9137699604034424,-2.2782936096191406,-4.071076393127441
1696082399835807700,7.903807861328125,0.5753093957901001,-1.8022127151489258,-2.40273380279541
1696082399845807900,7.913807861328125,1.057081699371338,-1.4491310119628906,-1.0317186117172241
1696082399855807700,7.923807861328125,0.060926198959350586,-1.38055419921875,-0.6868222951889038
1696082399865808000,7.933807861328125,-0.7457567453384399,-1.1129322052001953,-0.9150373935699463
1696082399875807700,7.943807861328125,-1.9564626216888428,-0.756953239440918,-1.1439040899276733
1696082399885807900,7.953807861328125,-2.9278082847595215,-0.1585226058959961,-1.2709916830062866
1696082399895807700,7.963807861328125,-3.8068249225616455,0.4670095443725586,-1.3877923488616943
1696082399905808000,7.973807861328125,-4.280150413513184,0.9122848510742188,-1.6897789239883423
1696082399915807700,7.983807861328125,-4.280028343200684,1.3852810859680176,-2.070859670639038
1696082399925807900,7.993807861328125,-4.356873035430908,1.329296588897705,-2.173891544342041
1696082399935807700,8.003807861328125,-3.502378463745117,1.910468578338623,-3.471158266067505
1696082399945808000,8.013807861328125,-3.473721981048584,2.0241456031799316,-4.4158477783203125
1696082399955807700,8.023807861328125,-3.842764139175415,2.1423416137695312,-5.084591865539551
1696082399965807900,8.033807861328125,-4.26463508605957,2.2156872749328613,-5.448959827423096
1696082399975807700,8.043807861328125,-4.267834186553955,2.3051962852478027,-5.561095714569092
1696082399985808000,8.053807861328124,-4.005373001098633,2.4154539108276367,-5.492999076843262
1696082399995807700,8.063807861328126,-4.08787727355957,2.3697500228881836,-5.534967422485352
1696082400005807900,8.073807861328126,-4.282655239105225,2.6443419456481934,-5.141261100769043
1696082400015807700,8.083807861328125,-4.680200576782227,2.868298053741455,-5.182295322418213
1696082400025808000,8.093807861328125,-5.018221378326416,3.0954227447509766,-5.39048957824707
1696082400035807700,8.103807861328125,-5.208515167236328,3.3608789443969727,-5.7785749435424805
1696082400045807900,8.113807861328125,-5.267385959625244,3.704624652862549,-6.147882461547852
1696082400055807700,8.123807861328125,-5.164812088012695,4.102942943572998,-6.325740337371826
1696082400065808000,8.133807861328124,-4.810827732086182,4.583010673522949,-6.4914751052856445
1696082400075807700,8.143807861328124,-4.216615200042725,5.015508651733398,-6.630856513977051
1696082400085807900,8.153807861328126,-3.6485822200775146,5.252006530761719,-6.564480781555176
1696082400095807700,8.163807861328126,-2.944603443145752,5.14157772064209,-5.861004829406738
1696082400105808000,8.173807861328125,-2.048842430114746,4.570427894592285,-4.382814884185791
1696082400115807700,8.183807861328125,-0.49188756942749023,3.5204572677612305,-2.610107898712158
1696082400125807900,8.193807861328125,1.7659368515014648,1.7983016967773438,-0.5984055995941162
1696082400135807700,8.203807861328125,5.549997806549072,-0.3667316436767578,1.8946294784545898
1696082400145808000,8.213807861328124,8.180154800415039,-2.695180892944336,4.800637245178223
1696082400155807700,8.223807861328124,7.55060338973999,-4.779598236083984,7.4363250732421875
1696082400165807900,8.233807861328126,5.718141078948975,-6.135588645935059,9.016338348388672
1696082400175807700,8.243807861328126,5.11390495300293,-6.488310813903809,9.567659378051758
1696082400185808000,8.253807861328125,5.441489219665527,-5.236289024353027,9.185969352722168
1696082400195807700,8.263807861328125,5.2215752601623535,-2.900172233581543,8.249841690063477
1696082400205807900,8.273807861328125,4.357952117919922,-0.8370656967163086,5.448363304138184
1696082400215807700,8.283807861328125,3.3298044204711914,0.38256263732910156,3.197406768798828
1696082400225808000,8.293807861328125,2.0786585807800293,0.5699663162231445,1.6115951538085938
1696082400235807700,8.303807861328124,1.4989031553268433,-1.5717239379882812,0.3847193717956543
1696082400245807900,8.313807861328126,1.2650645971298218,-4.957510948181152,-0.8091707229614258
1696082400255807700,8.323807861328126,-0.03515172004699707,-7.769886016845703,-1.9671525955200195
1696082400265808000,8.333807861328125,-1.3647973537445068,-9.326754570007324,-3.435420274734497
1696082400275807700,8.343807861328125,-1.2685755491256714,-10.358471870422363,-4.685571670532227
1696082400285807900,8.353807861328125,4.050161361694336,-11.425531387329102,-4.717031002044678
1696082400295807700,8.363807861328125,0.7979114055633545,-8.810490608215332,-4.609870433807373
1696082400305808000,8.373807861328125,0.8014962673187256,-8.805196762084961,-4.594947814941406
1696082400315807700,8.383807861328124,-3.878074884414673,-2.207782745361328,-5.290680885314941
1696082400325807900,8.393807861328124,-5.339311599731445,1.2921233177185059,-6.138869285583496
1696082400335807700,8.403807861328126,-6.865128040313721,3.5996503829956055,-6.482944488525391
1696082400345808000,8.413807861328126,-8.13260269165039,5.444514274597168,-6.47554874420166
1696082400355807700,8.423807861328125,-8.586403846740723,7.175117492675781,-7.856998443603516
1696082400365807900,8.433807861328125,-8.219328880310059,7.670134544372559,-7.85015869140625
1696082400375807700,8.443807861328125,-8.171985626220703,6.8412275314331055,-5.589923858642578
1696082400385808000,8.453807861328125,-6.879817962646484,5.539562225341797,-3.882993221282959
1696082400395807700,8.463807861328124,-5.337876796722412,3.503957748413086,-3.501765251159668
1696082400405807900,8.473807861328124,-3.8772809505462646,1.4141721725463867,-3.0611045360565186
1696082400415807700,8.483807861328126,-3.032662868499756,-0.4887886047363281,-2.615558624267578
1696082400425808000,8.493807861328126,-2.890862464904785,-1.928187370300293,-2.326836585998535
1696082400435807700,8.503807861328125,-2.8990936279296875,-2.760793685913086,-1.9859592914581299
1696082400445807900,8.513807861328125,-2.8951416015625,-2.9431276321411133,-1.4052038192749023
1696082400455807700,8.523807861328125,-1.4120244979858398,-2.570815086364746,-0.13184785842895508
1696082400465808000,8.533807861328125,2.250676393508911,-2.416341781616211,2.1603095531463623
1696082400475807700,8.543807861328125,5.480222225189209,-1.959920883178711,3.8314642906188965
1696082400485807900,8.553807861328124,7.376168727874756,-1.0324726104736328,4.477859020233154
1696082400495807700,8.563807861328126,7.117532253265381,-0.07691192626953125,4.073710918426514
1696082400505808000,8.573807861328126,5.098302364349365,0.6690053939819336,2.8839964866638184
1696082400515807700,8.583807861328125,2.545790433883667,1.0686931610107422,1.9852263927459717
1696082400525807900,8.593807861328125,0.4324950575828552,1.2233524322509766,1.5736204385757446
1696082400535807700,8.603807861328125,-0.3422533869743347,1.0661077499389648,1.1674787998199463
1696082400545808000,8.613807861328125,-1.056406855583191,0.954463005065918,0.6062989234924316
1696082400555807700,8.623807861328125,-1.626762866973877,0.8660087585449219,0.5497052669525146
1696082400565807900,8.633807861328124,-1.9102835655212402,0.6809282302856445,0.6665600538253784
1696082400575807700,8.643807861328124,-2.4317288398742676,0.5210065841674805,0.5757178068161011
1696082400585808000,8.653807861328126,-2.8712635040283203,0.7310934066772461,0.37024593353271484
1696082400595807700,8.663807861328126,-2.894428014755249,0.7334699630737305,0.298262357711792
1696082400605807900,8.673807861328125,-2.1170315742492676,0.7465972900390625,0.24333852529525757
1696082400615807700,8.683807861328125,-0.8874856233596802,0.7887783050537109,0.023279786109924316
1696082400625808000,8.693807861328125,0.38827019929885864,0.7038974761962891,-0.0736846923828125
1696082400635807700,8.703807861328125,1.4071524143218994,0.6369791030883789,-0.055301010608673096
1696082400645807900,8.713807861328124,2.086110830307007,0.6070098876953125,-0.028918325901031494
1696082400655807700,8.723807861328124,2.184826612472534,0.5981159210205078,0.02172189950942993
1696082400665808000,8.733807861328126,2.061777353286743,0.5871982574462891,-0.0766911506652832
1696082400675807700,8.743807861328126,1.809606909751892,0.1702709197998047,-0.019542813301086426
1696082400685807900,8.753807861328125,1.8183083534240723,-0.41868019104003906,-0.03003138303756714
1696082400695807700,8.763807861328125,2.2349681854248047,-0.7614822387695312,-0.03625208139419556
1696082400705808000,8.773807861328125,2.9974441528320312,-0.8780326843261719,0.09789526462554932
1696082400715807700,8.783807861328125,3.985959768295288,-0.9219903945922852,0.424589067697525
1696082400725807900,8.793807861328125,4.869437217712402,-0.9076013565063477,0.9518563747406006
1696082400735807700,8.803807861328124,4.959569931030273,-0.9232120513916016,1.0455650091171265
1696082400745808000,8.813807861328126,4.535001754760742,-0.28409862518310547,2.114595651626587
1696082400755807700,8.823807861328126,3.5490589141845703,-0.1350240707397461,2.6995716094970703
1696082400765807900,8.833807861328125,2.3704373836517334,-0.2197895050048828,3.412919521331787
1696082400775807700,8.843807861328125,1.0560081005096436,-0.5257606506347656,4.319210052490234
1696082400785808000,8.853807861328125,-0.06741821765899658,-0.7801713943481445,5.259479522705078
1696082400795807700,8.863807861328125,-0.5099626779556274,-0.8564214706420898,6.105813026428223
1696082400805807900,8.873807861328125,0.25732338428497314,-0.6092109680175781,6.731225967407227
1696082400815807700,8.883807861328124,0.24379563331604004,-0.6108198165893555,6.800259113311768
1696082400825808000,8.893807861328124,4.3451972007751465,0.35259151458740234,6.204922199249268
1696082400835807700,8.903807861328126,6.76667594909668,0.5167007446289062,5.260263442993164
1696082400845807900,8.913807861328126,8.457767486572266,-0.06386089324951172,4.409873962402344
1696082400855807700,8.923807861328125,9.005073547363281,-1.7220983505249023,3.9596548080444336
1696082400865808000,8.933807861328125,9.008658409118652,-3.425363540649414,3.2269396781921387
1696082400875807700,8.943807861328125,8.80566692352295,-4.424220085144043,2.2826988697052
1696082400885807900,8.953807861328125,8.034948348999023,-4.295541763305664,1.6599130630493164
1696082400895807700,8.963807861328124,5.88871955871582,-3.4834165573120117,2.096057891845703
1696082400905808000,8.973807861328124,2.249232530593872,-3.354678153991699,3.694145679473877
1696082400915807700,8.983807861328126,-1.101421594619751,-3.6696224212646484,5.2595062255859375
1696082400925807900,8.993807861328126,-3.0662007331848145,-4.779595375061035,5.864819526672363
1696082400935807700,9.003807861328125,-3.400148630142212,-6.0455780029296875,4.8498334884643555
1696082400945808000,9.013807861328125,-2.757967710494995,-7.2092742919921875,2.890981912612915
1696082400955807700,9.023807861328125,-2.8762338161468506,-8.710746765136719,1.1370503902435303
1696082400965807900,9.033807861328125,-3.252107620239258,-9.719026565551758,-0.4510011672973633
1696082400975807700,9.043807861328125,-3.9562156200408936,-10.266518592834473,-2.459172248840332
1696082400985808000,9.053807861328124,-5.440805912017822,-9.738469123840332,-3.3595423698425293
1696082400995807700,9.063807861328126,-6.447085380554199,-8.00678539276123,-3.798428535461426
1696082401005807900,9.073807861328126,-4.831293106079102,-5.402753829956055,-4.773043155670166
1696082401015807700,9.083807861328125,-1.1848366260528564,-3.1997690200805664,-5.242006301879883
1696082401025808000,9.093807861328125,2.4141440391540527,-1.8178577423095703,-4.491089820861816
1696082401035807700,9.103807861328125,2.84932279586792,-1.2207508087158203,-3.3468058109283447
1696082401045807900,9.113807861328125,0.6362868547439575,-0.8876581192016602,-3.095282554626465
1696082401055807700,9.123807861328125,-1.3873493671417236,-0.3101654052734375,-3.4355111122131348
1696082401065808000,9.133807861328124,-2.005980968475342,0.3447542190551758,-4.351747989654541
1696082401075807700,9.143807861328124,-2.294999837875366,0.8875246047973633,-4.959843635559082
1696082401085807900,9.153807861328126,-2.8707470893859863,1.4351749420166016,-5.2182698249816895
1696082401095807700,9.163807861328126,-3.6655473709106445,2.0396957397460938,-5.2109222412109375
1696082401105808000,9.173807861328125,-4.448290824890137,2.5744433403015137,-4.965467929840088
1696082401115807700,9.183807861328125,-4.575209617614746,3.080902576446533,-4.794421672821045
1696082401125807900,9.193807861328125,-4.21896505355835,3.36692476272583,-4.650408744812012
1696082401135807700,9.203807861328125,-3.915431499481201,3.4829635620117188,-4.668512344360352
1696082401145808000,9.213807861328124,-3.947636127471924,3.3852782249450684,-4.830791473388672
1696082401155807700,9.223807861328124,-4.089752674102783,3.3313660621643066,-5.025882720947266
1696082401165807900,9.233807861328126,-4.485903739929199,3.1884541511535645,-5.055367469787598
1696082401175807700,9.243807861328126,-5.100330352783203,2.9672250747680664,-4.782825469970703
1696082401185808000,9.253807861328125,-5.184709548950195,2.9182043075561523,-4.825689792633057
1696082401195807700,9.263807861328125,-5.286721229553223,2.908222198486328,-4.221294403076172
1696082401205807900,9.273807861328125,-5.193521499633789,3.0165791511535645,-4.451394081115723
1696082401215807700,9.283807861328125,-5.371589660644531,3.194232940673828,-4.93052864074707
1696082401225808000,9.293807861328125,-5.567911148071289,3.4655280113220215,-5.575501918792725
1696082401235807700,9.303807861328124,-5.732922554016113,3.6978964805603027,-6.212679386138916
1696082401245807900,9.313807861328126,-5.522514343261719,3.9838624000549316,-6.647175312042236
1696082401255807700,9.323807861328126,-4.874239444732666,4.3467230796813965,-7.023694038391113
1696082401265808000,9.333807861328125,-3.81482195854187,4.779840469360352,-7.22187614440918
1696082401275807700,9.343807861328125,-2.8461451530456543,4.887648582458496,-6.755553245544434
1696082401285807900,9.353807861328125,-1.6454341411590576,4.467822551727295,-5.104613780975342
1696082401295807700,9.363807861328125,-0.060091495513916016,3.4908695220947266,-2.2719526290893555
1696082401305808000,9.373807861328125,2.1210896968841553,1.8842735290527344,0.4918367862701416
1696082401315807700,9.383807861328124,5.679085731506348,-0.7073249816894531,3.581437826156616
1696082401325807900,9.393807861328124,7.915408134460449,-3.7114458084106445,6.755685806274414
1696082401335807700,9.403807861328126,6.956494331359863,-5.819507598876953,9.425702095031738
1696082401345808000,9.413807861328126,6.929603576660156,-6.89909553527832,10.471881866455078
1696082401355807700,9.423807861328125,9.197341918945312,-6.9884185791015625,10.86742877960205
1696082401365807900,9.433807861328125,8.75294017791748,-5.947705268859863,9.67006778717041
1696082401375807700,9.443807861328125,6.405726432800293,-4.064513206481934,6.330350875854492
1696082401385808000,9.453807861328125,4.4656782150268555,-2.147067070007324,3.0153658390045166
1696082401395807700,9.463807861328124,3.0467135906219482,-0.5150556564331055,0.3894224166870117
1696082401405807900,9.473807861328124,1.8814587593078613,1.419809341430664,-0.9585734605789185
1696082401415807700,9.483807861328126,0.6585819721221924,3.3171162605285645,-1.927436113357544
1696082401425808000,9.493807861328126,-0.09584188461303711,2.9904842376708984,-2.6542160511016846
1696082401435807700,9.503807861328125,0.18278861045837402,0.9444351196289062,-3.1699607372283936
1696082401445807900,9.513807861328125,-0.15993058681488037,-1.5441608428955078,-4.004653453826904
1696082401455807700,9.523807861328125,-1.6496988534927368,-4.6833086013793945,-5.024562835693359
1696082401465808000,9.533807861328125,-3.618394613265991,-7.551057815551758,-5.1047868728637695
1696082401475807700,9.543807861328125,-4.613000392913818,-9.525003433227539,-5.588089942932129
1696082401485807900,9.553807861328124,-1.7849922180175781,-10.22236156463623,-6.527585029602051
1696082401495807700,9.563807861328126,-3.506150484085083,-9.95003890991211,-5.749805927276611
1696082401505808000,9.573807861328126,-4.5948944091796875,-7.620664596557617,-4.635706424713135
1696082401515807700,9.583807861328125,-4.994462966918945,-5.180758476257324,-4.303433895111084
1696082401525807900,9.593807861328125,-6.2115864753723145,-2.0146188735961914,-4.235675811767578
1696082401535807700,9.603807861328125,-7.383174419403076,1.538743019104004,-4.262336730957031
1696082401545808000,9.613807861328125,-7.028426647186279,4.770646095275879,-4.7294721603393555
1696082401555807700,9.623807861328125,-6.944437026977539,4.807832717895508,-4.634665489196777
1696082401565807900,9.633807861328124,-5.152674674987793,7.4181365966796875,-5.297091484069824
1696082401575807700,9.643807861328124,-5.003857612609863,7.471962928771973,-5.143734455108643
1696082401585808000,9.653807861328126,-4.862770080566406,4.181666374206543,-1.6997662782669067
1696082401595808000,9.66380810546875,-3.702781915664673,2.3876962661743164,-0.9947369694709778
1696082401605807900,9.673807861328125,-3.2916901111602783,0.7567892074584961,-0.4139050245285034
1696082401615808000,9.68380810546875,-3.1815848350524902,-0.7531061172485352,0.3274116516113281
1696082401625808000,9.693807861328125,-3.0471181869506836,-1.9955339431762695,0.7615789175033569
1696082401635808000,9.70380810546875,-2.1830761432647705,-2.9659433364868164,1.20326566696167
1696082401645807900,9.713807861328124,0.7986786365509033,-3.2883806228637695,2.6814491748809814
1696082401655808000,9.72380810546875,4.604011058807373,-2.85190486907959,4.360202789306641
1696082401665808000,9.733807861328126,7.8372883796691895,-1.8025484085083008,4.70921516418457
1696082401675808000,9.74380810546875,9.853373527526855,-0.35976505279541016,3.2524266242980957
1696082401685807900,9.753807861328125,9.256902694702148,1.0978240966796875,1.1562395095825195
1696082401695808000,9.76380810546875,9.40268611907959,1.0929174423217773,1.1769773960113525
1696082401705808000,9.773807861328125,2.3749306201934814,2.1725964546203613,-1.5238783359527588
1696082401715808000,9.78380810546875,-0.7994113564491272,1.7020807266235352,-1.5300030708312988
1696082401725807900,9.793807861328125,-3.120736837387085,1.2074108123779297,-1.56694495677948
1696082401735808000,9.80380810546875,-4.617059707641602,0.7157220840454102,-1.4568109512329102
1696082401745808000,9.813807861328126,-5.60088586807251,0.3439950942993164,-1.1729594469070435
1696082401755808000,9.82380810546875,-6.279344081878662,0.1929311752319336,-0.5641469955444336
1696082401765807900,9.833807861328125,-5.793919086456299,0.31006526947021484,0.3971002697944641
1696082401775808000,9.84380810546875,-4.269973278045654,0.8806285858154297,0.3953348994255066
1696082401785808000,9.853807861328125,-2.548063278198242,1.3883895874023438,0.12371039390563965
1696082401795808000,9.86380810546875,-0.47971850633621216,1.466710090637207,0.2761707305908203
1696082401805807900,9.873807861328125,1.7123639583587646,1.2469024658203125,0.48926037549972534
1696082401815808000,9.88380810546875,1.8674037456512451,1.2363853454589844,0.5633920431137085
1696082401825808000,9.893807861328124,4.462494850158691,0.48816394805908203,0.6871469616889954
1696082401835808000,9.90380810546875,4.226561546325684,0.18738842010498047,0.5985609292984009
1696082401845807900,9.913807861328126,3.1375057697296143,-0.13292789459228516,0.42225706577301025
1696082401855808000,9.92380810546875,1.9883177280426025,-0.3572244644165039,0.03004688024520874
1696082401865808000,9.933807861328125,1.4460577964782715,-0.44385623931884766,-0.3474220931529999
1696082401875808000,9.94380810546875,2.0351104736328125,-0.5002346038818359,-0.43543708324432373
1696082401885807900,9.953807861328125,3.3639183044433594,-0.5206899642944336,-0.20911669731140137
1696082401895807700,9.963807861328124,4.562046527862549,-0.5867977142333984,0.3357884883880615
1696082401905808000,9.973807861328124,5.024468421936035,-0.8767709732055664,1.1839767694473267
1696082401915807700,9.983807861328126,4.673680782318115,-1.0793209075927734,2.1168506145477295
1696082401925807900,9.993807861328126,3.807013988494873,-1.0698518753051758,2.980175733566284
1696082401935807700,10.003807861328125,2.7054264545440674,-0.8448705673217773,3.633148431777954
1696082401945808000,10.013807861328125,1.47519052028656,-0.6060523986816406,4.113077163696289
1696082401955807700,10.023807861328125,0.2850666046142578,-0.4646482467651367,4.755049228668213
1696082401965807900,10.033807861328125,-0.5750000476837158,-0.5970096588134766,5.640174865722656
1696082401975807700,10.043807861328125,-0.7504134178161621,-0.765599250793457,6.690803527832031
1696082401985808000,10.053807861328124,0.2554666996002197,-0.9414787292480469,7.504304885864258
1696082401995807700,10.063807861328126,2.3622400760650635,-0.8699216842651367,7.5109710693359375
1696082402005807900,10.073807861328126,5.267291069030762,-0.7898998260498047,6.604000568389893
1696082402015807700,10.083807861328125,7.7967939376831055,-1.047943115234375,5.598077774047852
1696082402025806800,10.093806884765625,7.809985637664795,-1.049875259399414,5.591455459594727
1696082402035807000,10.103806884765625,9.158026695251465,-2.049809455871582,4.999587535858154
1696082402045806800,10.113806884765625,9.184551239013672,-3.5734996795654297,4.579797267913818
1696082402055807000,10.123806884765624,7.917598724365234,-4.723173141479492,3.2052762508392334
1696082402065806800,10.133806884765624,6.732243537902832,-3.917661666870117,2.89992618560791
1696082402075807000,10.143806884765626,3.3701324462890625,-3.052168846130371,3.653022289276123
1696082402085806800,10.153806884765626,-0.6919387578964233,-2.9499988555908203,5.010988712310791
1696082402095807000,10.163806884765625,-3.82912015914917,-3.5857181549072266,5.591599464416504
1696082402105806800,10.173806884765625,-4.952970027923584,-4.707106590270996,4.413318157196045
1696082402115807000,10.183806884765625,-3.579434394836426,-6.219206809997559,2.1814839839935303
1696082402125806800,10.193806884765625,-2.2541913986206055,-7.732529640197754,0.4500313997268677
1696082402135807000,10.203806884765624,-2.292393445968628,-8.981863021850586,-1.1099789142608643
1696082402145806800,10.213806884765624,-3.1822054386138916,-9.572077751159668,-3.087613344192505
1696082402155807000,10.223806884765626,-4.525454521179199,-9.389921188354492,-4.3342976570129395
1696082402165806800,10.233806884765626,-5.629061698913574,-7.979230880737305,-4.574066162109375
1696082402175807000,10.243806884765625,-4.839910507202148,-5.775249481201172,-4.855299949645996
1696082402185806800,10.253806884765625,-3.752885341644287,-3.9571218490600586,-3.9903836250305176
1696082402195807000,10.263806884765625,-0.5203937292098999,-2.61883544921875,-3.0601389408111572
1696082402205806800,10.273806884765625,0.5899955034255981,-2.0215673446655273,-1.8403247594833374
1696082402215807000,10.283806884765625,-0.6222738027572632,-1.5696678161621094,-1.0929081439971924
1696082402225806800,10.293806884765624,-2.026297092437744,-1.131413459777832,-0.8222900629043579
1696082402235807000,10.303806884765624,-2.943716526031494,-0.6127939224243164,-1.1817594766616821
1696082402245806800,10.313806884765626,-3.2129087448120117,0.14909648895263672,-1.5862878561019897
1696082402255807000,10.323806884765625,-3.620703935623169,0.8809223175048828,-1.9419969320297241
1696082402265806800,10.333806884765625,-4.070306301116943,1.4783620834350586,-2.306184768676758
1696082402275807000,10.343806884765625,-4.439729690551758,2.0641236305236816,-2.7789041996002197
1696082402285806800,10.353806884765625,-4.278079986572266,2.516519069671631,-3.465419054031372
1696082402295807000,10.363806884765625,-4.265793323516846,2.816836357116699,-4.259492874145508
1696082402305806800,10.373806884765624,-4.338286876678467,3.0514307022094727,-5.134973526000977
1696082402315807000,10.383806884765624,-4.6666035652160645,3.1760659217834473,-5.741144180297852
1696082402325807900,10.393807861328124,-4.789172649383545,3.188157081604004,-6.10566520690918
1696082402335807700,10.403807861328126,-4.710738182067871,3.2624168395996094,-6.298295021057129
1696082402345808000,10.413807861328126,-4.8694682121276855,3.2615866661071777,-6.097749710083008
1696082402355807700,10.423807861328125,-5.10556697845459,3.2661995887756348,-5.596588134765625
1696082402365807900,10.433807861328125,-5.227496147155762,3.3441476821899414,-5.177911758422852
1696082402375807700,10.443807861328125,-5.205488204956055,3.5314507484436035,-5.065663814544678
1696082402385808000,10.453807861328125,-5.268215656280518,3.769517421722412,-5.353283882141113
1696082402395807700,10.463807861328124,-5.580653190612793,3.984801769256592,-5.779376983642578
1696082402405807900,10.473807861328124,-5.796938896179199,4.133340358734131,-6.3347883224487305
1696082402415807700,10.483807861328126,-5.7857866287231445,4.315891742706299,-6.803147315979004
1696082402425808000,10.493807861328126,-5.479194641113281,4.622551918029785,-7.182321548461914
1696082402435808000,10.50380810546875,-4.855352401733398,5.078098297119141,-7.510870933532715
1696082402445807900,10.513807861328125,-4.231430530548096,5.359684467315674,-7.4574875831604
1696082402455808000,10.52380810546875,-3.2897772789001465,5.2088470458984375,-6.410520553588867
1696082402465808000,10.533807861328125,-2.156858444213867,4.634181976318359,-4.591989517211914
1696082402475808000,10.54380810546875,-0.9005656242370605,3.3725008964538574,-2.9320032596588135
1696082402485807900,10.553807861328124,1.437809705734253,1.16316556930542,-1.0608313083648682
1696082402495808000,10.56380810546875,5.309243202209473,-1.7229499816894531,1.2002854347229004
1696082402505808000,10.573807861328126,7.404453754425049,-4.554355621337891,3.7068517208099365
1696082402515808000,10.58380810546875,7.333148956298828,-6.822287559509277,6.7412872314453125
1696082402525807900,10.593807861328125,6.885878086090088,-8.357178688049316,9.698141098022461
1696082402535808000,10.60380810546875,7.4254279136657715,-8.775592803955078,11.023109436035156
1696082402545808000,10.613807861328125,6.932080268859863,-7.353450775146484,10.29270076751709
1696082402555808000,10.62380810546875,5.595053672790527,-4.114459037780762,8.05943489074707
1696082402565807900,10.633807861328124,4.920779228210449,-1.6165742874145508,4.789947509765625
1696082402575808000,10.64380810546875,3.644275426864624,0.14387798309326172,2.389065742492676
1696082402585808000,10.653807861328126,1.8371009826660156,1.877810001373291,0.7746071815490723
1696082402595808000,10.66380810546875,-0.09546422958374023,2.3860459327697754,-0.9524333477020264
1696082402605807900,10.673807861328125,-0.11393344402313232,0.5613775253295898,-2.077908515930176
1696082402615808000,10.68380810546875,-0.11833643913269043,-2.0026044845581055,-2.7518017292022705
1696082402625808000,10.693807861328125,-0.6776716709136963,-5.331430435180664,-3.186387538909912
1696082402635807700,10.703807861328125,-1.630043625831604,-8.158384323120117,-3.564481496810913
1696082402645807900,10.713807861328124,-0.49479901790618896,-10.476541519165039,-3.8016254901885986
1696082402655807700,10.723807861328124,3.692111015319824,-10.995695114135742,-4.1756415367126465
1696082402665806800,10.733806884765626,-2.480414390563965,-9.43723201751709,-5.033557891845703
1696082402675807000,10.743806884765625,-4.902255058288574,-6.675326347351074,-4.906232833862305
1696082402685806800,10.753806884765625,-5.503586769104004,-4.088376045227051,-5.123993873596191
1696082402695807000,10.763806884765625,-7.10252571105957,-0.6463155746459961,-5.8386430740356445
1696082402705806800,10.773806884765625,-8.668946266174316,2.777843475341797,-6.14479923248291
1696082402715807000,10.783806884765625,-9.40408992767334,5.591484069824219,-7.188493728637695
1696082402725806800,10.793806884765624,-8.864479064941406,6.871998310089111,-7.185665130615234
1696082402735807000,10.803806884765624,-8.831825256347656,6.744606971740723,-5.210269451141357
1696082402745806000,10.81380615234375,-7.961490631103516,5.824790000915527,-3.3089964389801025
1696082402755806200,10.82380615234375,-5.677652359008789,4.423892498016357,-2.1335132122039795
1696082402765806000,10.83380615234375,-3.821512222290039,2.674926280975342,-1.3790771961212158
1696082402775806200,10.84380615234375,-2.822638511657715,0.8629903793334961,-1.130009412765503
1696082402785806000,10.85380615234375,-2.7948222160339355,-0.7547616958618164,-0.9402689337730408
1696082402795806200,10.86380615234375,-3.082383632659912,-1.8441228866577148,-0.4852408170700073
1696082402805806000,10.87380615234375,-2.9301843643188477,-2.564215660095215,0.44105422496795654
1696082402815806200,10.88380615234375,0.32968342304229736,-2.990682601928711,2.2763760089874268
1696082402825806300,10.893806396484376,5.019642353057861,-2.9165353775024414,4.047263145446777
1696082402835806200,10.90380615234375,9.023757934570312,-2.1701126098632812,4.7147135734558105
1696082402845806300,10.913806396484375,10.444865226745605,-0.7985591888427734,3.9356935024261475
1696082402855806200,10.92380615234375,8.896330833435059,0.9301223754882812,1.9933127164840698
1696082402865806300,10.933806396484375,5.715437889099121,2.160489082336426,-0.02402329444885254
1696082402875806200,10.94380615234375,1.9818871021270752,2.2622580528259277,-1.2726783752441406
1696082402885806300,10.953806396484374,-1.3361302614212036,1.8783764839172363,-1.8065004348754883
1696082402895806200,10.96380615234375,-3.705429792404175,1.3688783645629883,-2.2782204151153564
1696082402905806300,10.973806396484376,-5.371730327606201,0.8929471969604492,-2.461038112640381
1696082402915806200,10.98380615234375,-6.646422863006592,0.6208257675170898,-2.5866551399230957
1696082402925806300,10.993806396484375,-6.797087669372559,0.43822479248046875,-1.9300611019134521
1696082402935806200,11.00380615234375,-5.291383743286133,0.4623737335205078,-1.3061081171035767
1696082402945806300,11.013806396484375,-3.396505355834961,0.7634449005126953,-1.35283362865448
1696082402955806200,11.02380615234375,-1.0375263690948486,1.1030731201171875,-1.4073472023010254
1696082402965807000,11.03380712890625,1.5234193801879883,1.1403570175170898,-1.0717599391937256
1696082402975807200,11.04380712890625,3.4293317794799805,0.9062271118164062,-0.2239094376564026
1696082402985807000,11.05380712890625,4.211387634277344,0.550140380859375,0.7669150829315186
1696082402995807200,11.06380712890625,3.965646505355835,0.1672983169555664,1.5450347661972046
1696082403005807000,11.07380712890625,2.8682782649993896,-0.08989906311035156,2.0891191959381104
1696082403015807200,11.08380712890625,1.4980984926223755,-0.18028545379638672,2.0612387657165527
1696082403025807000,11.09380712890625,0.5213990807533264,-0.14541339874267578,1.8507436513900757
1696082403035807200,11.10380712890625,0.405145525932312,-0.10180282592773438,1.712551236152649
1696082403045807900,11.113807861328125,1.3095442056655884,-0.4222564697265625,1.6658713817596436
1696082403055808000,11.12380810546875,2.7967166900634766,-0.9113988876342773,1.744238018989563
1696082403065808000,11.133807861328124,4.179899215698242,-1.3749065399169922,1.998835802078247
1696082403075808000,11.14380810546875,4.884638786315918,-1.6864585876464844,2.4776864051818848
1696082403085807900,11.153807861328126,4.622607231140137,-1.6445283889770508,3.058784008026123
1696082403095808000,11.16380810546875,4.667521953582764,-1.6535882949829102,3.1433117389678955
1696082403105808000,11.173807861328125,2.9230995178222656,-0.9080696105957031,3.6464245319366455
1696082403115808000,11.18380810546875,2.019595146179199,-0.7927770614624023,3.9244189262390137
1696082403125807900,11.193807861328125,1.068310260772705,-0.8875789642333984,4.500428199768066
1696082403135807700,11.203807861328125,0.0775461196899414,-1.0332412719726562,5.196794033050537
1696082403145808000,11.213807861328124,-0.5074430704116821,-1.044158935546875,5.910664081573486
1696082403155807700,11.223807861328124,-0.007236838340759277,-0.8602628707885742,6.43953275680542
1696082403165807900,11.233807861328126,1.783023476600647,-0.538661003112793,6.333915710449219
1696082403175807700,11.243807861328126,3.967144012451172,-0.3470621109008789,5.601846694946289
1696082403185808000,11.253807861328125,5.547906875610352,-0.6101741790771484,4.756632328033447
1696082403195807700,11.263807861328125,6.260212421417236,-1.6714134216308594,4.297549724578857
1696082403205807900,11.273807861328125,6.373260498046875,-3.111766815185547,4.077617645263672
1696082403215807700,11.283807861328125,6.167951583862305,-4.020886421203613,3.729130268096924
1696082403225808000,11.293807861328125,6.1474609375,-4.055721282958984,2.8316309452056885
1696082403235807700,11.303807861328124,7.023347854614258,-3.224137306213379,1.841242790222168
1696082403245807900,11.313807861328126,6.865612030029297,-3.201594352722168,1.7538244724273682
1696082403255807700,11.323807861328126,5.941357612609863,-2.2426443099975586,1.5294586420059204
1696082403265808000,11.333807861328125,-0.12866520881652832,-3.3728199005126953,3.4923880100250244
1696082403275807700,11.343807861328125,-2.42527437210083,-4.463482856750488,2.7453956604003906
1696082403285807900,11.353807861328125,-3.0247063636779785,-5.5894622802734375,1.2896043062210083
1696082403295807700,11.363807861328125,-2.729065418243408,-7.033203125,-0.46549177169799805
1696082403305808000,11.373807861328125,-2.942655324935913,-8.402748107910156,-2.2756268978118896
1696082403315807700,11.383807861328124,-3.1816020011901855,-8.44003963470459,-2.5434937477111816
1696082403325807900,11.393807861328124,-5.756267070770264,-8.44234561920166,-4.485713958740234
1696082403335807700,11.403807861328126,-5.980642318725586,-8.495819091796875,-4.699898719787598
1696082403345808000,11.413807861328126,-5.676726341247559,-4.409939765930176,-3.628030300140381
1696082403355807700,11.423807861328125,-3.9431333541870117,-2.7238645553588867,-2.850623607635498
1696082403365807900,11.433807861328125,0.021850109100341797,-1.876424789428711,-1.9328733682632446
1696082403375807700,11.443807861328125,2.299635410308838,-1.6566658020019531,-0.559665322303772
1696082403385808000,11.453807861328125,1.1663016080856323,-1.5596532821655273,-0.3224978446960449
1696082403395807700,11.463807861328124,-1.4086769819259644,-1.3157949447631836,-0.5940309762954712
1696082403405807900,11.473807861328124,-3.0556044578552246,-0.756866455078125,-1.3867098093032837
1696082403415807700,11.483807861328126,-3.6610283851623535,-0.03047943115234375,-2.224885940551758
1696082403425808000,11.493807861328126,-3.7372488975524902,0.6942834854125977,-2.853332281112671
1696082403435807700,11.503807861328125,-3.3674614429473877,1.428147315979004,-3.4703969955444336
1696082403445807900,11.513807861328125,-3.208893299102783,1.9531755447387695,-4.138473987579346
1696082403455807700,11.523807861328125,-3.573212146759033,2.247746467590332,-4.462870121002197
1696082403465808000,11.533807861328125,-4.143507480621338,2.4078612327575684,-4.673816680908203
1696082403475807700,11.543807861328125,-4.252240180969238,2.500981330871582,-5.002749443054199
1696082403485807900,11.553807861328124,-3.984467029571533,2.5377731323242188,-5.3528032302856445
1696082403495807700,11.563807861328126,-3.5896987915039062,2.504859447479248,-5.578555107116699
1696082403505808000,11.573807861328126,-3.5686802864074707,2.566385269165039,-5.649509429931641
1696082403515807700,11.583807861328125,-3.8421947956085205,2.556358814239502,-5.571428298950195
1696082403525807900,11.593807861328125,-4.415229797363281,2.517228603363037,-5.193342685699463
1696082403535807700,11.603807861328125,-5.088584899902344,2.6027631759643555,-4.801847457885742
1696082403545808000,11.613807861328125,-5.2925567626953125,2.812570095062256,-4.618424415588379
1696082403555807700,11.623807861328125,-5.129673957824707,3.1204051971435547,-4.729929447174072
1696082403565807900,11.633807861328124,-4.892890930175781,3.468539237976074,-5.246709823608398
1696082403575807700,11.643807861328124,-5.114282131195068,3.8378748893737793,-5.834297180175781
1696082403585808000,11.653807861328126,-5.216122627258301,4.176520824432373,-6.315922260284424
1696082403595807700,11.663807861328126,-5.1511549949646,4.523435115814209,-6.574858665466309
1696082403605807900,11.673807861328125,-4.901662826538086,4.930819988250732,-6.724863529205322
1696082403615807700,11.683807861328125,-4.368283271789551,5.266027450561523,-6.787173748016357
1696082403625808000,11.693807861328125,-3.784142017364502,5.318724632263184,-6.617212295532227
1696082403635807700,11.703807861328125,-2.8861963748931885,4.923673629760742,-5.805269241333008
1696082403645807900,11.713807861328124,-1.9649640321731567,4.204154968261719,-4.316518306732178
1696082403655807700,11.723807861328124,-0.8279983997344971,3.06081485748291,-2.4580540657043457
1696082403665808000,11.733807861328126,0.9156992435455322,1.4107494354248047,-0.35659003257751465
1696082403675807700,11.743807861328126,3.6737277507781982,-0.6533260345458984,1.8050925731658936
1696082403685807900,11.753807861328125,6.422161102294922,-2.8050994873046875,4.260941028594971
1696082403695807700,11.763807861328125,7.379428863525391,-4.720235824584961,6.886206150054932
1696082403705808000,11.773807861328125,6.964131832122803,-6.228097915649414,9.713638305664062
1696082403715807700,11.783807861328125,6.675595760345459,-7.287681579589844,11.962909698486328
1696082403725807900,11.793807861328125,6.171594619750977,-7.704619407653809,12.317366600036621
1696082403735807700,11.803807861328124,5.511853218078613,-6.716992378234863,10.374510765075684
1696082403745808000,11.813807861328126,6.0522871017456055,-4.544792175292969,6.351098537445068
1696082403755807700,11.823807861328126,5.255331039428711,-2.4247055053710938,2.994978189468384
1696082403765807900,11.833807861328125,2.7986416816711426,-0.8751077651977539,0.8275256156921387
1696082403775807700,11.843807861328125,1.1668543815612793,-0.988469123840332,-0.7229723930358887
1696082403785808000,11.853807861328125,1.4906566143035889,-2.2639760971069336,-2.04447078704834
1696082403795807700,11.863807861328125,1.2144660949707031,-3.9892683029174805,-3.1913206577301025
1696082403805807900,11.873807861328125,0.4240168333053589,-6.021658897399902,-4.109694480895996
1696082403815807700,11.883807861328124,0.8625121116638184,-8.16261100769043,-5.1019182205200195
1696082403825808000,11.893807861328124,5.654512405395508,-10.767056465148926,-6.093583106994629
1696082403835807700,11.903807861328126,0.19900751113891602,-9.684273719787598,-6.622311592102051
1696082403845807900,11.913807861328126,-4.455880165100098,-7.015581130981445,-6.603493690490723
1696082403855807700,11.923807861328125,-6.452780723571777,-3.267247200012207,-5.838591575622559
1696082403865808000,11.933807861328125,-7.998850345611572,0.22428035736083984,-5.807929039001465
1696082403875807700,11.943807861328125,-9.523713111877441,2.960437297821045,-5.847924709320068
1696082403885807900,11.953807861328125,-10.728471755981445,5.260308742523193,-5.10099983215332
1696082403895807700,11.963807861328124,-10.123041152954102,6.64039421081543,-6.026277542114258
1696082403905808000,11.973807861328124,-8.819724082946777,6.9027838706970215,-5.470506191253662
1696082403915807700,11.983807861328126,-8.71509838104248,6.951527118682861,-5.343686103820801
1696082403925807900,11.993807861328126,-7.298234462738037,5.600266456604004,-3.325035810470581
1696082403935807700,12.003807861328125,-5.545962333679199,3.965951919555664,-2.595458984375
1696082403945808000,12.013807861328125,-4.121574878692627,1.8907427787780762,-1.8456250429153442
1696082403955807700,12.023807861328125,-3.2198238372802734,-0.13804244995117188,-1.3066169023513794
1696082403965807900,12.033807861328125,-2.7884790897369385,-1.7093563079833984,-1.0077245235443115
1696082403975807700,12.043807861328125,-2.582489490509033,-2.8143863677978516,-0.8224129676818848
1696082403985808000,12.053807861328124,-2.378699779510498,-3.404900550842285,-0.5837763547897339
1696082403995807700,12.063807861328126,-0.4373284876346588,-3.6411657333374023,0.6902080774307251
1696082404005807900,12.073807861328126,3.7036848068237305,-3.3890132904052734,3.153014659881592
1696082404015807700,12.083807861328125,7.564224720001221,-2.4447221755981445,4.748448848724365
1696082404025808000,12.093807861328125,10.464344024658203,-0.8132772445678711,4.451516628265381
1696082404035807700,12.103807861328125,9.846105575561523,0.7515096664428711,3.176947832107544
1696082404045807900,12.113807861328125,6.381107330322266,1.6815662384033203,1.5898058414459229
1696082404055807700,12.123807861328125,2.0906410217285156,1.99928617477417,0.03938710689544678
1696082404065808000,12.133807861328124,-1.2479562759399414,1.467432975769043,-0.6998049020767212
1696082404075807700,12.143807861328124,-3.0071959495544434,0.7243795394897461,-1.0975065231323242
1696082404085807900,12.153807861328126,-4.117722511291504,0.24972152709960938,-1.2491636276245117
1696082404095807700,12.163807861328126,-5.119325637817383,0.07158851623535156,-1.185725450515747
1696082404105808000,12.173807861328125,-5.144383430480957,0.23543262481689453,-1.479914903640747
1696082404115807700,12.183807861328125,-5.214237213134766,0.5352964401245117,-1.0916812419891357
1696082404125807900,12.193807861328125,-4.546465873718262,0.6818370819091797,-0.2255234718322754
1696082404135807700,12.203807861328125,-3.603517532348633,0.9201583862304688,0.18465983867645264
1696082404145808000,12.213807861328124,-2.1610631942749023,1.1414642333984375,0.016117990016937256
1696082404155807700,12.223807861328124,-0.11192202568054199,1.087228775024414,-0.13142001628875732
1696082404165807900,12.233807861328126,2.040499210357666,0.7202053070068359,0.03166705369949341
1696082404175807700,12.243807861328126,3.6710948944091797,0.28258228302001953,0.42865246534347534
1696082404185808000,12.253807861328125,4.40084981918335,-0.12828445434570312,0.5706915259361267
1696082404195807700,12.263807861328125,4.054328441619873,-0.4860830307006836,0.5531486868858337
1696082404205807900,12.273807861328125,3.0187058448791504,-0.6950521469116211,0.4121554493904114
1696082404215807700,12.283807861328125,3.083354949951172,-0.7019281387329102,0.47257333993911743
1696082404225808000,12.293807861328125,1.6292890310287476,-0.7334098815917969,-0.11513248085975647
1696082404235807700,12.303807861328124,2.036268711090088,-0.5428552627563477,-0.23754458129405975
1696082404245807900,12.313807861328126,2.998884677886963,-0.2635936737060547,-0.19921967387199402
1696082404255807700,12.323807861328126,3.9218878746032715,-0.2673959732055664,0.14144457876682281
1696082404265808000,12.333807861328125,4.407720565795898,-0.3798074722290039,0.7343857288360596
1696082404275807700,12.343807861328125,4.272587299346924,-0.4271583557128906,1.493856430053711
1696082404285807900,12.353807861328125,3.5760817527770996,-0.33083152770996094,2.4970035552978516
1696082404295807700,12.363807861328125,2.622897148132324,-0.20434188842773438,3.5381271839141846
1696082404305808000,12.373807861328125,1.7329624891281128,-0.11451435089111328,4.432136058807373
1696082404315807700,12.383807861328124,1.0776575803756714,-0.07927894592285156,5.179900169372559
1696082404325807900,12.393807861328124,0.6971787214279175,-0.08402061462402344,5.928703308105469
1696082404335807700,12.403807861328126,0.5901961326599121,-0.17377185821533203,6.676646709442139
1696082404345808000,12.413807861328126,0.6840369701385498,-0.48299694061279297,7.41483211517334
1696082404355807700,12.423807861328125,0.9136518836021423,-1.4443464279174805,8.241321563720703
1696082404365807900,12.433807861328125,1.3747539520263672,-2.8121891021728516,8.721212387084961
1696082404375807700,12.443807861328125,2.333056926727295,-4.155830383300781,8.483119010925293
1696082404385808000,12.453807861328125,3.6378355026245117,-5.02850341796875,7.581527233123779
1696082404395807700,12.463807861328124,5.010674953460693,-5.435022354125977,6.580041885375977
1696082404405807900,12.473807861328124,6.004811763763428,-5.642635345458984,5.661801338195801
1696082404415807700,12.483807861328126,6.821375846862793,-5.502341270446777,4.484404563903809
1696082404425808000,12.493807861328126,7.410892963409424,-4.707913398742676,2.3890695571899414
1696082404435807700,12.503807861328125,6.4370012283325195,-4.017014503479004,0.45162099599838257
1696082404445807900,12.513807861328125,4.011971950531006,-4.0273542404174805,-0.5322175025939941
1696082404455807700,12.523807861328125,1.2332359552383423,-4.487330436706543,-1.3615024089813232
1696082404465808000,12.533807861328125,-0.8090724349021912,-5.322971343994141,-2.854546546936035
1696082404475807700,12.543807861328125,-2.4009792804718018,-6.008120536804199,-4.255837917327881
1696082404485807900,12.553807861328124,-3.751546859741211,-6.620652198791504,-5.184871673583984
1696082404495807700,12.563807861328126,-4.814766883850098,-6.706315040588379,-6.278461456298828
1696082404505808000,12.573807861328126,-4.948215007781982,-6.048765182495117,-7.221223831176758
1696082404515807700,12.583807861328125,-4.34080171585083,-4.652362823486328,-7.226762294769287
1696082404525807900,12.593807861328125,-3.868224620819092,-3.4146766662597656,-6.437400817871094
1696082404535807700,12.603807861328125,-1.8825942277908325,-2.4673995971679688,-5.241082191467285
1696082404545808000,12.613807861328125,0.5890151262283325,-1.9567127227783203,-3.598144054412842
1696082404555807700,12.623807861328125,1.0928794145584106,-1.6765022277832031,-2.3548743724823
1696082404565807900,12.633807861328124,-0.2691754102706909,-1.3305349349975586,-1.8286323547363281
1696082404575807700,12.643807861328124,-1.7958571910858154,-1.0278759002685547,-1.655023455619812
