time,seconds_elapsed,z,y,x
1695713211291613400,0.187613525390625,-1.6680908203125,-3.296966552734375,1.34002685546875
1695713211301165300,0.197165283203125,-1.656494140625,-3.737335205078125,1.483612060546875
1695713211310717400,0.206717529296875,-1.554412841796875,-3.777618408203125,1.60308837890625
1695713211320269300,0.216269287109375,-1.37725830078125,-3.661041259765625,1.6656494140625
1695713211329821400,0.225821533203125,-1.144256591796875,-3.680877685546875,1.67510986328125
1695713211339342800,0.2353427734375,-0.91278076171875,-3.751068115234375,1.70166015625
1695713211348894700,0.244894775390625,-0.702362060546875,-3.758697509765625,1.75537109375
1695713211358446800,0.25444677734375,-0.526123046875,-3.822479248046875,1.810150146484375
1695713211367998700,0.263998779296875,-0.424652099609375,-3.861083984375,1.871490478515625
1695713211377550800,0.27355078125,-0.418853759765625,-3.766632080078125,1.933441162109375
1695713211387102700,0.283102783203125,-0.52825927734375,-3.455352783203125,1.97265625
1695713211396654800,0.29265478515625,-0.712127685546875,-3.093414306640625,1.935882568359375
1695713211406206700,0.302206787109375,-0.8984375,-2.714385986328125,1.818389892578125
1695713211415758800,0.3117587890625,-1.01715087890625,-2.19268798828125,1.63055419921875
1695713211425280300,0.3212802734375,-1.01837158203125,-1.48895263671875,1.27960205078125
1695713211434832400,0.330832275390625,-0.95489501953125,-1.04400634765625,0.92529296875
1695713211444384300,0.34038427734375,-0.85693359375,-0.7623291015625,0.6298828125
1695713211453936400,0.349936279296875,-0.726470947265625,-0.64178466796875,0.405731201171875
1695713211463457800,0.359457763671875,-0.58013916015625,-0.677490234375,0.23712158203125
1695713211473010000,0.369010009765625,-0.440216064453125,-0.839385986328125,0.106964111328125
1695713211482561800,0.378561767578125,-0.291748046875,-1.02508544921875,0.051727294921875
1695713211492114000,0.388114013671875,-0.139617919921875,-1.11541748046875,0.099334716796875
1695713211501665800,0.397665771484375,0.013275146484375,-1.0784912109375,0.25543212890625
1695713211511187200,0.407187255859375,0.15350341796875,-0.953521728515625,0.473785400390625
1695713211520739300,0.4167392578125,0.245208740234375,-0.796661376953125,0.67626953125
1695713211530291200,0.426291259765625,0.314788818359375,-0.583343505859375,0.774688720703125
1695713211539843300,0.43584326171875,0.39947509765625,-0.36346435546875,0.722808837890625
1695713211549364700,0.44536474609375,0.5609130859375,-0.227508544921875,0.53070068359375
1695713211558916900,0.454916748046875,0.83221435546875,-0.242156982421875,0.22430419921875
1695713211568468700,0.46446875,1.091766357421875,-0.3997802734375,-0.10833740234375
1695713211578020900,0.474020751953125,1.1688232421875,-0.545501708984375,-0.316314697265625
1695713211587572700,0.48357275390625,1.14715576171875,-0.64056396484375,-0.329132080078125
1695713211597094400,0.493094482421875,1.20086669921875,-0.732421875,-0.1690673828125
1695713211606646300,0.502646240234375,1.27288818359375,-0.77117919921875,0.077972412109375
1695713211616198400,0.512198486328125,1.2646484375,-0.810699462890625,0.27862548828125
1695713211625750300,0.521750244140625,1.19476318359375,-0.886993408203125,0.324859619140625
1695713211635271700,0.531271728515625,1.070709228515625,-1.03302001953125,0.218505859375
1695713211644823800,0.54082373046875,0.957183837890625,-1.194305419921875,0.042572021484375
1695713211654375700,0.550375732421875,0.90362548828125,-1.34857177734375,-0.09552001953125
1695713211663927800,0.559927734375,0.941925048828125,-1.48651123046875,-0.14373779296875
1695713211673510400,0.569510498046875,1.153564453125,-1.48651123046875,-0.1239013671875
1695713211683031800,0.57903173828125,1.53717041015625,-1.266632080078125,-0.126953125
1695713211692583700,0.588583740234375,1.800079345703125,-0.880889892578125,-0.17852783203125
1695713211702135800,0.5981357421875,1.811065673828125,-0.423583984375,-0.215606689453125
1695713211711687700,0.607687744140625,1.657257080078125,-0.109405517578125,-0.15716552734375
1695713211721209300,0.617209228515625,1.411895751953125,0.05157470703125,0.008087158203125
1695713211730761200,0.62676123046875,1.1834716796875,0.153656005859375,0.14739990234375
1695713211740313300,0.636313232421875,1.15234375,0.146331787109375,0.087127685546875
1695713211749865200,0.645865234375,1.321258544921875,0.189971923828125,-0.15380859375
1695713211759417300,0.655417236328125,1.425933837890625,0.390625,-0.311737060546875
1695713211768938800,0.664938720703125,1.449432373046875,0.441741943359375,-0.283966064453125
1695713211778491000,0.674490966796875,1.443328857421875,0.195159912109375,-0.13153076171875
1695713211788042800,0.684042724609375,1.435699462890625,-0.147552490234375,0.136260986328125
1695713211797595000,0.693594970703125,1.449737548828125,-0.487823486328125,0.386199951171875
1695713211807116300,0.7031162109375,1.457672119140625,-0.70220947265625,0.52001953125
1695713211816668200,0.712668212890625,1.448211669921875,-0.73486328125,0.61248779296875
1695713211826220300,0.72222021484375,1.435699462890625,-0.750732421875,0.734100341796875
1695713211835772200,0.731772216796875,1.431732177734375,-0.78521728515625,0.765838623046875
1695713211845293800,0.7412939453125,1.46820068359375,-0.70159912109375,0.729217529296875
1695713211854845700,0.750845703125,1.497802734375,-0.478973388671875,0.59844970703125
1695713211864397800,0.760397705078125,1.4801025390625,-0.171661376953125,0.435333251953125
1695713211873949700,0.76994970703125,1.448822021484375,0.0445556640625,0.32318115234375
1695713211883501800,0.779501708984375,1.4727783203125,0.0726318359375,0.32470703125
1695713211893023200,0.789023193359375,1.55914306640625,-0.06134033203125,0.463714599609375
1695713211902575400,0.798575439453125,1.682281494140625,-0.3094482421875,0.707550048828125
1695713211912127200,0.808127197265625,1.84967041015625,-0.66192626953125,1.050567626953125
1695713211921679400,0.817679443359375,2.087249755859375,-1.05987548828125,1.496734619140625
1695713211931231200,0.827231201171875,2.413787841796875,-1.446533203125,2.0416259765625
1695713211940752600,0.836752685546875,2.884368896484375,-1.80694580078125,2.619171142578125
1695713211950335200,0.846335205078125,3.511810302734375,-2.058563232421875,3.08837890625
1695713211959887400,0.855887451171875,4.182281494140625,-2.12646484375,3.341827392578125
1695713211969439200,0.865439208984375,4.74212646484375,-2.06695556640625,3.355865478515625
1695713211978960600,0.874960693359375,5.106201171875,-2.050323486328125,3.213043212890625
1695713211988512800,0.8845126953125,5.320892333984375,-2.16461181640625,3.04046630859375
1695713211998064600,0.894064697265625,5.546875,-2.52471923828125,2.940216064453125
1695713212007616800,0.90361669921875,5.54046630859375,-3.040924072265625,2.942352294921875
1695713212017168600,0.913168701171875,5.363922119140625,-3.51043701171875,3.026123046875
1695713212026690300,0.922690185546875,5.2313232421875,-3.97796630859375,3.14178466796875
1695713212036242200,0.9322421875,5.19927978515625,-4.407501220703125,3.329010009765625
1695713212045794300,0.941794189453125,5.22125244140625,-4.625244140625,3.566131591796875
1695713212055346200,0.95134619140625,5.16876220703125,-4.6624755859375,3.699493408203125
1695713212064867800,0.960867919921875,5.037689208984375,-4.484710693359375,3.779296875
1695713212074419700,0.970419677734375,4.908599853515625,-4.113311767578125,3.83941650390625
1695713212083971800,0.979971923828125,4.76654052734375,-3.6517333984375,3.84613037109375
1695713212093523700,0.989523681640625,4.553985595703125,-3.14300537109375,3.8006591796875
1695713212103045000,0.999045166015625,4.204864501953125,-2.586669921875,3.733978271484375
1695713212112597200,1.00859716796875,3.69354248046875,-2.021942138671875,3.701934814453125
1695713212122149000,1.018149169921875,3.145294189453125,-1.518402099609375,3.716583251953125
1695713212131701200,1.027701171875,2.5958251953125,-1.112060546875,3.79119873046875
1695713212141253000,1.037253173828125,2.046356201171875,-0.76751708984375,3.937835693359375
1695713212150774800,1.04677490234375,1.57073974609375,-0.42327880859375,4.10888671875
1695713212160326700,1.05632666015625,1.171875,-0.227813720703125,4.2266845703125
1695713212169878800,1.065878662109375,0.9039306640625,-0.2972412109375,4.21905517578125
1695713212179430700,1.0754306640625,0.592498779296875,-0.531768798828125,4.24957275390625
1695713212188952300,1.084952392578125,0.5035400390625,-1.576690673828125,3.578948974609375
1695713212198504200,1.094504150390625,1.374664306640625,-3.99200439453125,-0.596160888671875
1695713212208056300,1.104056396484375,2.1929931640625,-4.850616455078125,-3.32611083984375
1695713212217608200,1.113608154296875,2.63519287109375,-4.046478271484375,-2.19757080078125
1695713212227160300,1.123160400390625,2.509918212890625,-1.865081787109375,0.2978515625
1695713212236712200,1.132712158203125,2.2125244140625,-0.581512451171875,1.251220703125
1695713212246264300,1.142264404296875,1.97662353515625,-0.3948974609375,0.760955810546875
1695713212255816200,1.151816162109375,1.678009033203125,-0.569305419921875,0.31036376953125
1695713212265368300,1.161368408203125,1.396942138671875,-0.66192626953125,0.391387939453125
1695713212274889700,1.1708896484375,1.279754638671875,-0.797576904296875,0.6072998046875
1695713212284441600,1.180441650390625,1.290740966796875,-0.950164794921875,0.633544921875
1695713212293993700,1.18999365234375,1.283111572265625,-1.230316162109375,0.6268310546875
1695713212303545600,1.199545654296875,1.377410888671875,-1.44989013671875,0.53436279296875
1695713212313097700,1.20909765625,1.740264892578125,-1.33148193359375,0.25238037109375
1695713212322619100,1.218619140625,2.051239013671875,-1.276092529296875,0.051422119140625
1695713212332171300,1.228171142578125,1.9097900390625,-1.194000244140625,0.128326416015625
1695713212341723100,1.23772314453125,1.468505859375,-1.184539794921875,0.50872802734375
1695713212351275300,1.247275146484375,0.994720458984375,-1.322479248046875,0.740814208984375
1695713212360857600,1.256857666015625,0.687103271484375,-1.574249267578125,0.64483642578125
1695713212370470700,1.266470703125,0.619049072265625,-1.602325439453125,0.5303955078125
1695713212380083700,1.276083740234375,0.76416015625,-1.243438720703125,0.54107666015625
1695713212389696800,1.28569677734375,0.950164794921875,-0.770263671875,0.57891845703125
1695713212399309800,1.295309814453125,1.029815673828125,-0.589141845703125,0.688323974609375
1695713212408923000,1.3049228515625,0.991668701171875,-0.7073974609375,0.842132568359375
1695713212418536000,1.314535888671875,0.7586669921875,-1.04705810546875,0.92620849609375
1695713212428179500,1.324179443359375,0.599517822265625,-1.243438720703125,0.908203125
1695713212446642700,1.342642578125,0.152587890625,-0.232391357421875,1.462249755859375
1695713212456225000,1.35222509765625,-0.230712890625,1.311187744140625,3.47137451171875
1695713212465807600,1.3618076171875,0.5029296875,2.09564208984375,5.075836181640625
1695713212475359700,1.37135986328125,1.22161865234375,0.172882080078125,2.3553466796875
1695713212484911600,1.38091162109375,1.25,-0.905609130859375,-1.16851806640625
1695713212494433300,1.390433349609375,1.119384765625,-0.854644775390625,-0.957183837890625
1695713212503985200,1.399985107421875,1.285552978515625,-0.492706298828125,0.52001953125
1695713212513537300,1.409537353515625,1.769256591796875,-0.225067138671875,1.101226806640625
1695713212523119600,1.41911962890625,2.20367431640625,0.153961181640625,0.715789794921875
1695713212532641300,1.428641357421875,2.61016845703125,0.4498291015625,0.403594970703125
1695713212542193200,1.438193115234375,3.142852783203125,0.623626708984375,0.420684814453125
1695713212551745300,1.447745361328125,3.736572265625,0.71319580078125,0.499114990234375
1695713212561297200,1.457297119140625,4.276580810546875,0.77606201171875,0.423431396484375
1695713212570849300,1.466849365234375,4.676361083984375,0.33660888671875,-0.014801025390625
1695713212580370700,1.47637060546875,4.634857177734375,-0.438385009765625,-0.90118408203125
1695713212589922600,1.485922607421875,3.979034423828125,-0.536956787109375,-1.380462646484375
1695713212599474700,1.495474609375,3.26019287109375,-0.059356689453125,-1.17828369140625
1695713212609026600,1.505026611328125,2.796783447265625,0.481719970703125,-0.87799072265625
1695713212618548200,1.51454833984375,2.532501220703125,0.74371337890625,-0.88714599609375
1695713212628100000,1.52410009765625,2.398529052734375,1.04827880859375,-1.071319580078125
1695713212637652200,1.53365234375,2.2393798828125,1.3671875,-1.2109375
1695713212647204000,1.5432041015625,2.014617919921875,0.954437255859375,-1.053924560546875
1695713212656756200,1.552756103515625,1.822357177734375,0.07904052734375,-0.86700439453125
1695713212666277600,1.562277587890625,1.52069091796875,-0.582427978515625,-0.640411376953125
1695713212675829800,1.571829833984375,1.16058349609375,-1.166534423828125,-0.09735107421875
1695713212685362200,1.581362060546875,0.88409423828125,-1.308441162109375,0.5133056640625
1695713212694914300,1.590914306640625,0.982208251953125,-1.315155029296875,0.509033203125
1695713212704435700,1.600435791015625,1.305084228515625,-1.12548828125,0.1422119140625
1695713212713987800,1.60998779296875,1.57257080078125,-0.65185546875,0.087738037109375
1695713212723539700,1.619539794921875,1.721954345703125,-0.020751953125,0.2447509765625
1695713212733091800,1.629091796875,1.568603515625,0.311279296875,0.2410888671875
1695713212742643700,1.638643798828125,1.22650146484375,0.3619384765625,0.1861572265625
1695713212752165000,1.6481650390625,0.932464599609375,0.259857177734375,0.104827880859375
1695713212761717200,1.65771728515625,0.7562255859375,0.084228515625,0.089874267578125
1695713212771269000,1.66726904296875,0.662689208984375,0.0537109375,0.119781494140625
1695713212780821200,1.6768212890625,0.660858154296875,0.086669921875,0.135955810546875
1695713212790342700,1.6863427734375,0.73883056640625,0.0347900390625,0.115509033203125
1695713212799894800,1.695894775390625,0.8544921875,-0.04913330078125,0.049591064453125
1695713212809477000,1.70547705078125,0.966644287109375,-0.156097412109375,-0.01922607421875
1695713212819029200,1.715029296875,1.102142333984375,-0.127716064453125,0.005340576171875
1695713212828581000,1.7245810546875,1.24114990234375,-0.073699951171875,0.065460205078125
1695713212838102800,1.734102783203125,1.374359130859375,-0.115203857421875,0.133514404296875
1695713212847654700,1.743654541015625,1.4752197265625,-0.149993896484375,0.18798828125
1695713212857206800,1.753206787109375,1.53717041015625,-0.104522705078125,0.18646240234375
1695713212866758700,1.762758544921875,1.54510498046875,-0.162506103515625,0.1556396484375
1695713212876280300,1.7722802734375,1.53106689453125,-0.3253173828125,0.164794921875
1695713212885832200,1.781832275390625,1.51336669921875,-0.229339599609375,0.19500732421875
1695713212895384300,1.79138427734375,1.51458740234375,0.0665283203125,0.1666259765625
1695713212904936200,1.800936279296875,1.53411865234375,0.254058837890625,0.048065185546875
1695713212914488300,1.81048828125,1.55029296875,0.28717041015625,-0.06744384765625
1695713212924009700,1.820009765625,1.60614013671875,0.253143310546875,-0.0445556640625
1695713212933561600,1.8295615234375,1.319122314453125,0.269622802734375,0.001373291015625
1695713212943113700,1.83911376953125,0.583648681640625,0.101165771484375,0.088348388671875
1695713212952665600,1.84866552734375,-0.2960205078125,-0.4156494140625,0.134735107421875
1695713212962187300,1.858187255859375,-0.414276123046875,-0.65093994140625,-0.05035400390625
1695713212971739100,1.8677392578125,-0.454254150390625,-0.6561279296875,-0.1788330078125
1695713212981291300,1.877291259765625,-0.52032470703125,-0.60333251953125,0.31219482421875
1695713212990843100,1.886843017578125,-0.410919189453125,-0.529632568359375,0.710601806640625
1695713213000395300,1.896395263671875,-0.485687255859375,-1.0455322265625,0.005645751953125
1695713213009916700,1.905916748046875,-0.791473388671875,-1.305389404296875,-0.268707275390625
1695713213019468800,1.91546875,-1.03759765625,-0.862579345703125,0.484771728515625
1695713213029020700,1.925020751953125,-0.9344482421875,-0.0323486328125,1.190643310546875
1695713213038572800,1.93457275390625,-0.810089111328125,0.455322265625,1.201629638671875
1695713213048094200,1.94409423828125,-1.280517578125,0.850372314453125,0.834808349609375
1695713213057646000,1.95364599609375,-1.059417724609375,1.087646484375,0.329132080078125
1695713213067198200,1.9631982421875,0.11993408203125,0.697021484375,0.428924560546875
1695713213076750000,1.97275,0.8392333984375,0.571136474609375,0.722503662109375
1695713213086302200,1.98230224609375,0.970001220703125,0.640716552734375,0.9423828125
1695713213095854000,1.99185400390625,1.068572998046875,0.506744384765625,0.96649169921875
1695713213105406200,2.00140625,1.320037841796875,0.136260986328125,0.8837890625
1695713213114958000,2.0109580078125,1.784515380859375,-0.169830322265625,0.735015869140625
1695713213124510200,2.02051025390625,2.24151611328125,-0.418701171875,0.6365966796875
1695713213134031600,2.030031494140625,1.8499755859375,-0.909271240234375,0.521240234375
1695713213143583700,2.039583740234375,1.583251953125,-0.99945068359375,0.31646728515625
1695713213153135600,2.049135498046875,1.47186279296875,-0.740966796875,0.29052734375
1695713213162687700,2.058687744140625,1.434783935546875,-0.6414794921875,0.366668701171875
1695713213172239600,2.068239501953125,1.386260986328125,-0.6658935546875,0.434112548828125
1695713213181761300,2.07776123046875,1.22802734375,-0.776824951171875,0.556640625
1695713213191313200,2.087313232421875,0.957183837890625,-0.820465087890625,0.63201904296875
1695713213200865300,2.096865234375,0.450439453125,-0.885772705078125,0.625
1695713213210417200,2.106417236328125,0.41351318359375,-0.7049560546875,0.540771484375
1695713213219938600,2.1159384765625,0.46234130859375,-0.430755615234375,0.394134521484375
1695713213229490700,2.12549072265625,0.115966796875,-0.464630126953125,0.296630859375
1695713213239042600,2.13504248046875,-0.1739501953125,-0.550689697265625,0.25390625
1695713213248594700,2.1445947265625,-0.427703857421875,-0.535430908203125,0.28533935546875
1695713213258146600,2.154146484375,-0.625,-0.476226806640625,0.29449462890625
1695713213267668200,2.163668212890625,-0.710906982421875,-0.431060791015625,0.27130126953125
1695713213277220000,2.17322021484375,-0.702362060546875,-0.3692626953125,0.3094482421875
1695713213286772200,2.182772216796875,-0.616455078125,-0.350341796875,0.368499755859375
1695713213296324000,2.192323974609375,-0.53497314453125,-0.429229736328125,0.438079833984375
1695713213305845800,2.201845703125,-0.50201416015625,-0.477447509765625,0.475616455078125
1695713213315397600,2.211397705078125,-0.476837158203125,-0.426483154296875,0.437164306640625
1695713213324949800,2.22094970703125,-0.419769287109375,-0.234832763671875,0.352325439453125
1695713213334501600,2.230501708984375,-0.2996826171875,0.07232666015625,0.24444580078125
1695713213344053800,2.2400537109375,-0.15106201171875,0.3704833984375,0.14068603515625
1695713213353575200,2.2495751953125,-0.023651123046875,0.576934814453125,0.007476806640625
1695713213363127000,2.259126953125,0.030517578125,0.68695068359375,-0.13275146484375
1695713213372679200,2.26867919921875,0.010528564453125,0.71075439453125,-0.245513916015625
1695713213382261800,2.27826171875,-0.042572021484375,0.6402587890625,-0.349578857421875
1695713213391783200,2.287783203125,-0.085906982421875,0.533905029296875,-0.4705810546875
1695713213401335000,2.2973349609375,-0.098419189453125,0.40863037109375,-0.607452392578125
1695713213410887200,2.30688720703125,-0.084991455078125,0.249786376953125,-0.75286865234375
1695713213420439000,2.31643896484375,-0.077972412109375,0.081787109375,-0.924224853515625
1695713213429991200,2.3259912109375,-0.101470947265625,0.229949951171875,-1.214599609375
1695713213439512600,2.3355126953125,-0.21575927734375,0.600433349609375,-1.452178955078125
1695713213449064700,2.345064697265625,-0.25787353515625,0.553436279296875,-1.48681640625
1695713213458616600,2.354616455078125,-0.2142333984375,0.6842041015625,-1.660003662109375
1695713213468168700,2.364168701171875,-0.177001953125,0.867156982421875,-2.161102294921875
1695713213477690000,2.373690185546875,-0.094146728515625,1.14501953125,-2.479705810546875
1695713213487242200,2.3832421875,0.05859375,1.392822265625,-2.483978271484375
1695713213496794000,2.392794189453125,0.217132568359375,1.4959716796875,-2.422943115234375
1695713213506346200,2.40234619140625,0.346832275390625,1.46942138671875,-2.417449951171875
1695713213515867600,2.41186767578125,0.4638671875,1.277923583984375,-2.461090087890625
1695713213525419500,2.42141943359375,0.54931640625,0.857391357421875,-2.54364013671875
1695713213534971600,2.4309716796875,0.623016357421875,0.265655517578125,-2.61322021484375
1695713213544523500,2.4405234375,0.670928955078125,-0.27679443359375,-2.62603759765625
1695713213554075600,2.45007568359375,0.5377197265625,-0.66314697265625,-2.3419189453125
1695713213563597000,2.45959716796875,0.4180908203125,-1.02691650390625,-1.997833251953125
1695713213573149200,2.469149169921875,0.39642333984375,-1.207122802734375,-1.8499755859375
1695713213582701000,2.478701171875,0.43365478515625,-1.00006103515625,-1.81640625
1695713213592253200,2.488253173828125,0.48126220703125,-0.597076416015625,-1.766204833984375
1695713213601805000,2.49780517578125,0.52978515625,-0.115509033203125,-1.699981689453125
1695713213611326700,2.50732666015625,0.574188232421875,0.3570556640625,-1.62628173828125
1695713213620878600,2.516878662109375,0.618438720703125,0.7598876953125,-1.5478515625
1695713213630430700,2.5264306640625,0.662994384765625,1.03271484375,-1.47186279296875
1695713213639982600,2.535982666015625,0.721588134765625,1.262359619140625,-1.353607177734375
1695713213649504000,2.54550390625,0.80322265625,1.40594482421875,-1.2054443359375
1695713213659056000,2.55505615234375,0.86517333984375,1.361083984375,-1.082000732421875
1695713213668638700,2.564638671875,0.8905029296875,1.204681396484375,-0.977935791015625
1695713213678190600,2.574190673828125,0.88775634765625,1.087646484375,-0.897216796875
1695713213687712000,2.5837119140625,0.87677001953125,1.0797119140625,-0.83831787109375
1695713213697264000,2.59326416015625,0.863037109375,1.129150390625,-0.80413818359375
1695713213706816000,2.60281591796875,0.85693359375,1.213531494140625,-0.78857421875
1695713213716368100,2.6123681640625,0.8575439453125,1.344146728515625,-0.7830810546875
1695713213725920000,2.621919921875,0.843505859375,1.4495849609375,-0.7623291015625
1695713213735441700,2.631441650390625,0.80780029296875,1.48773193359375,-0.728607177734375
1695713213744993500,2.64099365234375,0.75164794921875,1.480712890625,-0.674896240234375
1695713213754545700,2.650545654296875,0.667266845703125,1.46270751953125,-0.595550537109375
1695713213764097500,2.66009765625,0.620880126953125,1.352386474609375,-0.53314208984375
1695713213773619200,2.669619140625,0.597991943359375,1.1712646484375,-0.47210693359375
1695713213783171000,2.679171142578125,0.55999755859375,1.03851318359375,-0.3912353515625
1695713213792723200,2.68872314453125,0.5078125,0.927581787109375,-0.296783447265625
1695713213802275000,2.698275146484375,0.44952392578125,0.820770263671875,-0.197906494140625
1695713213811827200,2.7078271484375,0.3851318359375,0.7232666015625,-0.10040283203125
1695713213821348600,2.7173486328125,0.324249267578125,0.634613037109375,0.001983642578125
1695713213830900500,2.726900390625,0.271453857421875,0.554351806640625,0.107269287109375
1695713213840452600,2.73645263671875,0.222625732421875,0.494537353515625,0.20782470703125
1695713213850004500,2.74600439453125,0.17547607421875,0.452423095703125,0.294189453125
1695713213859526100,2.755526123046875,0.128173828125,0.42205810546875,0.366363525390625
1695713213869078000,2.765078125,0.072021484375,0.4052734375,0.417633056640625
1695713213878630100,2.774630126953125,0.009002685546875,0.372314453125,0.449371337890625
1695713213888182000,2.78418212890625,-0.039520263671875,0.31951904296875,0.463104248046875
1695713213897734100,2.793734130859375,-0.050506591796875,0.28045654296875,0.454864501953125
1695713213907255600,2.803255615234375,-0.014801025390625,0.32440185546875,0.421295166015625
1695713213916807700,2.8128076171875,0.05828857421875,0.45501708984375,0.376739501953125
1695713213926359600,2.822359619140625,0.1556396484375,0.617218017578125,0.333709716796875
1695713213935911700,2.83191162109375,0.258636474609375,0.80078125,0.2911376953125
1695713213945433000,2.84143310546875,0.351715087890625,1.00128173828125,0.22186279296875
1695713213955015700,2.851015625,0.42144775390625,1.138916015625,0.105438232421875
1695713213964567600,2.860567626953125,0.4754638671875,1.07574462890625,-0.048828125
1695713213974119700,2.87011962890625,0.53924560546875,0.79498291015625,-0.196075439453125
1695713213983671600,2.879671630859375,0.597991943359375,0.3778076171875,-0.279388427734375
1695713213993193000,2.88919287109375,0.622100830078125,-0.037841796875,-0.294342041015625
1695713214002745000,2.8987451171875,0.625762939453125,-0.830535888671875,-0.279388427734375
1695713214012297000,2.908296875,0.4913330078125,0.0518798828125,-0.255889892578125
1695713214021849000,2.91784912109375,0.40740966796875,0.347900390625,-0.264129638671875
1695713214031370500,2.92737060546875,0.3912353515625,0.648193359375,-0.14556884765625
1695713214040922600,2.936922607421875,0.39215087890625,1.0321044921875,0.122528076171875
1695713214050474500,2.946474609375,0.3814697265625,1.3995361328125,0.481719970703125
1695713214060026600,2.956026611328125,0.305633544921875,1.588897705078125,0.88531494140625
1695713214069578500,2.96557861328125,0.15472412109375,1.1212158203125,1.29730224609375
1695713214079100200,2.97510009765625,-0.058135986328125,-0.37841796875,1.60186767578125
1695713214088652000,2.984652099609375,-0.169677734375,-2.334747314453125,1.447296142578125
1695713214098204200,2.9942041015625,0.1947021484375,-3.032684326171875,0.460357666015625
1695713214107756000,3.003756103515625,0.7501220703125,-1.223602294921875,-0.938568115234375
1695713214117277400,3.01327734375,0.85052490234375,-0.169830322265625,-1.12823486328125
1695713214126829600,3.02282958984375,0.521240234375,-0.583648681640625,0.14312744140625
1695713214136381400,3.03238134765625,-0.13153076171875,-0.898590087890625,1.157073974609375
1695713214145933600,3.04193359375,-0.824737548828125,-0.431671142578125,1.23809814453125
1695713214155485400,3.0514853515625,-1.23138427734375,0.380859375,0.89996337890625
1695713214165007000,3.061007080078125,-1.36962890625,0.492401123046875,0.85968017578125
1695713214174559000,3.07055908203125,-1.30035400390625,-0.33905029296875,1.168060302734375
1695713214184111000,3.080111083984375,-1.096954345703125,-1.38671875,1.58843994140625
1695713214193663000,3.0896630859375,-0.88165283203125,-2.022857666015625,1.864776611328125
1695713214203184600,3.0991845703125,-0.57952880859375,-2.0965576171875,1.841278076171875
1695713214212736500,3.108736572265625,-0.063323974609375,-1.47216796875,1.6265869140625
1695713214222288600,3.11828857421875,0.375518798828125,-0.438385009765625,1.27685546875
1695713214231840500,3.127840576171875,0.42877197265625,0.195159912109375,0.91796875
1695713214241423000,3.137423095703125,0.1934814453125,0.05615234375,0.889892578125
1695713214250944500,3.146944580078125,-0.107879638671875,-0.555572509765625,1.120758056640625
1695713214260496600,3.15649658203125,-0.373687744140625,-1.166534423828125,1.326904296875
1695713214270048500,3.166048583984375,-0.572509765625,-1.49322509765625,1.3873291015625
1695713214279600600,3.1756005859375,-0.705413818359375,-1.509246826171875,1.3201904296875
1695713214289122000,3.1851220703125,-0.732574462890625,-1.225128173828125,1.25579833984375
1695713214298674000,3.194673828125,-0.63720703125,-0.820159912109375,1.23260498046875
1695713214308226000,3.20422607421875,-0.473175048828125,-0.590057373046875,1.23565673828125
1695713214317778000,3.21377783203125,-0.336761474609375,-0.553436279296875,1.2347412109375
1695713214327330000,3.223330078125,-0.269775390625,-0.593414306640625,1.22528076171875
1695713214336851500,3.2328515625,-0.27435302734375,-0.7177734375,1.159515380859375
1695713214346403600,3.242403564453125,-0.3155517578125,-0.74188232421875,1.085357666015625
1695713214355955500,3.25195556640625,-0.368499755859375,-0.6396484375,1.0400390625
1695713214365507600,3.261507568359375,-0.428314208984375,-0.474700927734375,1.04248046875
1695713214375029000,3.271029052734375,-0.457305908203125,-0.3594970703125,1.042327880859375
1695713214384581000,3.2805810546875,-0.449371337890625,-0.2911376953125,1.02294921875
1695713214394133000,3.290133056640625,-0.433502197265625,-0.26824951171875,0.98358154296875
1695713214403685000,3.29968505859375,-0.423431396484375,-0.28900146484375,0.9307861328125
1695713214413237000,3.309237060546875,-0.426788330078125,-0.3106689453125,0.89080810546875
1695713214422758400,3.31875830078125,-0.450592041015625,-0.3057861328125,0.8807373046875
1695713214432310500,3.328310546875,-0.495452880859375,-0.252685546875,0.90972900390625
1695713214441862400,3.3378623046875,-0.54473876953125,-0.185394287109375,0.953369140625
1695713214451414500,3.34741455078125,-0.58685302734375,-0.136260986328125,0.98388671875
1695713214460936000,3.35693603515625,-0.6146240234375,-0.119476318359375,0.98602294921875
1695713214470488000,3.366488037109375,-0.6390380859375,-0.147857666015625,0.9722900390625
1695713214480040000,3.3760400390625,-0.6585693359375,-0.201568603515625,0.9515380859375
1695713214489592000,3.385592041015625,-0.6634521484375,-0.2716064453125,0.92742919921875
1695713214499144000,3.39514404296875,-0.64056396484375,-0.3326416015625,0.88104248046875
1695713214508665600,3.40466552734375,-0.606689453125,-0.35675048828125,0.796051025390625
1695713214518217500,3.414217529296875,-0.565185546875,-0.35400390625,0.6695556640625
1695713214527800000,3.423800048828125,-0.5194091796875,-0.35552978515625,0.5316162109375
1695713214537352000,3.43335205078125,-0.471954345703125,-0.39947509765625,0.421600341796875
1695713214546873600,3.44287353515625,-0.415191650390625,-0.461578369140625,0.345001220703125
1695713214556425500,3.452425537109375,-0.345611572265625,-0.486297607421875,0.27099609375
1695713214565977600,3.4619775390625,-0.29083251953125,-0.41717529296875,0.18341064453125
1695713214575529500,3.471529541015625,-0.29449462890625,-0.25482177734375,0.092315673828125
1695713214585051000,3.48105078125,-0.334014892578125,-0.070953369140625,0.016326904296875
1695713214594603000,3.49060302734375,-0.375518798828125,0.00396728515625,-0.0421142578125
1695713214604155000,3.50015478515625,-0.402069091796875,-0.103302001953125,-0.0982666015625
1695713214613707000,3.50970703125,-0.392608642578125,-0.3515625,-0.214691162109375
1695713214623259000,3.5192587890625,-0.336151123046875,-0.554656982421875,-0.376129150390625
1695713214632780500,3.528780517578125,-0.2099609375,-0.570831298828125,-0.48736572265625
1695713214642332400,3.53833251953125,-0.029144287109375,-0.39947509765625,-0.52825927734375
1695713214651884500,3.547884521484375,0.1373291015625,-0.071258544921875,-0.579071044921875
1695713214661436400,3.5574365234375,0.245513916015625,0.3216552734375,-0.728607177734375
1695713214670988500,3.566988525390625,0.379486083984375,0.615386962890625,-0.962371826171875
1695713214680510000,3.576510009765625,0.55938720703125,0.814208984375,-1.20147705078125
1695713214690062000,3.58606201171875,0.681610107421875,1.00372314453125,-1.462554931640625
1695713214699614000,3.595614013671875,0.722808837890625,1.07269287109375,-1.757659912109375
1695713214709166000,3.605166015625,0.7476806640625,0.976715087890625,-2.075958251953125
1695713214718687500,3.6146875,0.77911376953125,0.81085205078125,-2.428131103515625
1695713214728239400,3.6242392578125,0.804443359375,0.601043701171875,-2.764739990234375
1695713214737791500,3.63379150390625,0.78582763671875,0.41961669921875,-2.9425048828125
1695713214747343400,3.64334326171875,0.715484619140625,0.278778076171875,-2.90374755859375
1695713214756865000,3.652864990234375,0.648040771484375,0.149688720703125,-2.730255126953125
1695713214766417000,3.6624169921875,0.626678466796875,-0.0457763671875,-2.56500244140625
1695713214775969000,3.671968994140625,0.641326904296875,-0.3759765625,-2.499847412109375
1695713214785521000,3.68152099609375,0.612030029296875,-0.860748291015625,-2.54119873046875
1695713214795073000,3.691072998046875,0.594635009765625,-1.33453369140625,-2.611083984375
1695713214804594400,3.700594482421875,0.594940185546875,-1.495208740234375,-2.63427734375
1695713214814177000,3.710177001953125,0.5218505859375,-1.260528564453125,-2.58331298828125
1695713214823729000,3.71972900390625,0.406494140625,-0.70037841796875,-2.459259033203125
1695713214833281000,3.729281005859375,0.334625244140625,0.06378173828125,-2.293701171875
1695713214842833000,3.7388330078125,0.332183837890625,0.827789306640625,-2.116241455078125
1695713214852354600,3.7483544921875,0.350189208984375,1.49932861328125,-1.966552734375
1695713214861906400,3.757906494140625,0.361785888671875,1.76971435546875,-1.90185546875
1695713214871458600,3.76745849609375,0.358734130859375,1.660308837890625,-1.8438720703125
1695713214881010400,3.777010498046875,0.360870361328125,1.46484375,-1.779937744140625
1695713214890531800,3.78653173828125,0.40191650390625,1.299591064453125,-1.684112548828125
1695713214900084000,3.796083984375,0.4742431640625,1.1517333984375,-1.55303955078125
1695713214909635800,3.8056357421875,0.5462646484375,1.04583740234375,-1.369171142578125
1695713214919188000,3.81518798828125,0.600738525390625,0.969085693359375,-1.16119384765625
1695713214928709400,3.82470947265625,0.645294189453125,0.905914306640625,-0.956573486328125
1695713214938261500,3.834261474609375,0.669097900390625,0.867767333984375,-0.79345703125
1695713214947813400,3.8438134765625,0.683746337890625,0.851593017578125,-0.662994384765625
1695713214957365500,3.853365478515625,0.689849853515625,0.845489501953125,-0.54443359375
1695713214966917400,3.86291748046875,0.685882568359375,0.856170654296875,-0.433349609375
1695713214976438800,3.872438720703125,0.664520263671875,0.874176025390625,-0.320587158203125
1695713214985991000,3.881990966796875,0.629730224609375,0.856475830078125,-0.18402099609375
1695713214995543000,3.89154296875,0.574798583984375,0.77789306640625,-0.005950927734375
1695713215005095000,3.901094970703125,0.5108642578125,0.65216064453125,0.2197265625
1695713215014647000,3.91064697265625,0.44708251953125,0.507659912109375,0.488433837890625
1695713215024168400,3.92016845703125,0.38970947265625,0.3662109375,0.789947509765625
1695713215033720300,3.92972021484375,0.329742431640625,0.243988037109375,1.107330322265625
1695713215043272400,3.9392724609375,0.261383056640625,0.168609619140625,1.424713134765625
1695713215052824300,3.94882421875,0.18463134765625,0.142669677734375,1.7230224609375
1695713215062346000,3.958345947265625,0.1153564453125,0.173187255859375,1.968994140625
1695713215071897900,3.96789794921875,0.06256103515625,0.267181396484375,2.1002197265625
1695713215081450000,3.977449951171875,0.02777099609375,0.42022705078125,2.0465087890625
1695713215091001900,3.987001953125,0.03204345703125,0.6427001953125,1.774444580078125
1695713215100554000,3.996553955078125,0.09185791015625,0.835418701171875,1.317138671875
1695713215110105900,4.00610595703125,0.242156982421875,0.899200439453125,0.683135986328125
1695713215119658000,4.015657958984375,0.42327880859375,0.971527099609375,-0.14892578125
1695713215129209900,4.0252099609375,0.634918212890625,0.928497314453125,-0.991363525390625
1695713215138762000,4.034761962890625,0.81817626953125,0.29449462890625,-1.408538818359375
1695713215148283400,4.044283447265625,0.88348388671875,-0.525665283203125,-1.317291259765625
1695713215157835500,4.05383544921875,0.8209228515625,-0.77606201171875,-1.070098876953125
1695713215167387400,4.063387451171875,0.642242431640625,-0.455169677734375,-0.90240478515625
1695713215176939500,4.072939453125,0.38330078125,0.03204345703125,-0.7843017578125
1695713215186461000,4.0824609375,0.17547607421875,0.487823486328125,-0.615692138671875
1695713215196012800,4.0920126953125,0.03875732421875,0.977630615234375,-0.336456298828125
1695713215205565000,4.10156494140625,-0.2227783203125,1.278228759765625,0.062713623046875
1695713215215116800,4.11111669921875,-0.6134033203125,1.06170654296875,0.615234375
1695713215224669000,4.1206689453125,-1.0076904296875,0.132293701171875,1.436614990234375
1695713215234190300,4.1301904296875,-1.135101318359375,-1.598968505859375,1.95556640625
1695713215243742500,4.139742431640625,-0.6707763671875,-2.85125732421875,0.98114013671875
1695713215253294300,4.14929443359375,0.05218505859375,-1.232452392578125,-0.91766357421875
1695713215262846500,4.158846435546875,0.52703857421875,0.0830078125,-0.947723388671875
1695713215272367900,4.168367919921875,0.54229736328125,-1.0699462890625,0.59112548828125
1695713215281919700,4.177919677734375,0.164794921875,-1.613616943359375,1.400299072265625
1695713215291472000,4.187471923828125,-0.367279052734375,-0.74676513671875,1.2738037109375
1695713215301023700,4.197023681640625,-0.706634521484375,0.258636474609375,0.754852294921875
1695713215310575900,4.206575927734375,-0.847625732421875,0.206451416015625,0.746002197265625
1695713215320097300,4.21609716796875,-0.86761474609375,-0.65887451171875,1.2451171875
1695713215329649400,4.2256494140625,-0.785675048828125,-1.473388671875,1.768035888671875
1695713215339201300,4.235201171875,-0.60821533203125,-1.8304443359375,2.0513916015625
1695713215348753400,4.24475341796875,-0.337677001953125,-1.624603271484375,2.0404052734375
1695713215358274800,4.25427490234375,0.005645751953125,-1.1285400390625,1.781768798828125
1695713215367827000,4.263826904296875,0.296173095703125,-0.843963623046875,1.39068603515625
1695713215377378800,4.27337890625,0.330963134765625,-0.889129638671875,1.118316650390625
1695713215386961400,4.28296142578125,0.1495361328125,-1.10137939453125,1.138763427734375
1695713215396513300,4.29251318359375,-0.122833251953125,-1.36749267578125,1.383056640625
1695713215406035000,4.302034912109375,-0.395355224609375,-1.518707275390625,1.5997314453125
1695713215415586800,4.3115869140625,-0.6048583984375,-1.3671875,1.6168212890625
1695713215425139000,4.321138916015625,-0.708770751953125,-0.9637451171875,1.500396728515625
1695713215434690800,4.33069091796875,-0.685577392578125,-0.533294677734375,1.37298583984375
1695713215444212200,4.340212158203125,-0.5621337890625,-0.3131103515625,1.34002685546875
1695713215453764400,4.349764404296875,-0.421905517578125,-0.380859375,1.409759521484375
1695713215463316500,4.35931640625,-0.331878662109375,-0.6256103515625,1.461029052734375
1695713215472868400,4.368868408203125,-0.30609130859375,-0.824127197265625,1.418304443359375
1695713215482420500,4.37842041015625,-0.337066650390625,-0.850067138671875,1.31072998046875
1695713215491942000,4.38794189453125,-0.388031005859375,-0.74371337890625,1.209259033203125
1695713215501493800,4.39749365234375,-0.443267822265625,-0.602569580078125,1.144256591796875
1695713215511046000,4.4070458984375,-0.486297607421875,-0.470733642578125,1.110687255859375
1695713215520597800,4.41659765625,-0.51300048828125,-0.35369873046875,1.130523681640625
1695713215530119400,4.426119384765625,-0.52001953125,-0.31524658203125,1.159210205078125
1695713215539671300,4.43567138671875,-0.50994873046875,-0.34027099609375,1.174163818359375
1695713215549223400,4.445223388671875,-0.51605224609375,-0.406494140625,1.167144775390625
1695713215558775300,4.454775390625,-0.54656982421875,-0.458526611328125,1.139678955078125
1695713215568327400,4.464327392578125,-0.5859375,-0.469818115234375,1.097564697265625
1695713215577848800,4.473848876953125,-0.633544921875,-0.442657470703125,1.056976318359375
1695713215587400700,4.483400634765625,-0.682525634765625,-0.3997802734375,1.033935546875
1695713215596952800,4.492952880859375,-0.717315673828125,-0.391845703125,1.0284423828125
1695713215606504700,4.502504638671875,-0.724945068359375,-0.459136962890625,1.01348876953125
1695713215616026400,4.5120263671875,-0.707550048828125,-0.541839599609375,0.9722900390625
1695713215625578200,4.521578125,-0.66497802734375,-0.602874755859375,0.87371826171875
1695713215635130400,4.53113037109375,-0.6195068359375,-0.64422607421875,0.716705322265625
1695713215644682200,4.54068212890625,-0.58746337890625,-0.66864013671875,0.53131103515625
1695713215654234400,4.550234375,-0.56121826171875,-0.68084716796875,0.370025634765625
1695713215663755800,4.559755859375,-0.52001953125,-0.69580078125,0.27191162109375
1695713215673338400,4.56933837890625,-0.463104248046875,-0.6927490234375,0.2191162109375
1695713215682890200,4.57889013671875,-0.416107177734375,-0.590362548828125,0.16357421875
1695713215692442400,4.5884423828125,-0.418853759765625,-0.38909912109375,0.095672607421875
1695713215701963800,4.5979638671875,-0.452117919921875,-0.162200927734375,0.025482177734375
1695713215711516000,4.607515869140625,-0.469207763671875,-0.00396728515625,-0.03997802734375
1695713215721067800,4.61706787109375,-0.428924560546875,-0.03448486328125,-0.12359619140625
1695713215730620000,4.626619873046875,-0.339508056640625,-0.213775634765625,-0.274505615234375
1695713215740171800,4.636171875,-0.2093505859375,-0.36956787109375,-0.46142578125
1695713215749693200,4.645693115234375,-0.005035400390625,-0.37628173828125,-0.634002685546875
1695713215759245300,4.655245361328125,0.250091552734375,-0.229034423828125,-0.79254150390625
1695713215768797200,4.664797119140625,0.41900634765625,0.08392333984375,-0.998687744140625
1695713215778349300,4.674349365234375,0.53131103515625,0.489349365234375,-1.27227783203125
1695713215787870700,4.68387060546875,0.703277587890625,0.843658447265625,-1.57012939453125
1695713215797422800,4.6934228515625,0.85113525390625,1.011962890625,-1.861572265625
1695713215806974700,4.702974609375,0.89996337890625,0.980377197265625,-2.158660888671875
1695713215816526800,4.71252685546875,0.89996337890625,0.837249755859375,-2.488555908203125
1695713215826078700,4.72207861328125,0.9149169921875,0.557708740234375,-2.838897705078125
1695713215835600400,4.731600341796875,0.86334228515625,0.211639404296875,-3.139495849609375
1695713215845152300,4.74115234375,0.699310302734375,-0.088043212890625,-3.28643798828125
1695713215854704400,4.750704345703125,0.51361083984375,-0.197296142578125,-3.173370361328125
1695713215864256300,4.76025634765625,0.351715087890625,-0.234527587890625,-2.8997802734375
1695713215873777700,4.769777587890625,0.272979736328125,-0.544891357421875,-2.7008056640625
1695713215883329800,4.779329833984375,0.302276611328125,-1.243743896484375,-2.70599365234375
1695713215892881700,4.788881591796875,0.4278564453125,-2.08160400390625,-2.823944091796875
1695713215902433800,4.798433837890625,0.5206298828125,-2.49969482421875,-2.882843017578125
1695713215911985700,4.807985595703125,0.455322265625,-2.19635009765625,-2.792205810546875
1695713215921507300,4.81750732421875,0.310211181640625,-1.293182373046875,-2.498321533203125
1695713215931059200,4.82705908203125,0.275421142578125,-0.28350830078125,-2.165985107421875
1695713215940611300,4.836611328125,0.371246337890625,0.503387451171875,-1.94732666015625
1695713215950163200,4.8461630859375,0.44708251953125,1.0626220703125,-1.8682861328125
1695713215959715300,4.85571533203125,0.462646484375,1.209869384765625,-1.97662353515625
1695713215969267200,4.86526708984375,0.41534423828125,1.03912353515625,-2.074127197265625
1695713215978819300,4.8748193359375,0.380401611328125,0.843658447265625,-2.033538818359375
1695713215988371200,4.88437109375,0.377655029296875,0.72967529296875,-1.89178466796875
1695713215997892900,4.893892822265625,0.381622314453125,0.67230224609375,-1.695709228515625
1695713216007444700,4.90344482421875,0.39794921875,0.68603515625,-1.4697265625
1695713216016996900,4.912996826171875,0.4449462890625,0.72784423828125,-1.25213623046875
1695713216026548700,4.922548828125,0.5126953125,0.74493408203125,-1.059722900390625
1695713216036100900,4.932100830078125,0.572357177734375,0.7568359375,-0.87432861328125
1695713216045622300,4.941622314453125,0.604705810546875,0.814208984375,-0.690155029296875
1695713216055174100,4.951174072265625,0.606536865234375,0.920257568359375,-0.51422119140625
1695713216064726300,4.960726318359375,0.569000244140625,1.03057861328125,-0.356292724609375
1695713216074278100,4.970278076171875,0.49072265625,1.0943603515625,-0.19683837890625
1695713216083830300,4.979830322265625,0.38787841796875,1.06842041015625,-0.014495849609375
1695713216093351700,4.9893515625,0.263214111328125,0.944366455078125,0.20965576171875
1695713216102903800,4.99890380859375,0.13519287109375,0.7733154296875,0.491790771484375
1695713216112455700,5.00845556640625,0.02105712890625,0.606231689453125,0.820770263671875
1695713216122007800,5.0180078125,-0.057220458984375,0.491790771484375,1.184539794921875
1695713216131529200,5.027529296875,-0.117645263671875,0.44708251953125,1.569061279296875
1695713216141081300,5.037081298828125,-0.1763916015625,0.471649169921875,1.95709228515625
1695713216150633200,5.04663330078125,-0.2154541015625,0.581207275390625,2.31292724609375
1695713216160185300,5.056185302734375,-0.22613525390625,0.7452392578125,2.576751708984375
1695713216169706800,5.065706787109375,-0.2093505859375,0.942840576171875,2.6611328125
1695713216179258600,5.075258544921875,-0.17181396484375,1.209564208984375,2.45330810546875
1695713216188810800,5.084810791015625,-0.078887939453125,1.47705078125,1.922760009765625
1695713216198362600,5.094362548828125,0.1171875,1.444091796875,1.075897216796875
1695713216207914800,5.103914794921875,0.380401611328125,1.0791015625,-0.11688232421875
1695713216217436200,5.113436279296875,0.590057373046875,0.76507568359375,-1.50146484375
1695713216226988300,5.12298828125,0.865478515625,-0.05035400390625,-2.27996826171875
1695713216236540200,5.1325400390625,1.15631103515625,-0.98358154296875,-2.079010009765625
1695713216246122800,5.142122802734375,1.23992919921875,-1.104736328125,-1.5264892578125
1695713216255644200,5.15164404296875,1.012420654296875,-0.71563720703125,-1.053619384765625
1695713216265196300,5.1611962890625,0.535888671875,-0.149688720703125,-0.688629150390625
1695713216274748200,5.170748046875,0.10894775390625,0.474090576171875,-0.3857421875
1695713216284300300,5.18030029296875,-0.138397216796875,1.04705810546875,-0.0872802734375
1695713216293852200,5.18985205078125,-0.378875732421875,1.4361572265625,0.350494384765625
1695713216303373800,5.199373779296875,-0.715179443359375,1.727294921875,0.982666015625
1695713216312925700,5.20892578125,-0.95703125,1.37725830078125,1.873321533203125
1695713216322477800,5.218477783203125,-0.914306640625,-0.35675048828125,2.564544677734375
1695713216332029700,5.22802978515625,-0.457305908203125,-2.653045654296875,1.97052001953125
1695713216341551000,5.237551025390625,0.07110595703125,-2.4395751953125,-0.300750732421875
1695713216351103200,5.247103271484375,0.521240234375,-0.0640869140625,-1.59332275390625
1695713216360655000,5.256655029296875,1.047210693359375,-0.74066162109375,-0.274505615234375
1695713216370207200,5.266207275390625,1.055755615234375,-1.619720458984375,1.183624267578125
1695713216379759000,5.275759033203125,0.48309326171875,-0.529022216796875,1.6180419921875
1695713216389280800,5.28528076171875,-0.134429931640625,0.908966064453125,1.187286376953125
1695713216398832600,5.29483251953125,-0.64117431640625,1.237335205078125,0.809173583984375
1695713216408384800,5.304384765625,-1.050872802734375,-0.00518798828125,1.029052734375
1695713216417936600,5.3139365234375,-1.260986328125,-1.37176513671875,1.447601318359375
1695713216427458300,5.323458251953125,-1.2884521484375,-1.896514892578125,1.790008544921875
1695713216437010200,5.33301025390625,-1.122589111328125,-1.586761474609375,2.01080322265625
1695713216446562300,5.342562255859375,-0.747222900390625,-0.912017822265625,2.05810546875
1695713216456114200,5.3521142578125,-0.238037109375,-0.29998779296875,1.871795654296875
1695713216465666300,5.361666259765625,0.17852783203125,0.023193359375,1.504974365234375
1695713216475187700,5.371187744140625,0.287628173828125,-0.003662109375,1.2335205078125
1695713216484739600,5.380739501953125,0.207061767578125,-0.495452880859375,1.298828125
1695713216494291700,5.390291748046875,0.074462890625,-1.11846923828125,1.540374755859375
1695713216503843600,5.399843505859375,-0.097503662109375,-1.3934326171875,1.6796875
1695713216513365200,5.409365234375,-0.3082275390625,-1.216888427734375,1.6387939453125
1695713216522917000,5.418917236328125,-0.461883544921875,-0.7275390625,1.503143310546875
1695713216532499700,5.428499755859375,-0.497589111328125,-0.260772705078125,1.392822265625
1695713216542051600,5.438051513671875,-0.482635498046875,-0.117645263671875,1.36077880859375
1695713216551603700,5.447603759765625,-0.429229736328125,-0.204010009765625,1.401214599609375
1695713216561125000,5.457125,-0.373382568359375,-0.4052734375,1.432342529296875
1695713216570677200,5.46667724609375,-0.373077392578125,-0.585784912109375,1.39862060546875
1695713216580229000,5.47622900390625,-0.408782958984375,-0.6951904296875,1.2939453125
1695713216589781200,5.48578125,-0.429229736328125,-0.70343017578125,1.165618896484375
1695713216599302700,5.495302734375,-0.429840087890625,-0.591888427734375,1.070709228515625
1695713216608854800,5.504854736328125,-0.439910888671875,-0.3826904296875,1.054534912109375
1695713216618406700,5.51440673828125,-0.457305908203125,-0.171966552734375,1.074981689453125
1695713216627958800,5.523958740234375,-0.475921630859375,-0.084075927734375,1.071929931640625
1695713216637510700,5.5335107421875,-0.4998779296875,-0.102691650390625,1.043853759765625
1695713216647032000,5.543031982421875,-0.52825927734375,-0.136260986328125,1.02630615234375
1695713216656584200,5.552584228515625,-0.55023193359375,-0.150299072265625,1.037750244140625
1695713216666136000,5.562135986328125,-0.57464599609375,-0.178375244140625,1.058807373046875
1695713216675688200,5.571688232421875,-0.6024169921875,-0.2557373046875,1.047515869140625
1695713216685209600,5.581209716796875,-0.6231689453125,-0.35614013671875,1.004638671875
1695713216694761700,5.59076171875,-0.64239501953125,-0.41015625,0.9625244140625
1695713216704313600,5.600313720703125,-0.65399169921875,-0.38604736328125,0.91400146484375
1695713216713865700,5.60986572265625,-0.643310546875,-0.377197265625,0.808563232421875
1695713216723417600,5.61941748046875,-0.62103271484375,-0.3955078125,0.66650390625
1695713216732939300,5.628939208984375,-0.5816650390625,-0.435333251953125,0.53375244140625
1695713216742491100,5.6384912109375,-0.5084228515625,-0.494537353515625,0.448760986328125
1695713216752043300,5.648043212890625,-0.415802001953125,-0.521697998046875,0.402374267578125
1695713216761595100,5.65759521484375,-0.333099365234375,-0.477142333984375,0.339508056640625
1695713216771116500,5.667116455078125,-0.308837890625,-0.36041259765625,0.2484130859375
1695713216780668700,5.676668701171875,-0.357818603515625,-0.200958251953125,0.1568603515625
1695713216790220500,5.686220458984375,-0.430755615234375,-0.088958740234375,0.082244873046875
1695713216799772700,5.695772705078125,-0.462799072265625,-0.082550048828125,0.021820068359375
1695713216809324500,5.705324462890625,-0.418853759765625,-0.214996337890625,-0.0518798828125
1695713216818876700,5.714876708984375,-0.323944091796875,-0.442962646484375,-0.1641845703125
1695713216828428500,5.724428466796875,-0.20355224609375,-0.6353759765625,-0.298004150390625
1695713216837980700,5.733980712890625,-0.051116943359375,-0.6390380859375,-0.43853759765625
1695713216847532500,5.743532470703125,0.1275634765625,-0.418701171875,-0.572967529296875
1695713216857054200,5.75305419921875,0.263824462890625,-0.0390625,-0.723114013671875
1695713216866606000,5.762606201171875,0.345306396484375,0.44342041015625,-0.90789794921875
1695713216876158200,5.772158203125,0.4693603515625,0.879058837890625,-1.129150390625
1695713216885710000,5.7817099609375,0.595855712890625,1.14410400390625,-1.403045654296875
1695713216895262200,5.79126220703125,0.636444091796875,1.16363525390625,-1.727142333984375
1695713216904783600,5.80078369140625,0.661773681640625,0.988311767578125,-2.083892822265625
1695713216914335700,5.810335693359375,0.717010498046875,0.7275390625,-2.465667724609375
1695713216923887600,5.8198876953125,0.758056640625,0.42816162109375,-2.846221923828125
1695713216933439700,5.829439697265625,0.709381103515625,0.171661376953125,-3.127899169921875
1695713216942961200,5.838961181640625,0.578460693359375,0.00579833984375,-3.235321044921875
1695713216952513000,5.848512939453125,0.4669189453125,-0.04364013671875,-3.138885498046875
1695713216962065200,5.858065185546875,0.44036865234375,0.0048828125,-2.836151123046875
1695713216971617000,5.867616943359375,0.46783447265625,-0.110931396484375,-2.529144287109375
1695713216981169200,5.877169189453125,0.49285888671875,-0.574188232421875,-2.414703369140625
1695713216990690600,5.886690673828125,0.48858642578125,-1.196136474609375,-2.493743896484375
1695713217000242700,5.89624267578125,0.45166015625,-1.615447998046875,-2.5897216796875
1695713217009794600,5.905794677734375,0.363006591796875,-1.667938232421875,-2.59490966796875
1695713217019346700,5.9153466796875,0.238800048828125,-1.237335205078125,-2.451019287109375
1695713217028868000,5.9248681640625,0.16357421875,-0.38330078125,-2.23419189453125
1695713217038420200,5.934420166015625,0.19073486328125,0.523834228515625,-2.084197998046875
1695713217047972000,5.94397216796875,0.260162353515625,1.39617919921875,-1.95709228515625
1695713217057524200,5.953524169921875,0.313568115234375,1.79168701171875,-1.96685791015625
1695713217067076000,5.963076171875,0.336151123046875,1.673431396484375,-2.034454345703125
1695713217076597500,5.972597412109375,0.357208251953125,1.339263916015625,-1.999664306640625
1695713217086149600,5.982149658203125,0.4010009765625,0.982513427734375,-1.868896484375
1695713217095701500,5.991701416015625,0.465087890625,0.76416015625,-1.667022705078125
1695713217105284000,6.0012841796875,0.54229736328125,0.69000244140625,-1.424713134765625
1695713217114805500,6.010805419921875,0.637054443359375,0.712890625,-1.1724853515625
1695713217124357600,6.020357666015625,0.717926025390625,0.7598876953125,-0.953826904296875
1695713217133909500,6.029909423828125,0.775146484375,0.76446533203125,-0.77239990234375
1695713217143461600,6.039461669921875,0.78643798828125,0.78948974609375,-0.603790283203125
1695713217153013500,6.049013427734375,0.762939453125,0.867462158203125,-0.452880859375
1695713217162535200,6.05853515625,0.723419189453125,0.960540771484375,-0.319061279296875
1695713217172087000,6.068087158203125,0.663909912109375,1.00982666015625,-0.1837158203125
1695713217181639200,6.07763916015625,0.581512451171875,0.975494384765625,-0.02716064453125
1695713217191191000,6.08719091796875,0.489501953125,0.849151611328125,0.17913818359375
1695713217200712700,6.096712646484375,0.39306640625,0.665283203125,0.446319580078125
1695713217210264600,6.1062646484375,0.297698974609375,0.475921630859375,0.758209228515625
1695713217219816700,6.115816650390625,0.222625732421875,0.3265380859375,1.097564697265625
1695713217229368600,6.12536865234375,0.162353515625,0.235748291015625,1.448822021484375
1695713217238920700,6.134920654296875,0.09918212890625,0.223846435546875,1.797637939453125
1695713217248442000,6.144442138671875,0.0433349609375,0.313720703125,2.121734619140625
1695713217257994000,6.153993896484375,-0.001983642578125,0.505828857421875,2.38372802734375
1695713217267546000,6.163546142578125,0.012664794921875,0.75103759765625,2.508697509765625
1695713217277098000,6.173097900390625,0.06195068359375,1.02935791015625,2.386474609375
1695713217286619600,6.18261962890625,0.14068603515625,1.305389404296875,1.9818115234375
1695713217296171500,6.192171630859375,0.267181396484375,1.40533447265625,1.28204345703125
1695713217305723600,6.2017236328125,0.40802001953125,1.305389404296875,0.25634765625
1695713217315275500,6.211275634765625,0.53314208984375,1.15203857421875,-1.007843017578125
1695713217324827600,6.22082763671875,0.76202392578125,0.460052490234375,-1.87713623046875
1695713217334349000,6.23034912109375,1.027984619140625,-0.594940185546875,-1.84326171875
1695713217343901200,6.239901123046875,1.096343994140625,-0.917205810546875,-1.414337158203125
1695713217353453000,6.249453125,0.911865234375,-0.513458251953125,-1.092987060546875
1695713217363005200,6.259005126953125,0.55023193359375,0.104827880859375,-0.882568359375
1695713217372526600,6.268526611328125,0.20538330078125,0.64208984375,-0.710906982421875
1695713217382078500,6.278078369140625,-0.039825439453125,1.14532470703125,-0.45806884765625
1695713217391661000,6.2876611328125,-0.407562255859375,1.4697265625,-0.048828125
1695713217401213200,6.297213134765625,-0.855865478515625,1.324310302734375,0.54412841796875
1695713217410734600,6.306734619140625,-1.161346435546875,0.33233642578125,1.32476806640625
1695713217420286500,6.316286376953125,-0.9552001953125,-1.533050537109375,1.488494873046875
1695713217429838600,6.325838623046875,-0.2490234375,-2.001800537109375,0.22796630859375
1695713217439390500,6.335390380859375,0.262908935546875,0.157012939453125,-1.1090087890625
1695713217448942600,6.344942626953125,0.55450439453125,0.06927490234375,-0.15716552734375
1695713217458464000,6.354464111328125,0.5615234375,-1.14044189453125,1.154632568359375
1695713217468016000,6.36401611328125,0.2020263671875,-0.602569580078125,1.581268310546875
1695713217477568000,6.373568115234375,-0.31280517578125,0.597991943359375,1.34552001953125
1695713217487120100,6.3831201171875,-0.681915283203125,1.00616455078125,1.097259521484375
1695713217496672000,6.392672119140625,-0.92437744140625,0.27557373046875,1.297607421875
1695713217506193700,6.402193603515625,-0.98968505859375,-0.64788818359375,1.6937255859375
1695713217515745500,6.41174560546875,-0.88104248046875,-1.12762451171875,1.941070556640625
1695713217525297700,6.421297607421875,-0.6597900390625,-1.016845703125,1.9482421875
1695713217534849500,6.430849609375,-0.343170166015625,-0.490570068359375,1.836700439453125
1695713217544371000,6.440370849609375,0.0213623046875,-0.04241943359375,1.6552734375
1695713217553923000,6.449923095703125,0.274200439453125,-0.008544921875,1.444854736328125
1695713217563475000,6.459474853515625,0.318756103515625,-0.246429443359375,1.3665771484375
1695713217573027000,6.469027099609375,0.245819091796875,-0.560150146484375,1.514739990234375
1695713217582548500,6.478548583984375,0.13153076171875,-0.837860107421875,1.74224853515625
1695713217592100600,6.4881005859375,-0.044708251953125,-1.01654052734375,1.849517822265625
1695713217601652500,6.497652587890625,-0.22430419921875,-1.0302734375,1.811370849609375
1695713217611204600,6.50720458984375,-0.326080322265625,-0.79376220703125,1.7303466796875
1695713217620756500,6.516756591796875,-0.340728759765625,-0.540924072265625,1.62322998046875
1695713217630278100,6.526278076171875,-0.2850341796875,-0.36773681640625,1.538848876953125
1695713217639830000,6.535830078125,-0.22735595703125,-0.32562255859375,1.504364013671875
1695713217649382100,6.545382080078125,-0.23529052734375,-0.40863037109375,1.494598388671875
1695713217658934000,6.55493408203125,-0.28839111328125,-0.557403564453125,1.466522216796875
1695713217668455400,6.564455322265625,-0.352935791015625,-0.6829833984375,1.3946533203125
1695713217678038000,6.5740380859375,-0.406646728515625,-0.7293701171875,1.28265380859375
1695713217687590100,6.583590087890625,-0.443267822265625,-0.6732177734375,1.180572509765625
1695713217697142000,6.59314208984375,-0.461883544921875,-0.530853271484375,1.126556396484375
1695713217706694100,6.602694091796875,-0.466461181640625,-0.36590576171875,1.119537353515625
1695713217716215600,6.612215576171875,-0.462799072265625,-0.2581787109375,1.133575439453125
1695713217725767400,6.621767333984375,-0.469818115234375,-0.25390625,1.151275634765625
1695713217735319600,6.631319580078125,-0.487823486328125,-0.28839111328125,1.162567138671875
1695713217744871400,6.640871337890625,-0.51116943359375,-0.30120849609375,1.158599853515625
1695713217754393000,6.65039306640625,-0.53741455078125,-0.30731201171875,1.148223876953125
1695713217763945000,6.659945068359375,-0.57159423828125,-0.34088134765625,1.135406494140625
1695713217773497000,6.6694970703125,-0.60638427734375,-0.427398681640625,1.108551025390625
1695713217783049000,6.679049072265625,-0.63507080078125,-0.545196533203125,1.061248779296875
1695713217792601000,6.68860107421875,-0.65643310546875,-0.60272216796875,0.98602294921875
1695713217802122500,6.69812255859375,-0.670166015625,-0.562286376953125,0.8837890625
1695713217811674600,6.707674560546875,-0.6781005859375,-0.520172119140625,0.757293701171875
1695713217821226500,6.7172265625,-0.68145751953125,-0.541839599609375,0.614013671875
1695713217830778600,6.726778564453125,-0.645751953125,-0.595245361328125,0.466766357421875
1695713217840300000,6.736300048828125,-0.55816650390625,-0.586700439453125,0.352630615234375
1695713217849852000,6.745851806640625,-0.454864501953125,-0.471038818359375,0.264892578125
1695713217859404000,6.755404052734375,-0.404510498046875,-0.2960205078125,0.17547607421875
1695713217868956000,6.764955810546875,-0.424957275390625,-0.121002197265625,0.089569091796875
1695713217878508000,6.774508056640625,-0.474700927734375,0.0445556640625,0.025787353515625
1695713217888029400,6.784029541015625,-0.501556396484375,0.135955810546875,-0.008087158203125
1695713217897581600,6.79358154296875,-0.463104248046875,0.02471923828125,-0.05828857421875
1695713217907133400,6.803133544921875,-0.385284423828125,-0.2667236328125,-0.18768310546875
1695713217916685600,6.812685546875,-0.333709716796875,-0.535736083984375,-0.38909912109375
1695713217926207000,6.82220703125,-0.263671875,-0.6304931640625,-0.574188232421875
1695713217935759000,6.831759033203125,-0.106658935546875,-0.531768798828125,-0.714263916015625
1695713217945311000,6.84131103515625,0.06103515625,-0.229034423828125,-0.83953857421875
1695713217954863000,6.850863037109375,0.1416015625,0.198211669921875,-1.039276123046875
1695713217964445400,6.860445556640625,0.214080810546875,0.611114501953125,-1.326446533203125
1695713217973967000,6.869967041015625,0.373992919921875,0.933990478515625,-1.646575927734375
1695713217983519000,6.87951904296875,0.54901123046875,1.094970703125,-1.97296142578125
1695713217993071000,6.889071044921875,0.677642822265625,1.102294921875,-2.2760009765625
1695713218002623000,6.898623046875,0.7916259765625,0.957489013671875,-2.56988525390625
1695713218012144400,6.908144287109375,0.8697509765625,0.66864013671875,-2.854766845703125
1695713218021696500,6.917696533203125,0.86639404296875,0.30975341796875,-3.095245361328125
1695713218031248400,6.927248291015625,0.8135986328125,0.03570556640625,-3.200836181640625
1695713218040800500,6.936800537109375,0.76324462890625,-0.04730224609375,-3.116302490234375
1695713218050352400,6.946352294921875,0.724029541015625,0.003662109375,-2.889862060546875
1695713218059874000,6.9558740234375,0.693817138671875,-0.065460205078125,-2.59552001953125
1695713218069426000,6.965426025390625,0.627288818359375,-0.59967041015625,-2.415313720703125
1695713218078978000,6.97497802734375,0.601043701171875,-1.35467529296875,-2.406768798828125
1695713218088530000,6.984530029296875,0.626068115234375,-1.890411376953125,-2.436370849609375
1695713218098051600,6.994051513671875,0.615081787109375,-1.956024169921875,-2.359161376953125
1695713218107603500,7.003603515625,0.537109375,-1.35711669921875,-2.096405029296875
1695713218117155600,7.013155517578125,0.46356201171875,-0.343017578125,-1.759796142578125
1695713218126707500,7.02270751953125,0.563812255859375,0.522003173828125,-1.5008544921875
1695713218136259600,7.032259521484375,0.79437255859375,1.186981201171875,-1.388092041015625
1695713218145781000,7.041781005859375,0.7879638671875,1.238861083984375,-1.380157470703125
1695713218155332900,7.051332763671875,0.634613037109375,1.627349853515625,-1.690521240234375
1695713218164885000,7.060885009765625,0.49652099609375,2.0904541015625,-2.087554931640625
1695713218174436900,7.070436767578125,0.47393798828125,1.8505859375,-1.993408203125
1695713218183958500,7.07995849609375,0.49285888671875,1.864013671875,-1.82220458984375
1695713218193510400,7.089510498046875,0.55755615234375,1.7633056640625,-1.5216064453125
1695713218203062500,7.0990625,0.657806396484375,1.575469970703125,-1.2091064453125
1695713218212614400,7.108614501953125,0.76446533203125,1.34918212890625,-0.955657958984375
1695713218222166500,7.11816650390625,0.84503173828125,1.178436279296875,-0.743408203125
1695713218231688000,7.12768798828125,0.8746337890625,1.12396240234375,-0.573883056640625
1695713218241270500,7.1372705078125,0.84075927734375,1.170501708984375,-0.46478271484375
1695713218250822400,7.146822509765625,0.78338623046875,1.247711181640625,-0.38818359375
1695713218260374500,7.15637451171875,0.716094970703125,1.275787353515625,-0.302276611328125
1695713218269896000,7.16589599609375,0.642852783203125,1.244659423828125,-0.1849365234375
1695713218279448000,7.175447998046875,0.56884765625,1.16058349609375,-0.011138916015625
1695713218289000000,7.185,0.49560546875,1.0052490234375,0.2313232421875
1695713218298552000,7.194552001953125,0.42083740234375,0.808563232421875,0.53680419921875
1695713218308073500,7.204073486328125,0.352020263671875,0.66009521484375,0.8740234375
1695713218317625300,7.213625244140625,0.300750732421875,0.592193603515625,1.210174560546875
1695713218327177500,7.223177490234375,0.256805419921875,0.600738525390625,1.535797119140625
1695713218336729300,7.232729248046875,0.226898193359375,0.70953369140625,1.838836669921875
1695713218346281500,7.242281494140625,0.222930908203125,0.934600830078125,2.069091796875
1695713218355803000,7.251802978515625,0.244903564453125,1.257171630859375,2.138214111328125
1695713218365355000,7.26135498046875,0.292510986328125,1.610260009765625,1.927642822265625
1695713218374907000,7.270906982421875,0.38787841796875,1.773681640625,1.39007568359375
1695713218384459000,7.280458984375,0.51055908203125,1.612396240234375,0.58990478515625
1695713218394011000,7.290010986328125,0.560302734375,1.38519287109375,-0.4058837890625
1695713218403532500,7.299532470703125,0.612335205078125,1.255340576171875,-1.4971923828125
1695713218413084400,7.30908447265625,0.8056640625,0.6854248046875,-2.078094482421875
1695713218422636500,7.318636474609375,1.036529541015625,-0.28289794921875,-1.8475341796875
1695713218432188400,7.3281884765625,1.094207763671875,-0.7989501953125,-1.333465576171875
1695713218441709800,7.337709716796875,0.885009765625,-0.603485107421875,-0.937957763671875
1695713218451262000,7.347261962890625,0.50048828125,-0.101470947265625,-0.661163330078125
1695713218460813800,7.356813720703125,0.211334228515625,0.481414794921875,-0.42755126953125
1695713218470366000,7.366365966796875,0.062255859375,1.296844482421875,-0.13458251953125
1695713218479887400,7.375887451171875,-0.2374267578125,2.0892333984375,0.26824951171875
1695713218489439500,7.385439453125,-0.6689453125,2.078857421875,0.797271728515625
1695713218498991400,7.394991455078125,-1.03515625,0.854034423828125,1.59149169921875
1695713218508543500,7.40454345703125,-1.0272216796875,-1.4324951171875,1.902313232421875
1695713218518095400,7.414095458984375,-0.453033447265625,-2.9400634765625,0.713348388671875
1695713218527647500,7.4236474609375,0.0347900390625,-1.3671875,-0.995330810546875
1695713218537199400,7.433199462890625,0.419921875,0.430908203125,-0.87615966796875
1695713218546751500,7.44275146484375,0.5242919921875,-0.25848388671875,0.6341552734375
1695713218556303400,7.452303466796875,0.217132568359375,-0.877227783203125,1.65771484375
1695713218565825000,7.461824951171875,-0.29266357421875,-0.220489501953125,1.845245361328125
1695713218575377000,7.471376953125,-0.61553955078125,0.6671142578125,1.444549560546875
1695713218584929000,7.480928955078125,-0.733489990234375,0.605926513671875,1.39190673828125
1695713218594481000,7.49048095703125,-0.745086669921875,-0.146636962890625,1.800384521484375
1695713218604033000,7.500032958984375,-0.706939697265625,-0.962677001953125,2.248992919921875
1695713218613554400,7.509554443359375,-0.6414794921875,-1.587982177734375,2.43316650390625
1695713218623106300,7.519106201171875,-0.537109375,-1.696014404296875,2.285614013671875
1695713218632658400,7.528658447265625,-0.31951904296875,-1.174468994140625,1.928558349609375
1695713218642210300,7.538210205078125,-0.023651123046875,-0.35125732421875,1.522674560546875
1695713218651732000,7.54773193359375,0.152587890625,0.184783935546875,1.2420654296875
1695713218661283800,7.557283935546875,0.169677734375,0.216827392578125,1.2689208984375
1695713218670836000,7.5668359375,0.13671875,-0.088043212890625,1.512603759765625
1695713218680387800,7.576387939453125,0.0457763671875,-0.449981689453125,1.786041259765625
1695713218689940000,7.58593994140625,-0.126190185546875,-0.7073974609375,1.924896240234375
1695713218699461400,7.59546142578125,-0.281982421875,-0.803680419921875,1.862945556640625
1695713218709013200,7.60501318359375,-0.338592529296875,-0.67535400390625,1.68365478515625
1695713218718565400,7.6145654296875,-0.30853271484375,-0.472259521484375,1.529083251953125
1695713218728117500,7.624117431640625,-0.23895263671875,-0.4296875,1.457061767578125
1695713218737639000,7.633638916015625,-0.1739501953125,-0.537567138671875,1.464996337890625
1695713218747190800,7.643190673828125,-0.16265869140625,-0.72906494140625,1.490325927734375
1695713218756743000,7.652742919921875,-0.21270751953125,-0.948028564453125,1.461029052734375
1695713218766294800,7.662294677734375,-0.2850341796875,-1.112060546875,1.3525390625
1695713218775847000,7.671846923828125,-0.347137451171875,-1.12640380859375,1.220855712890625
1695713218785368300,7.681368408203125,-0.411834716796875,-0.970916748046875,1.111907958984375
1695713218794920400,7.69092041015625,-0.470428466796875,-0.7269287109375,1.043853759765625
1695713218804472300,7.700472412109375,-0.489044189453125,-0.529937744140625,1.073760986328125
1695713218814024400,7.7100244140625,-0.498809814453125,-0.433349609375,1.148529052734375
1695713218823576300,7.719576416015625,-0.509033203125,-0.4052734375,1.196746826171875
1695713218833128400,7.72912841796875,-0.5126953125,-0.4376220703125,1.215057373046875
1695713218842680300,7.738680419921875,-0.52520751953125,-0.542449951171875,1.23382568359375
1695713218852232400,7.748232421875,-0.5426025390625,-0.6732177734375,1.2457275390625
1695713218861784300,7.757784423828125,-0.55511474609375,-0.7415771484375,1.24359130859375
1695713218871305700,7.7673056640625,-0.56304931640625,-0.7025146484375,1.214141845703125
1695713218880857900,7.77685791015625,-0.58135986328125,-0.591278076171875,1.133270263671875
1695713218890410000,7.786409912109375,-0.62164306640625,-0.464630126953125,1.0089111328125
1695713218899961900,7.7959619140625,-0.65765380859375,-0.39093017578125,0.863494873046875
1695713218909483300,7.805483154296875,-0.66497802734375,-0.469818115234375,0.718841552734375
1695713218919035400,7.815035400390625,-0.6390380859375,-0.67230224609375,0.58990478515625
1695713218928587300,7.824587158203125,-0.5682373046875,-0.820770263671875,0.467987060546875
1695713218938139400,7.834139404296875,-0.475311279296875,-0.7757568359375,0.337066650390625
1695713218947691300,7.843691162109375,-0.411529541015625,-0.602264404296875,0.19195556640625
1695713218957213000,7.853212890625,-0.420989990234375,-0.408935546875,0.045928955078125
1695713218966764800,7.862764892578125,-0.478668212890625,-0.206146240234375,-0.06500244140625
1695713218976317000,7.87231689453125,-0.52215576171875,-0.018310546875,-0.12420654296875
1695713218985868800,7.881868896484375,-0.494232177734375,0.032958984375,-0.17303466796875
1695713218995390200,7.89139013671875,-0.408782958984375,-0.145111083984375,-0.293121337890625
1695713219004942300,7.9009423828125,-0.29754638671875,-0.4376220703125,-0.50140380859375
1695713219014494200,7.910494140625,-0.124969482421875,-0.655517578125,-0.732269287109375
1695713219024046300,7.92004638671875,0.11474609375,-0.6353759765625,-0.955963134765625
1695713219033598200,7.92959814453125,0.281524658203125,-0.26123046875,-1.19720458984375
1695713219043119900,7.939119873046875,0.373992919921875,0.2801513671875,-1.47491455078125
1695713219052671700,7.948671630859375,0.53863525390625,0.6976318359375,-1.780853271484375
1695713219062224000,7.958223876953125,0.7489013671875,0.918426513671875,-2.103729248046875
1695713219071775700,7.967775634765625,0.88775634765625,0.963592529296875,-2.387542724609375
1695713219081297400,7.97729736328125,0.978240966796875,0.77911376953125,-2.6300048828125
1695713219090849300,7.986849365234375,1.010284423828125,0.31951904296875,-2.870941162109375
1695713219100432000,7.996431884765625,0.929412841796875,-0.247344970703125,-3.0657958984375
1695713219109983700,8.005983642578125,0.784912109375,-0.548858642578125,-3.132781982421875
1695713219119535900,8.015535888671875,0.610809326171875,-0.445404052734375,-3.083953857421875
1695713219129057300,8.025057373046875,0.4388427734375,-0.162200927734375,-2.93914794921875
1695713219138609400,8.034609375,0.345306396484375,-0.101165771484375,-2.783660888671875
1695713219148161300,8.044161376953125,0.365447998046875,-0.474090576171875,-2.70904541015625
1695713219157713400,8.05371337890625,0.41900634765625,-1.229400634765625,-2.701416015625
1695713219167234800,8.06323486328125,0.41107177734375,-1.885528564453125,-2.62237548828125
1695713219176786700,8.07278662109375,0.341033935546875,-1.978302001953125,-2.435760498046875
1695713219186338800,8.0823388671875,0.258941650390625,-1.46209716796875,-2.166595458984375
1695713219195890700,8.091890625,0.247039794921875,-0.605926513671875,-1.8792724609375
1695713219205442800,8.10144287109375,0.382232666015625,0.34881591796875,-1.681976318359375
1695713219214964200,8.110964111328125,0.51300048828125,1.294403076171875,-1.681976318359375
1695713219224516400,8.120516357421875,0.518798828125,1.734619140625,-1.95343017578125
1695713219234068200,8.130068115234375,0.43487548828125,1.629486083984375,-2.19451904296875
1695713219243620400,8.139620361328125,0.40557861328125,1.333770751953125,-2.21923828125
1695713219253141800,8.149141845703125,0.44891357421875,1.065673828125,-2.066497802734375
1695713219262694000,8.15869384765625,0.50872802734375,0.975799560546875,-1.8255615234375
1695713219272245800,8.168245849609375,0.565338134765625,1.05438232421875,-1.55487060546875
1695713219281798000,8.1777978515625,0.608062744140625,1.172027587890625,-1.305084228515625
1695713219291349800,8.187349853515625,0.634918212890625,1.205902099609375,-1.10595703125
1695713219300871200,8.19687109375,0.666046142578125,1.212615966796875,-0.91552734375
1695713219310423300,8.20642333984375,0.690765380859375,1.214752197265625,-0.728302001953125
1695713219319975200,8.21597509765625,0.682525634765625,1.218719482421875,-0.54534912109375
1695713219329527300,8.22552734375,0.639495849609375,1.216278076171875,-0.375518798828125
1695713219339048700,8.235048583984375,0.582122802734375,1.184844970703125,-0.213165283203125
1695713219348600800,8.244600830078125,0.52215576171875,1.12335205078125,-0.0335693359375
1695713219358152700,8.254152587890625,0.46630859375,1.03759765625,0.198974609375
1695713219367704800,8.263704833984375,0.416259765625,0.933685302734375,0.503387451171875
1695713219377256700,8.273256591796875,0.364227294921875,0.845489501953125,0.86761474609375
1695713219386808800,8.282808837890625,0.316009521484375,0.802001953125,1.27044677734375
1695713219396360700,8.292360595703125,0.270843505859375,0.842742919921875,1.676025390625
1695713219405912800,8.301912841796875,0.243682861328125,0.9967041015625,2.042236328125
1695713219415464700,8.311464599609375,0.253143310546875,1.201324462890625,2.33673095703125
1695713219424986400,8.320986328125,0.275726318359375,1.431884765625,2.480926513671875
1695713219434538200,8.330538330078125,0.295257568359375,1.7138671875,2.3748779296875
1695713219444090400,8.34009033203125,0.329742431640625,1.917266845703125,1.940155029296875
1695713219453642200,8.349642333984375,0.385894775390625,1.903533935546875,1.063995361328125
1695713219463194400,8.3591943359375,0.45196533203125,1.76849365234375,-0.44586181640625
1695713219472715800,8.3687158203125,0.478515625,1.544036865234375,-2.20672607421875
1695713219482267600,8.378267578125,0.648345947265625,0.3411865234375,-2.69989013671875
1695713219491819800,8.38781982421875,0.951995849609375,-1.195831298828125,-1.9598388671875
1695713219501371600,8.39737158203125,1.1224365234375,-1.581268310546875,-1.13250732421875
1695713219510893300,8.406893310546875,0.935821533203125,-0.948638916015625,-0.684051513671875
1695713219520445200,8.416445068359375,0.575408935546875,-0.080108642578125,-0.50201416015625
1695713219529997300,8.425997314453125,0.308990478515625,0.6524658203125,-0.344696044921875
1695713219539549200,8.435549072265625,0.05157470703125,1.214752197265625,-0.013885498046875
1695713219549070800,8.44507080078125,-0.397796630859375,1.589202880859375,0.57586669921875
1695713219558622700,8.454622802734375,-0.88470458984375,1.11572265625,1.438751220703125
1695713219568174800,8.4641748046875,-1.071319580078125,-0.951080322265625,2.118377685546875
1695713219577726700,8.473726806640625,-0.749664306640625,-2.722015380859375,1.33209228515625
1695713219587278800,8.48327880859375,-0.32379150390625,-1.1517333984375,-0.975799560546875
1695713219596800300,8.49280029296875,0.219879150390625,0.343017578125,-0.8636474609375
1695713219606352100,8.50235205078125,0.695648193359375,-1.03424072265625,0.782623291015625
1695713219615904300,8.511904296875,0.699005126953125,-1.13555908203125,1.59149169921875
1695713219625456000,8.5214560546875,0.364837646484375,0.006103515625,1.475372314453125
1695713219634977800,8.530977783203125,-0.005340576171875,0.75775146484375,1.03790283203125
1695713219644529700,8.54052978515625,-0.478363037109375,0.119781494140625,1.0296630859375
1695713219654081800,8.550081787109375,-0.885009765625,-0.982818603515625,1.557769775390625
1695713219663633700,8.559633544921875,-0.93963623046875,-1.581573486328125,2.121429443359375
1695713219673185800,8.569185791015625,-0.768890380859375,-1.4697265625,2.353515625
1695713219682737700,8.578737548828125,-0.50567626953125,-1.1029052734375,2.219696044921875
1695713219692289800,8.588289794921875,-0.2105712890625,-0.73089599609375,1.872711181640625
1695713219701841700,8.597841552734375,0.02349853515625,-0.308837890625,1.483001708984375
1695713219711393800,8.607393798828125,0.13031005859375,0.07659912109375,1.26953125
1695713219720915200,8.616915283203125,0.1715087890625,0.07781982421875,1.3690185546875
1695713219730467300,8.62646728515625,0.17333984375,-0.187225341796875,1.64764404296875
1695713219740019200,8.636019287109375,0.12237548828125,-0.394287109375,1.873626708984375
1695713219749571300,8.6455712890625,0.028076171875,-0.4412841796875,1.947021484375
1695713219759123200,8.655123291015625,-0.066070556640625,-0.2813720703125,1.887359619140625
1695713219768644600,8.66464453125,-0.14068603515625,-0.05859375,1.72821044921875
1695713219778196700,8.67419677734375,-0.1904296875,0.01861572265625,1.547088623046875
1695713219787748600,8.68374853515625,-0.1910400390625,-0.07354736328125,1.457061767578125
1695713219797300700,8.69330078125,-0.1873779296875,-0.3045654296875,1.440277099609375
1695713219806822100,8.702822265625,-0.2374267578125,-0.550384521484375,1.404266357421875
1695713219816374300,8.712374267578125,-0.323028564453125,-0.72540283203125,1.3201904296875
1695713219825926100,8.721926025390625,-0.389556884765625,-0.821075439453125,1.218109130859375
1695713219835478300,8.731478271484375,-0.436859130859375,-0.787353515625,1.139373779296875
1695713219845030100,8.741030029296875,-0.465850830078125,-0.68023681640625,1.114349365234375
1695713219854551800,8.7505517578125,-0.471954345703125,-0.577239990234375,1.149749755859375
1695713219864103700,8.760103759765625,-0.463104248046875,-0.494842529296875,1.199188232421875
1695713219873655800,8.76965576171875,-0.455780029296875,-0.451507568359375,1.23077392578125
1695713219883207700,8.779207763671875,-0.471038818359375,-0.460662841796875,1.23992919921875
1695713219892729000,8.78872900390625,-0.5023193359375,-0.499725341796875,1.241455078125
1695713219902281200,8.79828125,-0.53314208984375,-0.537567138671875,1.23931884765625
1695713219911833000,8.8078330078125,-0.57281494140625,-0.528106689453125,1.2451171875
1695713219921385200,8.81738525390625,-0.6103515625,-0.480499267578125,1.25732421875
1695713219930937000,8.82693701171875,-0.62896728515625,-0.450897216796875,1.23992919921875
1695713219940458800,8.836458740234375,-0.62774658203125,-0.43243408203125,1.168670654296875
1695713219950010600,8.8460107421875,-0.61798095703125,-0.4058837890625,1.02783203125
1695713219959562800,8.855562744140625,-0.60821533203125,-0.39581298828125,0.836029052734375
1695713219969145000,8.86514501953125,-0.58837890625,-0.42327880859375,0.6451416015625
1695713219978666800,8.874666748046875,-0.54473876953125,-0.435791015625,0.50994873046875
1695713219988218600,8.884218505859375,-0.489654541015625,-0.3936767578125,0.427398681640625
1695713219997770800,8.893770751953125,-0.460662841796875,-0.32501220703125,0.340728759765625
1695713220007322600,8.903322509765625,-0.467681884765625,-0.251007080078125,0.23345947265625
1695713220016874800,8.912874755859375,-0.475921630859375,-0.179901123046875,0.115203857421875
1695713220026396200,8.922396240234375,-0.467681884765625,-0.148773193359375,0.018768310546875
1695713220035948300,8.9319482421875,-0.417327880859375,-0.229034423828125,-0.05767822265625
1695713220045500200,8.941500244140625,-0.336761474609375,-0.4290771484375,-0.1556396484375
1695713220055052300,8.95105224609375,-0.25115966796875,-0.6610107421875,-0.289154052734375
1695713220064573700,8.96057373046875,-0.1470947265625,-0.810699462890625,-0.421142578125
1695713220074125600,8.97012548828125,-0.000152587890625,-0.7843017578125,-0.573272705078125
1695713220083677700,8.979677734375,0.130615234375,-0.546112060546875,-0.79498291015625
1695713220093229600,8.9892294921875,0.19622802734375,-0.119781494140625,-1.081390380859375
1695713220102781700,8.99878173828125,0.264739990234375,0.32470703125,-1.383209228515625
1695713220112303000,9.00830322265625,0.391845703125,0.71533203125,-1.688385009765625
1695713220121855200,9.017855224609375,0.52001953125,1.00128173828125,-1.98486328125
1695713220131407000,9.027406982421875,0.618438720703125,1.10260009765625,-2.22686767578125
1695713220140959200,9.036959228515625,0.707855224609375,0.99395751953125,-2.487030029296875
1695713220150480600,9.046480712890625,0.676422119140625,0.615997314453125,-2.873992919921875
1695713220160032800,9.05603271484375,0.51849365234375,0.05126953125,-3.26446533203125
1695713220169584600,9.065584716796875,0.4248046875,-0.36224365234375,-3.42193603515625
1695713220179136800,9.07513671875,0.39306640625,-0.502166748046875,-3.28460693359375
1695713220188688600,9.084688720703125,0.386199951171875,-0.517425537109375,-2.96234130859375
1695713220198210000,9.0942099609375,0.3955078125,-0.6903076171875,-2.640380859375
1695713220207762200,9.10376220703125,0.38909912109375,-1.236114501953125,-2.463836669921875
1695713220217314000,9.11331396484375,0.357513427734375,-1.927032470703125,-2.433929443359375
1695713220226866200,9.1228662109375,0.317840576171875,-2.328948974609375,-2.402191162109375
1695713220236387600,9.1323876953125,0.276336669921875,-2.2088623046875,-2.26226806640625
1695713220245970200,9.14197021484375,0.210723876953125,-1.4947509765625,-2.037506103515625
1695713220255522000,9.15152197265625,0.18768310546875,-0.436248779296875,-1.82281494140625
1695713220265074200,9.16107421875,0.314788818359375,0.611724853515625,-1.708526611328125
1695713220274626000,9.1706259765625,0.40863037109375,1.573638916015625,-1.744842529296875
1695713220284147700,9.180147705078125,0.379486083984375,0.77606201171875,-1.25
1695713220293699600,9.189699462890625,0.334930419921875,1.76300048828125,-2.052154541015625
1695713220303251700,9.199251708984375,0.267486572265625,1.87103271484375,-2.415008544921875
1695713220312803600,9.208803466796875,0.256805419921875,1.46087646484375,-2.352294921875
1695713220322325200,9.2183251953125,0.299530029296875,1.215362548828125,-2.095184326171875
1695713220331877000,9.227877197265625,0.3814697265625,1.11328125,-1.735992431640625
1695713220341429200,9.23742919921875,0.46356201171875,1.03607177734375,-1.403350830078125
1695713220350981000,9.246981201171875,0.5548095703125,0.99639892578125,-1.13494873046875
1695713220360533200,9.256533203125,0.654754638671875,0.9967041015625,-0.90972900390625
1695713220370054700,9.2660546875,0.731964111328125,1.02264404296875,-0.74188232421875
1695713220379606500,9.2756064453125,0.75653076171875,1.05194091796875,-0.628204345703125
1695713220389158700,9.28515869140625,0.732269287109375,1.0809326171875,-0.53619384765625
1695713220398710500,9.29471044921875,0.672454833984375,1.0760498046875,-0.43426513671875
1695713220408232200,9.304232177734375,0.600433349609375,1.04827880859375,-0.300750732421875
1695713220417784000,9.3137841796875,0.5322265625,0.98663330078125,-0.1153564453125
1695713220427336200,9.323336181640625,0.4693603515625,0.866241455078125,0.132598876953125
1695713220436888000,9.33288818359375,0.41046142578125,0.69580078125,0.438690185546875
1695713220446409700,9.34240966796875,0.360260009765625,0.550689697265625,0.774993896484375
1695713220455961600,9.351961669921875,0.326080322265625,0.481109619140625,1.107940673828125
1695713220465513700,9.361513671875,0.302276611328125,0.479888916015625,1.408843994140625
1695713220475065600,9.371065673828125,0.293121337890625,0.551300048828125,1.65618896484375
1695713220484617700,9.38061767578125,0.319671630859375,0.703125,1.829681396484375
1695713220494139100,9.39013916015625,0.370330810546875,0.897979736328125,1.857757568359375
1695713220503691000,9.39969091796875,0.4302978515625,1.0882568359375,1.577911376953125
1695713220513243100,9.4092431640625,0.491943359375,1.15875244140625,0.899658203125
1695713220522795000,9.418794921875,0.55389404296875,1.12945556640625,0.017547607421875
1695713220532347100,9.42834716796875,0.593719482421875,1.186981201171875,-0.9002685546875
1695713220541899000,9.43789892578125,0.626068115234375,1.085205078125,-1.688690185546875
1695713220551451100,9.447451171875,0.658111572265625,0.65216064453125,-2.015228271484375
1695713220561003000,9.4570029296875,0.76171875,-0.105133056640625,-1.707916259765625
1695713220570555100,9.46655517578125,0.88043212890625,-0.4376220703125,-1.26708984375
1695713220580076500,9.47607666015625,0.849609375,-0.157928466796875,-1.053009033203125
1695713220589628700,9.485628662109375,0.593414306640625,0.223846435546875,-0.9014892578125
1695713220599180500,9.4951806640625,0.296173095703125,0.481414794921875,-0.715179443359375
1695713220608732700,9.504732666015625,0.07598876953125,0.75347900390625,-0.4388427734375
1695713220618254000,9.514254150390625,-0.062408447265625,1.08489990234375,-0.0341796875
1695713220627806200,9.52380615234375,-0.213623046875,1.325531005859375,0.518798828125
1695713220637358000,9.533358154296875,-0.413665771484375,1.628265380859375,1.2640380859375
1695713220646910200,9.54291015625,-0.595703125,1.50238037109375,2.0941162109375
1695713220656462000,9.552462158203125,-0.694122314453125,-0.250396728515625,2.591094970703125
1695713220665983500,9.5619833984375,-0.707244873046875,-2.90496826171875,1.69281005859375
1695713220675535600,9.57153564453125,-0.805816650390625,-2.7880859375,-0.108642578125
1695713220685087500,9.58108740234375,-0.57403564453125,0.27496337890625,-1.353302001953125
1695713220694639600,9.5906396484375,0.362396240234375,0.241546630859375,-0.40679931640625
1695713220704161000,9.6001611328125,0.76873779296875,-1.186065673828125,1.197662353515625
1695713220713713200,9.609713134765625,0.509033203125,-0.868988037109375,1.98150634765625
1695713220723265000,9.61926513671875,0.04150390625,0.30487060546875,1.71661376953125
1695713220732817200,9.628817138671875,-0.339813232421875,1.03179931640625,0.91033935546875
1695713220742369000,9.638369140625,-0.650634765625,0.36895751953125,0.709686279296875
1695713220751890700,9.647890625,-0.834503173828125,-0.957183837890625,1.447601318359375
1695713220761442600,9.657442626953125,-0.89263916015625,-1.940155029296875,2.42095947265625
1695713220770994700,9.66699462890625,-0.775299072265625,-2.51251220703125,3.028106689453125
1695713220780546600,9.676546630859375,-0.5120849609375,-2.671966552734375,3.0694580078125
1695713220790068000,9.68606787109375,-0.093536376953125,-2.306060791015625,2.522735595703125
1695713220799620000,9.6956201171875,0.331878662109375,-1.48193359375,1.583099365234375
1695713220809172000,9.705171875,0.4541015625,-0.495147705078125,1.060638427734375
1695713220818724000,9.71472412109375,0.38055419921875,0.099639892578125,1.145172119140625
1695713220828306700,9.724306640625,0.292510986328125,0.07965087890625,1.514434814453125
1695713220837828000,9.733828125,0.238494873046875,-0.384521484375,1.804351806640625
1695713220847380000,9.7433798828125,0.18341064453125,-0.887603759765625,1.919708251953125
1695713220856932000,9.75293212890625,0.0445556640625,-1.11083984375,1.908111572265625
1695713220866484000,9.76248388671875,-0.15167236328125,-0.9893798828125,1.826019287109375
1695713220876005600,9.772005615234375,-0.30059814453125,-0.613250732421875,1.72332763671875
1695713220885557500,9.7815576171875,-0.365447998046875,-0.279541015625,1.584014892578125
1695713220895109600,9.791109619140625,-0.348663330078125,-0.235137939453125,1.450653076171875
1695713220904661500,9.80066162109375,-0.269775390625,-0.3985595703125,1.421051025390625
1695713220914213600,9.810213623046875,-0.19805908203125,-0.6573486328125,1.462249755859375
1695713220923735000,9.819735107421875,-0.1666259765625,-0.953216552734375,1.510467529296875
1695713220933287200,9.829287109375,-0.15533447265625,-1.163787841796875,1.505584716796875
1695713220942839000,9.838839111328125,-0.15594482421875,-1.226043701171875,1.425018310546875
1695713220952391200,9.84839111328125,-0.17364501953125,-1.13067626953125,1.31256103515625
1695713220961912600,9.85791259765625,-0.220947265625,-0.919036865234375,1.2384033203125
1695713220971464400,9.86746435546875,-0.2783203125,-0.687255859375,1.24267578125
1695713220981016600,9.8770166015625,-0.336761474609375,-0.525970458984375,1.2823486328125
1695713220990568400,9.886568359375,-0.385894775390625,-0.472564697265625,1.309814453125
1695713221000120600,9.89612060546875,-0.419158935546875,-0.461883544921875,1.317138671875
1695713221009642000,9.90564208984375,-0.450592041015625,-0.462188720703125,1.312255859375
1695713221019194000,9.915194091796875,-0.482330322265625,-0.498504638671875,1.2982177734375
1695713221028746000,9.92474609375,-0.51727294921875,-0.556182861328125,1.28814697265625
1695713221038298000,9.934298095703125,-0.55389404296875,-0.598297119140625,1.273193359375
1695713221047819500,9.943819580078125,-0.58319091796875,-0.585784912109375,1.2518310546875
1695713221057371600,9.95337158203125,-0.60760498046875,-0.564117431640625,1.198272705078125
1695713221066923500,9.962923583984375,-0.62652587890625,-0.61431884765625,1.075286865234375
1695713221076475600,9.9724755859375,-0.64666748046875,-0.72784423828125,0.89447021484375
1695713221086027500,9.982027587890625,-0.65093994140625,-0.840301513671875,0.692138671875
1695713221095549000,9.991548828125,-0.59783935546875,-0.893707275390625,0.507049560546875
1695713221105131500,10.001131591796875,-0.490875244140625,-0.858917236328125,0.387420654296875
1695713221114683600,10.01068359375,-0.380096435546875,-0.79986572265625,0.32470703125
1695713221124235500,10.020235595703125,-0.321502685546875,-0.76995849609375,0.26702880859375
1695713221133757000,10.0297568359375,-0.328826904296875,-0.758056640625,0.17303466796875
1695713221143309000,10.03930908203125,-0.390472412109375,-0.7574462890625,0.042266845703125
1695713221152861000,10.04886083984375,-0.460357666015625,-0.7305908203125,-0.09490966796875
1695713221162413000,10.0584130859375,-0.482025146484375,-0.673828125,-0.214996337890625
1695713221171934500,10.0679345703125,-0.440521240234375,-0.6298828125,-0.322113037109375
1695713221181486600,10.077486572265625,-0.352325439453125,-0.596160888671875,-0.44097900390625
1695713221191038500,10.08703857421875,-0.20721435546875,-0.511932373046875,-0.601043701171875
1695713221200590600,10.096590576171875,-0.016632080078125,-0.34454345703125,-0.8099365234375
1695713221210142500,10.106142578125,0.1422119140625,-0.115509033203125,-1.049957275390625
1695713221219664100,10.1156640625,0.220794677734375,0.186309814453125,-1.301727294921875
1695713221229216000,10.125216064453125,0.278167724609375,0.552520751953125,-1.5570068359375
1695713221238768000,10.13476806640625,0.375213623046875,0.891265869140625,-1.8182373046875
1695713221248320000,10.144320068359375,0.47637939453125,1.0479736328125,-2.082366943359375
1695713221257872100,10.1538720703125,0.53680419921875,0.973968505859375,-2.412872314453125
1695713221267393500,10.1633935546875,0.51666259765625,0.62896728515625,-2.869720458984375
1695713221276945400,10.1729453125,0.46173095703125,0.05615234375,-3.2647705078125
1695713221286497500,10.18249755859375,0.4583740234375,-0.476226806640625,-3.37188720703125
1695713221296049400,10.19204931640625,0.4681396484375,-0.753173828125,-3.216094970703125
1695713221305571000,10.201571044921875,0.45684814453125,-0.650634765625,-2.9681396484375
1695713221315123000,10.211123046875,0.438232421875,-0.30914306640625,-2.774505615234375
1695713221324675000,10.220675048828125,0.4296875,-0.164031982421875,-2.67822265625
1695713221334227000,10.23022705078125,0.40985107421875,-0.555267333984375,-2.67364501953125
1695713221343748600,10.23974853515625,0.360260009765625,-1.279754638671875,-2.70294189453125
1695713221353300500,10.249300537109375,0.249481201171875,-1.839599609375,-2.6654052734375
1695713221362852600,10.2588525390625,0.0970458984375,-1.898040771484375,-2.532501220703125
1695713221372404500,10.268404541015625,-0.030670166015625,-1.337432861328125,-2.27752685546875
1695713221381926000,10.27792578125,-0.053863525390625,-0.3814697265625,-1.9696044921875
1695713221391508500,10.287508544921875,0.11627197265625,0.640869140625,-1.750946044921875
1695713221401060600,10.297060546875,0.287933349609375,1.545867919921875,-1.804046630859375
1695713221410612500,10.306612548828125,0.286102294921875,1.84661865234375,-2.088470458984375
1695713221420164600,10.31616455078125,0.244598388671875,1.576080322265625,-2.344970703125
1695713221429686000,10.32568603515625,0.268096923828125,1.180267333984375,-2.415008544921875
1695713221439238000,10.33523779296875,0.326690673828125,0.917510986328125,-2.3028564453125
1695713221448790000,10.3447900390625,0.3997802734375,0.872344970703125,-2.064971923828125
1695713221458342000,10.354341796875,0.4974365234375,0.957489013671875,-1.765594482421875
1695713221467894000,10.36389404296875,0.602569580078125,1.0601806640625,-1.47979736328125
1695713221477415400,10.37341552734375,0.698394775390625,1.1224365234375,-1.2371826171875
1695713221486967600,10.382967529296875,0.77117919921875,1.189727783203125,-1.044158935546875
1695713221496519400,10.39251953125,0.8050537109375,1.300811767578125,-0.8984375
1695713221506071600,10.402071533203125,0.7940673828125,1.4215087890625,-0.772705078125
1695713221515593000,10.411593017578125,0.748443603515625,1.48529052734375,-0.648956298828125
1695713221525145000,10.42114501953125,0.680389404296875,1.46270751953125,-0.50689697265625
1695713221534697000,10.430697021484375,0.609588623046875,1.35772705078125,-0.335845947265625
1695713221544249000,10.4402490234375,0.54351806640625,1.210479736328125,-0.11932373046875
1695713221553801000,10.449801025390625,0.47698974609375,1.04095458984375,0.1568603515625
1695713221563322400,10.459322265625,0.41748046875,0.875701904296875,0.480194091796875
1695713221572874500,10.46887451171875,0.380401611328125,0.7672119140625,0.831756591796875
1695713221582426400,10.47842626953125,0.366973876953125,0.73760986328125,1.193084716796875
1695713221591978500,10.487978515625,0.376739501953125,0.817108154296875,1.541900634765625
1695713221601500000,10.4975,0.41015625,1.004638671875,1.846160888671875
1695713221611052000,10.507052001953125,0.4443359375,1.251373291015625,2.05810546875
1695713221620604000,10.51660400390625,0.45928955078125,1.531219482421875,2.0782470703125
1695713221630156000,10.526156005859375,0.482177734375,1.72943115234375,1.826629638671875
1695713221639708000,10.5357080078125,0.537109375,1.694183349609375,1.28326416015625
1695713221649229300,10.545229248046875,0.531005859375,1.456298828125,0.438079833984375
1695713221658781400,10.554781494140625,0.419921875,1.37115478515625,-0.724639892578125
1695713221668333600,10.56433349609375,0.311126708984375,1.39984130859375,-1.9317626953125
1695713221677885400,10.573885498046875,0.4150390625,0.75653076171875,-2.27813720703125
1695713221687437600,10.5834375,0.642547607421875,-0.462188720703125,-1.733551025390625
1695713221696989400,10.592989501953125,0.78277587890625,-1.13006591796875,-1.047515869140625
1695713221706541600,10.60254150390625,0.629730224609375,-0.927886962890625,-0.627593994140625
1695713221716093400,10.612093505859375,0.286102294921875,-0.2886962890625,-0.40771484375
1695713221725645600,10.6216455078125,0.03387451171875,0.37353515625,-0.249481201171875
1695713221735167000,10.6311669921875,-0.048675537109375,1.04827880859375,-0.027313232421875
1695713221744718800,10.64071875,-0.14739990234375,1.73858642578125,0.3179931640625
1695713221754271000,10.65027099609375,-0.363006591796875,2.2509765625,0.850677490234375
1695713221763822800,10.65982275390625,-0.54412841796875,2.011566162109375,1.810455322265625
1695713221773344500,10.669344482421875,-0.56976318359375,-0.03509521484375,2.651214599609375
1695713221782896400,10.678896484375,-0.31341552734375,-3.22509765625,2.1075439453125
1695713221792448500,10.688448486328125,-0.027313232421875,-3.88824462890625,-0.326995849609375
1695713221802000400,10.69800048828125,0.364532470703125,-0.61279296875,-1.419830322265625
1695713221811552500,10.707552490234375,0.951690673828125,-0.02197265625,0.060577392578125
1695713221821074000,10.717073974609375,1.009063720703125,-0.927581787109375,1.3250732421875
1695713221830626000,10.7266259765625,0.582427978515625,-0.26611328125,1.7425537109375
1695713221840178000,10.736177978515625,0.11016845703125,1.182403564453125,1.31622314453125
1695713221849730000,10.74572998046875,-0.2642822265625,1.47491455078125,0.831146240234375
1695713221859251500,10.75525146484375,-0.683441162109375,-0.0323486328125,1.2493896484375
1695713221868803300,10.76480322265625,-1.049652099609375,-1.436767578125,2.166595458984375
1695713221878355500,10.77435546875,-1.089935302734375,-2.1319580078125,2.852020263671875
1695713221887907300,10.7839072265625,-0.85784912109375,-2.259979248046875,2.968902587890625
1695713221897459500,10.79345947265625,-0.448150634765625,-1.934356689453125,2.495574951171875
1695713221906980900,10.80298095703125,-0.010528564453125,-0.96771240234375,1.574554443359375
1695713221916533000,10.812532958984375,0.1885986328125,0.164031982421875,0.91339111328125
1695713221926084900,10.8220849609375,0.222320556640625,0.7550048828125,0.857696533203125
1695713221935637000,10.831636962890625,0.222320556640625,0.63873291015625,1.187286376953125
1695713221945158400,10.841158447265625,0.240936279296875,0.135955810546875,1.6082763671875
1695713221954710300,10.850710205078125,0.19989013671875,-0.30029296875,1.884918212890625
1695713221964292900,10.86029296875,0.0830078125,-0.525054931640625,1.9384765625
1695713221973845000,10.869844970703125,-0.040435791015625,-0.504913330078125,1.815338134765625
1695713221983396900,10.87939697265625,-0.135040283203125,-0.36376953125,1.61590576171875
1695713221992918500,10.88891845703125,-0.162353515625,-0.127105712890625,1.475982666015625
1695713222002470400,10.898470458984375,-0.124664306640625,0.01373291015625,1.474761962890625
1695713222012022500,10.9080224609375,-0.085296630859375,-0.095977783203125,1.526641845703125
1695713222021574400,10.917574462890625,-0.102691650390625,-0.35430908203125,1.527252197265625
1695713222031095800,10.927095703125,-0.16998291015625,-0.602874755859375,1.425018310546875
1695713222040648000,10.93664794921875,-0.24383544921875,-0.75897216796875,1.28021240234375
1695713222050199800,10.94619970703125,-0.3009033203125,-0.73944091796875,1.165618896484375
1695713222059752000,10.955751953125,-0.335540771484375,-0.580596923828125,1.114654541015625
1695713222069303800,10.9653037109375,-0.352020263671875,-0.40252685546875,1.120452880859375
1695713222078825500,10.974825439453125,-0.360870361328125,-0.262451171875,1.148529052734375
1695713222088377300,10.98437744140625,-0.386505126953125,-0.194854736328125,1.167144775390625
1695713222097929500,10.993929443359375,-0.426483154296875,-0.185394287109375,1.163177490234375
1695713222107481300,11.0034814453125,-0.465850830078125,-0.210418701171875,1.162261962890625
1695713222117002800,11.013002685546875,-0.4998779296875,-0.25238037109375,1.179351806640625
1695713222126555000,11.022554931640625,-0.528564453125,-0.308837890625,1.199493408203125
1695713222136107000,11.03210693359375,-0.5523681640625,-0.35186767578125,1.213836669921875
1695713222145659000,11.041658935546875,-0.565185546875,-0.3399658203125,1.220245361328125
1695713222155211000,11.0512109375,-0.56121826171875,-0.3155517578125,1.193389892578125
1695713222164732400,11.060732421875,-0.5535888671875,-0.32928466796875,1.104583740234375
1695713222174284300,11.0702841796875,-0.552978515625,-0.3839111328125,0.9490966796875
1695713222183836400,11.07983642578125,-0.5462646484375,-0.443267822265625,0.759735107421875
1695713222193388300,11.08938818359375,-0.503387451171875,-0.463409423828125,0.57952880859375
1695713222202910000,11.098909912109375,-0.431671142578125,-0.39398193359375,0.449371337890625
1695713222212461800,11.1084619140625,-0.376434326171875,-0.28564453125,0.354156494140625
1695713222222014000,11.118013916015625,-0.374908447265625,-0.221099853515625,0.255126953125
1695713222231565800,11.12756591796875,-0.424041748046875,-0.178680419921875,0.141143798828125
1695713222241087200,11.137087158203125,-0.466766357421875,-0.109405517578125,0.026397705078125
1695713222250669800,11.146669921875,-0.441131591796875,-0.02655029296875,-0.0634765625
1695713222260222000,11.156221923828125,-0.339813232421875,-0.01739501953125,-0.13397216796875
1695713222269773800,11.16577392578125,-0.20599365234375,-0.143280029296875,-0.223236083984375
1695713222279326000,11.175325927734375,-0.080718994140625,-0.289306640625,-0.37200927734375
1695713222288847400,11.184847412109375,0.0421142578125,-0.31585693359375,-0.568695068359375
1695713222298399500,11.1943994140625,0.155029296875,-0.196380615234375,-0.78216552734375
1695713222307951400,11.203951416015625,0.208282470703125,0.0848388671875,-1.016693115234375
1695713222317503500,11.21350341796875,0.212249755859375,0.497589111328125,-1.301116943359375
1695713222327055400,11.223055419921875,0.254364013671875,0.900726318359375,-1.619110107421875
1695713222336576800,11.23257666015625,0.338897705078125,1.10321044921875,-1.9317626953125
1695713222346129000,11.24212890625,0.4052734375,1.04095458984375,-2.279052734375
1695713222355680800,11.2516806640625,0.41839599609375,0.723876953125,-2.747039794921875
1695713222365233000,11.26123291015625,0.38238525390625,0.177764892578125,-3.202362060546875
1695713222374754300,11.27075439453125,0.374603271484375,-0.38299560546875,-3.446502685546875
1695713222384306400,11.280306396484375,0.43365478515625,-0.70098876953125,-3.41033935546875
1695713222393858300,11.2898583984375,0.48858642578125,-0.76202392578125,-3.170013427734375
1695713222403410400,11.299410400390625,0.48553466796875,-0.600128173828125,-2.8900146484375
1695713222412931800,11.308931884765625,0.45501708984375,-0.467681884765625,-2.6947021484375
1695713222422483700,11.318483642578125,0.41046142578125,-0.76019287109375,-2.6019287109375
1695713222432035800,11.328035888671875,0.357208251953125,-1.4044189453125,-2.57049560546875
1695713222441587700,11.337587646484375,0.290985107421875,-1.975555419921875,-2.516021728515625
1695713222451139800,11.347139892578125,0.19927978515625,-2.1942138671875,-2.400360107421875
1695713222460661200,11.3566611328125,0.108642578125,-1.85516357421875,-2.23297119140625
1695713222470213400,11.36621337890625,0.054931640625,-0.847625732421875,-1.9439697265625
1695713222479765200,11.37576513671875,0.16021728515625,0.221099853515625,-1.768951416015625
1695713222489317400,11.3853173828125,0.345306396484375,1.0980224609375,-1.807861328125
1695713222498838800,11.3948388671875,0.38726806640625,1.634979248046875,-2.010040283203125
1695713222508391000,11.404390869140625,0.323638916015625,1.655120849609375,-2.25341796875
1695713222517942800,11.41394287109375,0.255889892578125,1.3909912109375,-2.379302978515625
1695713222527495000,11.423494873046875,0.249176025390625,1.1151123046875,-2.343292236328125
1695713222537046800,11.433046875,0.288238525390625,0.959930419921875,-2.149505615234375
1695713222546599000,11.442598876953125,0.346221923828125,0.937957763671875,-1.86431884765625
1695713222556150800,11.45215087890625,0.421142578125,0.99517822265625,-1.58111572265625
1695713222565703000,11.461702880859375,0.5145263671875,1.055908203125,-1.332550048828125
1695713222575254800,11.4712548828125,0.617218017578125,1.10198974609375,-1.129150390625
1695713222584776200,11.480776123046875,0.702972412109375,1.1602783203125,-0.973052978515625
1695713222594328300,11.490328369140625,0.7550048828125,1.241607666015625,-0.84442138671875
1695713222603880200,11.499880126953125,0.76263427734375,1.322479248046875,-0.72174072265625
1695713222613432300,11.509432373046875,0.736541748046875,1.324310302734375,-0.597686767578125
1695713222622984400,11.518984375,0.699615478515625,1.273040771484375,-0.443115234375
1695713222632505900,11.528505859375,0.659332275390625,1.189727783203125,-0.249176025390625
1695713222642057700,11.5380576171875,0.618133544921875,1.07177734375,-0.000457763671875
1695713222651609900,11.54760986328125,0.576934814453125,0.924224853515625,0.30303955078125
1695713222661161700,11.55716162109375,0.5462646484375,0.77728271484375,0.6494140625
1695713222670683400,11.566683349609375,0.5322265625,0.660400390625,1.01837158203125
1695713222680235300,11.5762353515625,0.52825927734375,0.605926513671875,1.39556884765625
1695713222689819100,11.585819091796875,0.5316162109375,0.65887451171875,1.74591064453125
1695713222699371300,11.595371337890626,0.53558349609375,0.811309814453125,2.03521728515625
1695713222708923400,11.60492333984375,0.52703857421875,1.00494384765625,2.227935791015625
1695713222718444800,11.61444482421875,0.53314208984375,1.215057373046875,2.234954833984375
1695713222727996700,11.62399658203125,0.587005615234375,1.309356689453125,1.96075439453125
1695713222737548800,11.633548828125,0.663299560546875,1.13800048828125,1.34796142578125
1695713222747100700,11.6431005859375,0.650177001953125,0.803375244140625,0.404510498046875
1695713222756622300,11.652622314453126,0.50537109375,0.850982666015625,-0.845947265625
1695713222766174200,11.66217431640625,0.41229248046875,1.168365478515625,-2.028961181640625
1695713222775726300,11.671726318359376,0.555419921875,0.812835693359375,-2.29766845703125
1695713222785278200,11.6812783203125,0.8038330078125,-0.244598388671875,-1.735992431640625
1695713222794830300,11.690830322265626,0.933380126953125,-0.895233154296875,-1.083221435546875
1695713222804351700,11.700351806640626,0.76995849609375,-0.631103515625,-0.76416015625
1695713222813903600,11.709903564453125,0.4107666015625,0.04364013671875,-0.636138916015625
1695713222823455700,11.719455810546876,0.13275146484375,0.559844970703125,-0.49163818359375
1695713222833038300,11.729038330078126,0.0439453125,1.0498046875,-0.2008056640625
1695713222842559700,11.738559814453126,-0.085906982421875,1.664886474609375,0.2392578125
1695713222852111600,11.748111572265625,-0.31036376953125,2.0953369140625,0.8868408203125
1695713222861663700,11.757663818359376,-0.51971435546875,1.7462158203125,1.925506591796875
1695713222871215900,11.7672158203125,-0.5987548828125,-0.206146240234375,2.689208984375
1695713222880767700,11.776767822265626,-0.22613525390625,-3.1414794921875,1.862030029296875
1695713222890289200,11.7862890625,0.218048095703125,-3.481292724609375,-0.45745849609375
1695713222899841300,11.79584130859375,0.75653076171875,-0.961761474609375,-1.407318115234375
1695713222909393200,11.80539306640625,1.18865966796875,0.01129150390625,0.181884765625
1695713222918945300,11.8149453125,1.12213134765625,-0.70831298828125,1.710205078125
1695713222928466700,11.824466796875,0.586395263671875,-0.7550048828125,2.143096923828125
1695713222938018800,11.834018798828126,0.04150390625,0.088348388671875,1.557159423828125
1695713222947570700,11.84357080078125,-0.475921630859375,0.67535400390625,0.97503662109375
1695713222957122800,11.853122802734376,-0.91339111328125,-0.074462890625,1.39434814453125
1695713222966644200,11.862644287109376,-1.110992431640625,-1.13555908203125,2.229766845703125
1695713222976196000,11.872196044921875,-0.99029541015625,-2.1502685546875,2.943572998046875
1695713222985748200,11.881748291015626,-0.6390380859375,-2.87506103515625,3.12652587890625
1695713222995300000,11.891300048828125,-0.19439697265625,-2.8289794921875,2.598419189453125
1695713223004852200,11.900852294921876,0.12847900390625,-1.783447265625,1.63818359375
1695713223014373600,11.91037353515625,0.15777587890625,-0.620269775390625,1.189727783203125
1695713223023925800,11.91992578125,0.10101318359375,0.02960205078125,1.3311767578125
1695713223033477600,11.9294775390625,0.064697265625,0.140228271484375,1.702880859375
1695713223043029800,11.93902978515625,0.07720947265625,-0.105438232421875,2.0281982421875
1695713223052581600,11.94858154296875,0.0921630859375,-0.43670654296875,2.173919677734375
1695713223062103300,11.958103271484376,0.076904296875,-0.626220703125,2.11578369140625
1695713223071655200,11.9676552734375,0.0494384765625,-0.611724853515625,1.9415283203125
1695713223081207300,11.977207275390626,-0.005950927734375,-0.480194091796875,1.72576904296875
1695713223090759200,11.98675927734375,-0.059051513671875,-0.37567138671875,1.579132080078125
1695713223100280600,11.996280517578125,-0.065460205078125,-0.447845458984375,1.558990478515625
1695713223109863200,12.00586328125,-0.053558349609375,-0.63385009765625,1.581268310546875
1695713223119415300,12.015415283203126,-0.118865966796875,-0.813140869140625,1.516265869140625
1695713223128967200,12.02496728515625,-0.22857666015625,-0.843048095703125,1.36077880859375
1695713223138488600,12.034488525390625,-0.289306640625,-0.789794921875,1.217498779296875
1695713223148040700,12.044040771484376,-0.30731201171875,-0.74493408203125,1.152191162109375
1695713223157592600,12.053592529296875,-0.321044921875,-0.73638916015625,1.124725341796875
1695713223167144700,12.063144775390626,-0.330963134765625,-0.758056640625,1.110382080078125
1695713223176696600,12.072696533203125,-0.340423583984375,-0.77789306640625,1.118621826171875
1695713223186218200,12.08221826171875,-0.350189208984375,-0.78155517578125,1.133575439453125
1695713223195770000,12.09177001953125,-0.360870361328125,-0.73944091796875,1.150054931640625
1695713223205322200,12.101322265625,-0.375823974609375,-0.638427734375,1.175079345703125
1695713223214874000,12.1108740234375,-0.396881103515625,-0.495758056640625,1.203460693359375
1695713223224395800,12.120395751953126,-0.419464111328125,-0.39276123046875,1.22955322265625
1695713223233947600,12.12994775390625,-0.434417724609375,-0.377197265625,1.23504638671875
1695713223243499800,12.139499755859376,-0.440521240234375,-0.4388427734375,1.197052001953125
1695713223253051600,12.1490517578125,-0.449371337890625,-0.503387451171875,1.106719970703125
1695713223262603800,12.158603759765626,-0.468902587890625,-0.500335693359375,0.9686279296875
1695713223272125200,12.168125244140626,-0.51666259765625,-0.474090576171875,0.820770263671875
1695713223281677000,12.177677001953125,-0.58013916015625,-0.490875244140625,0.692596435546875
1695713223291229200,12.187229248046876,-0.59814453125,-0.593109130859375,0.57861328125
1695713223300781000,12.196781005859375,-0.5401611328125,-0.69976806640625,0.458831787109375
1695713223310302700,12.206302734375,-0.431060791015625,-0.72998046875,0.352325439453125
1695713223319854600,12.2158544921875,-0.348968505859375,-0.6805419921875,0.25390625
1695713223329406700,12.22540673828125,-0.330352783203125,-0.6378173828125,0.144195556640625
1695713223338958600,12.23495849609375,-0.359344482421875,-0.625,0.012969970703125
1695713223348510700,12.2445107421875,-0.380096435546875,-0.597686767578125,-0.12481689453125
1695713223358032100,12.2540322265625,-0.352630615234375,-0.540924072265625,-0.266265869140625
1695713223367584300,12.263584228515626,-0.25543212890625,-0.493927001953125,-0.4345703125
1695713223377136000,12.27313623046875,-0.091400146484375,-0.41595458984375,-0.632476806640625
1695713223386688300,12.282688232421876,0.10223388671875,-0.2593994140625,-0.85357666015625
1695713223396240100,12.292240234375,0.257720947265625,-0.04180908203125,-1.096343994140625
1695713223405792300,12.301792236328126,0.321197509765625,0.219879150390625,-1.397857666015625
1695713223415344000,12.31134423828125,0.38604736328125,0.491180419921875,-1.745758056640625
1695713223424896300,12.320896240234376,0.49530029296875,0.6524658203125,-2.099151611328125
1695713223434448100,12.3304482421875,0.55633544921875,0.606536865234375,-2.457122802734375
1695713223443969500,12.339969482421875,0.5377197265625,0.3692626953125,-2.863311767578125
1695713223453521700,12.349521728515626,0.47637939453125,-0.04241943359375,-3.226470947265625
1695713223463073500,12.359073486328125,0.43792724609375,-0.548858642578125,-3.3880615234375
1695713223472625700,12.368625732421876,0.43182373046875,-0.948028564453125,-3.3074951171875
1695713223482147000,12.37814697265625,0.372467041015625,-1.065673828125,-3.116302490234375
1695713223491699200,12.38769921875,0.253753662109375,-0.868072509765625,-2.96295166015625
1695713223501251000,12.3972509765625,0.1727294921875,-0.66650390625,-2.90191650390625
1695713223510803200,12.40680322265625,0.1617431640625,-0.894012451171875,-2.9095458984375
1695713223520355000,12.41635498046875,0.11688232421875,-1.51611328125,-2.882843017578125
1695713223529876700,12.425876708984376,0.000762939453125,-1.972503662109375,-2.727203369140625
1695713223539428600,12.4354287109375,-0.117950439453125,-1.926422119140625,-2.470245361328125
1695713223548980700,12.444980712890626,-0.17578125,-1.42578125,-2.24700927734375
1695713223558532600,12.45453271484375,-0.155029296875,-0.863189697265625,-2.159576416015625
1695713223568054000,12.464053955078125,-0.034332275390625,-0.088958740234375,-2.081451416015625
1695713223577606100,12.473606201171876,0.081787109375,-0.2630615234375,-1.399688720703125
1695713223587158000,12.483157958984375,0.08453369140625,0.2783203125,-1.61529541015625
1695713223596710100,12.492710205078126,0.16998291015625,0.74554443359375,-2.137298583984375
1695713223606262000,12.502261962890625,0.17822265625,1.282501220703125,-2.6031494140625
1695713223615783700,12.51178369140625,0.0677490234375,1.16241455078125,-2.5323486328125
1695713223625335600,12.52133544921875,0.1544189453125,1.283416748046875,-2.53814697265625
1695713223634887700,12.5308876953125,0.245208740234375,1.1456298828125,-2.31475830078125
1695713223644439600,12.540439453125,0.294647216796875,0.963897705078125,-1.9598388671875
1695713223653961200,12.549961181640626,0.332183837890625,0.936126708984375,-1.59271240234375
1695713223663513000,12.55951318359375,0.369110107421875,0.98602294921875,-1.284027099609375
1695713223673065200,12.569065185546876,0.4071044921875,1.014404296875,-1.060333251953125
1695713223682647600,12.5786474609375,0.43243408203125,1.0406494140625,-0.911712646484375
1695713223692169200,12.588169189453126,0.443115234375,1.08001708984375,-0.79742431640625
1695713223701721000,12.59772119140625,0.43060302734375,1.1175537109375,-0.669403076171875
1695713223711273200,12.607273193359376,0.39520263671875,1.14288330078125,-0.49102783203125
1695713223720825000,12.6168251953125,0.352630615234375,1.12762451171875,-0.233001708984375
1695713223730377200,12.626377197265626,0.326080322265625,1.043701171875,0.105743408203125
1695713223739898600,12.635898681640626,0.324859619140625,0.928497314453125,0.486907958984375
1695713223749450500,12.645450439453125,0.355987548828125,0.842132568359375,0.857696533203125
1695713223759002600,12.655002685546876,0.41229248046875,0.805816650390625,1.205902099609375
1695713223768554500,12.664554443359375,0.47943115234375,0.850372314453125,1.530303955078125
1695713223778106600,12.674106689453126,0.5517578125,0.971527099609375,1.815032958984375
1695713223787628000,12.6836279296875,0.603790283203125,1.0980224609375,2.02301025390625
1695713223797180200,12.69318017578125,0.596160888671875,1.1578369140625,2.06787109375
1695713223806732000,12.70273193359375,0.517578125,1.1322021484375,1.846160888671875
1695713223816284200,12.7122841796875,0.3955078125,0.99853515625,1.3116455078125
1695713223825805600,12.7218056640625,0.276336669921875,0.76995849609375,0.506134033203125
1695713223835357700,12.731357666015626,0.212860107421875,0.75958251953125,-0.443115234375
1695713223844909600,12.74090966796875,0.2020263671875,0.810089111328125,-1.19476318359375
1695713223854461700,12.750461669921876,0.215606689453125,0.524444580078125,-1.400299072265625
1695713223863983000,12.759983154296876,0.1910400390625,-0.01953125,-1.18896484375
1695713223873535000,12.769534912109375,0.164794921875,-0.32928466796875,-0.942535400390625
1695713223883087000,12.779087158203126,0.1287841796875,-0.2825927734375,-0.78399658203125
1695713223892639000,12.788638916015625,-0.001068115234375,-0.0494384765625,-0.634918212890625
1695713223902191000,12.798191162109376,-0.1861572265625,0.128936767578125,-0.4315185546875
1695713223911712500,12.80771240234375,-0.321197509765625,0.27801513671875,-0.186004638671875
1695713223921264600,12.8172646484375,-0.435333251953125,0.537261962890625,0.064849853515625
1695713223930816500,12.82681640625,-0.65643310546875,0.832061767578125,0.323486328125
1695713223940368600,12.83636865234375,-0.92864990234375,0.98785400390625,0.712432861328125
1695713223949890000,12.84589013671875,-1.084136962890625,0.934600830078125,1.373291015625
1695713223959442200,12.855442138671876,-1.01409912109375,0.230560302734375,1.499786376953125
1695713223969024500,12.8650244140625,-0.5072021484375,-0.892181396484375,0.32562255859375
1695713223978576600,12.87457666015625,0.15411376953125,-0.7305908203125,-0.8074951171875
1695713223988128500,12.88412841796875,0.627288818359375,0.110015869140625,-0.7965087890625
1695713223997650200,12.893650146484376,1.033782958984375,-1.327667236328125,0.90179443359375
1695713224007202000,12.9032021484375,1.16912841796875,-2.445068359375,2.4371337890625
1695713224016754200,12.912754150390626,0.89752197265625,-1.7291259765625,2.571563720703125
1695713224026306000,12.92230615234375,0.413818359375,-0.500640869140625,1.751708984375
1695713224035827500,12.931827392578125,-0.123138427734375,0.204315185546875,0.753021240234375
1695713224045379600,12.941379638671876,-0.55816650390625,0.04302978515625,0.865936279296875
1695713224054931500,12.950931396484375,-0.789337158203125,-0.519866943359375,1.7340087890625
1695713224064483600,12.960483642578126,-0.767364501953125,-0.99578857421875,2.546844482421875
1695713224074035500,12.970035400390625,-0.5340576171875,-1.1181640625,2.904815673828125
1695713224083557000,12.97955712890625,-0.111541748046875,-1.08856201171875,2.620391845703125
