time,seconds_elapsed,z,y,x
1695713069185293600,0.14929345703125,-0.25379905104637146,-1.2708594799041748,0.37217649817466736
1695713069195309300,0.159309326171875,-0.4049333333969116,-1.4125396013259888,0.31678277254104614
1695713069205346000,0.169345947265625,-0.5263733863830566,-1.4189311265945435,0.23049642145633698
1695713069215355100,0.179355224609375,-0.5817670822143555,-1.2389016151428223,0.11118689179420471
1695713069225389600,0.1893896484375,-0.4720449447631836,-0.9407609701156616,-0.02090579830110073
1695713069235439000,0.199439208984375,-0.1664474457502365,-0.6531397700309753,-0.0954742506146431
1695713069245648000,0.20964794921875,0.05725792050361633,-0.5274386405944824,-0.12317110598087311
1695713069255697400,0.219697509765625,0.12863057851791382,-0.5721797347068787,-0.1368863731622696
1695713069265557200,0.22955712890625,0.09454214572906494,-0.5125249624252319,-0.15819165110588074
1695713069275548000,0.2395478515625,-0.07483477145433426,-0.27830013632774353,-0.2583264410495758
1695713069285748000,0.249748046875,-0.3175817131996155,0.025300011038780212,-0.4053328037261963
1695713069295782400,0.259782470703125,-0.47311022877693176,0.43635863065719604,-0.6290381550788879
1695713069305809000,0.269808837890625,-0.46884915232658386,0.8303729891777039,-0.8930904269218445
1695713069315693800,0.27969384765625,-0.36551859974861145,1.1691268682479858,-1.155145287513733
1695713069325675300,0.28967529296875,-0.20160114765167236,1.3575453758239746,-1.3574122190475464
1695713069335785500,0.299785400390625,-0.01837579719722271,1.3703285455703735,-1.4948312044143677
1695713069345821400,0.309821533203125,0.05938844755291939,1.2968252897262573,-1.5289196968078613
1695713069355814100,0.319814208984375,-0.07057371735572815,1.2829768657684326,-1.3531510829925537
1695713069365831700,0.329831787109375,-0.2834932804107666,1.335174798965454,-0.908004105091095
1695713069375880000,0.3398798828125,-0.48802390694618225,1.1829752922058105,-0.335025429725647
1695713069385910500,0.34991064453125,-0.5604618191719055,0.43209755420684814,0.03235738351941109
1695713069395975000,0.359974853515625,-0.5775060653686523,-0.2527337968349457,0.39561229944229126
1695713069406019800,0.370019775390625,-0.5135902166366577,-0.7362303137779236,0.6926876902580261
1695713069416031000,0.380031005859375,-0.41771650314331055,-0.9215862154960632,0.9078709483146667
1695713069426061800,0.390061767578125,-0.25379905104637146,-0.8715187907218933,0.8876309394836426
1695713069436094200,0.40009423828125,-0.14727269113063812,-0.6989461183547974,0.8141277432441711
1695713069446125600,0.41012548828125,0.01784316636621952,-1.0162614583969116,0.9833714962005615
1695713069456170000,0.420169921875,0.07643266767263412,-1.5125411748886108,1.1282473802566528
1695713069466207000,0.43020703125,0.12223900109529495,-1.8480992317199707,1.2432957887649536
1695713069476226800,0.440226806640625,0.24474431574344635,-1.8257287740707397,1.1580747365951538
1695713069486256400,0.45025634765625,0.3298322558403015,-1.665939211845398,0.8471509218215942
1695713069496288300,0.460288330078125,0.45127230882644653,-1.565804362297058,0.47324338555336
1695713069506318600,0.470318603515625,0.5918871164321899,-1.5626085996627808,0.08562056720256805
1695713069516363500,0.480363525390625,0.6973482370376587,-1.7138760089874268,-0.2775011658668518
1695713069526400000,0.49039990234375,0.7825692892074585,-1.9152108430862427,-0.5896234512329102
1695713069536408000,0.500407958984375,0.9123983383178711,-2.000432014465332,-0.8131956458091736
1695713069546432500,0.5104326171875,1.1414300203323364,-2.000432014465332,-0.9239830374717712
1695713069556470300,0.52047021484375,1.4736590385437012,-2.0631494522094727,-0.8909598588943481
1695713069566500000,0.5305,1.8507623672485352,-2.3454442024230957,-0.8025429844856262
1695713069576537900,0.540537841796875,2.3875222206115723,-2.652107000350952,-0.6715155839920044
1695713069586571300,0.5505712890625,3.1073739528656006,-2.811896562576294,-0.6013413071632385
1695713069596631600,0.560631591796875,3.8390769958496094,-2.856637716293335,-0.5853623747825623
1695713069606676500,0.570676513671875,4.33003044128418,-2.979142904281616,-0.5555350184440613
1695713069616662500,0.58066259765625,4.549474716186523,-3.287936210632324,-0.540621280670166
1695713069626701600,0.59070166015625,4.628170967102051,-3.6755590438842773,-0.5736444592475891
1695713069636727600,0.6007275390625,4.744284629821777,-3.9482665061950684,-0.6896250247955322
1695713069646765000,0.61076513671875,5.096887111663818,-4.159188747406006,-0.8089345693588257
1695713069656828400,0.620828369140625,5.614471912384033,-4.726707935333252,-0.8483493328094482
1695713069666868700,0.63086865234375,6.122469425201416,-5.68637752532959,-0.7524756193161011
1695713069676893000,0.640892822265625,6.559094429016113,-6.82913875579834,-0.41065913438796997
1695713069686931500,0.650931396484375,6.942456245422363,-8.230626106262207,0.25925853848457336
1695713069696952600,0.66095263671875,7.329013824462891,-9.462869644165039,1.1836410760879517
1695713069706989300,0.6709892578125,7.467498302459717,-9.782316207885742,1.9611504077911377
1695713069717000200,0.681000244140625,7.209837436676025,-9.059135437011719,2.188983678817749
1695713069727034400,0.691034423828125,6.731534004211426,-7.768435001373291,1.9622156620025635
1695713069737084400,0.70108447265625,6.271473407745361,-6.602237701416016,1.7225313186645508
1695713069747120000,0.7111201171875,5.907286167144775,-6.109153747558594,1.764076590538025
1695713069757147000,0.72114697265625,5.513271808624268,-6.233789443969727,2.26887845993042
1695713069767181600,0.731181640625,5.039362907409668,-6.7375264167785645,3.3157663345336914
1695713069777213700,0.741213623046875,4.626040458679199,-7.043123722076416,4.567184925079346
1695713069787248400,0.751248291015625,4.195806980133057,-6.606498718261719,5.5725274085998535
1695713069797271600,0.761271484375,3.5269546508789062,-5.700225830078125,5.94204044342041
1695713069807305000,0.771304931640625,2.701641798019409,-4.597944259643555,5.76640510559082
1695713069817501000,0.7815009765625,1.9188060760498047,-3.518033266067505,5.361605167388916
1695713069827350500,0.7913505859375,1.3086763620376587,-2.8875303268432617,4.951611518859863
1695713069837368300,0.801368408203125,0.8378298282623291,-2.687260627746582,4.6119256019592285
1695713069847441700,0.811441650390625,0.4097270369529724,-2.588191270828247,4.3147172927856445
1695713069857464800,0.82146484375,0.015712639316916466,-2.3060295581817627,3.954791307449341
1695713069867489500,0.831489501953125,-0.3623228073120117,-1.6978970766067505,3.402052640914917
1695713069877513000,0.841512939453125,-0.7522093057632446,-0.8523440957069397,2.621347427368164
1695713069887569700,0.851569580078125,-1.1366362571716309,-0.1483379602432251,1.7544891834259033
1695713069897596400,0.861596435546875,-1.1749857664108276,0.29574382305145264,0.8141277432441711
1695713069907633400,0.87163330078125,-0.6542050242424011,0.7440866827964783,-0.3488738536834717
1695713069917661400,0.881661376953125,-0.017310533672571182,1.3745895624160767,-1.8345171213150024
1695713069927685400,0.891685302734375,-0.2186453640460968,1.2307789325714111,-2.3478410243988037
1695713069937712600,0.901712646484375,-0.5934849977493286,0.49281758069992065,-1.9666098356246948
1695713069947760600,0.9117607421875,-1.004543662071228,-0.8896282911300659,-0.5512739419937134
1695713069957790000,0.9217900390625,-1.2133352756500244,-1.0546109676361084,0.35300174355506897
1695713069967824600,0.93182470703125,-1.0311752557754517,-0.6989461183547974,0.44767704606056213
1695713069977854500,0.9418544921875,-0.7692534923553467,-0.48802390694618225,0.1687111258506775
1695713069987880400,0.95188037109375,-0.5945502519607544,-0.5487439036369324,0.1910816729068756
1695713069997910000,0.961909912109375,-0.5679186582565308,-0.8129293322563171,0.48070022463798523
1695713070007958800,0.971958740234375,-0.5593965649604797,-0.9407609701156616,0.6543381810188293
1695713070017990400,0.981990478515625,-0.40386807918548584,-0.822516679763794,0.6948181986808777
1695713070028022500,0.9920224609375,-0.1813611388206482,-0.6052029132843018,0.6447508335113525
1695713070038054100,1.00205419921875,0.0018642114009708166,-0.33369383215904236,0.7203845381736755
1695713070048071200,1.0120712890625,0.29574382305145264,-0.15472954511642456,0.6277065873146057
1695713070058101200,1.022101318359375,0.5748428702354431,-0.11851058155298233,0.7171887755393982
1695713070068147700,1.032147705078125,0.8111982345581055,-0.25912538170814514,0.9195888638496399
1695713070078179600,1.0421796875,0.9060067534446716,-0.2569948434829712,1.0089378356933594
1695713070088203300,1.052203369140625,0.8868319988250732,-0.1579253375530243,1.1218557357788086
1695713070098234000,1.062234130859375,0.7506113648414612,-0.3091927766799927,1.2827105522155762
1695713070108266800,1.072266845703125,0.5269060134887695,-0.5018723607063293,1.3444958925247192
1695713070118297900,1.0822978515625,0.40440070629119873,-0.29534435272216797,1.3892369270324707
1695713070128334600,1.09233447265625,0.4022701680660248,-0.04287686198949814,1.2901674509048462
1695713070138366200,1.1023662109375,0.6430197358131409,0.0540621280670166,0.9046751260757446
1695713070148409300,1.112409423828125,1.051947832107544,-0.25912538170814514,0.13781848549842834
1695713070158442000,1.12244189453125,1.4832464456558228,-0.4251733422279358,-0.7343661189079285
1695713070168461000,1.1324609375,1.8964356184005737,0.34687647223472595,-1.2860394716262817
1695713070178492400,1.142492431640625,2.225602149963379,1.5769896507263184,-1.3851090669631958
1695713070188514600,1.1525146484375,2.5599617958068848,2.3628878593444824,-1.2594079971313477
1695713070198545000,1.162544921875,2.949848175048828,2.5407869815826416,-1.045423150062561
1695713070208604700,1.172604736328125,3.2011172771453857,2.3341257572174072,-0.9740504622459412
1695713070218638300,1.182638427734375,3.2724900245666504,1.7176045179367065,-1.0592715740203857
1695713070228655400,1.1926552734375,3.094590902328491,0.9070720076560974,-1.0049431324005127
1695713070238687000,1.20268701171875,2.8092334270477295,0.3308975100517273,-0.7375619411468506
1695713070248722700,1.21272265625,2.657965898513794,-0.1291632205247879,-0.6673876643180847
1695713070258754800,1.2227548828125,2.83160400390625,-0.5221123695373535,-0.7641934752464294
1695713070268786000,1.232785888671875,3.3609068393707275,-1.051415205001831,-0.9729851484298706
1695713070278817800,1.24281787109375,4.180893421173096,-1.3081437349319458,-1.2615385055541992
1695713070288856600,1.252856689453125,4.967989921569824,-1.076981544494629,-1.5044186115264893
1695713070298889200,1.26288916015625,5.242694854736328,-0.27830013632774353,-1.4745911359786987
1695713070308927700,1.272927734375,4.865725040435791,0.8985498547554016,-1.0518146753311157
1695713070318961000,1.2829609375,4.025497913360596,1.5759243965148926,-0.3446127772331238
1695713070328979000,1.29297900390625,2.9530439376831055,1.2957600355148315,0.3412838280200958
1695713070339010600,1.303010498046875,1.8857829570770264,0.5311670899391174,0.7044056057929993
1695713070349050400,1.31305029296875,0.8825709223747253,-0.18455693125724792,0.6074665784835815
1695713070359082800,1.323082763671875,0.007190529722720385,-0.35819488763809204,0.1537974327802658
1695713070369111300,1.333111328125,-0.3644533157348633,0.3394196331501007,-0.21571588516235352
1695713070379143400,1.343143310546875,-0.5029376149177551,0.4331628382205963,-0.3584612011909485
1695713070389181200,1.35318115234375,-0.5657881498336792,0.27124276757240295,-0.2636527419090271
1695713070399214000,1.363214111328125,-0.46991443634033203,0.15725953876972198,-0.06564687192440033
1695713070409239600,1.373239501953125,-0.2655169665813446,0.07110634446144104,0.03768370300531387
1695713070419271700,1.383271728515625,0.03382211923599243,-0.017310533672571182,0.09946899116039276
1695713070429306000,1.39330615234375,0.49814391136169434,-0.13768532872200012,0.06218476593494415
1695713070439338200,1.403338134765625,0.9912278056144714,-0.25060325860977173,-0.10293109714984894
1695713070449380900,1.413380859375,1.4267874956130981,-0.13768532872200012,-0.19121482968330383
1695713070459414300,1.423414306640625,1.9134798049926758,0.2541985511779785,0.05685844644904137
1695713070469427200,1.43342724609375,2.4513049125671387,0.5716471076011658,0.3743070065975189
1695713070479458300,1.443458251953125,3.0434582233428955,0.6313018798828125,0.3242396116256714
1695713070489495600,1.45349560546875,3.6547863483428955,0.6897581815719604,0.37217649817466736
1695713070499527400,1.46352734375,4.343878746032715,0.6929540038108826,0.7672561407089233
1695713070509573600,1.47357373046875,4.846549987792969,0.503470242023468,1.0803104639053345
1695713070519607000,1.48360693359375,4.899813175201416,-0.18881797790527344,1.2262516021728516
1695713070529621800,1.493621826171875,4.555866241455078,-1.172855257987976,1.1548789739608765
1695713070539653000,1.503653076171875,3.8742306232452393,-2.50203800201416,0.47111284732818604
1695713070549686300,1.513686279296875,3.25011944770813,-3.438138484954834,-0.343547523021698
1695713070559718000,1.5237177734375,2.8624966144561768,-3.7256264686584473,-0.7556713819503784
1695713070569748700,1.533748779296875,2.752774477005005,-3.4253551959991455,-0.6757766008377075
1695713070579780000,1.543780029296875,2.776210308074951,-2.9269449710845947,-0.3627222776412964
1695713070589822500,1.553822509765625,3.0434582233428955,-2.717087984085083,0.05579318478703499
1695713070599854800,1.563854736328125,3.3949952125549316,-2.7000439167022705,0.24647536873817444
1695713070609878000,1.5738779296875,3.2021825313568115,-2.8055050373077393,0.028096329420804977
1695713070619909600,1.58390966796875,2.860366106033325,-2.786330223083496,-0.14221268892288208
1695713070629954600,1.59395458984375,2.52374267578125,-2.7160227298736572,-0.20080219209194183
1695713070639987700,1.60398779296875,2.3033664226531982,-2.189915657043457,-0.2956106662750244
1695713070649995300,1.613995361328125,2.359825372695923,-2.150501012802124,-0.18482324481010437
1695713070660025600,1.624025634765625,2.6292037963867188,-2.248505115509033,-0.05712476372718811
1695713070670089500,1.63408935546875,2.9678244590759277,-2.070606231689453,-0.12636689841747284
1695713070680123100,1.644123046875,3.129744529724121,-1.729854941368103,-0.35952648520469666
1695713070690123000,1.654123046875,3.1734204292297363,-1.260206937789917,-0.6779071688652039
1695713070700153000,1.664153076171875,3.1968562602996826,-0.6744450330734253,-0.9346356987953186
1695713070710187800,1.674187744140625,2.7634270191192627,-0.3411506712436676,-1.2263847589492798
1695713070720218400,1.68421826171875,1.6078822612762451,-0.2143843024969101,-1.438372254371643
1695713070730256100,1.694256103515625,-0.05779055133461952,0.16258586943149567,-1.4245238304138184
1695713070740287500,1.70428759765625,-0.7223818898200989,0.2680469751358032,-0.9783114790916443
1695713070750317000,1.714317138671875,-0.3410175144672394,-0.010918952524662018,-0.3989412188529968
1695713070760348200,1.72434814453125,-0.10466215014457703,-0.35286858677864075,-0.1699095517396927
1695713070770391800,1.734391845703125,0.027430538088083267,-0.34434646368026733,-0.16138744354248047
1695713070780424400,1.744424560546875,0.0636495053768158,-0.03009369783103466,-0.22210747003555298
1695713070790468000,1.754468017578125,0.03808317333459854,0.344745934009552,-0.2540653645992279
1695713070800501800,1.764501708984375,0.02210422046482563,0.7334340214729309,-0.1507348120212555
1695713070810543900,1.7745439453125,-0.020506324246525764,1.0402299165725708,0.028096329420804977
1695713070820578300,1.784578369140625,-0.08761793375015259,1.1052110195159912,0.14314480125904083
1695713070830576400,1.794576416015625,-0.16005586087703705,0.8687224984169006,0.11438268423080444
1695713070840607200,1.804607177734375,-0.30479857325553894,1.4001559019088745,0.42850229144096375
1695713070850659000,1.8146591796875,-0.2973417043685913,1.2222568988800049,0.3572627902030945
1695713070860692000,1.82469189453125,-0.20373167097568512,0.9060067534446716,0.21345220506191254
1695713070870741200,1.8347412109375,-0.16005586087703705,1.1968237161636353,0.3189133107662201
1695713070880776000,1.84477587890625,-0.16964323818683624,1.5833812952041626,0.4263717830181122
1695713070890791400,1.85479150390625,-0.171773761510849,1.8687387704849243,0.4455465078353882
1695713070900824000,1.864823974609375,-0.09933583438396454,1.5471622943878174,0.5733781456947327
1695713070910864000,1.87486376953125,0.019973693415522575,0.8697877526283264,0.4881570637226105
1695713070920897300,1.884897216796875,0.09880319982767105,0.44488072395324707,0.11012163013219833
1695713070930922500,1.894922607421875,0.18508955836296082,0.06578002870082855,-0.17949692904949188
1695713070940955000,1.904954833984375,0.2287653684616089,-0.12277163565158844,-0.21358536183834076
1695713070950989000,1.914989013671875,0.17976324260234833,-0.14514216780662537,-0.12423637509346008
1695713070961021700,1.925021728515625,0.14141374826431274,0.12543480098247528,-0.03262370079755783
1695713070971042600,1.93504248046875,0.1009337306022644,0.1945437788963318,-0.04008054360747337
1695713070981074000,1.945073974609375,0.09241162240505219,0.06258423626422882,-0.07736477255821228
1695713070991090400,1.95509033203125,0.10412952303886414,-0.14940322935581207,-0.11145320534706116
1695713071001120300,1.965120361328125,0.11158636957406998,-0.2708432674407959,-0.13475584983825684
1695713071011180000,1.975179931640625,0.12863057851791382,-0.293213814496994,-0.1368863731622696
1695713071021213000,1.985212890625,0.1531316488981247,-0.24101589620113373,-0.0954742506146431
1695713071031259400,1.99525927734375,0.12863057851791382,-0.2239716798067093,-0.03688475489616394
1695713071041293800,2.0052939453125,0.09347688406705856,-0.1994706094264984,0.009986846707761288
1695713071051321000,2.015321044921875,0.048735812306404114,-0.13768532872200012,0.016378428786993027
1695713071061354800,2.025354736328125,0.01784316636621952,-0.1579253375530243,-0.01771000772714615
1695713071071357400,2.035357421875,0.015712639316916466,-0.21971063315868378,-0.04540686309337616
1695713071081388000,2.045387939453125,0.019973693415522575,-0.22503694891929626,-0.06032055243849754
1695713071091426000,2.055426025390625,0.008255792781710625,-0.19627483189105988,-0.06884266436100006
1695713071101457200,2.06545703125,0.030626330524683,-0.10785794258117676,-0.024101590737700462
1695713071111485700,2.075485595703125,0.015712639316916466,-0.05033370852470398,0.028096329420804977
1695713071121516500,2.0855166015625,0.015712639316916466,0.018908429890871048,0.08775109052658081
1695713071131566800,2.09556689453125,-0.02583264373242855,0.019973693415522575,0.10479531437158585
1695713071141599700,2.105599853515625,-0.12064110487699509,0.1296958476305008,0.10586057603359222
1695713071151614500,2.115614501953125,-0.14727269113063812,0.2414153665304184,0.09520793706178665
1695713071161645600,2.1256455078125,-0.09400951862335205,0.23928484320640564,0.11012163013219833
1695713071171674600,2.135674560546875,-0.06311687082052231,0.18176060914993286,0.11118689179420471
1695713071181705500,2.14570556640625,-0.03328948840498924,0.14128059148788452,0.07603318989276886
1695713071191752000,2.155751953125,-0.011984216049313545,0.10626004636287689,0.053662657737731934
1695713071201784300,2.165784423828125,-0.023702116683125496,0.009321057237684727,0.009986846707761288
1695713071211823900,2.175823974609375,-0.024767380207777023,0.05938844755291939,-0.0006657897611148655
1695713071221856800,2.185856689453125,-0.023702116683125496,-0.14194637537002563,-0.034754227846860886
1695713071231898400,2.1958984375,-0.0023968431632965803,-0.0588558167219162,-0.005992108024656773
1695713071241932300,2.205932373046875,0.03169159218668938,0.06684529036283493,0.020639482885599136
1695713071251944400,2.2159443359375,0.07962846010923386,-0.21012325584888458,-0.031558435410261154
1695713071261976000,2.22597607421875,0.07536740601062775,-0.19840535521507263,-0.06671213358640671
1695713071272009000,2.236009033203125,0.06151897460222244,-0.17390428483486176,-0.11784479022026062
1695713071282040600,2.24604052734375,0.07536740601062775,-0.21971063315868378,-0.14008216559886932
1695713071292072700,2.25607275390625,0.07856319099664688,-0.2474074810743332,-0.1284974217414856
1695713071302104300,2.266104248046875,0.05086633935570717,-0.23568958044052124,-0.1093226820230484
1695713071312129300,2.27612939453125,0.07430213689804077,-0.13235901296138763,-0.06990792602300644
1695713071322160600,2.28616064453125,0.07004108279943466,-0.14727269113063812,-0.06138581782579422
1695713071332216800,2.296216796875,0.019973693415522575,-0.15153375267982483,-0.09653951972723007
1695713071342250500,2.30625048828125,0.04980107396841049,-0.12064110487699509,-0.10506162792444229
1695713071352254500,2.31625439453125,0.12543480098247528,-0.10785794258117676,-0.050733182579278946
1695713071362285000,2.32628515625,0.0636495053768158,-0.2804306447505951,-0.06351634114980698
1695713071372315000,2.33631494140625,0.05299686640501022,-0.37204334139823914,-0.1093226820230484
1695713071382345500,2.346345458984375,0.03914843872189522,-0.4901544451713562,-0.16138744354248047
1695713071392413700,2.35641357421875,0.08282424509525299,-0.491219699382782,-0.15712638199329376
1695713071402448000,2.36644775390625,0.17337165772914886,-0.43689125776290894,-0.08908267319202423
1695713071412470800,2.376470703125,0.15632744133472443,-0.49228495359420776,-0.10719215124845505
1695713071422504000,2.38650390625,0.15845796465873718,-0.6233124136924744,-0.1826927214860916
1695713071432530200,2.3965302734375,0.12650005519390106,-0.9205209612846375,-0.30306750535964966
1695713071442562600,2.4065625,0.08815056830644608,-1.2133352756500244,-0.42024651169776917
1695713071452589000,2.416589111328125,0.07430213689804077,-1.2847079038619995,-0.49694550037384033
1695713071462621000,2.426620849609375,0.011451584286987782,-1.3283838033676147,-0.5086634159088135
1695713071472657400,2.436657470703125,-0.08868319541215897,-1.5594128370285034,-0.5033370852470398
1695713071482689500,2.446689453125,-0.10253162682056427,-1.578587532043457,-0.40213701128959656
1695713071492728300,2.456728271484375,-0.04500738903880119,-1.2506195306777954,-0.14753901958465576
1695713071502761200,2.46676123046875,0.09880319982767105,-0.4613923132419586,0.21345220506191254
1695713071512793600,2.476793701171875,0.24900537729263306,0.18389113247394562,0.5456812977790833
1695713071522826500,2.486826416015625,0.3436806797981262,0.08921582996845245,0.7257108688354492
1695713071532867800,2.496867919921875,0.33835434913635254,-0.17816534638404846,0.7534077167510986
1695713071542901500,2.506901611328125,0.27550381422042847,-0.27403905987739563,0.6713824272155762
1695713071552910600,2.51691064453125,0.22450430691242218,-0.23462431132793427,0.5627255439758301
1695713071562941700,2.526941650390625,0.17763271927833557,-0.12064110487699509,0.4636560082435608
1695713071572988200,2.53698828125,0.14247901737689972,0.025300011038780212,0.40093860030174255
1695713071583020800,2.547020751953125,0.12543480098247528,0.1327584832906723,0.38282912969589233
1695713071593059300,2.557059326171875,0.08815056830644608,0.14873743057250977,0.4071970283985138
1695713071603092700,2.5670927734375,0.0732368752360344,0.10306425392627716,0.4689823091030121
1695713071613094100,2.57709423828125,0.05832318589091301,0.03914843872189522,0.5275717973709106
1695713071623124200,2.587124267578125,0.056192658841609955,0.009321057237684727,0.5797697305679321
1695713071633183500,2.59718359375,0.05832318589091301,0.013582111336290836,0.6159886717796326
1695713071643216400,2.60721630859375,0.0636495053768158,0.012516847811639309,0.6266413331031799
1695713071653232000,2.617232177734375,0.07217161357402802,-0.008788425475358963,0.6170539855957031
1695713071663263500,2.627263427734375,0.08282424509525299,-0.03755054250359535,0.592552900314331
1695713071673302300,2.63730224609375,0.09560741484165192,-0.07376950979232788,0.5712476372718811
1695713071683334400,2.64733447265625,0.10626004636287689,-0.12170637398958206,0.5659213066101074
1695713071693376300,2.657376220703125,0.110521100461483,-0.16005586087703705,0.5808349847793579
1695713071703409200,2.6674091796875,0.11371689289808273,-0.21012325584888458,0.6117276549339294
1695713071713415400,2.67741552734375,0.11371689289808273,-0.2708432674407959,0.651142418384552
1695713071723445800,2.68744580078125,0.12543480098247528,-0.2793653905391693,0.6831002831459045
1695713071733506800,2.6975068359375,0.1243695318698883,-0.2878875136375427,0.696948766708374
1695713071743540200,2.707540283203125,0.1201084777712822,-0.27830013632774353,0.6841655969619751
1695713071753581800,2.717581787109375,0.12650005519390106,-0.2697780132293701,0.6479465961456299
1695713071763616000,2.727615966796875,0.14034847915172577,-0.32517173886299133,0.6000097393989563
1695713071773634300,2.73763427734375,0.1627190262079239,-0.40812912583351135,0.5360939502716064
1695713071783667000,2.7476669921875,0.18935060501098633,-0.5391565561294556,0.4679170548915863
1695713071793678600,2.7576787109375,0.20532956719398499,-0.6435524225234985,0.4030691385269165
1695713071803709000,2.767708984375,0.20532956719398499,-0.6637924313545227,0.3561975359916687
1695713071813759700,2.777759765625,0.19893798232078552,-0.6020070910453796,0.3221091032028198
1695713071823792000,2.787792236328125,0.18295903503894806,-0.4986765384674072,0.28802067041397095
1695713071833837800,2.797837890625,0.16804534196853638,-0.3986749053001404,0.2390185296535492
1695713071843871500,2.80787158203125,0.15526217222213745,-0.34221595525741577,0.19001640379428864
1695713071853879000,2.817879150390625,0.1478053331375122,-0.3273022472858429,0.1346226930618286
1695713071863910100,2.82791015625,0.14034847915172577,-0.3219759464263916,0.07283740490674973
1695713071873964800,2.83796484375,0.1339569091796875,-0.31025803089141846,0.005725792143493891
1695713071883998200,2.847998291015625,0.13182637095451355,-0.29214856028556824,-0.051798444241285324
1695713071894004000,2.85800390625,0.12863057851791382,-0.28256118297576904,-0.0858868807554245
1695713071904034800,2.868034912109375,0.12756532430648804,-0.27403905987739563,-0.09121319651603699
1695713071914076000,2.878075927734375,0.12543480098247528,-0.23462431132793427,-0.08162582665681839
1695713071924107500,2.888107421875,0.12117373943328857,-0.1675127148628235,-0.06138581782579422
1695713071934137300,2.898137451171875,0.10945583879947662,-0.09081372618675232,-0.04008054360747337
1695713071944169000,2.9081689453125,0.09986846894025803,-0.0354200154542923,-0.02197106182575226
1695713071954229800,2.918229736328125,0.09454214572906494,-0.00985368900001049,-0.027297381311655045
1695713071964264200,2.92826416015625,0.08815056830644608,-0.0023968431632965803,-0.054994236677885056
1695713071974271500,2.938271484375,0.08388951420783997,0.008255792781710625,-0.10506162792444229
1695713071984303400,2.948303466796875,0.08388951420783997,0.023169483989477158,-0.1741705983877182
1695713071994325200,2.9583251953125,0.08388951420783997,0.03169159218668938,-0.25619590282440186
1695713072004355800,2.96835595703125,0.08388951420783997,0.027430538088083267,-0.35100436210632324
1695713072014409500,2.978409423828125,0.07856319099664688,0.028495801612734795,-0.46711811423301697
1695713072024442400,2.9884423828125,0.0540621280670166,0.05193160101771355,-0.6130592226982117
1695713072034483000,2.99848291015625,0.015712639316916466,0.12756532430648804,-0.7940208911895752
1695713072044516600,3.0085166015625,-0.036485280841588974,0.25313326716423035,-1.00813889503479
1695713072054544100,3.018544189453125,-0.10679268091917038,0.392682820558548,-1.2562121152877808
1695713072064577300,3.028577392578125,-0.20160114765167236,0.533297598361969,-1.5385069847106934
1695713072074609400,3.038609375,-0.31012487411499023,0.690823495388031,-1.819603443145752
1695713072084642300,3.048642333984375,-0.41878175735473633,0.8186551332473755,-2.0901803970336914
1695713072094683600,3.05868359375,-0.5253081321716309,0.7920235395431519,-2.3382537364959717
1695713072104717600,3.068717529296875,-0.658466100692749,0.587626039981842,-2.6525063514709473
1695713072114734600,3.078734619140625,-0.7916240692138672,0.23502379655838013,-3.011367082595825
1695713072124766700,3.0887666015625,-0.8001461625099182,-0.04181159660220146,-3.3691625595092773
1695713072134807600,3.0988076171875,-0.6861629486083984,-0.29747486114501953,-3.6077816486358643
1695713072144840700,3.1088408203125,-0.5977460741996765,-0.7245124578475952,-3.7111122608184814
1695713072154870300,3.118870361328125,-0.5359607934951782,-1.4231922626495361,-3.7654407024383545
1695713072164903000,3.12890283203125,-0.5231776237487793,-2.0524966716766357,-3.8005943298339844
1695713072174908700,3.13890869140625,-0.5231776237487793,-2.293246269226074,-3.8208343982696533
1695713072184938500,3.1489384765625,-0.4624575674533844,-2.3699452877044678,-3.732417583465576
1695713072194975000,3.15897509765625,-0.3356912136077881,-2.3070948123931885,-3.50871205329895
1695713072205005600,3.169005615234375,-0.21225377917289734,-2.021604061126709,-3.200984001159668
1695713072215066000,3.179066162109375,-0.15046848356723785,-1.7138760089874268,-2.924015522003174
1695713072225099800,3.189099853515625,-0.1525990217924118,-1.4061479568481445,-2.6525063514709473
1695713072235123200,3.199123291015625,-0.18029586970806122,-1.1952258348464966,-2.38619065284729
1695713072245155600,3.209155517578125,-0.20799273252487183,-1.0801773071289062,-2.1445088386535645
1695713072255185000,3.219184814453125,-0.22610220313072205,-1.047154188156128,-1.9602183103561401
1695713072265217000,3.229217041015625,-0.22184115648269653,-0.9960215091705322,-1.8164076805114746
1695713072275254300,3.239254150390625,-0.2143843024969101,-1.0120004415512085,-1.6972312927246094
1695713072285287000,3.249286865234375,-0.19307903945446014,-1.0162614583969116,-1.5619428157806396
1695713072295293400,3.25929345703125,-0.13981585204601288,-1.088699460029602,-1.4032185077667236
1695713072305323300,3.2693232421875,-0.07590003311634064,-1.118526816368103,-1.1860378980636597
1695713072315357400,3.279357421875,-0.029028434306383133,-1.0652636289596558,-0.9218525290489197
1695713072325387800,3.2893876953125,0.015712639316916466,-0.9757815003395081,-0.6514087319374084
1695713072335448000,3.299447998046875,0.04554001986980438,-0.8661925196647644,-0.41598546504974365
1695713072345481500,3.3094814453125,0.10199899226427078,-0.7681882381439209,-0.28069695830345154
1695713072355513900,3.319513916015625,0.17337165772914886,-0.7287734746932983,-0.26045694947242737
1695713072365547000,3.329547119140625,0.24580958485603333,-0.6957502961158752,-0.3211769759654999
1695713072375581400,3.33958154296875,0.29893961548805237,-0.6020070910453796,-0.456465482711792
1695713072385615000,3.349614990234375,0.325571209192276,-0.5359607934951782,-0.5970802903175354
1695713072395644200,3.35964404296875,0.29893961548805237,-0.5530049800872803,-0.6725808382034302
1695713072405677000,3.369677001953125,0.2330264151096344,-0.6510092616081238,-0.6673876643180847
1695713072415711500,3.37971142578125,0.17763271927833557,-0.7745798230171204,-0.5736444592475891
1695713072425900500,3.389900634765625,0.14567480981349945,-0.8800409436225891,-0.42131176590919495
1695713072435929000,3.39992919921875,0.12543480098247528,-0.8672577738761902,-0.29028433561325073
1695713072445962200,3.409962158203125,0.09560741484165192,-0.7660577297210693,-0.20293273031711578
1695713072455975700,3.4199755859375,0.06897582113742828,-0.6350302696228027,-0.15819165110588074
1695713072466008800,3.4300087890625,0.060453712940216064,-0.5285038948059082,-0.14753901958465576
1695713072476059400,3.440059326171875,0.05832318589091301,-0.48695865273475647,-0.1284974217414856
1695713072486063900,3.45006396484375,0.04554001986980438,-0.46565335988998413,-0.04008054360747337
1695713072496097000,3.460096923828125,0.029561065137386322,-0.38589176535606384,0.15166690945625305
1695713072506144300,3.470144287109375,-0.031158961355686188,-0.23995064198970795,0.41891491413116455
1695713072516168700,3.480168701171875,-0.11638005077838898,-0.11638005077838898,0.6777740120887756
1695713072526201900,3.490201904296875,-0.18668745458126068,-0.14514216780662537,0.7757782340049744
1695713072536234800,3.50023486328125,-0.24421168863773346,-0.34860754013061523,0.7917572259902954
1695713072546267400,3.510267333984375,-0.1760348230600357,-0.4763059914112091,0.9748494029045105
1695713072556295700,3.520295654296875,-0.0034621069207787514,-0.30173593759536743,1.2731232643127441
1695713072566324000,3.530323974609375,0.04660528525710106,0.05725792050361633,1.570198655128479
1695713072576356400,3.5403564453125,-0.10359688848257065,0.08282424509525299,1.8205355405807495
1695713072586391800,3.550391845703125,-0.3527354300022125,-0.03009369783103466,1.8343839645385742
1695713072596267800,3.560267822265625,-0.5860281586647034,0.15725953876972198,1.6117439270019531
1695713073860423200,4.824423095703125,-0.2559295892715454,0.024234747514128685,1.4435653686523438
1695713073870441700,4.834441650390625,-0.18029586970806122,0.18602167069911957,1.2550137042999268
1695713073880460500,4.84446044921875,-0.13662005960941315,0.4395544230937958,1.1346389055252075
1695713073890479400,4.854479248046875,-0.08016108721494675,0.4608596861362457,1.0398304462432861
1695713073900498000,4.864497802734375,-0.0002663159102667123,0.10839057713747025,1.0547441244125366
1695713073910528500,4.874528564453125,0.03808317333459854,-0.3592601716518402,1.2571442127227783
1695713073920558300,4.884558349609375,0.025300011038780212,-0.31984540820121765,1.6085480451583862
1695713073930588200,4.894588134765625,-0.03009369783103466,0.36605122685432434,2.0026955604553223
1695713073940618000,4.904617919921875,-0.08548741042613983,1.3149348497390747,2.2305288314819336
1695713073950647800,4.914647705078125,-0.13342426717281342,2.051964044570923,2.1975057125091553
1695713073960677600,4.924677734375,-0.0918789878487587,2.3522353172302246,2.0228025913238525
1695713073970707500,4.93470751953125,0.04980107396841049,2.1616861820220947,1.8024260997772217
1695713073980737000,4.944737060546875,0.2330264151096344,1.6004254817962646,1.6532891988754272
1695713073990767000,4.95476708984375,0.4193144142627716,0.812263548374176,1.5531543493270874
1695713074000796700,4.964796630859375,0.5982787013053894,0.029561065137386322,1.4860427379608154
1695713074010827500,4.97482763671875,0.737828254699707,-0.5881586670875549,1.4616749286651611
1695713074020859600,4.984859619140625,0.8165245652198792,-0.9640635848045349,1.4105422496795654
1695713074030892000,4.99489208984375,0.8388951420783997,-0.988564670085907,1.2901674509048462
1695713074040924200,5.004924072265625,0.7346324324607849,-0.6083986759185791,1.048352599143982
1695713074050956300,5.014956298828125,0.49281758069992065,-0.05779055133461952,0.7651256322860718
1695713074060988400,5.024988525390625,0.1669800728559494,0.43209755420684814,0.6064013242721558
1695713074071020500,5.0350205078125,-0.1387505829334259,0.8218508958816528,0.6330329179763794
1695713074081053000,5.045052978515625,-0.3442133069038391,1.2254526615142822,0.6777740120887756
1695713074091085000,5.0550849609375,-0.4102596640586853,1.5098780393600464,0.5914876461029053
1695713074101117200,5.0651171875,-0.3740406930446625,1.4172000885009766,0.47111284732818604
1695713074111148800,5.075148681640625,-0.34740909934043884,0.9603351950645447,0.31252172589302063
1695713074121184300,5.085184326171875,-0.3506048917770386,0.4704470634460449,0.03874896466732025
1695713074131219700,5.0952197265625,-0.3719101548194885,0.18389113247394562,-0.3957454562187195
1695713074141255000,5.1052548828125,-0.43689125776290894,0.030626330524683,-0.8728504180908203
1695713074151290400,5.115290283203125,-0.5338302254676819,-0.019441060721874237,-1.2519510984420776
1695713074161325800,5.125325927734375,-0.679771363735199,0.29467856884002686,-1.656751275062561
1695713074171361000,5.135361083984375,-0.8223835229873657,0.9294425249099731,-2.162618398666382
1695713074181396500,5.145396484375,-0.9843035936355591,1.4907033443450928,-2.6162874698638916
1695713074191432000,5.155431884765625,-1.1302447319030762,1.7526249885559082,-2.913362979888916
1695713074201467100,5.165467041015625,-1.161137342453003,1.7888439893722534,-3.037998676300049
1695713074211502600,5.175502685546875,-1.0993521213531494,1.6398402452468872,-2.909101963043213
1695713074221537800,5.185537841796875,-1.0088046789169312,1.3426316976547241,-2.6269402503967285
1695713074231593500,5.195593505859375,-0.8681898713111877,1.1627352237701416,-2.4138875007629395
1695713074241649200,5.205649169921875,-0.7021418809890747,1.1914973258972168,-2.3435800075531006
1695713074251704800,5.215704833984375,-0.6435524225234985,1.2872380018234253,-2.3797988891601562
1695713074261760500,5.225760498046875,-0.5988113284111023,1.3703285455703735,-2.441584348678589
1695713074271816200,5.235816162109375,-0.5647228956222534,1.3618063926696777,-2.4543673992156982
1695713074281872000,5.245871826171875,-0.5306344628334045,0.7472824454307556,-2.3851253986358643
1695713074291903700,5.25590380859375,-0.4752407371997833,-0.3645864725112915,-2.3936474323272705
1695713074301922300,5.26592236328125,-0.4209122955799103,-1.2271836996078491,-2.658898115158081
1695713074311941000,5.275941162109375,-0.41665124893188477,-1.424257516860962,-3.057173490524292
1695713074321959700,5.285959716796875,-0.4667186439037323,-1.2314447164535522,-3.4139037132263184
1695713074331978500,5.295978515625,-0.582832396030426,-1.1004173755645752,-3.668501615524292
1695713074341997000,5.3059970703125,-0.7138597965240479,-1.1206573247909546,-3.813377618789673
1695713074352016000,5.316015869140625,-0.8660593628883362,-1.2879037857055664,-3.8442702293395996
1695713074362034400,5.326034423828125,-0.9587372541427612,-1.5966970920562744,-3.8410744667053223
1695713074372053200,5.33605322265625,-0.9246488213539124,-1.8928403854370117,-3.8155081272125244
1695713074382071800,5.34607177734375,-0.8436887860298157,-2.1824588775634766,-3.7547879219055176
1695713074392090600,5.356090576171875,-0.7458177208900452,-2.328399896621704,-3.6354784965515137
1695713074402122000,5.3661220703125,-0.5625923871994019,-2.438122272491455,-3.4724931716918945
1695713074412152600,5.376152587890625,-0.3996070325374603,-2.5201475620269775,-3.2680957317352295
1695713074422183200,5.38618310546875,-0.24421168863773346,-2.5945827960968018,-3.028411388397217
1695713074432213800,5.3962138671875,-0.10892320424318314,-2.631866931915283,-2.7451844215393066
1695713074442244400,5.406244384765625,-0.011984216049313545,-2.6009743213653564,-2.401104211807251
1695713074452275000,5.41627490234375,0.028495801612734795,-2.503103256225586,-1.9602183103561401
1695713074462305800,5.426305908203125,0.03275685757398605,-2.397642135620117,-1.4277195930480957
1695713074472336100,5.436336181640625,-0.0002663159102667123,-2.2570273876190186,-0.8206524848937988
1695713074482366700,5.44636669921875,-0.04287686198949814,-2.050366163253784,-0.18056218326091766
1695713074492397600,5.4563974609375,-0.07376950979232788,-1.8534256219863892,0.4487423002719879
1695713074502428000,5.466427978515625,-0.07163897901773453,-1.69044029712677,1.0398304462432861
1695713074512459500,5.47645947265625,-0.05992107838392258,-1.5338464975357056,1.5989607572555542
1695713074522491000,5.486490966796875,-0.027963170781731606,-1.3528847694396973,2.105893135070801
1695713074532522200,5.496522216796875,0.07643266767263412,-1.0876342058181763,2.5043015480041504
1695713074542553600,5.5065537109375,0.25433170795440674,-0.7628619074821472,2.770484447479248
1695713074552585200,5.516585205078125,0.43635863065719604,-0.3081275224685669,2.83013916015625
1695713074562616600,5.526616455078125,0.5663207769393921,0.48749127984046936,2.2007014751434326
1695713074572648000,5.53664794921875,0.6930871605873108,1.1765836477279663,0.7086666226387024
1695713074582679300,5.54667919921875,0.7772429585456848,0.18602167069911957,-0.5757750272750854
1695713074592710700,5.556710693359375,0.9038761854171753,-1.1813774108886719,-1.531050205230713
1695713074602742300,5.5667421875,0.683499813079834,-1.6339812278747559,-2.235056161880493
1695713074612779500,5.576779541015625,0.30426591634750366,-1.2335753440856934,-2.3680810928344727
1695713074622846200,5.58684619140625,-0.11638005077838898,-0.6957502961158752,-2.082723617553711
1695713074632913000,5.596912841796875,-0.49228495359420776,-0.642487108707428,-1.7259933948516846
1695713074642979600,5.6069794921875,-0.6275734305381775,-0.6914892792701721,-1.3148016929626465
1695713074653046000,5.6170458984375,-0.3921501636505127,-0.3848264813423157,-0.7695198059082031
1695713074663112700,5.62711279296875,-0.008788425475358963,0.11158636957406998,-0.17097482085227966
1695713074673150200,5.637150146484375,0.027430538088083267,0.48323023319244385,0.47324338555336
1695713074683177700,5.647177734375,-0.21331904828548431,0.750478208065033,1.4403696060180664
1695713074693215000,5.657215087890625,-0.36019226908683777,0.7174550890922546,2.486192226409912
1695713074703252500,5.66725244140625,-0.3292996287345886,0.3500722646713257,3.1666293144226074
1695713074713241300,5.677241455078125,-0.38362807035446167,0.5727123618125916,3.0261476039886475
1695713074723278600,5.687278564453125,-0.43689125776290894,1.5375748872756958,1.9504977464675903
1695713074733316600,5.697316650390625,-0.23888537287712097,1.845302939414978,1.102681040763855
1695713074743328500,5.70732861328125,-0.040746334940195084,1.0615352392196655,0.9801757335662842
1695713074753365800,5.71736572265625,-0.11957584321498871,0.07004108279943466,1.315733790397644
1695713074763252000,5.727251953125,-0.23142851889133453,-0.16005586087703705,1.9867167472839355
1695713074773276200,5.737276123046875,-0.1771000772714615,0.41718387603759766,2.7587664127349854
1695713074783315500,5.7473154296875,-0.03755054250359535,1.3362400531768799,3.4531853199005127
1695713074793341200,5.757341064453125,0.06151897460222244,2.164881944656372,3.9622480869293213
1695713074803386400,5.767386474609375,0.07962846010923386,2.656900644302368,4.290215969085693
1695713074813414000,5.777413818359375,0.01784316636621952,2.796450138092041,4.434026718139648
1695713074823435500,5.787435546875,-0.09933583438396454,2.548243761062622,4.32856559753418
1695713074833462500,5.797462646484375,-0.21651484072208405,2.0700736045837402,3.9601175785064697
1695713074843515600,5.807515625,-0.2962764501571655,1.5524885654449463,3.4244232177734375
1695713074853545200,5.817545166015625,-0.3399522602558136,0.9315730333328247,2.8386611938476562
1695713075656134000,6.6201337890625,-0.6872282028198242,-0.2239716798067093,-1.1082736253738403
1695713075666166300,6.630166259765625,-0.45606598258018494,-0.3070622384548187,-1.0305094718933105
1695713075676198700,6.64019873046875,0.013582111336290836,-0.3326285779476166,-0.8099998235702515
1695713075686231300,6.650231201171875,-0.02157158963382244,-0.16857796907424927,-0.4287686049938202
1695713075696263700,6.660263671875,-0.46884915232658386,0.22117535769939423,0.37750279903411865
1695713075706298600,6.670298583984375,-0.8223835229873657,0.14767217636108398,1.2933632135391235
1695713075716354800,6.680354736328125,-0.8255793452262878,-0.5870934128761292,1.981390357017517
1695713075726410800,6.69041064453125,-0.7436871528625488,-0.8502135276794434,2.1570258140563965
1695713075736467000,6.700467041015625,-0.7000113725662231,-0.06418213248252869,1.4871079921722412
1695713075746523000,6.71052294921875,-0.4848281145095825,0.5460807681083679,0.6639255881309509
1695713075756579000,6.7205791015625,-0.1813611388206482,0.08921582996845245,0.416784405708313
1695713075766635000,6.730635009765625,-0.03009369783103466,-0.7415566444396973,0.8929572701454163
1695713075776691200,6.740691162109375,-0.024767380207777023,-0.7245124578475952,1.8961693048477173
1695713075786747100,6.7507470703125,0.035952646285295486,0.24993747472763062,2.9015119075775146
1695713075796777500,6.760777587890625,0.14674006402492523,1.6046864986419678,3.6310842037200928
1695713075806788900,6.770788818359375,0.23089589178562164,2.6260080337524414,4.047469139099121
1695713075816800500,6.780800537109375,0.24367906153202057,2.9880645275115967,4.2603888511657715
1695713075826812000,6.79081201171875,0.20639483630657196,2.7900586128234863,4.289150714874268
1695713075836823600,6.800823486328125,0.10199899226427078,2.305363655090332,4.151865005493164
1695713075846835000,6.8108349609375,-0.08335687965154648,1.6494275331497192,3.92496395111084
1695713075856846300,6.820846435546875,-0.21331904828548431,1.0615352392196655,3.6639742851257324
1695713075866858000,6.83085791015625,-0.34740909934043884,0.6483460664749146,3.3700947761535645
1695713075876869400,6.840869384765625,-0.4443480968475342,0.4768386483192444,2.9654276371002197
1695713075886881000,6.850881103515625,-0.45606598258018494,0.600409209728241,2.4947142601013184
1695713075896892400,6.860892333984375,-0.37510594725608826,0.8687224984169006,2.109088897705078
1695713075906923500,6.870923583984375,-0.28562381863594055,1.1126679182052612,1.8471671342849731
1695713075916959000,6.880958984375,-0.23888537287712097,1.209473729133606,1.6650071144104004
1695713075926994200,6.890994140625,-0.16857796907424927,0.9262467622756958,1.520131230354309
1695713075937029600,6.901029541015625,-0.01837579719722271,0.24461115896701813,1.4478265047073364
1695713075947064800,6.91106494140625,0.0966726765036583,-0.27723485231399536,1.482846975326538
1695713075957100000,6.92110009765625,0.09347688406705856,-0.16857796907424927,1.6106786727905273
1695713075967135500,6.931135498046875,0.035952646285295486,0.5290365815162659,1.7853819131851196
1695713075977170700,6.941170654296875,-0.0141147430986166,1.4267874956130981,1.8940387964248657
1695713075987206100,6.9512060546875,-0.04713791608810425,2.12014102935791,1.8961693048477173
1695713075997241300,6.961241455078125,-0.02263685315847397,2.3863236904144287,1.8343839645385742
1695713076007273000,6.97127294921875,0.07004108279943466,2.200035810470581,1.7363797426223755
1695713076017306400,6.981306396484375,0.2372874766588211,1.6121433973312378,1.6351796388626099
1695713076027339800,6.99133984375,0.4299670457839966,0.7813708782196045,1.545697569847107
1695713076037373200,7.001373291015625,0.5854955315589905,-0.06737792491912842,1.4945648908615112
1695713076047406600,7.011406494140625,0.6877608299255371,-0.6669881939888,1.4998911619186401
1695713076057440000,7.02143994140625,0.737828254699707,-0.8267777562141418,1.520131230354309
1695713076067473400,7.031473388671875,0.7207840085029602,-0.5657881498336792,1.4755233526229858
1695713076077506800,7.0415068359375,0.6238450407981873,-0.08122635632753372,1.338104248046875
1695713076087540200,7.051540283203125,0.43635863065719604,0.32344067096710205,1.1431610584259033
1695713076097573400,7.061573486328125,0.20319904386997223,0.5428850054740906,0.9313067197799683
1695713076107605200,7.071605224609375,0.0018642114009708166,0.7110635042190552,0.7416898012161255
1695713076117637600,7.0816376953125,-0.1387505829334259,0.9155941009521484,0.5957486629486084
1695713076127670000,7.091669921875,-0.22077588737010956,1.0924278497695923,0.48389601707458496
1695713076137702100,7.1017021484375,-0.28562381863594055,1.0114678144454956,0.4316980838775635
1695713076147734500,7.111734619140625,-0.3857586085796356,0.6705834865570068,0.3892207145690918
1695713076157767000,7.121766845703125,-0.44647863507270813,0.38522595167160034,0.275237500667572
1695713076167799300,7.13179931640625,-0.5061333775520325,0.600409209728241,-0.16138744354248047
1695713076177831700,7.141831787109375,-0.5647228956222534,0.9784446358680725,-0.7098650336265564
1695713076187863800,7.15186376953125,-0.6073334217071533,1.026381492614746,-1.1498188972473145
1695713076197896200,7.161896240234375,-0.6680534482002258,1.0455563068389893,-1.6887091398239136
1695713076207931400,7.171931396484375,-0.7649924755096436,1.4044169187545776,-2.3489062786102295
1695713076217983500,7.1819833984375,-0.8852340579032898,1.7963007688522339,-2.7505106925964355
1695713076228035600,7.19203564453125,-1.0130656957626343,1.8975008726119995,-2.8462512493133545
1695713076238087400,7.20208740234375,-1.088699460029602,1.7568860054016113,-2.823880672454834
1695713076248139500,7.212139404296875,-1.084438443183899,1.5130738019943237,-2.66422438621521
1695713076258191600,7.222191650390625,-1.0088046789169312,1.280846357345581,-2.4937822818756104
1695713076268243700,7.23224365234375,-0.8522109389305115,1.1893668174743652,-2.444780111312866
1695713076278295600,7.242295654296875,-0.6936197876930237,1.2158652544021606,-2.5182831287384033
1695713076288347600,7.25234765625,-0.5860281586647034,1.2190611362457275,-2.6365275382995605
1695713076298379500,7.262379638671875,-0.5285038948059082,1.130777359008789,-2.7100307941436768
1695713076308397300,7.272397216796875,-0.491219699382782,0.8591351509094238,-2.6610286235809326
1695713076318415000,7.2824150390625,-0.49335023760795593,0.1657816469669342,-2.5374579429626465
1695713076328433000,7.292432861328125,-0.521047055721283,-0.6755102872848511,-2.549175977706909
1695713076338450700,7.30245068359375,-0.5551354885101318,-1.1323752403259277,-2.8324029445648193
1695713076348468700,7.31246875,-0.5551354885101318,-1.0673941373825073,-3.1977882385253906
1695713076358486500,7.322486572265625,-0.6169208288192749,-0.9034767150878906,-3.436274290084839
1695713076368504300,7.33250439453125,-0.7500787377357483,-1.0929604768753052,-3.549192190170288
1695713076378522000,7.342522216796875,-0.875646710395813,-1.4050827026367188,-3.544931173324585
1695713076388540000,7.352539794921875,-0.9629983305931091,-1.791640281677246,-3.5428006649017334
1695713076398558000,7.362557861328125,-0.9768467545509338,-1.9652782678604126,-3.5310826301574707
1695713076408592400,7.37259228515625,-0.9374319911003113,-2.047170400619507,-3.543865919113159
1695713076418641400,7.382641357421875,-0.7862977385520935,-2.1046946048736572,-3.5033857822418213
1695713076428690400,7.3926904296875,-0.6190513372421265,-2.2868547439575195,-3.371293067932129
1695713076438739500,7.402739501953125,-0.4432828426361084,-2.4764716625213623,-3.215897798538208
1695713076448788500,7.41278857421875,-0.3261038362979889,-2.492450714111328,-3.0262808799743652
1695713076458837500,7.42283740234375,-0.27177539467811584,-2.4562315940856934,-2.7515759468078613
1695713076468886500,7.432886474609375,-0.23142851889133453,-2.414686441421509,-2.4138875007629395
1695713076478935600,7.442935546875,-0.18775272369384766,-2.3422484397888184,-2.0262646675109863
1695713076488984600,7.452984619140625,-0.14514216780662537,-2.2133514881134033,-1.5832481384277344
1695713076499033600,7.46303369140625,-0.10892320424318314,-2.0983030796051025,-1.0773810148239136
1695713076509068000,7.473068115234375,-0.09400951862335205,-1.9940403699874878,-0.5289034247398376
1695713076519089400,7.48308935546875,-0.11105373501777649,-1.8875139951705933,0.05472791939973831
1695713076529111000,7.493111083984375,-0.1430116444826126,-1.7863140106201172,0.6692518591880798
1695713076539127800,7.5031279296875,-0.15472954511642456,-1.6595475673675537,1.3114726543426514
1695713076549181700,7.513181640625,-0.10998847335577011,-1.4976274967193604,1.9206703901290894
1695713076559216000,7.523216064453125,0.019973693415522575,-1.25701105594635,2.422276258468628
1695713076569249500,7.53324951171875,0.20319904386997223,-0.9034767150878906,2.7630276679992676
1695713076579254000,7.54325390625,0.3436806797981262,-0.41771650314331055,2.9270782470703125
1695713076589288700,7.553288818359375,0.4001396596431732,0.25206801295280457,2.5755412578582764
1695713076599354400,7.563354248046875,0.4427502155303955,1.0487520694732666,1.1538137197494507
1695713076609366000,7.573365966796875,0.4800344407558441,0.6972150802612305,-0.33715593814849854
1695713076619400400,7.583400390625,0.5641902685165405,-0.8619314432144165,-1.1189262866973877
1695713076629450500,7.593450439453125,0.5279712677001953,-1.6318507194519043,-1.7387765645980835
1695713076639482000,7.603482177734375,0.25326642394065857,-1.4976274967193604,-1.9740667343139648
1695713076649516500,7.6135166015625,-0.08335687965154648,-1.1036131381988525,-1.6386418342590332
1695713076659551000,7.623551025390625,-0.42623862624168396,-0.5498092174530029,-1.1902989149093628
1695713076669585000,7.6335849609375,-0.6137250065803528,0.0540621280670166,-0.8813725113868713
1695713076679615000,7.643614990234375,-0.40386807918548584,0.32770171761512756,-0.6332992315292358
1695713076689645000,7.65364501953125,0.0050600022077560425,0.32770171761512756,-0.532099187374115
1695713076699675100,7.663675048828125,0.1339569091796875,0.19134798645973206,-0.5576655268669128
1695713076709705200,7.673705322265625,-0.15686006844043732,0.15832480788230896,-0.14966954290866852
1695713076719735300,7.6837353515625,-0.5498092174530029,0.47364285588264465,1.0131988525390625
1695713076729765400,7.693765380859375,-0.6520745158195496,0.21904483437538147,2.2347898483276367
1695713076739795500,7.70379541015625,-0.5519397258758545,-0.2644517123699188,2.8961856365203857
1695713076749825500,7.713825439453125,-0.5498092174530029,-0.12596742808818817,2.710829734802246
1695713076759855600,7.723855712890625,-0.5093291997909546,0.7558045387268066,1.838645100593567
1695713076769889300,7.73388916015625,-0.23462431132793427,1.1968237161636353,1.1143989562988281
1695713076779894500,7.74389453125,0.06578002870082855,0.5748428702354431,1.211337924003601
1695713076789928400,7.753928466796875,0.2829606533050537,0.16258586943149567,2.070739269256592
1695713076799951000,7.763951171875,0.411857545375824,0.6025397181510925,3.092194080352783
1695713076810009900,7.774009765625,0.43635863065719604,1.5290528535842896,3.8631784915924072
1695713076820043800,7.784043701171875,0.38948702812194824,2.3277342319488525,4.321108818054199
1695713076829932800,7.793932861328125,0.30959224700927734,2.6845974922180176,4.53629207611084
1695713076839954200,7.8039541015625,0.20319904386997223,2.6856627464294434,4.550140380859375
1695713076850004700,7.814004638671875,0.025300011038780212,2.3032331466674805,4.391416072845459
1695713076860029000,7.82402880859375,-0.16005586087703705,1.6419707536697388,4.103928089141846
1695713076870041300,7.834041259765625,-0.30479857325553894,0.9890972971916199,3.715106964111328
1695713076880064300,7.844064208984375,-0.38469332456588745,0.4725775718688965,3.243328332901001
1695713076890133800,7.8541337890625,-0.38469332456588745,0.203065887093544,2.667153835296631
1695713076900161500,7.86416162109375,-0.2792322337627411,0.18282587826251984,2.1282637119293213
1695713076910197000,7.874197021484375,-0.16857796907424927,0.3074617087841034,1.7470324039459229
1695713076920225500,7.8842255859375,-0.13981585204601288,0.46831652522087097,1.4924343824386597
1695713076930253000,7.894253173828125,-0.11211899667978287,0.47470811009407043,1.3615400791168213
1695713076940281300,7.90428125,-0.05566002428531647,0.15086796879768372,1.350887417793274
1695713076950295300,7.91429541015625,0.029561065137386322,-0.32091066241264343,1.4616749286651611
1695713076960322300,7.924322265625,0.08175898343324661,-0.4251733422279358,1.6905734539031982
1695713076970385700,7.9343857421875,0.06578002870082855,0.048735812306404114,1.9313229322433472
1695713076980566800,7.94456689453125,-0.0023968431632965803,0.8825709223747253,2.0483689308166504
1695713076990589400,7.95458935546875,-0.05779055133461952,1.682450771331787,2.013348340988159
1695713077000620000,7.9646201171875,-0.05566002428531647,2.165947198867798,1.8833861351013184
1695713077010649300,7.9746494140625,0.023169483989477158,2.20536208152771,1.768337607383728
1695713077020695300,7.9846953125,0.17443692684173584,1.8090839385986328,1.7129439115524292
1695713077030726000,7.994725830078125,0.3532680571079254,1.1414300203323364,1.6809860467910767
1695713077040745200,8.0047451171875,0.5215796828269958,0.38096490502357483,1.6287881135940552
1695713077050776600,8.014776611328125,0.6430197358131409,-0.23355905711650848,1.5616765022277832
1695713077060807200,8.02480712890625,0.7154576778411865,-0.521047055721283,1.4616749286651611
1695713077070836000,8.0348359375,0.7197187542915344,-0.5253081321716309,1.3146685361862183
1695713077080897500,8.0448974609375,0.6643250584602356,-0.38056543469429016,1.1644662618637085
1695713077090928400,8.054928466796875,0.4992091655731201,-0.16538217663764954,0.9940241575241089
1695713077100959200,8.064959228515624,0.25007063150405884,0.12756532430648804,0.810931921005249
1695713077110990300,8.074990234375,-0.0034621069207787514,0.5439502596855164,0.6628602743148804
1695713077121021400,8.085021484375,-0.20692746341228485,0.9699225425720215,0.5904223918914795
1695713077131052500,8.095052490234375,-0.2984069883823395,1.1946932077407837,0.5371592044830322
1695713077141083400,8.10508349609375,-0.31971225142478943,1.1084067821502686,0.4583296775817871
1695713077151114500,8.115114501953125,-0.3495396375656128,0.7089329361915588,0.3285006880760193
1695713077161145300,8.125145263671875,-0.40280282497406006,0.3351585865020752,0.08242477476596832
1695713077171167700,8.135167724609374,-0.4752407371997833,0.3639206886291504,-0.3286338448524475
1695713077181198600,8.145198486328125,-0.5785713195800781,0.4949481189250946,-0.7641934752464294
1695713077191081000,8.1550810546875,-0.6669881939888,0.4438154697418213,-1.1945600509643555
1695713077201100000,8.16510009765625,-0.7532745599746704,0.5535376071929932,-1.765275001525879
1695713077211306500,8.175306396484375,-0.8586025238037109,0.9368993639945984,-2.4021694660186768
1695713077221352200,8.185352294921875,-1.0183920860290527,1.360741138458252,-2.857969284057617
1695713077231371300,8.195371337890625,-1.1739205121994019,1.5524885654449463,-3.0262808799743652
1695713077241424600,8.205424560546875,-1.2197269201278687,1.5780549049377441,-2.98260498046875
1695713077251421200,8.215421142578125,-1.1568763256072998,1.4534190893173218,-2.7622287273406982
1695713077261440300,8.225440185546875,-1.0077394247055054,1.2520842552185059,-2.515087366104126
1695713077271525400,8.235525390625,-0.7809714078903198,1.205345869064331,-2.3936474323272705
1695713077281560300,8.245560302734376,-0.5679186582565308,1.3202611207962036,-2.4341273307800293
1695713077291579400,8.255579345703126,-0.545548141002655,1.3522189855575562,-2.5278706550598145
1695713077301612300,8.2656123046875,-0.5434176325798035,1.3085432052612305,-2.5672852993011475
1695713077311631400,8.27563134765625,-0.5295692086219788,1.2307789325714111,-2.5065653324127197
1695713077321652200,8.28565234375,-0.4901544451713562,0.7398256063461304,-2.35636305809021
1695713077331684900,8.295684814453125,-0.4251733422279358,-0.25379905104637146,-2.2787320613861084
1695713077341717500,8.305717529296874,-0.3964112401008606,-0.9375651478767395,-2.549175977706909
1695713077351750400,8.31575048828125,-0.3878891170024872,-1.1036131381988525,-2.9549081325531006
1695713077361771000,8.32577099609375,-0.4209122955799103,-1.0301098823547363,-3.2627694606781006
1695713077371799600,8.335799560546874,-0.5338302254676819,-0.9864341020584106,-3.4032509326934814
1695713077381680000,8.34568017578125,-0.7181208729743958,-1.1973563432693481,-3.4266867637634277
1695713077391880000,8.3558798828125,-0.8767119646072388,-1.5817832946777344,-3.4032509326934814
1695713077401942500,8.365942626953125,-0.9289098978042603,-1.9130803346633911,-3.376619338989258
1695713077411950600,8.37595068359375,-0.8884298801422119,-2.081258773803711,-3.376619338989258
1695713077421964300,8.38596435546875,-0.8022766709327698,-2.1920461654663086,-3.359708309173584
1695713077432009500,8.396009521484375,-0.6808366179466248,-2.3795325756073,-3.3064451217651367
1695713077442061600,8.4060615234375,-0.5434176325798035,-2.643584966659546,-3.24039888381958
1695713077452069400,8.4160693359375,-0.43156492710113525,-2.7884607315063477,-3.1381335258483887
1695713077462126300,8.426126220703125,-0.35167014598846436,-2.810831308364868,-2.973017692565918
1695713077472156000,8.436156005859376,-0.3016027808189392,-2.722414493560791,-2.7110960483551025
1695713077482212600,8.446212646484375,-0.27710169553756714,-2.6009743213653564,-2.3244051933288574
1695713077492220700,8.456220703125,-0.24421168863773346,-2.4402527809143066,-1.8302561044692993
1695713077502228500,8.466228515625,-0.2090579867362976,-2.25915789604187,-1.2572773694992065
1695713077512240600,8.47624072265625,-0.19201377034187317,-2.0972378253936768,-0.6290381550788879
1695713077522282200,8.4862822265625,-0.2143843024969101,-1.896036148071289,0.0153131652623415
1695713077532324000,8.496323974609375,-0.20586219429969788,-1.7309203147888184,0.6181192398071289
1695713077542365700,8.50636572265625,-0.16857796907424927,-1.6414381265640259,1.17405366897583
1695713077552407600,8.516407470703125,-0.09827057272195816,-1.5253243446350098,1.6799207925796509
1695713077562419500,8.52641943359375,-0.0034621069207787514,-1.3422322273254395,2.1080236434936523
1695713077572414700,8.536414794921875,0.15206637978553772,-1.009869933128357,2.388187885284424
1695713077582427000,8.546427001953125,0.39374807476997375,-0.6691187024116516,2.3956446647644043
1695713077592519400,8.55651953125,0.6813692450523376,-0.33902016282081604,1.9068219661712646
1695713077602587400,8.56658740234375,0.8442214131355286,0.1892174482345581,0.4551338851451874
1695713077612597200,8.57659716796875,0.7559376955032349,0.030626330524683,-1.1381011009216309
1695713077622609200,8.586609130859374,0.5173186659812927,-1.0972214937210083,-1.836647629737854
1695713077632650500,8.596650390625,0.2660495936870575,-1.7980319261550903,-2.1200077533721924
1695713077642711300,8.606711181640625,0.18189376592636108,-1.7319855690002441,-2.0955066680908203
1695713080140593700,11.10459375,0.4906870722770691,-0.01837579719722271,1.0611357688903809
1695713080150625000,11.114625,0.26285380125045776,0.28083011507987976,0.7576687932014465
1695713080160656400,11.124656494140625,0.05725792050361633,0.6217144727706909,0.4881570637226105
1695713080170687500,11.1346875,-0.09827057272195816,0.93902987241745,0.33489224314689636
1695713080180718800,11.14471875,-0.21331904828548431,1.126516342163086,0.2709764242172241
1695713080190750200,11.154750244140626,-0.28668907284736633,1.0668615102767944,0.2667153775691986
1695713080200781600,11.164781494140625,-0.4113249182701111,0.6940192580223083,0.20706062018871307
1695713080210817000,11.174817138671875,-0.5380913019180298,0.2637858986854553,0.06218476593494415
1695713080220869400,11.184869384765625,-0.6595313549041748,0.08495477586984634,-0.2636527419090271
1695713080230921700,11.194921630859374,-0.7777756452560425,0.15299849212169647,-0.6705834865570068
1695713080240974000,11.20497412109375,-0.7671229839324951,0.31385329365730286,-1.0784462690353394
1695713080251026400,11.2150263671875,-0.7969503402709961,0.6737792491912842,-1.711079716682434
1695713080261078800,11.225078857421876,-0.8937562108039856,1.3575453758239746,-2.4682159423828125
1695713080271131100,11.235131103515625,-1.0535457134246826,2.060486316680908,-2.894188165664673
1695713080281183500,11.24518359375,-1.1334404945373535,2.399106979370117,-2.9101672172546387
1695713080291235800,11.25523583984375,-1.131309986114502,2.3032331466674805,-2.7622287273406982
1695713080301267700,11.265267822265624,-1.0918952226638794,1.91241455078125,-2.5225443840026855
1695713080311284500,11.275284423828126,-0.9832383394241333,1.519465446472168,-2.3489062786102295
1695713080321301000,11.285301025390625,-0.8064045906066895,1.3405011892318726,-2.3148179054260254
1695713080331317800,11.29531787109375,-0.6893587112426758,1.3639369010925293,-2.400038957595825
1695713080341334500,11.30533447265625,-0.6009418368339539,1.409743309020996,-2.5033695697784424
1695713080351351300,11.315351318359374,-0.5434176325798035,1.2904337644577026,-2.535327434539795
1695713080361368000,11.3253681640625,-0.5306344628334045,0.8687224984169006,-2.4618241786956787
1695713080371384800,11.335384765625,-0.5274386405944824,0.16897743940353394,-2.381929397583008
1695713080381401600,11.345401611328125,-0.49228495359420776,-0.6137250065803528,-2.451171636581421
1695713080391418400,11.35541845703125,-0.491219699382782,-1.155811071395874,-2.7558369636535645
1695713080401435100,11.36543505859375,-0.5167860388755798,-1.0961562395095825,-3.0752830505371094
1695713080411466800,11.375466796875,-0.6083986759185791,-0.8044071793556213,-3.2936620712280273
1695713080421498600,11.38549853515625,-0.792689323425293,-0.7415566444396973,-3.3830111026763916
1695713080431530200,11.3955302734375,-1.0013477802276611,-0.9896299242973328,-3.3883373737335205
1695713080441561900,11.405561767578124,-1.1877689361572266,-1.4647375345230103,-3.3744888305664062
1695713080451593700,11.41559375,-1.2868385314941406,-1.854490876197815,-3.335207223892212
1695713080461625300,11.425625244140624,-1.269794225692749,-2.220808267593384,-3.3330767154693604
1695713080471657000,11.435656982421875,-1.1398321390151978,-2.413621187210083,-3.349055767059326
1695713080481688800,11.445688720703124,-0.9757815003395081,-2.4839284420013428,-3.3117713928222656
1695713080491720400,11.455720458984375,-0.8138614296913147,-2.5903217792510986,-3.2148325443267822
1695713080501752000,11.465751953125,-0.6829671263694763,-2.6510417461395264,-3.057173490524292
1695713080511783700,11.47578369140625,-0.5423523783683777,-2.687260627746582,-2.8154919147491455
1695713080521815600,11.485815673828125,-0.3814975321292877,-2.6957828998565674,-2.4991085529327393
1695713080531847400,11.495847412109375,-0.24634221196174622,-2.5903217792510986,-2.1232035160064697
1695713080541879600,11.505879638671875,-0.1579253375530243,-2.4359915256500244,-1.6908397674560547
1695713080551911400,11.515911376953126,-0.12277163565158844,-2.274071455001831,-1.1860378980636597
1695713080561943300,11.525943359375,-0.12064110487699509,-2.1025640964508057,-0.5917539596557617
1695713080571975400,11.535975341796876,-0.12383689731359482,-1.9375814199447632,0.05898897349834442
1695713080582007300,11.54600732421875,-0.09507478028535843,-1.7309203147888184,0.6990792751312256
1695713080592039200,11.5560390625,-0.052464235574007034,-1.5306507349014282,1.3008201122283936
1695713080602071000,11.566071044921875,0.013582111336290836,-1.3475584983825684,1.8450366258621216
1695713080612103000,11.57610302734375,0.12863057851791382,-1.155811071395874,2.2891182899475098
1695713080622135000,11.586135009765625,0.29467856884002686,-0.9428914785385132,2.592585325241089
1695713080632167000,11.5961669921875,0.5056007504463196,-0.604137659072876,2.736396074295044
1695713080642199800,11.60619970703125,0.7101313471794128,-0.0727042406797409,2.422276258468628
1695713080652233000,11.61623291015625,0.9038761854171753,0.6643250584602356,1.0760494470596313
1695713080662265900,11.626265869140624,1.0530130863189697,0.6313018798828125,-0.6588655710220337
1695713080672298800,11.636298828125,0.9997498989105225,-0.8448871970176697,-1.7961676120758057
1695713080682331600,11.64633154296875,0.6483460664749146,-1.774596095085144,-2.540653705596924
1695713080692364500,11.656364501953124,0.1531316488981247,-1.7277244329452515,-2.792056083679199
1695713080702397400,11.6663974609375,-0.2420811653137207,-1.4912359714508057,-2.4192137718200684
1695713080712430300,11.676430419921875,-0.5700492262840271,-1.2389016151428223,-1.8728666305541992
1695713080722463500,11.68646337890625,-0.6936197876930237,-1.1217225790023804,-1.3978922367095947
1695713080732496400,11.696496337890625,-0.6030724048614502,-0.7309040427207947,-1.0294440984725952
1695713080742533400,11.706533447265626,-0.34314805269241333,-0.11744531989097595,-0.475640207529068
1695713080752604200,11.716604248046876,-0.15366427600383759,0.20519641041755676,0.33063119649887085
1695713080762674700,11.7266748046875,-0.20160114765167236,0.2041311413049698,1.3423653841018677
1695713080772745200,11.7367451171875,-0.2962764501571655,0.05299686640501022,2.4702131748199463
1695713080782815700,11.746815673828126,-0.3292996287345886,-0.07803056389093399,3.3104398250579834
1695713080792848100,11.75684814453125,-0.3623228073120117,0.27230802178382874,3.544797897338867
1695713080802862000,11.766862060546876,-0.4858933687210083,1.8058881759643555,2.406297445297241
1695713080812875800,11.776875732421875,-0.24953800439834595,2.712294340133667,0.7960182428359985
1695713080822889700,11.7868896484375,0.09454214572906494,1.512008547782898,0.4030691385269165
1695713080832903700,11.796903564453125,0.02210422046482563,-0.32410645484924316,0.7491466403007507
1695713080842917400,11.80691748046875,-0.24634221196174622,-1.1377015113830566,1.3306474685668945
1695713080852931300,11.816931396484375,-0.29201540350914,-0.7351650595664978,2.0228025913238525
1695713080862945000,11.826945068359375,-0.15899059176445007,0.24354590475559235,2.705503225326538
1695713080872959000,11.836958984375,0.008255792781710625,1.2776505947113037,3.323223114013672
1695713080882972700,11.84697265625,0.1201084777712822,2.060486316680908,3.8770270347595215
1695713080893009000,11.8570087890625,0.17763271927833557,2.410824775695801,4.306195259094238
1695713080903064600,11.867064697265626,0.10199899226427078,2.3820626735687256,4.505399227142334
1695713080913120500,11.87712060546875,-0.11744531989097595,2.2021663188934326,4.271041393280029
1695713080923176200,11.88717626953125,-0.29521119594573975,1.8793914318084717,3.721498489379883
1695713080933231900,11.89723193359375,-0.3974764943122864,1.355414867401123,3.0101687908172607
1695713080943287800,11.907287841796874,-0.4443480968475342,0.7323687672615051,2.2656826972961426
1695713080953343500,11.917343505859375,-0.3623228073120117,0.25313326716423035,1.7246618270874023
1695713080963379500,11.92737939453125,-0.24634221196174622,0.04980107396841049,1.4648706912994385
1695713080973422000,11.937422119140624,-0.21544957160949707,-0.032224226742982864,1.338104248046875
1695713080983464400,11.94746435546875,-0.21651484072208405,-0.08442214131355286,1.2816452980041504
1695713080993348600,11.9573486328125,-0.19307903945446014,-0.22503694891929626,1.2976242303848267
1695713081003530000,11.967530029296874,-0.12170637398958206,-0.47311022877693176,1.3945633172988892
1695713081013574400,11.977574462890624,-0.040746334940195084,-0.5657881498336792,1.5765901803970337
1695713081023597800,11.987597900390625,-0.015180006623268127,-0.29640960693359375,1.8066871166229248
1695713081033642800,11.997642822265625,-0.03755054250359535,0.29041749238967896,2.0291941165924072
1695713081043666200,12.007666259765625,-0.08868319541215897,1.0615352392196655,2.1527645587921143
1695713081053689900,12.01768994140625,-0.1579253375530243,1.8271934986114502,2.1463730335235596
1695713081063764700,12.0277646484375,-0.19201377034187317,2.340517282485962,2.054760456085205
1695713081073788200,12.0377880859375,-0.17283903062343597,2.5013720989227295,1.9504977464675903
1695713081083788500,12.04778857421875,-0.08335687965154648,2.225602149963379,1.8514281511306763
1695713081093823000,12.057822998046875,0.1243695318698883,1.4640717506408691,1.7449018955230713
1695713081103846100,12.06784619140625,0.3873564898967743,0.447011262178421,1.641571283340454
1695713081113879000,12.077879150390626,0.6195839643478394,-0.3741738498210907,1.5584807395935059
1695713081123902500,12.08790234375,0.7719166874885559,-0.7266429662704468,1.4924343824386597
1695713081133925600,12.097925537109376,0.8271772265434265,-0.6520745158195496,1.4009548425674438
1695713081143958800,12.107958740234375,0.8006787896156311,-0.3965443968772888,1.2464916706085205
1695713081153992200,12.1179921875,0.6803039908409119,-0.11318425834178925,1.0675272941589355
1695713081163863600,12.127863525390625,0.4800344407558441,0.18602167069911957,0.9206541180610657
1695713081173873400,12.137873291015625,0.25326642394065857,0.511992335319519,0.7885614037513733
1695713081183939300,12.147939208984376,0.05299686640501022,0.7707182168960571,0.6383592486381531
1695713081193955000,12.157955078125,-0.06737792491912842,0.9060067534446716,0.4828307330608368
1695713081204023000,12.16802294921875,-0.13235901296138763,0.9294425249099731,0.3572627902030945
1695713081214044000,12.1780439453125,-0.16857796907424927,0.7707182168960571,0.29760801792144775
1695713081224057000,12.18805712890625,-0.24953800439834595,0.3777691125869751,0.25925853848457336
1695713081234077200,12.1980771484375,-0.31438592076301575,-0.056725289672613144,0.22090904414653778
1695713081244121900,12.208121826171874,-0.3548659384250641,-0.14194637537002563,-0.06671213358640671
1695713081254144500,12.21814453125,-0.45500072836875916,0.24248063564300537,-0.586427628993988
1695713081264220400,12.228220458984374,-0.5551354885101318,0.5759081840515137,-1.0060083866119385
1695713081274248400,12.23824853515625,-0.6616618633270264,0.6419544816017151,-1.4106754064559937
1695713081284424000,12.248423828125,-0.7298387289047241,0.9944236278533936,-2.003894090652466
1695713081294464800,12.25846484375,-0.8022766709327698,1.5748591423034668,-2.530001163482666
1695713081304505900,12.268505859375,-0.8617982864379883,1.858086109161377,-2.792056083679199
1695713081314380800,12.278380859375,-0.9534109830856323,1.7973660230636597,-2.859034538269043
1695713081324408800,12.288408935546874,-1.0418277978897095,1.5045517683029175,-2.7494454383850098
1695713081334442200,12.298442138671875,-1.0780467987060547,1.1957584619522095,-2.5683505535125732
1695713081344470800,12.308470703125,-0.988564670085907,1.0775141716003418,-2.509761095046997
1695713081354474500,12.318474609375,-0.808535099029541,1.2329095602035522,-2.594982147216797
1695713081364500500,12.32850048828125,-0.6755102872848511,1.4257222414016724,-2.747314929962158
1695713081374574600,12.33857470703125,-0.5870934128761292,1.5130738019943237,-2.8260111808776855
1695713081384605400,12.34860546875,-0.5189165472984314,1.4044169187545776,-2.729205369949341
1695713081394629600,12.358629638671875,-0.45500072836875916,0.955008864402771,-2.485260009765625
1695713081404659700,12.36865966796875,-0.42197754979133606,0.21052272617816925,-2.33612322807312
1695713081414689300,12.378689208984374,-0.40812912583351135,-0.508263885974884,-2.4021694660186768
1695713081424719400,12.38871923828125,-0.3996070325374603,-1.0109351873397827,-2.6365275382995605
1695713081434748400,12.39874853515625,-0.4443480968475342,-1.051415205001831,-2.894188165664673
1695713081444778500,12.408778564453126,-0.5498092174530029,-0.8619314432144165,-3.0710220336914062
1695713081454808000,12.41880810546875,-0.7447524666786194,-0.6925545334815979,-3.1189587116241455
1695713081464838100,12.428838134765625,-0.9491499066352844,-0.7767103314399719,-3.102979898452759
1695713081474875100,12.438875244140625,-1.1206573247909546,-1.2442278861999512,-3.0880661010742188
1695713081484905700,12.44890576171875,-1.1941605806350708,-1.7607476711273193,-3.1146976947784424
1695713081494939400,12.458939453125,-1.172855257987976,-2.1579577922821045,-3.1977882385253906
1695713081504970200,12.46897021484375,-1.0610026121139526,-2.438122272491455,-3.294727325439453
1695713081515034400,12.479034423828125,-0.884168803691864,-2.5658206939697266,-3.305379867553711
1695713081525068800,12.48906884765625,-0.725577712059021,-2.612692356109619,-3.215897798538208
1695713081535090400,12.49909033203125,-0.6233124136924744,-2.658498525619507,-3.061434507369995
1695713081545123600,12.50912353515625,-0.5508744716644287,-2.7106964588165283,-2.849447011947632
1695713081555134700,12.519134765625,-0.46884915232658386,-2.733067035675049,-2.57900333404541
1695713081565165600,12.52916552734375,-0.3814975321292877,-2.7586333751678467,-2.256361484527588
1695713081575224600,12.539224609375,-0.2888196110725403,-2.747980833053589,-1.8792582750320435
1695713081585258200,12.54925830078125,-0.23036326467990875,-2.588191270828247,-1.4000227451324463
1695713081595258600,12.559258544921875,-0.22503694891929626,-2.3923158645629883,-0.8004124760627747
1695713081605289000,12.5692890625,-0.26338642835617065,-2.2165472507476807,-0.06990792602300644
1695713081615323400,12.579323486328125,-0.3058638274669647,-2.071671485900879,0.7416898012161255
1695713081625354000,12.58935400390625,-0.2728406488895416,-1.8555561304092407,1.5318491458892822
1695713081635422200,12.599422119140625,-0.13981585204601288,-1.5583475828170776,2.217745780944824
1695713081645456600,12.60945654296875,0.07962846010923386,-1.1334404945373535,2.7385265827178955
1695713081655474400,12.619474365234375,0.2829606533050537,-0.6563355326652527,3.0804760456085205
1695713081665507000,12.629507080078126,0.42677125334739685,-0.05992107838392258,3.134671449661255
1695713081675519200,12.639519287109374,0.5769734382629395,0.6801708340644836,2.3157498836517334
1695713081685549800,12.6495498046875,0.7921566963195801,1.1787142753601074,0.49348339438438416
1695713081695615700,12.65961572265625,0.8612656593322754,-0.12277163565158844,-0.9676588773727417
1695713081705650000,12.66964990234375,0.730371356010437,-1.6680697202682495,-1.8973677158355713
1695713081715673900,12.679673828125,0.4438154697418213,-2.0940420627593994,-2.5726118087768555
1695713081725707000,12.68970703125,0.1339569091796875,-2.1931114196777344,-2.455432653427124
1695713081735709200,12.699709228515625,-0.16005586087703705,-1.744768738746643,-1.7631444931030273
1695713081745739300,12.7097392578125,-0.42623862624168396,-0.8150598406791687,-1.0795115232467651
1695713081755805400,12.719805419921874,-0.4954807460308075,-0.04607265070080757,-0.5949497222900391
1695713081765839000,12.729839111328126,-0.21971063315868378,0.3681817352771759,-0.18908429145812988
1695713081775869700,12.73986962890625,-0.03435475379228592,0.49281758069992065,0.16125428676605225
1695713081785903000,12.749903076171876,-0.20160114765167236,0.5737776160240173,0.6990792751312256
1695713081795920000,12.759919921875,-0.49228495359420776,0.7099981904029846,1.4339779615402222
1695713081805951500,12.769951416015624,-0.6723145246505737,0.45446810126304626,2.138916254043579
1695713081815995000,12.779994873046874,-0.6744450330734253,0.05938844755291939,2.3168153762817383
1695713081826027500,12.790027587890625,-0.6382260918617249,0.4629902243614197,1.7875124216079712
1695713081836061400,12.8000615234375,-0.5178512930870056,0.9400951862335205,1.0973546504974365
1695713081846094600,12.810094482421874,-0.3964112401008606,0.6844319105148315,0.7949529886245728
1695713081856126000,12.8201259765625,-0.3271690905094147,-0.1344895362854004,0.906805694103241
1695713081866158800,12.830158935546875,-0.23462431132793427,-0.7543398141860962,1.425455927848816
1695713081876189400,12.840189453125,-0.05352949723601341,-0.5285038948059082,2.2166805267333984
1695713081886221800,12.850221923828125,0.18508955836296082,0.48855653405189514,2.9569056034088135
1695713081896252200,12.860252197265625,0.4374238848686218,1.7760608196258545,3.500056743621826
1695713081906284500,12.870284423828124,0.5162534117698669,2.6302690505981445,3.9473345279693604
1695713081916294100,12.880294189453124,0.4299670457839966,2.9379971027374268,4.255062580108643
1695713081926324200,12.89032421875,0.204264298081398,2.852776050567627,4.206060409545898
1695713081936383000,12.900383056640624,-0.03328948840498924,2.419346809387207,3.8557217121124268
1695713081946415900,12.910415771484375,-0.24421168863773346,1.7431707382202148,3.4137704372406006
1695713081956449500,12.920449462890625,-0.3506048917770386,0.9805752038955688,3.017625570297241
1695713081966482400,12.930482421875,-0.3868238627910614,0.40440070629119873,2.582998037338257
1695713081976514600,12.9405146484375,-0.37084490060806274,0.14341111481189728,2.149568796157837
1695713081986547500,12.95054736328125,-0.2824280261993408,0.1243695318698883,1.8173397779464722
1695713081996578300,12.960578369140626,-0.19734008610248566,0.29574382305145264,1.6394407749176025
1695713082006611200,12.970611083984375,-0.17923060059547424,0.4491417706012726,1.5542196035385132
1695713082016639700,12.9806396484375,-0.16964323818683624,0.46512073278427124,1.512674331665039
1695713082026672000,12.990672119140624,-0.11638005077838898,0.2659164369106293,1.4924343824386597
1695713082036680400,13.000680419921874,-0.040746334940195084,-0.03009369783103466,1.5307838916778564
1695713082046710300,13.010710205078125,0.010386320762336254,-0.17070849239826202,1.6351796388626099
1695713082056769000,13.02076904296875,0.01784316636621952,0.035952646285295486,1.7694028615951538
1695713082066801700,13.0308017578125,-0.0034621069207787514,0.6078660488128662,1.867407202720642
1695713082076807400,13.040807373046874,-0.03328948840498924,1.297890543937683,1.872733473777771
1695713082086837500,13.05083740234375,-0.04394212365150452,1.798431396484375,1.8205355405807495
1695713082096909600,13.06090966796875,0.024234747514128685,1.9188060760498047,1.751293420791626
1695713082106943700,13.07094384765625,0.1627190262079239,1.6100128889083862,1.6905734539031982
1695713082116969700,13.0809697265625,0.3351585865020752,0.9688572883605957,1.629853367805481
1695713082127003400,13.09100341796875,0.4938828647136688,0.18282587826251984,1.5712639093399048
1695713082137031400,13.101031494140624,0.6057355403900146,-0.46458810567855835,1.5297186374664307
1695713082147064300,13.111064208984375,0.6526071429252625,-0.7436871528625488,1.4776538610458374
1695713082157066800,13.121066650390626,0.6568682193756104,-0.6094639897346497,1.3562138080596924
1695713082167096600,13.1310966796875,0.5972134470939636,-0.09933583438396454,1.1580747365951538
1695713082177130800,13.141130859375,0.4374238848686218,0.5258407592773438,0.9780451655387878
1695713082187160800,13.151160888671875,0.21172115206718445,0.9890972971916199,0.8588688373565674
1695713082197221600,13.1612216796875,0.03275685757398605,1.2542147636413574,0.7555382251739502
1695713082207254800,13.1712548828125,-0.08016108721494675,1.3703285455703735,0.6671213507652283
1695713082217268700,13.181268798828125,-0.12703268229961395,1.310673713684082,0.5946834087371826
1695713082227300000,13.191300048828126,-0.14194637537002563,1.0402299165725708,0.5233107805252075
1695713082237354500,13.2013544921875,-0.1760348230600357,0.57058185338974,0.4455465078353882
1695713082247388200,13.21138818359375,-0.2792322337627411,0.13076111674308777,0.3082606792449951
1695713082257398500,13.2213984375,-0.3623228073120117,0.17217323184013367,0.03129211813211441
1695713082267430000,13.231429931640625,-0.4528702199459076,0.49281758069992065,-0.34993910789489746
1695713082277454800,13.241454833984376,-0.5285038948059082,0.6579334735870361,-0.7311703562736511
1695713082287485400,13.2514853515625,-0.6456829309463501,0.8186551332473755,-1.225319504737854
1695713082297521400,13.261521484375,-0.7756450772285461,1.1147984266281128,-1.7748624086380005
1695713082307552500,13.271552490234376,-0.905474066734314,1.385242223739624,-2.2137510776519775
1695713082317612800,13.28161279296875,-1.0322405099868774,1.439570665359497,-2.5129568576812744
1695713082327647000,13.29164697265625,-1.0876342058181763,1.3884379863739014,-2.812295913696289
1695713082337645600,13.3016455078125,-1.0556762218475342,1.5141390562057495,-2.943190336227417
1695713082347676200,13.31167626953125,-0.9928256869316101,1.6558191776275635,-2.7366623878479004
1695713082357738000,13.321738037109375,-0.9353014826774597,1.7186697721481323,-2.4277358055114746
1695713082367771600,13.331771728515625,-0.9203878045082092,1.7261265516281128,-2.236121654510498
1695713082377800400,13.341800537109375,-0.8511456251144409,1.7026907205581665,-2.175401449203491
1695713082387833600,13.35183349609375,-0.6861629486083984,1.5450317859649658,-2.236121654510498
1695713082397842700,13.3618427734375,-0.515720784664154,1.25101900100708,-2.375537872314453
1695713082407873500,13.37187353515625,-0.40280282497406006,0.7675224542617798,-2.465020179748535
1695713082417938000,13.38193798828125,-0.3506048917770386,0.007190529722720385,-2.4437148571014404
1695713082427972000,13.39197216796875,-0.36019226908683777,-0.8672577738761902,-2.4820642471313477
1695713082437995000,13.4019951171875,-0.4113249182701111,-1.3709943294525146,-2.759032726287842
1695713082448028000,13.41202783203125,-0.4581965208053589,-1.2623374462127686,-3.0880661010742188
1695713082458010400,13.42201025390625,-0.5434176325798035,-1.0077394247055054,-3.3479905128479004
1695713082468038100,13.4320380859375,-0.679771363735199,-0.9736509919166565,-3.454383611679077
1695713082478123800,13.442123779296875,-0.8394277691841125,-1.2144005298614502,-3.421360492706299
1695713082488157700,13.45215771484375,-0.9491499066352844,-1.4732595682144165,-3.3384029865264893
1695713082498189000,13.46218896484375,-0.9629983305931091,-1.6361117362976074,-3.2734220027923584
1695713082508222500,13.472222412109375,-0.9384972453117371,-1.8619476556777954,-3.244659900665283
1695713082518231300,13.482231201171874,-0.8447540402412415,-2.0333218574523926,-3.2393336296081543
1695713082528262400,13.492262451171875,-0.7064029574394226,-2.1931114196777344,-3.211636781692505
1695713082538298600,13.502298583984375,-0.5785713195800781,-2.319877862930298,-3.1242849826812744
1695713082548330200,13.512330322265624,-0.48376286029815674,-2.382728338241577,-2.958103895187378
1695713082558362600,13.522362548828125,-0.4145207107067108,-2.374206304550171,-2.7164223194122314
1695713082568394000,13.53239404296875,-0.33782172203063965,-2.2634189128875732,-2.3776683807373047
1695713082578433500,13.54243359375,-0.2569948434829712,-2.091911554336548,-1.9719361066818237
1695713082588465700,13.552465576171874,-0.20373167097568512,-1.8917750120162964,-1.5321154594421387
1695713082598492700,13.56249267578125,-0.1856221854686737,-1.7117455005645752,-1.0411620140075684
1695713082608524500,13.572524658203125,-0.18881797790527344,-1.578587532043457,-0.4937497079372406
1695713082618567200,13.582567138671875,-0.2047969400882721,-1.445562720298767,0.0930774137377739
1695713082628600000,13.59260009765625,-0.19627483189105988,-1.290034294128418,0.6937529444694519
1695713082638625500,13.60262548828125,-0.15686006844043732,-1.131309986114502,1.2624706029891968
1695713082648657700,13.61265771484375,-0.09081372618675232,-1.0162614583969116,1.7725987434387207
1695713082658683400,13.622683349609375,0.003994738683104515,-0.9843035936355591,2.2102890014648438
1695713082668714800,13.63271484375,0.1339569091796875,-0.9343693852424622,2.5533037185668945
1695713082678770400,13.6427705078125,0.2936132848262787,-0.7277082204818726,2.7577011585235596
1695713082688804400,13.652804443359376,0.48429548740386963,-0.4113249182701111,2.775810718536377
1695713082698809600,13.6628095703125,0.6494113206863403,0.056192658841609955,2.3242721557617188
1695713082708840400,13.67284033203125,0.7793735265731812,0.6025397181510925,1.0249167680740356
1695713082718905000,13.682905029296874,0.9028109312057495,0.3543333113193512,-0.6130592226982117
1695713082728939500,13.692939453125,0.9486172795295715,-1.0833730697631836,-1.831321358680725
1695713082738967800,13.7029677734375,0.7175882458686829,-1.9748656749725342,-2.6407885551452637
1695713082749001700,13.713001708984375,0.32450592517852783,-2.161153554916382,-2.787795066833496
1695713082759001600,13.723001708984375,-0.07909582555294037,-2.0333218574523926,-2.3382537364959717
1695713082769032000,13.733031982421876,-0.46458810567855835,-1.5594128370285034,-1.7951023578643799
1695713082779073300,13.7430732421875,-0.6989461183547974,-1.0333057641983032,-1.4128059148788452
1695713082789104600,13.753104736328124,-0.5498092174530029,-0.2857569754123688,-1.0816420316696167
1695713082799139300,13.763139404296876,-0.24314641952514648,0.447011262178421,-0.4479433596134186
1695713082809171200,13.773171142578125,-0.2474074810743332,0.933703601360321,0.32530489563941956
1695713082819222800,13.783222900390625,-0.46352285146713257,0.9081372618675232,1.157009482383728
1695713082829256700,13.793256591796874,-0.6137250065803528,0.43209755420684814,1.9845861196517944
1695713082839257900,13.8032578125,-0.5402218103408813,0.09028109163045883,2.471278429031372
1695713082849288200,13.8132880859375,-0.480567067861557,0.6801708340644836,1.981390357017517
1695713082859327200,13.8233271484375,-0.3175817131996155,1.6430360078811646,0.4956139028072357
1695713082869358600,13.833358642578125,0.03914843872189522,1.089232087135315,-0.14221268892288208
1695713082879418000,13.843418212890626,0.1669800728559494,-0.21331904828548431,0.13888375461101532
1695713082889452300,13.853452392578125,0.00612526573240757,-1.1653984785079956,0.793887734413147
1695713082899483000,13.86348291015625,-0.09400951862335205,-1.0748510360717773,1.6330491304397583
1695713082909516500,13.8735166015625,-0.006657897960394621,-0.15899059176445007,2.4680826663970947
1695713082919549200,13.883549072265625,0.1296958476305008,1.009337306022644,3.104844093322754
1695713082929582800,13.893582763671875,0.21278640627861023,2.1148147583007812,3.6065831184387207
1695713082939615200,13.903615234375,0.21172115206718445,2.7602312564849854,4.006989002227783
1695713082949648600,13.913648681640625,0.20213377475738525,2.877277135848999,4.216712951660156
1695713082959681000,13.923680908203124,0.148870587348938,2.5993764400482178,4.2252349853515625
1695713082969714400,13.93371435546875,0.007190529722720385,2.0530292987823486,3.9569218158721924
1695713082979739100,13.9437392578125,-0.1483379602432251,1.3586106300354004,3.447859048843384
1695713082989771500,13.953771484375,-0.2824280261993408,0.8133288025856018,2.8780760765075684
1695713082999805700,13.9638056640625,-0.34634384512901306,0.3862912356853485,2.4052321910858154
1695713083009838300,13.97383837890625,-0.33675646781921387,0.06258423626422882,2.0366508960723877
1695713083019861800,13.98386181640625,-0.30479857325553894,-0.10466215014457703,1.7523586750030518
1695713083029893400,13.993893310546875,-0.28668907284736633,-0.10892320424318314,1.5371754169464111
1695713083039928800,14.0039287109375,-0.23995064198970795,-0.0141147430986166,1.3764537572860718
1695713083049961000,14.0139609375,-0.14940322935581207,0.09454214572906494,1.27418851852417
1695713083059959600,14.02395947265625,-0.07163897901773453,0.07643266767263412,1.2475569248199463
1695713083069988000,14.033988037109374,0.011451584286987782,-0.05779055133461952,1.3114726543426514
1695713083080057300,14.044057373046876,0.09880319982767105,-0.08655267208814621,1.4584790468215942
1695713083090090200,14.05409033203125,0.12756532430648804,0.18176060914993286,1.6458323001861572
1695713083100134100,14.064134033203125,0.09028109163045883,0.7696529626846313,1.8407756090164185
1695713083110168000,14.07416796875,-0.004527370445430279,1.353284239768982,1.9803251028060913
1695713083120186600,14.0841865234375,-0.08016108721494675,1.6803202629089355,2.024933099746704
1695713083130219000,14.094218994140626,-0.0727042406797409,1.7760608196258545,1.9547587633132935
1695713083140250600,14.104250732421875,-0.007723161485046148,1.712278127670288,1.8290576934814453
1695713083150283000,14.114282958984376,0.12223900109529495,1.465137004852295,1.6905734539031982
1695713083160439600,14.124439453125,0.3021354079246521,1.0338383913040161,1.570198655128479
1695713083170500900,14.1345009765625,0.4757733643054962,0.4491417706012726,1.4648706912994385
1695713083180533200,14.144533203125,0.6068007946014404,-0.11744531989097595,1.3839106559753418
1695713083190551300,14.15455126953125,0.6952176690101624,-0.5359607934951782,1.345561146736145
1695713083200583700,14.164583740234375,0.7495461106300354,-0.734099805355072,1.3540832996368408
1695713083210647600,14.1746474609375,0.7878956198692322,-0.6574008464813232,1.3721927404403687
1695713083220660700,14.18466064453125,0.7559376955032349,-0.37097805738449097,1.304015874862671
1695713083230692900,14.19469287109375,0.6121271252632141,0.06151897460222244,1.0845715999603271
1695713083240740400,14.204740234375,0.3671164810657501,0.54927659034729,0.7779088020324707
1695713083250722300,14.214722412109374,0.07430213689804077,0.8484824895858765,0.5946834087371826
1695713083260754400,14.22475439453125,-0.1813611388206482,0.9219856858253479,0.6745781898498535
1695713083270800000,14.2347998046875,-0.33249542117118835,1.0498173236846924,0.7736477255821228
1695713083280832300,14.244832275390625,-0.4155859649181366,1.2084084749221802,0.6095971465110779
1695713083290864600,14.25486474609375,-0.48376286029815674,1.1052110195159912,0.23795326054096222
1695713083300889600,14.2648896484375,-0.5380913019180298,0.8463519811630249,-0.1645832359790802
1695713083310914600,14.27491455078125,-0.6062681674957275,0.6705834865570068,-0.510793924331665
1695713083320825000,14.2848251953125,-0.7010766267776489,0.6153228878974915,-0.8334356546401978
1695713083330845400,14.294845458984375,-0.7351650595664978,0.5780386924743652,-1.1402316093444824
1695713083340896300,14.304896240234376,-0.7532745599746704,0.7973498106002808,-1.4767217636108398
1695713083350919700,14.314919677734375,-0.8649940490722656,1.1499520540237427,-1.8579529523849487
1695713083360953600,14.32495361328125,-0.9768467545509338,1.4065474271774292,-2.235056161880493
1695713083370978000,14.33497802734375,-1.002413034439087,1.6355791091918945,-2.6109611988067627
1695713083380989200,14.3449892578125,-1.0056089162826538,1.8538250923156738,-2.8324029445648193
1695713083391012400,14.355012451171875,-1.0365015268325806,1.9060230255126953,-2.743053913116455
1695713083401083100,14.365083251953125,-1.0290446281433105,1.7792565822601318,-2.4437148571014404
1695713083411111200,14.375111083984375,-0.9960215091705322,1.5940338373184204,-2.1455740928649902
1695713083421118500,14.385118408203125,-0.9608678221702576,1.4747244119644165,-1.9570224285125732
1695713083431144200,14.395144287109375,-0.8809730410575867,1.4427664279937744,-1.8920413255691528
1695713083441211600,14.405211669921876,-0.8064045906066895,1.3415664434432983,-1.9208035469055176
1695713083451241700,14.41524169921875,-0.763927161693573,1.1659311056137085,-2.0358519554138184
1695713083461270300,14.425270263671875,-0.7394261360168457,0.8868319988250732,-2.2137510776519775
1695713083471300400,14.43530029296875,-0.7170555591583252,0.279764860868454,-2.3776683807373047
1695713083481348000,14.44534814453125,-0.7458177208900452,-0.5572660565376282,-2.545980215072632
1695713083491379700,14.455379638671875,-0.771384060382843,-1.1590068340301514,-2.748380184173584
1695713083501405400,14.465405517578125,-0.8202530145645142,-1.1845731735229492,-2.873948097229004
1695713083511436500,14.4754365234375,-0.9246488213539124,-0.9480846524238586,-2.9357333183288574
1695713083521478000,14.485477783203125,-1.0503499507904053,-0.8640619516372681,-2.9250807762145996
1695713083531510000,14.495510009765624,-1.1132005453109741,-1.0034784078598022,-2.8505122661590576
1695713083541537500,14.50553759765625,-1.138766884803772,-1.2271836996078491,-2.76435923576355
1695713083551569400,14.5155693359375,-1.1749857664108276,-1.7106802463531494,-2.747314929962158
1695713083561595600,14.525595703125,-1.1281142234802246,-2.1196084022521973,-2.7952518463134766
1695713083571626800,14.535626708984376,-1.0620678663253784,-2.2378525733947754,-2.857969284057617
1695713083581666800,14.545666748046875,-1.0109351873397827,-2.130260944366455,-2.867556571960449
1695713083591699000,14.555698974609374,-0.9608678221702576,-2.0535619258880615,-2.8091001510620117
1695713083601722400,14.565722412109375,-0.8884298801422119,-2.062084197998047,-2.703639030456543
1695713083611753500,14.57575341796875,-0.8033419251441956,-2.1228041648864746,-2.5268054008483887
1695713083621768000,14.585767822265625,-0.7234471440315247,-2.1568925380706787,-2.237186908721924
1695713083631797500,14.595797607421876,-0.6158555150032043,-2.121738910675049,-1.8590182065963745
1695713083641857500,14.605857421875,-0.5008070468902588,-2.020538806915283,-1.4362417459487915
1695713083651890200,14.61589013671875,-0.3878891170024872,-1.908819317817688,-0.9804420471191406
1695713083661922600,14.625922607421876,-0.2739059031009674,-1.791640281677246,-0.5075981020927429
1695713083671955000,14.635954833984375,-0.17390428483486176,-1.6499602794647217,-0.04647212475538254
1695713083681956400,14.645956298828125,-0.04181159660220146,-1.448758602142334,0.342349112033844
1695713083691985700,14.655985595703125,0.1531316488981247,-1.2175962924957275,0.6532729268074036
1695713083702052000,14.666052001953124,0.334093302488327,-1.0066741704940796,0.9142625331878662
1695713083712085200,14.676085205078126,0.45020705461502075,-0.8182556629180908,1.1676621437072754
1695713083722089700,14.68608984375,0.5524723529815674,-0.6531397700309753,1.4414348602294922
1695713083732119800,14.696119873046875,0.6781734824180603,-0.5199818015098572,1.7353144884109497
1695713083742179600,14.7061796875,0.8175898194313049,-0.4209122955799103,2.003760814666748
1695713083752212700,14.716212646484376,0.9624657034873962,-0.47417548298835754,2.1612868309020996
1695713083762235000,14.72623486328125,1.1318426132202148,-0.6957502961158752,2.104827880859375
1695713083772267000,14.73626708984375,1.2735227346420288,-0.9555414915084839,1.7608808279037476
1695713083782306300,14.746306396484375,1.3033500909805298,-1.123853087425232,1.0291777849197388
1695713083792339000,14.7563388671875,1.1371688842773438,-1.1291794776916504,0.02383527345955372
1695713083802362600,14.766362548828125,0.8399603962898254,-0.9587372541427612,-1.045423150062561
1695713083812394500,14.77639453125,0.4097270369529724,-1.0759162902832031,-1.6056185960769653
1695713083822429700,14.7864296875,-0.1344895362854004,-1.3134701251983643,-1.3765869140625
1695713083832461800,14.7964619140625,-0.6542050242424011,-1.0801773071289062,-1.0411620140075684
1695713083842508500,14.806508544921876,-1.1440931558609009,-0.7543398141860962,-1.0741852521896362
1695713083852542200,14.816542236328125,-1.4432990550994873,-0.8246471881866455,-1.3680648803710938
1695713083862565000,14.826565185546874,-1.3506211042404175,-1.1174615621566772,-1.66953444480896
1695713083872597500,14.836597412109375,-0.7862977385520935,-1.076981544494629,-1.4628733396530151
1695713083882629600,14.846629638671875,-0.23142851889133453,-0.47843652963638306,-0.6492781639099121
1695713083892662000,14.856662109375,0.011451584286987782,0.279764860868454,0.35939332842826843
1695713083902721000,14.866720947265625,0.09454214572906494,0.5173186659812927,1.1239862442016602
1695713083912756200,14.876756103515625,0.2234390527009964,-0.03861580789089203,1.4638054370880127
1695713083922741000,14.886740966796875,0.41718387603759766,-0.801211416721344,1.358344316482544
1695713083932771000,14.89677099609375,0.57058185338974,-1.2431626319885254,0.6021402478218079
1695713083942835000,14.9068349609375,0.5162534117698669,-0.8171903491020203,-0.13062795996665955
1695713083952868600,14.91686865234375,0.45127230882644653,-0.019441060721874237,-0.10080057382583618
1695713083962911500,14.926911376953125,0.390552282333374,0.44488072395324707,0.3412838280200958
1695713083972946000,14.93694580078125,0.3074617087841034,0.6185187101364136,0.8727172613143921
1695713083982964200,14.946964111328125,0.2692453861236572,0.6865624189376831,1.479784369468689
1695713083992997000,14.9569970703125,0.30533120036125183,0.8058719635009766,2.0675435066223145
1695713084003025400,14.967025390625,0.3862912356853485,0.833568811416626,2.536259651184082
1695713084013057500,14.9770576171875,0.4203796684741974,0.6014744639396667,2.796050786972046
1695713084023099100,14.98709912109375,0.3543333113193512,0.27763432264328003,2.7694191932678223
1695713084033132500,14.997132568359374,0.21065588295459747,0.11371689289808273,2.4489078521728516
1695713084043153200,15.007153076171875,0.1243695318698883,0.13488900661468506,1.927061915397644
1695713084053185000,15.01718505859375,0.13502216339111328,0.10412952303886414,1.341300129890442
1695713084063196000,15.02719580078125,0.060453712940216064,0.09028109163045883,0.7896266579627991
1695713084073225700,15.037225830078125,-0.16538217663764954,0.011451584286987782,0.3274354040622711
1695713084083278800,15.04727880859375,-0.23142851889133453,-0.2697780132293701,0.05792371183633804
1695713084093311000,15.05731103515625,-0.19840535521507263,-0.5562008023262024,-0.04647212475538254
1695713084103348200,15.06734814453125,-0.18242639303207397,-0.9002809524536133,-0.07523424178361893
1695713084113381000,15.077381103515625,-0.15899059176445007,-1.2314447164535522,-0.023036325350403786
1695713084123416800,15.087416748046875,-0.1249021589756012,-1.404017448425293,0.06857634335756302
1695713084133450000,15.097449951171875,-0.07803056389093399,-1.205878496170044,0.16231954097747803
1695713084143486000,15.10748583984375,-0.04607265070080757,-0.7873629927635193,0.23156169056892395
1695713084153519000,15.11751904296875,-0.032224226742982864,-0.3635212182998657,0.3285006880760193
1695713084163547000,15.127546875,-0.020506324246525764,-0.06631266325712204,0.46152547001838684
1695713084173579500,15.13757958984375,-0.0023968431632965803,0.048735812306404114,0.559529721736908
1695713084183622100,15.1476220703125,-0.008788425475358963,0.08388951420783997,0.6117276549339294
1695713084193655800,15.15765576171875,-0.005592633970081806,0.10306425392627716,0.6181192398071289
1695713084203675600,15.167675537109375,-0.04713791608810425,0.0679105594754219,0.5744433999061584
1695713084213707800,15.177707763671876,-0.10359688848257065,0.002929474925622344,0.5030707716941833
1695713084223742200,15.1877421875,-0.12064110487699509,-0.06950845569372177,0.44235071539878845
1695713084233774600,15.197774658203125,-0.1387505829334259,-0.1291632205247879,0.4295675754547119
1695713084243776800,15.20777685546875,-0.1525990217924118,-0.20266640186309814,0.4668518006801605
1695713084253806000,15.21780615234375,-0.13342426717281342,-0.28149592876434326,0.5318328738212585
1695713084263840300,15.22784033203125,-0.10892320424318314,-0.3081275224685669,0.5850960612297058
1695713084273870000,15.2378701171875,-0.08655267208814621,-0.2559295892715454,0.6021402478218079
1695713084284070100,15.248070068359375,-0.060986343771219254,-0.1344895362854004,0.5872265696525574
1695713084294119000,15.258118896484374,-0.02263685315847397,0.05938844755291939,0.5552686452865601
1695713084304163800,15.268163818359374,0.023169483989477158,0.32876700162887573,0.5360939502716064
1695713084314032400,15.278032470703126,0.06897582113742828,0.616388201713562,0.5627255439758301
1695713084324063500,15.2880634765625,0.11158636957406998,0.900680422782898,0.613858163356781
1695713084334073300,15.2980732421875,0.16484954953193665,1.190432071685791,0.6479465961456299
1695713084344102400,15.308102294921875,0.2277000993490219,1.4619412422180176,0.6319676637649536
1695713084354136800,15.31813671875,0.2840259075164795,1.7239960432052612,0.546746551990509
1695713084364166700,15.328166748046876,0.33302804827690125,1.9752651453018188,0.42850229144096375
1695713084374216400,15.338216552734375,0.3628554344177246,2.210688352584839,0.33063119649887085
1695713084384248000,15.348248046875,0.37883439660072327,2.4225425720214844,0.25925853848457336
1695713084394281200,15.35828125,0.37883439660072327,2.578071117401123,0.21451745927333832
1695713084404313000,15.36831298828125,0.38096490502357483,2.6590311527252197,0.21132168173789978
1695713084414354200,15.378354248046875,0.3820301592350006,2.6963155269622803,0.22090904414653778
1695713084424387000,15.388386962890625,0.33302804827690125,2.701641798019409,0.21877852082252502
1695713084434421500,15.39842138671875,0.2660495936870575,2.7559702396392822,0.20386482775211334
1695713084444454400,15.408454345703126,0.22237378358840942,2.8198859691619873,0.20919114351272583
1695713084454468600,15.418468505859375,0.1808284968137741,2.8655591011047363,0.21451745927333832
1695713084464499500,15.42849951171875,0.09028109163045883,2.8463845252990723,0.21238693594932556
1695713084474543000,15.438543212890625,-0.016245270147919655,2.652639627456665,0.12716585397720337
1695713084484575500,15.448575439453125,-0.07376950979232788,2.3085594177246094,-0.10186583548784256
1695713084494615000,15.458614990234375,-0.11851058155298233,1.949698805809021,-0.46285703778266907
1695713084504648200,15.468648193359375,-0.1760348230600357,1.7728650569915771,-0.8664588332176208
1695713084514668800,15.478668701171875,-0.18242639303207397,1.6664718389511108,-1.262603759765625
1695713084524700400,15.488700439453124,-0.11957584321498871,1.4843116998672485,-1.5875091552734375
1695713084534735400,15.4987353515625,0.013582111336290836,1.0242509841918945,-1.784449815750122
1695713084544767500,15.508767578125,0.1808284968137741,0.42677125334739685,-1.8174729347229004
1695713084554777900,15.51877783203125,0.33728909492492676,0.23928484320640564,-1.6929702758789062
1695713084564807700,15.5288076171875,0.4725775718688965,0.47896915674209595,-1.4479596614837646
1695713084574869000,15.538868896484376,0.5311670899391174,0.8101329803466797,-1.088033676147461
1695713084584902100,15.548902099609375,0.5024049878120422,1.0327731370925903,-0.6482129096984863
1695713084594929000,15.558928955078125,0.44168493151664734,1.1616699695587158,-0.20612850785255432
1695713084604961300,15.568961181640624,0.4022701680660248,1.1925626993179321,0.15805849432945251
1695713084615001900,15.579001953125,0.3671164810657501,1.1701921224594116,0.41784965991973877
1695713084625035000,15.589034912109375,0.35646384954452515,1.1329078674316406,0.5861613154411316
1695713084635059500,15.5990595703125,0.38522595167160034,1.0881668329238892,0.6820350289344788
1695713084645091800,15.609091796875,0.4352933466434479,1.0615352392196655,0.7203845381736755
1695713084655118000,15.6191181640625,0.5024049878120422,1.016794204711914,0.696948766708374
1695713084665150000,15.62914990234375,0.5769734382629395,0.9198551774024963,0.6064013242721558
1695713084675186200,15.639186279296876,0.6494113206863403,0.7856319546699524,0.4498075842857361
1695713084685218600,15.649218505859375,0.6973482370376587,0.6472808122634888,0.2336922138929367
1695713084695252500,15.65925244140625,0.7229145169258118,0.57058185338974,-0.008122635073959827
1695713084705284900,15.669284912109376,0.7186535000801086,0.5386239290237427,-0.23382537066936493
1695713084715317800,15.67931787109375,0.7026745080947876,0.5524723529815674,-0.408528596162796
1695713084725350100,15.68935009765625,0.6600639820098877,0.6440850496292114,-0.5097286701202393
1695713084735351300,15.699351318359374,0.5854955315589905,0.8016108870506287,-0.5363602638244629
1695713084745380600,15.709380615234375,0.47364285588264465,0.972053050994873,-0.5427518486976624
1695713084755445000,15.719445068359375,0.34155014157295227,1.1520826816558838,-0.6514087319374084
1695713084765477600,15.7294775390625,0.2138516753911972,1.3426316976547241,-0.9591367244720459
1695713084775512000,15.739511962890624,0.10306425392627716,1.4363749027252197,-1.4341111183166504
1695713084785545000,15.749544921875,-0.03009369783103466,1.34369695186615,-1.928260326385498
1695713084795578000,15.759578125,-0.1813611388206482,1.072187900543213,-2.2542309761047363
1695713084805611300,15.769611328125,-0.30053749680519104,0.8729835748672485,-2.2829930782318115
1695713084815643100,15.77964306640625,-0.367649108171463,0.8953540921211243,-1.9879151582717896
1695713084825675800,15.78967578125,-0.3644533157348633,1.1989542245864868,-1.522528052330017
1695713084835677000,15.799677001953125,-0.3729754388332367,1.5045517683029175,-1.2285152673721313
1695713084845706500,15.80970654296875,-0.3527354300022125,1.5375748872756958,-1.396826982498169
1695713084855774000,15.81977392578125,-0.1813611388206482,1.2946947813034058,-1.8206686973571777
1695713084865807400,15.829807373046876,0.05193160101771355,1.039164662361145,-2.1157467365264893
1695713084875836400,15.83983642578125,0.19787272810935974,0.9667267799377441,-2.2286646366119385
1695713084885869300,15.849869384765626,0.25326642394065857,1.026381492614746,-2.1775319576263428
1695713084895893500,15.8598935546875,0.23515695333480835,1.0785794258117676,-2.1040289402008057
1695713084905925400,15.86992529296875,0.15419691801071167,0.8910930156707764,-2.1732709407806396
1695713084915942400,15.8799423828125,0.08175898343324661,0.5886912941932678,-2.38619065284729
1695713084925973000,15.889972900390624,0.044474758207798004,0.42144492268562317,-2.6162874698638916
1695713084935999700,15.899999755859374,0.07962846010923386,0.3159838318824768,-2.7515759468078613
1695713084946029800,15.91002978515625,0.21065588295459747,0.24354590475559235,-2.654637098312378
1695713084956072700,15.92007275390625,0.30426591634750366,0.2563290596008301,-2.495912790298462
1695713084966104000,15.93010400390625,0.3724428117275238,0.4480765163898468,-2.3435800075531006
1695713084976137700,15.9401376953125,0.4054659605026245,0.5897566080093384,-2.3691463470458984
1695713084986169300,15.95016943359375,0.3969438672065735,0.524775505065918,-2.466085433959961
1695713084996200700,15.96020068359375,0.39907440543174744,0.4235754609107971,-2.575807571411133
1695713085006232000,15.970232177734376,0.37989965081214905,0.27763432264328003,-2.619483232498169
1695713085016269000,15.98026904296875,0.3532680571079254,0.212653249502182,-2.6130917072296143
1695713085026301200,15.99030126953125,0.3500722646713257,0.1806953400373459,-2.545980215072632
1695713085036327000,16.000326904296877,0.35539859533309937,0.03275685757398605,-2.6269402503967285
1695713085046358500,16.010358642578126,0.4384891390800476,-0.05992107838392258,-2.733466386795044
1695713085056391000,16.020390869140623,0.5322323441505432,-0.12064110487699509,-2.813361167907715
1695713085066422500,16.030422607421876,0.5663207769393921,-0.2623211741447449,-2.914428234100342
1695713085076478700,16.040478759765627,0.5961481928825378,-0.19627483189105988,-2.8718175888061523
1695713085086512600,16.0505126953125,0.6110618710517883,-0.14407691359519958,-2.7558369636535645
1695713085096517400,16.060517333984375,0.6078660488128662,-0.07483477145433426,-2.5907211303710938
1695713085106548200,16.07054833984375,0.6270408034324646,0.08388951420783997,-2.42134428024292
1695713085116607000,16.08060693359375,0.6451503038406372,0.10199899226427078,-2.326535701751709
1695713085126641000,16.090640869140625,0.6579334735870361,0.12330426275730133,-2.28605580329895
1695713085136671700,16.100671630859374,0.6323671340942383,0.08388951420783997,-2.261687755584717
1695713085146705200,16.110705078125,0.5940176248550415,0.13488900661468506,-2.2329256534576416
1695713085156711700,16.120711669921874,0.5567334294319153,0.24248063564300537,-2.1232035160064697
1695713085166742500,16.130742431640623,0.48855653405189514,0.34261542558670044,-1.9293255805969238
1695713085176802300,16.14080224609375,0.4289017617702484,0.4246407151222229,-1.747165560722351
1695713085186836000,16.1508359375,0.41292282938957214,0.4938828647136688,-1.5885744094848633
1695713085196867800,16.160867919921873,0.42251017689704895,0.5556681752204895,-1.4287848472595215
1695713085206901500,16.170901611328127,0.44594597816467285,0.6227797269821167,-1.2434289455413818
1695713085216905700,16.18090576171875,0.4534028470516205,0.6982803344726562,-1.0347704887390137
1695713085226936300,16.190936279296874,0.4352933466434479,0.7494129538536072,-0.8760461807250977
1695713085236993500,16.20099365234375,0.40333545207977295,0.7398256063461304,-0.7748461365699768
1695713085247026700,16.211026611328126,0.3532680571079254,0.7281076908111572,-0.662061333656311
1695713085257062100,16.221062255859376,0.2829606533050537,0.7515435218811035,-0.48735812306404114
1695713085267095600,16.231095458984374,0.2000032514333725,0.7696529626846313,-0.2625874876976013
1695713085277281500,16.241281494140626,0.13076111674308777,0.8985498547554016,0.017443692311644554
1695713085287278800,16.25127880859375,0.09028109163045883,0.9273120164871216,0.29334697127342224
1695713085297312500,16.2613125,0.05299686640501022,0.9486172795295715,0.5488771200180054
1695713085307372300,16.271372314453124,0.02210422046482563,1.173387885093689,0.8013445734977722
1695713085317405700,16.28140576171875,-0.01837579719722271,1.1446257829666138,0.9036098718643188
1695713085327421200,16.291421142578123,-0.06205160543322563,1.1659311056137085,0.9366330504417419
1695713085337464800,16.30146484375,-0.11211899667978287,1.1073415279388428,0.9025446176528931
1695713085347498500,16.31149853515625,-0.14727269113063812,0.9784446358680725,0.8205193281173706
1695713085357507800,16.3215078125,-0.17496955394744873,1.0072067975997925,0.7832350730895996
1695713085367572200,16.331572265625,-0.1952095627784729,0.9230509400367737,0.7278413772583008
1695713085377605600,16.341605712890626,-0.20586219429969788,0.9443562030792236,0.718254029750824
1695713085387599600,16.351599609375,-0.21012325584888458,0.955008864402771,0.7118624448776245
1695713085397633300,16.36163330078125,-0.21544957160949707,0.9230509400367737,0.6905571818351746
1695713085407667200,16.371667236328125,-0.21118851006031036,0.9347688555717468,0.6884266138076782
1695713085417705500,16.38170556640625,-0.2047969400882721,0.8942888379096985,0.6745781898498535
1695713085427743500,16.391743408203126,-0.19840535521507263,0.8261119723320007,0.6649908423423767
1695713085437781500,16.401781494140625,-0.1952095627784729,0.7600656151771545,0.6554034352302551
1695713085447819800,16.41181982421875,-0.18775272369384766,0.699345588684082,0.6522076725959778
1695713085457853700,16.421853759765625,-0.18455693125724792,0.6334323883056641,0.6436855792999268
1695713085467874000,16.4318740234375,-0.1898832470178604,0.5684512853622437,0.6319676637649536
1695713085477894700,16.441894775390626,-0.19414429366588593,0.5056007504463196,0.6181192398071289
1695713086149896700,17.113896728515623,0.11478215456008911,-0.00985368900001049,0.0504668653011322
1695713086159927800,17.123927734375,0.1201084777712822,0.14980269968509674,0.053662657737731934
1695713086169959000,17.133958984375,0.1201084777712822,0.24993747472763062,0.0600542388856411
1695713086179990000,17.143989990234374,0.12330426275730133,0.2563290596008301,0.06751108169555664
1695713086190021000,17.154021240234375,0.12117373943328857,0.1934785097837448,0.06964161247015
1695713086200052200,17.16405224609375,0.11158636957406998,0.11797794699668884,0.06431528925895691
1695713086210084000,17.174083984375,0.09560741484165192,0.07004108279943466,0.04833633825182915
1695713086220137000,17.184136962890626,0.08175898343324661,0.05299686640501022,0.033422645181417465
1695713086230189600,17.194189453125,0.07004108279943466,0.05725792050361633,0.020639482885599136
1695713086240242400,17.204242431640626,0.060453712940216064,0.07217161357402802,0.01318263728171587
1695713086250295300,17.21429541015625,0.05512739345431328,0.08175898343324661,0.012117373757064342
1695713086260348000,17.224347900390626,0.04554001986980438,0.08388951420783997,0.012117373757064342
1695713086270400800,17.23440087890625,0.029561065137386322,0.0540621280670166,0.017443692311644554
1695713086280453400,17.244453369140626,0.015712639316916466,-0.011984216049313545,0.02277000993490219
1695713086290506200,17.25450634765625,0.002929474925622344,-0.05992107838392258,0.017443692311644554
1695713086300535300,17.264535400390624,-0.015180006623268127,-0.05566002428531647,0.006791055668145418
1695713086310552300,17.27455224609375,-0.03435475379228592,-0.03009369783103466,0.001464737462811172
1695713086320569300,17.2845693359375,-0.04500738903880119,-0.016245270147919655,0.0003994738799519837
1695713086330586400,17.29458642578125,-0.05033370852470398,-0.017310533672571182,0.0025300011038780212
1695713086340603400,17.304603271484375,-0.05139897018671036,-0.020506324246525764,0.0035952648613601923
1695713086350620400,17.314620361328124,-0.05459476262331009,-0.016245270147919655,0.011052110232412815
1695713086360637400,17.324637451171874,-0.06311687082052231,-0.010918952524662018,0.02383527345955372
1695713086370654500,17.334654541015624,-0.06950845569372177,0.00612526573240757,0.040879491716623306
1695713086380671500,17.34467138671875,-0.07696529477834702,0.030626330524683,0.05472791939973831
1695713086390688800,17.354688720703123,-0.07909582555294037,0.05299686640501022,0.06538055837154388
1695713086400705800,17.364705810546877,-0.07909582555294037,0.06897582113742828,0.07177213579416275
1695713086410735600,17.374735595703125,-0.07483477145433426,0.0679105594754219,0.06964161247015
1695713086420768800,17.384768798828127,-0.06737792491912842,0.04234423115849495,0.05579318478703499
1695713086430802000,17.394802001953124,-0.05352949723601341,0.012516847811639309,0.03874896466732025
1695713086440835000,17.4048349609375,-0.04181159660220146,-0.0034621069207787514,0.02277000993490219
1695713086450868200,17.4148681640625,-0.03328948840498924,-0.005592633970081806,0.014247900806367397
1695713086460901600,17.424901611328124,-0.024767380207777023,0.002929474925622344,0.007856319658458233
1695713086470934800,17.434934814453126,-0.01837579719722271,0.002929474925622344,0.0025300011038780212
1695713086480968000,17.444968017578127,-0.0141147430986166,-0.00985368900001049,-0.002796316985040903
1695713086491001000,17.4550009765625,-0.011984216049313545,-0.023702116683125496,-0.005992108024656773
1695713086501034500,17.465034423828126,-0.011984216049313545,-0.029028434306383133,-0.008122635073959827
1695713086511064600,17.475064697265626,-0.015180006623268127,-0.02263685315847397,-0.004926844500005245
1695713086521096400,17.485096435546875,-0.019441060721874237,-0.017310533672571182,-0.004926844500005245
1695713086531128600,17.495128662109376,-0.02157158963382244,-0.016245270147919655,-0.005992108024656773
1695713086541160400,17.505160400390626,-0.02157158963382244,-0.020506324246525764,-0.008122635073959827
1695713086551192300,17.5151923828125,-0.024767380207777023,-0.02157158963382244,-0.005992108024656773
1695713086561224400,17.525224365234376,-0.024767380207777023,-0.0141147430986166,0.0035952648613601923
1695713086571256300,17.53525634765625,-0.029028434306383133,0.002929474925622344,0.011052110232412815
1695713086581288400,17.545288330078126,-0.031158961355686188,0.021038956940174103,0.0153131652623415
1695713086591320300,17.5553203125,-0.03435475379228592,0.03488738462328911,0.011052110232412815
1695713086601352200,17.565352294921876,-0.03328948840498924,0.04767054691910744,0.00892158318310976
1695713086611384300,17.57538427734375,-0.031158961355686188,0.060453712940216064,0.01318263728171587
1695713086621415200,17.585415283203126,-0.027963170781731606,0.07856319099664688,0.017443692311644554
1695713086631450000,17.5954501953125,-0.02157158963382244,0.09773793816566467,0.025965800508856773
1695713086641485000,17.605485107421874,-0.013049479573965073,0.11478215456008911,0.033422645181417465
1695713086651520000,17.61552001953125,-0.008788425475358963,0.12650005519390106,0.03768370300531387
1695713086661554700,17.6255546875,-0.004527370445430279,0.1380847990512848,0.03555317223072052
1695713086671589600,17.635589599609375,-0.005592633970081806,0.15512901544570923,0.025965800508856773
1695713086681624600,17.64562451171875,-0.005592633970081806,0.1892174482345581,0.017443692311644554
1695713086691659500,17.655659423828126,-0.006657897960394621,0.24248063564300537,0.02277000993490219
1695713086701694200,17.665694091796876,-0.005592633970081806,0.31385329365730286,0.03874896466732025
1695713086711729200,17.675729248046874,0.003994738683104515,0.3692470192909241,0.05898897349834442
1695713086721764000,17.68576416015625,0.01784316636621952,0.39907440543174744,0.07816372066736221
1695713086731799000,17.695799072265626,0.028495801612734795,0.40440070629119873,0.0834900364279747
1695713086741857000,17.70585693359375,0.04234423115849495,0.39374807476997375,0.07496792823076248
1695713086751915300,17.715915283203124,0.04767054691910744,0.36179015040397644,0.0600542388856411
1695713086761973500,17.725973388671875,0.04554001986980438,0.3266364634037018,0.04727107286453247
1695713086772031500,17.736031494140626,0.025300011038780212,0.2840259075164795,0.0366184376180172
1695713086782089700,17.74608984375,0.0018642114009708166,0.19987009465694427,0.017443692311644554
1695713086792121000,17.75612109375,0.0007989477599039674,0.11584742367267609,-0.023036325350403786
1695713086802139400,17.766139404296876,0.002929474925622344,0.05193160101771355,-0.052863709628582
1695713086812157400,17.776157470703126,0.008255792781710625,0.019973693415522575,-0.052863709628582
1695713086822175700,17.78617578125,0.014647374860942364,0.0018642114009708166,-0.028362644836306572
