time,seconds_elapsed,z,y,x
1695713089821758200,0.16975830078125,-0.438690185546875,-3.016357421875,0.004119873046875
1695713089831310300,0.179310302734375,-0.475616455078125,-2.126007080078125,-0.07049560546875
1695713089840831700,0.188831787109375,-0.523223876953125,-1.6436767578125,-0.312957763671875
1695713089850383600,0.198383544921875,-0.564117431640625,-1.411285400390625,-0.691070556640625
1695713089859935700,0.207935791015625,-0.494537353515625,-1.174468994140625,-1.067352294921875
1695713089869487600,0.217487548828125,-0.30059814453125,-0.829315185546875,-1.285400390625
1695713089879009300,0.22700927734375,-0.03692626953125,-0.474090576171875,-1.3037109375
1695713089888561200,0.23656103515625,0.195159912109375,-0.24566650390625,-1.17889404296875
1695713089898113300,0.24611328125,0.3155517578125,-0.088653564453125,-0.970611572265625
1695713089907665200,0.2556650390625,0.316162109375,-0.063018798828125,-0.724029541015625
1695713089917217300,0.26521728515625,0.217132568359375,-0.2618408203125,-0.50262451171875
1695713089926738700,0.27473876953125,0.10528564453125,-0.5938720703125,-0.283966064453125
1695713089936290800,0.284290771484375,0.03814697265625,-0.892333984375,-0.018463134765625
1695713089945842700,0.2938427734375,-0.0177001953125,-1.086578369140625,0.291748046875
1695713089955394800,0.303394775390625,-0.115203857421875,-1.28875732421875,0.5926513671875
1695713089964916200,0.312916259765625,-0.28350830078125,-1.585693359375,0.825958251953125
1695713089974468000,0.322468017578125,-0.509185791015625,-1.95709228515625,0.98846435546875
1695713089984020200,0.332020263671875,-0.7611083984375,-2.3199462890625,1.130828857421875
1695713089993572000,0.341572021484375,-0.98388671875,-2.563629150390625,1.26556396484375
1695713090003093800,0.35109375,-0.887603759765625,-2.542572021484375,1.401519775390625
1695713090012645600,0.360645751953125,-0.491180419921875,-2.529449462890625,1.545867919921875
1695713090022197800,0.37019775390625,-0.01220703125,-2.586822509765625,1.63909912109375
1695713090031749600,0.37974951171875,0.3515625,-2.615814208984375,1.6766357421875
1695713090041301800,0.3893017578125,0.543670654296875,-2.6446533203125,1.61956787109375
1695713090050823200,0.3988232421875,0.630645751953125,-2.468719482421875,1.412200927734375
1695713090060405800,0.40840576171875,0.69000244140625,-1.902313232421875,0.980224609375
1695713090069957600,0.41795751953125,0.78521728515625,-1.2353515625,0.29296875
1695713090079509800,0.427509765625,0.944671630859375,-0.6146240234375,-0.499267578125
1695713090089031200,0.43703125,0.996551513671875,-0.15106201171875,-1.038665771484375
1695713090098583300,0.446583251953125,1.08489990234375,-0.021514892578125,-1.1529541015625
1695713090108135200,0.45613525390625,1.226654052734375,-0.14434814453125,-0.9130859375
1695713090117687300,0.465687255859375,1.252593994140625,-0.473480224609375,-0.52215576171875
1695713090127239200,0.4752392578125,1.1468505859375,-0.872802734375,-0.123291015625
1695713090136760600,0.484760498046875,0.992889404296875,-1.3623046875,0.1806640625
1695713090146312700,0.494312744140625,0.930023193359375,-1.752777099609375,0.424957275390625
1695713090155864600,0.503864501953125,0.923309326171875,-1.9793701171875,0.6103515625
1695713090165416700,0.513416748046875,0.866241455078125,-1.9677734375,0.704193115234375
1695713090174938000,0.522938232421875,0.75286865234375,-1.741943359375,0.698699951171875
1695713090184490200,0.532490234375,0.66070556640625,-1.387786865234375,0.6219482421875
1695713090194042000,0.5420419921875,0.68389892578125,-0.9576416015625,0.5194091796875
1695713090203594200,0.55159423828125,0.8319091796875,-0.5548095703125,0.406646728515625
1695713090213146000,0.56114599609375,0.959014892578125,-0.2978515625,0.298919677734375
1695713090222667800,0.570667724609375,1.11663818359375,-0.29510498046875,0.205078125
1695713090232219600,0.5802197265625,1.197662353515625,-0.5267333984375,0.110015869140625
1695713090241771800,0.589771728515625,1.263275146484375,-0.89202880859375,0.080108642578125
1695713090251323600,0.59932373046875,1.252593994140625,-1.22894287109375,0.14617919921875
1695713090260845000,0.608844970703125,1.1529541015625,-1.403656005859375,0.2764892578125
1695713090270397200,0.618397216796875,1.014251708984375,-1.35894775390625,0.408477783203125
1695713090279949000,0.627948974609375,0.896759033203125,-1.192169189453125,0.48980712890625
1695713090289501200,0.637501220703125,0.886077880859375,-1.01806640625,0.496826171875
1695713090299053000,0.647052978515625,0.972442626953125,-0.802764892578125,0.439300537109375
1695713090308574700,0.65657470703125,1.05804443359375,-0.725860595703125,0.337677001953125
1695713090318126600,0.666126708984375,1.0809326171875,-0.798797607421875,0.27557373046875
1695713090327678700,0.6756787109375,0.932159423828125,-1.0028076171875,0.311431884765625
1695713090337230600,0.685230712890625,0.629730224609375,-1.20819091796875,0.395965576171875
1695713090346782700,0.69478271484375,0.561065673828125,-1.391143798828125,0.5316162109375
1695713090356334600,0.70433447265625,0.578155517578125,-1.400909423828125,0.681915283203125
1695713090365886700,0.71388671875,0.577545166015625,-1.392974853515625,0.794525146484375
1695713090375438600,0.7234384765625,0.567779541015625,-1.35467529296875,0.8941650390625
1695713090384960300,0.732960205078125,0.47119140625,-1.220703125,0.95703125
1695713090394512100,0.74251220703125,0.38909912109375,-1.077728271484375,0.9808349609375
1695713090404064300,0.752064208984375,0.40496826171875,-0.8740234375,0.95947265625
1695713090413616000,0.7616162109375,0.540313720703125,-0.694122314453125,0.88043212890625
1695713090423168300,0.771168212890625,0.673828125,-0.6231689453125,0.811309814453125
1695713090432689700,0.780689697265625,0.639495849609375,-0.6231689453125,0.788421630859375
1695713090442241500,0.790241455078125,0.506439208984375,-0.794525146484375,0.763702392578125
1695713090451793700,0.799793701171875,0.37322998046875,-0.98419189453125,0.774688720703125
1695713090461345500,0.809345458984375,0.279693603515625,-1.070404052734375,0.799102783203125
1695713090470867200,0.8188671875,0.257415771484375,-1.062469482421875,0.759735107421875
1695713090480419000,0.828419189453125,0.242156982421875,-0.9716796875,0.668792724609375
1695713090489971200,0.83797119140625,0.272674560546875,-0.799713134765625,0.688323974609375
1695713090499523000,0.847523193359375,0.35125732421875,-0.669708251953125,0.818634033203125
1695713090509075200,0.8570751953125,0.40191650390625,-0.742645263671875,0.98602294921875
1695713090518596600,0.8665966796875,0.31158447265625,-0.916748046875,1.132049560546875
1695713090528148700,0.876148681640625,0.162506103515625,-1.095123291015625,1.175689697265625
1695713090537700600,0.88570068359375,0.0531005859375,-1.197967529296875,1.175689697265625
1695713090547252700,0.895252685546875,0.04669189453125,-1.125640869140625,1.183013916015625
1695713090556774100,0.904774169921875,0.12054443359375,-0.87310791015625,1.178131103515625
1695713090566326000,0.914325927734375,0.210113525390625,-0.671539306640625,1.169586181640625
1695713090575878100,0.923878173828125,0.291595458984375,-0.6591796875,1.180572509765625
1695713090585430000,0.933429931640625,0.34088134765625,-0.762786865234375,1.140899658203125
1695713090594982100,0.942982177734375,0.380859375,-0.86822509765625,1.079254150390625
1695713090604503600,0.952503662109375,0.41717529296875,-0.92529296875,1.075592041015625
1695713090614055700,0.9620556640625,0.44708251953125,-0.96343994140625,1.097869873046875
1695713090623607600,0.971607666015625,0.495147705078125,-0.9930419921875,1.149139404296875
1695713090633190100,0.981190185546875,0.602569580078125,-1.01715087890625,1.27044677734375
1695713090642711600,0.990711669921875,0.7501220703125,-1.097869873046875,1.443328857421875
1695713090652263700,1.000263671875,0.939178466796875,-1.24237060546875,1.64825439453125
1695713090661815600,1.009815673828125,1.202850341796875,-1.3092041015625,1.956787109375
1695713090671367700,1.01936767578125,1.593475341796875,-1.198577880859375,2.40814208984375
1695713090680919600,1.02891943359375,2.090301513671875,-0.90789794921875,2.99346923828125
1695713090690441200,1.038441162109375,2.61322021484375,-0.446624755859375,3.585968017578125
1695713090699993000,1.0479931640625,3.094024658203125,0.04241943359375,4.015655517578125
1695713090709545200,1.057545166015625,3.501739501953125,0.41839599609375,4.208984375
1695713090719097000,1.06709716796875,3.800811767578125,0.626678466796875,4.22271728515625
1695713090728618500,1.076618408203125,4.056396484375,0.668487548828125,4.210205078125
1695713090738170600,1.086170654296875,4.3267822265625,0.4559326171875,4.22332763671875
1695713090747722500,1.095722412109375,4.515533447265625,-0.040130615234375,4.11773681640625
1695713090757274600,1.105274658203125,4.6148681640625,-0.672454833984375,3.981475830078125
1695713090766796000,1.114796142578125,4.538116455078125,-1.35650634765625,3.991241455078125
1695713090776348200,1.12434814453125,4.368896484375,-2.182769775390625,4.244384765625
1695713090785900000,1.133900146484375,4.182281494140625,-2.968597412109375,4.720916748046875
1695713090795452200,1.1434521484375,3.9501953125,-3.580169677734375,5.2154541015625
1695713090805004000,1.153004150390625,3.66363525390625,-3.910980224609375,5.518798828125
1695713090814525700,1.162525634765625,3.392791748046875,-3.910369873046875,5.53924560546875
1695713090824077600,1.17207763671875,3.069305419921875,-3.705596923828125,5.359039306640625
1695713090833629700,1.181629638671875,2.734832763671875,-3.5418701171875,5.115509033203125
1695713090843181600,1.191181640625,2.5030517578125,-3.5321044921875,4.90692138671875
1695713090852703000,1.200702880859375,2.285614013671875,-4.256439208984375,4.330902099609375
1695713090862255000,1.210255126953125,2.026214599609375,-5.92315673828125,2.44781494140625
1695713090871807000,1.219806884765625,2.22076416015625,-5.705718994140625,0.56610107421875
1695713090881359000,1.229359130859375,2.808380126953125,-3.5308837890625,-0.026092529296875
1695713090890911000,1.238910888671875,3.33099365234375,-0.63323974609375,0.1953125
1695713090900432600,1.2484326171875,3.714141845703125,0.81512451171875,0.089569091796875
1695713090909984500,1.257984619140625,3.9764404296875,1.136474609375,-0.236358642578125
1695713090919567000,1.267567138671875,4.03289794921875,0.9271240234375,-0.44708251953125
1695713090929119000,1.277118896484375,3.873138427734375,0.48583984375,-0.4327392578125
1695713090938640600,1.286640625,3.57147216796875,-0.036163330078125,-0.135498046875
1695713090948192500,1.296192626953125,3.148956298828125,-0.61279296875,0.267333984375
1695713090957744600,1.30574462890625,2.61199951171875,-1.307373046875,0.51177978515625
1695713090967296500,1.315296630859375,2.1514892578125,-1.73492431640625,0.447235107421875
1695713090976848600,1.3248486328125,1.80450439453125,-1.21124267578125,-0.16876220703125
1695713090986370000,1.3343701171875,1.598358154296875,-1.24786376953125,0.002288818359375
1695713090995922200,1.343922119140625,1.45660400390625,-1.28631591796875,0.322723388671875
1695713091005474000,1.35347412109375,1.42608642578125,-1.32476806640625,0.425262451171875
1695713091015026200,1.363026123046875,1.608123779296875,-1.189727783203125,0.316314697265625
1695713091024547600,1.372547607421875,2.311553955078125,-0.767364501953125,0.097503662109375
1695713091034099500,1.382099365234375,2.666778564453125,-0.19500732421875,-0.027618408203125
1695713091043651600,1.391651611328125,2.293243408203125,-0.17913818359375,0.016632080078125
1695713091053203500,1.401203369140625,1.655731201171875,-0.690460205078125,0.4852294921875
1695713091062755600,1.410755615234375,1.223602294921875,-0.90667724609375,1.63665771484375
1695713091072277000,1.420277099609375,1.353912353515625,-0.61981201171875,2.878875732421875
1695713091081829000,1.4298291015625,1.756591796875,-0.5169677734375,3.0145263671875
1695713091091381000,1.439381103515625,2.24700927734375,-0.672454833984375,1.131439208984375
1695713091100933000,1.44893310546875,2.372283935546875,-0.93292236328125,-0.4791259765625
1695713091110454500,1.45845458984375,2.361907958984375,-0.791473388671875,-0.279388427734375
1695713091120006700,1.468006591796875,2.5006103515625,-0.343780517578125,0.2227783203125
1695713091129558500,1.47755859375,2.5750732421875,-0.1959228515625,0.51727294921875
1695713091139110700,1.487110595703125,2.51678466796875,-0.2752685546875,0.5377197265625
1695713091148632000,1.496632080078125,2.47955322265625,-0.470733642578125,0.414886474609375
1695713091158184000,1.506183837890625,2.48626708984375,-0.8734130859375,0.062103271484375
1695713091167736000,1.515736083984375,2.47894287109375,-1.125640869140625,-0.17181396484375
1695713091177288000,1.525287841796875,2.47894287109375,-1.24908447265625,-0.189208984375
1695713091186840000,1.534840087890625,2.596435546875,-1.328125,-0.19012451171875
1695713091196361500,1.544361572265625,2.82928466796875,-1.2738037109375,-0.247344970703125
1695713091205937700,1.553937744140625,3.004913330078125,-1.02447509765625,-0.333404541015625
1695713091215489800,1.56348974609375,2.9730224609375,-0.720977783203125,-0.45013427734375
1695713091225041700,1.573041748046875,2.749481201171875,-0.471343994140625,-0.540771484375
1695713091234563300,1.582563232421875,2.398834228515625,-0.341644287109375,-0.587310791015625
1695713091244115200,1.592115234375,2.071990966796875,-0.315704345703125,-0.54901123046875
1695713091253667300,1.601667236328125,1.91741943359375,-0.19287109375,-0.52734375
1695713091263219200,1.61121923828125,1.88385009765625,0.007781982421875,-0.4681396484375
1695713091272771300,1.620771240234375,1.85760498046875,0.222625732421875,-0.4583740234375
1695713091282292700,1.630292724609375,1.734466552734375,0.324554443359375,-0.4302978515625
1695713091291844900,1.639844970703125,1.48223876953125,0.280609130859375,-0.322723388671875
1695713091301396700,1.649396728515625,1.09466552734375,-0.021514892578125,-0.05706787109375
1695713091310948900,1.658948974609375,0.482940673828125,-0.052337646484375,0.1751708984375
1695713091320470300,1.66847021484375,0.03570556640625,0.08941650390625,0.21759033203125
1695713091330022100,1.678022216796875,-0.141448974609375,0.1446533203125,0.14373779296875
1695713091339574300,1.68757421875,-0.155181884765625,0.4803466796875,0.179443359375
1695713091349126100,1.697126220703125,-0.084686279296875,0.693206787109375,0.27313232421875
1695713091358678300,1.70667822265625,-0.049591064453125,0.8489990234375,0.422210693359375
1695713091368199700,1.71619970703125,-0.511627197265625,1.356658935546875,0.57861328125
1695713091377751800,1.725751708984375,-1.245574951171875,1.779327392578125,0.55572509765625
1695713091387303700,1.7353037109375,-1.7388916015625,1.62994384765625,0.260009765625
1695713091396855800,1.744855712890625,-1.69342041015625,0.07659912109375,0.5377197265625
1695713091406377200,1.754377197265625,-1.33209228515625,-0.786895751953125,0.343780517578125
1695713091415929300,1.763929443359375,-0.783538818359375,-0.836029052734375,0.111236572265625
1695713091425481200,1.773481201171875,-0.145111083984375,-0.740509033203125,0.15350341796875
1695713091435033300,1.783033447265625,0.160369873046875,-0.51727294921875,0.21148681640625
1695713091444585200,1.792585205078125,0.36163330078125,-0.26702880859375,0.317535400390625
1695713091454106600,1.802106689453125,0.4803466796875,-0.115203857421875,0.399322509765625
1695713091463658800,1.81165869140625,0.44219970703125,-0.065155029296875,0.397796630859375
1695713091473210600,1.821210693359375,0.34088134765625,0.026702880859375,0.2899169921875
1695713091482762800,1.8307626953125,0.224456787109375,0.04669189453125,0.087738037109375
1695713091492314600,1.840314697265625,0.1025390625,-0.015411376953125,-0.162353515625
1695713091501866800,1.84986669921875,0.01373291015625,0.03631591796875,-0.306549072265625
1695713091511418600,1.859418701171875,-0.03265380859375,0.145263671875,-0.251312255859375
1695713091520970800,1.868970703125,-0.057220458984375,0.317230224609375,-0.0750732421875
1695713091530492200,1.8784921875,-0.043792724609375,0.52459716796875,0.097503662109375
1695713091540044300,1.888044189453125,0.00579833984375,0.710296630859375,0.19744873046875
1695713091549596200,1.89759619140625,-0.00579833984375,0.804443359375,0.23681640625
1695713091559148300,1.907148193359375,-0.058135986328125,0.695953369140625,0.20233154296875
1695713091568700200,1.9167001953125,-0.108489990234375,0.4876708984375,0.108795166015625
1695713091578221800,1.926221923828125,-0.0225830078125,0.185546875,-0.09002685546875
1695713091587773700,1.935773681640625,0.550689697265625,0.08148193359375,-0.234222412109375
1695713091597325800,1.945325927734375,0.82427978515625,0.391693115234375,-0.0421142578125
1695713091606877700,1.954877685546875,1.0882568359375,0.359954833984375,0.045013427734375
1695713091616399000,1.964399169921875,1.38763427734375,0.341644287109375,0.023040771484375
1695713091625951200,1.973951171875,1.51458740234375,0.4254150390625,0.064544677734375
1695713091635503000,1.983503173828125,1.53472900390625,0.585174560546875,0.077972412109375
1695713091645055200,1.99305517578125,1.558685302734375,0.680389404296875,0.099029541015625
1695713091654607000,2.002607177734375,1.622772216796875,0.618438720703125,0.064239501953125
1695713091664128800,2.012128662109375,1.644439697265625,0.55755615234375,0.008697509765625
1695713091673680600,2.0216806640625,1.724090576171875,0.521240234375,-0.09857177734375
1695713091683232800,2.031232666015625,1.8121337890625,0.49713134765625,-0.15106201171875
1695713091692784600,2.04078466796875,1.943206787109375,0.368499755859375,-0.225372314453125
1695713091702306300,2.050306396484375,2.068023681640625,-0.191650390625,-0.22308349609375
1695713091711858200,2.059858154296875,2.067108154296875,-0.51605224609375,-0.22125244140625
1695713091721410300,2.069410400390625,2.028656005859375,-0.395965576171875,-0.1995849609375
1695713091730962200,2.078962158203125,1.949310302734375,0.047607421875,-0.5487060546875
1695713091740514300,2.088514404296875,1.931610107421875,0.332794189453125,-0.643157958984375
1695713091750035700,2.09803564453125,2.154541015625,0.0396728515625,-0.52490234375
1695713091759587600,2.107587646484375,2.58331298828125,0.017547607421875,-0.18035888671875
1695713091769139700,2.1171396484375,2.8460693359375,0.318145751953125,0.414581298828125
1695713091778722300,2.126722412109375,2.83782958984375,0.4827880859375,1.052703857421875
1695713091788243700,2.13624365234375,2.515869140625,0.20416259765625,0.764617919921875
1695713091797795600,2.145795654296875,2.120361328125,-0.776214599609375,-0.241546630859375
1695713091807347700,2.15534765625,1.8408203125,-0.085906982421875,-0.688323974609375
1695713091816899600,2.164899658203125,1.604766845703125,0.50506591796875,-0.377655029296875
1695713091826451700,2.17445166015625,1.47125244140625,0.18157958984375,-0.630035400390625
1695713091835973000,2.18397314453125,1.40106201171875,-0.061187744140625,-0.305328369140625
1695713091845525200,2.193525146484375,1.259918212890625,-0.1727294921875,-0.07659912109375
1695713091855077000,2.2030771484375,1.036376953125,0.14129638671875,0.049285888671875
1695713091864629200,2.212629150390625,0.840911865234375,0.4534912109375,0.394744873046875
1695713091874150700,2.222150634765625,0.523834228515625,-0.043182373046875,0.29266357421875
1695713091883702800,2.231702880859375,0.39093017578125,-0.14129638671875,0.370330810546875
1695713091893254700,2.241254638671875,0.261688232421875,-0.23406982421875,0.433502197265625
1695713091902806800,2.250806884765625,0.10986328125,0.0360107421875,0.333099365234375
1695713091912328200,2.260328125,0.02410888671875,0.268707275390625,0.319061279296875
1695713091921880000,2.269880126953125,-0.040740966796875,0.331573486328125,0.384063720703125
1695713091931432200,2.27943212890625,-0.049591064453125,0.44158935546875,0.501708984375
1695713091940984000,2.288984130859375,0.03936767578125,0.7891845703125,0.694122314453125
1695713091950536200,2.2985361328125,0.230865478515625,1.59210205078125,1.044464111328125
1695713091960057600,2.3080576171875,0.35614013671875,3.06884765625,1.753997802734375
1695713091969609700,2.317609619140625,0.141448974609375,1.417999267578125,1.085052490234375
1695713091979161600,2.32716162109375,0.02838134765625,0.389251708984375,0.710601806640625
1695713091988713700,2.336713623046875,-0.119781494140625,0.353240966796875,0.517578125
1695713091998235100,2.346235107421875,-0.076751708984375,0.4754638671875,0.126953125
1695713092007787300,2.355787353515625,0.139617919921875,0.570068359375,0.048980712890625
1695713092017339100,2.365339111328125,0.306396484375,0.41168212890625,0.19256591796875
1695713092026891300,2.374891357421875,0.34027099609375,0.12481689453125,0.12969970703125
1695713092036443100,2.384443115234375,0.32379150390625,0.1025390625,0.034027099609375
1695713092045964500,2.393964599609375,0.35369873046875,0.220794677734375,0.037994384765625
1695713092055516700,2.4035166015625,0.37750244140625,0.229339599609375,0.087738037109375
1695713092065099300,2.413099365234375,0.3851318359375,0.1300048828125,0.16204833984375
1695713092074651100,2.422651123046875,0.3900146484375,0.05126953125,0.196533203125
1695713092084172500,2.432172607421875,0.38055419921875,0.024871826171875,0.17669677734375
1695713092093724700,2.441724609375,0.31829833984375,0.024566650390625,0.1312255859375
1695713092103276500,2.451276611328125,0.238189697265625,0.011444091796875,0.12115478515625
1695713092112828700,2.46082861328125,0.181732177734375,-0.016632080078125,0.1678466796875
1695713092122380500,2.470380615234375,0.151519775390625,-0.089569091796875,0.19256591796875
1695713092131902200,2.479902099609375,0.165252685546875,-0.082244873046875,0.189208984375
1695713092141454000,2.4894541015625,0.0543212890625,-0.208740234375,0.1470947265625
1695713092151006200,2.499006103515625,-0.006103515625,-0.2093505859375,0.101470947265625
1695713092160558000,2.50855810546875,-0.044403076171875,-0.017852783203125,0.061492919921875
1695713092170079700,2.518079833984375,-0.193023681640625,-0.090484619140625,0.011749267578125
1695713092179631600,2.527631591796875,-0.27923583984375,-0.1312255859375,-0.09552001953125
1695713092189183700,2.537183837890625,-0.399627685546875,-0.14801025390625,-0.16632080078125
1695713092198735600,2.546735595703125,-0.461883544921875,-0.029144287109375,-0.18310546875
1695713092208287700,2.556287841796875,-0.511932373046875,0.059814453125,-0.270843505859375
1695713092217809200,2.56580908203125,-0.5987548828125,0.14404296875,-0.361480712890625
1695713092227361000,2.575361083984375,-0.64727783203125,0.2142333984375,-0.4425048828125
1695713092236913200,2.5849130859375,-0.29296875,0.111083984375,-0.666351318359375
1695713092246465000,2.594465087890625,0.186004638671875,0.08758544921875,-0.82977294921875
1695713092255986700,2.603986572265625,0.167999267578125,0.389862060546875,-0.658721923828125
1695713092265538600,2.61353857421875,0.04730224609375,0.300140380859375,-0.382843017578125
1695713092275090700,2.623090576171875,0.02471923828125,0.05340576171875,-0.302886962890625
1695713092284642600,2.632642578125,0.03326416015625,-0.1275634765625,-0.260772705078125
1695713092294164200,2.642164306640625,0.02838134765625,-0.313568115234375,-0.18341064453125
1695713092303716000,2.651716064453125,0.0115966796875,-0.364837646484375,-0.14190673828125
1695713092313268200,2.661268310546875,-0.00274658203125,-0.26763916015625,0.019073486328125
1695713092322820000,2.670820068359375,-0.00732421875,-0.2752685546875,0.12420654296875
1695713092332372200,2.680372314453125,-0.00579833984375,-0.27862548828125,0.120849609375
1695713092341893600,2.6898935546875,-0.00579833984375,-0.2325439453125,0.091400146484375
1695713092351476200,2.699476318359375,-0.0079345703125,-0.152587890625,0.056304931640625
1695713092361028000,2.709028076171875,-0.0103759765625,-0.118560791015625,0.049591064453125
1695713092370580200,2.718580322265625,-0.01068115234375,-0.122528076171875,0.052947998046875
1695713092380101600,2.7281015625,-0.003662109375,-0.130462646484375,0.056915283203125
1695713092389653500,2.737653564453125,0.0042724609375,-0.12908935546875,0.058441162109375
1695713092399205600,2.74720556640625,0.009765625,-0.116424560546875,0.060882568359375
1695713092408757500,2.756757568359375,0.0115966796875,-0.113372802734375,0.064849853515625
1695713092418309600,2.7663095703125,0.01434326171875,-0.118560791015625,0.066986083984375
1695713092427831000,2.7758310546875,0.01556396484375,-0.111236572265625,0.064544677734375
1695713092437383200,2.785383056640625,0.01495361328125,-0.093841552734375,0.064544677734375
1695713092446935000,2.79493505859375,0.01678466796875,-0.083160400390625,0.073089599609375
1695713092456487200,2.804487060546875,0.015869140625,-0.078582763671875,0.087432861328125
1695713092466008600,2.814008544921875,0.0128173828125,-0.060272216796875,0.095672607421875
1695713092475560700,2.823560791015625,0.018310546875,-0.043487548828125,0.109100341796875
1695713092485112600,2.833112548828125,0.01190185546875,-0.034027099609375,0.11932373046875
1695713092494664700,2.842664794921875,-0.0006103515625,-0.019683837890625,0.12603759765625
1695713092504216600,2.852216552734375,-0.00732421875,0.001373291015625,0.13702392578125
1695713092513738000,2.861738037109375,-0.00946044921875,0.018768310546875,0.15167236328125
1695713092523290000,2.8712900390625,-0.01068115234375,0.024261474609375,0.15960693359375
1695713092532842000,2.880842041015625,-0.01739501953125,0.024261474609375,0.1605224609375
1695713092542394000,2.89039404296875,-0.02838134765625,0.020294189453125,0.1593017578125
1695713092551915500,2.89991552734375,-0.0408935546875,0.017547607421875,0.15167236328125
1695713092561467600,2.909467529296875,-0.051422119140625,0.021820068359375,0.14617919921875
1695713092571019500,2.91901953125,-0.059967041015625,0.024261474609375,0.14495849609375
1695713092580571600,2.928571533203125,-0.064544677734375,0.042724609375,0.14312744140625
1695713092590123500,2.93812353515625,-0.064239501953125,0.05462646484375,0.14007568359375
1695713092599645200,2.947645263671875,-0.063323974609375,0.04547119140625,0.14190673828125
1695713092609197000,2.957197021484375,-0.062103271484375,0.031890869140625,0.14434814453125
1695713092618749200,2.966749267578125,-0.063018798828125,0.019378662109375,0.14007568359375
1695713092628301000,2.976301025390625,-0.066986083984375,0.007476806640625,0.135498046875
1695713092637853200,2.985853271484375,-0.071258544921875,-0.005035400390625,0.1361083984375
1695713092647405000,2.995405029296875,-0.072784423828125,-0.029449462890625,0.14373779296875
1695713092656957200,3.004957275390625,-0.069122314453125,-0.069122314453125,0.15228271484375
1695713092666509000,3.014509033203125,-0.066070556640625,-0.105743408203125,0.1507568359375
1695713092676061200,3.024061279296875,-0.068206787109375,-0.123443603515625,0.14312744140625
1695713092685582600,3.03358251953125,-0.073699951171875,-0.13580322265625,0.1373291015625
1695713092695134500,3.043134521484375,-0.081024169921875,-0.15899658203125,0.135498046875
1695713092704686600,3.0526865234375,-0.085296630859375,-0.17486572265625,0.1361083984375
1695713092714238500,3.062238525390625,-0.088348388671875,-0.186767578125,0.13397216796875
1695713092723760000,3.071760009765625,-0.092620849609375,-0.20416259765625,0.1324462890625
1695713092733312000,3.08131201171875,-0.098114013671875,-0.2276611328125,0.1336669921875
1695713092742864100,3.090864013671875,-0.105133056640625,-0.24688720703125,0.13885498046875
1695713092752416000,3.100416015625,-0.111541748046875,-0.26519775390625,0.145263671875
1695713092761937700,3.109937744140625,-0.115814208984375,-0.28961181640625,0.150146484375
1695713092771489500,3.119489501953125,-0.121002197265625,-0.306243896484375,0.15045166015625
1695713092781041700,3.129041748046875,-0.122222900390625,-0.321197509765625,0.14556884765625
1695713092790593500,3.138593505859375,-0.120391845703125,-0.345306396484375,0.14068603515625
1695713092800145700,3.148145751953125,-0.114288330078125,-0.359954833984375,0.13214111328125
1695713092809667000,3.1576669921875,-0.111236572265625,-0.352935791015625,0.1263427734375
1695713092819219000,3.167218994140625,-0.113372802734375,-0.347137451171875,0.12115478515625
1695713092828771000,3.17677099609375,-0.121307373046875,-0.333709716796875,0.114898681640625
1695713092838323000,3.186322998046875,-0.136871337890625,-0.307464599609375,0.111236572265625
1695713092847844600,3.1958447265625,-0.153961181640625,-0.28289794921875,0.113983154296875
1695713092857396500,3.205396484375,-0.165863037109375,-0.26641845703125,0.119476318359375
1695713092866948600,3.214948486328125,-0.169525146484375,-0.24993896484375,0.1263427734375
1695713092876500500,3.22450048828125,-0.165252685546875,-0.24749755859375,0.140380859375
1695713092886052600,3.234052490234375,-0.162200927734375,-0.2496337890625,0.15777587890625
1695713092895574000,3.243573974609375,-0.164337158203125,-0.24810791015625,0.1788330078125
1695713092905126000,3.2531259765625,-0.164337158203125,-0.240478515625,0.19866943359375
1695713092914678000,3.262677978515625,-0.169219970703125,-0.2301025390625,0.21453857421875
1695713092924260600,3.272260498046875,-0.177154541015625,-0.218505859375,0.22491455078125
1695713092933782000,3.281781982421875,-0.184783935546875,-0.20751953125,0.225830078125
1695713092943334100,3.291334228515625,-0.197296142578125,-0.1983642578125,0.2227783203125
1695713092952886000,3.300885986328125,-0.214385986328125,-0.1959228515625,0.2203369140625
1695713092962438100,3.310438232421875,-0.23406982421875,-0.198974609375,0.223388671875
1695713092971990000,3.319989990234375,-0.2496337890625,-0.21270751953125,0.23406982421875
1695713092981511400,3.329511474609375,-0.2618408203125,-0.23162841796875,0.24169921875
1695713092991063600,3.3390634765625,-0.27069091796875,-0.2545166015625,0.24261474609375
1695713093000615400,3.348615478515625,-0.2783203125,-0.28594970703125,0.24566650390625
1695713093010167600,3.35816748046875,-0.2886962890625,-0.319366455078125,0.24993896484375
1695713093019689000,3.36768896484375,-0.30426025390625,-0.333099365234375,0.25970458984375
1695713093029241000,3.377240966796875,-0.34027099609375,-0.317840576171875,0.27313232421875
1695713093038793000,3.38679296875,-0.36163330078125,-0.29510498046875,0.264892578125
1695713093048345000,3.396344970703125,-0.3790283203125,-0.267333984375,0.25390625
1695713093057897000,3.40589697265625,-0.3948974609375,-0.257568359375,0.2490234375
1695713093067418400,3.41541845703125,-0.403594970703125,-0.26611328125,0.23956298828125
1695713093076970500,3.424970458984375,-0.4071044921875,-0.2801513671875,0.22918701171875
1695713093086522600,3.434522705078125,-0.410919189453125,-0.29388427734375,0.22216796875
1695713093096074500,3.444074462890625,-0.418853759765625,-0.308380126953125,0.21453857421875
1695713093105596000,3.453595947265625,-0.431365966796875,-0.313568115234375,0.20751953125
1695713093115148000,3.46314794921875,-0.446929931640625,-0.30059814453125,0.20355224609375
1695713093124700000,3.472699951171875,-0.464630126953125,-0.24932861328125,0.1995849609375
1695713093134252000,3.482251953125,-0.482330322265625,-0.16510009765625,0.185546875
1695713093143804000,3.491803955078125,-0.498809814453125,-0.056304931640625,0.15716552734375
1695713093153325600,3.50132568359375,-0.500335693359375,0.08270263671875,0.109710693359375
1695713093162877400,3.51087744140625,-0.480499267578125,0.252838134765625,0.050506591796875
1695713093172429600,3.5204296875,-0.434722900390625,0.44281005859375,-0.011444091796875
1695713093181981400,3.5299814453125,-0.3668212890625,0.620574951171875,-0.08026123046875
1695713093191502800,3.5395029296875,-0.2801513671875,0.7745361328125,-0.15167236328125
1695713093201055000,3.549054931640625,-0.184478759765625,0.911865234375,-0.22430419921875
1695713093210637600,3.558637451171875,-0.109710693359375,1.007843017578125,-0.307159423828125
1695713093220189400,3.568189453125,-0.070953369140625,1.025238037109375,-0.413818359375
1695713093229710800,3.5777109375,-0.053253173828125,0.955047607421875,-0.5609130859375
1695713093239263000,3.587262939453125,-0.04119873046875,0.845947265625,-0.754547119140625
1695713093248815000,3.596815185546875,-0.0372314453125,0.752410888671875,-0.978240966796875
1695713093258367000,3.606366943359375,-0.046539306640625,0.718841552734375,-1.21978759765625
1695713093267919000,3.615919189453125,-0.061187744140625,0.731964111328125,-1.482391357421875
1695713093277440500,3.6254404296875,-0.070648193359375,0.75958251953125,-1.745147705078125
1695713093286992400,3.634992431640625,-0.066680908203125,0.82305908203125,-1.97235107421875
1695713093296544500,3.64454443359375,-0.046539306640625,0.911865234375,-2.132110595703125
1695713093306096400,3.654096435546875,0.00244140625,0.965728759765625,-2.24578857421875
1695713093315618000,3.6636181640625,0.0714111328125,0.972137451171875,-2.32086181640625
1695713093325170000,3.673169921875,0.140228271484375,0.935821533203125,-2.3516845703125
1695713093334722000,3.68272216796875,0.195465087890625,0.82763671875,-2.3388671875
1695713093344274000,3.69227392578125,0.213775634765625,0.594024658203125,-2.3004150390625
1695713093353826000,3.701825927734375,0.214080810546875,0.254974365234375,-2.242431640625
1695713093363347500,3.711347412109375,0.225982666015625,-0.072784423828125,-2.161407470703125
1695713093372899300,3.7208994140625,0.208892822265625,-0.194091796875,-2.071685791015625
1695713093382451500,3.730451416015625,0.152435302734375,-0.102081298828125,-1.9921875
1695713093392003600,3.740003662109375,0.142974853515625,-0.037384033203125,-1.9189453125
1695713093401525000,3.74952490234375,0.159149169921875,0.294647216796875,-1.778717041015625
1695713093411076900,3.759076904296875,0.202484130859375,0.639801025390625,-1.6131591796875
1695713093420629000,3.76862890625,0.252838134765625,0.8111572265625,-1.472015380859375
1695713093430180900,3.778180908203125,0.298919677734375,0.865478515625,-1.365509033203125
1695713093439733000,3.78773291015625,0.3582763671875,1.094818115234375,-1.28173828125
1695713093449254400,3.79725439453125,0.4229736328125,1.27593994140625,-1.19293212890625
1695713093458806500,3.806806640625,0.507049560546875,1.478118896484375,-1.103057861328125
1695713093468358400,3.8163583984375,0.586395263671875,1.679534912109375,-1.020965576171875
1695713093477910500,3.82591064453125,0.643463134765625,1.766510009765625,-0.965728759765625
1695713093487432000,3.835431884765625,0.664520263671875,1.708831787109375,-0.928955078125
1695713093497014500,3.8450146484375,0.653839111328125,1.57196044921875,-0.888671875
1695713093506566400,3.85456640625,0.626678466796875,1.433258056640625,-0.8367919921875
1695713093516118500,3.864118408203125,0.601348876953125,1.334686279296875,-0.78765869140625
1695713093525670400,3.87367041015625,0.587310791015625,1.25,-0.747833251953125
1695713093535191800,3.88319189453125,0.581512451171875,1.175537109375,-0.702056884765625
1695713093544744000,3.892743896484375,0.589447021484375,1.14227294921875,-0.660247802734375
1695713093554295800,3.9022958984375,0.614166259765625,1.084136962890625,-0.637359619140625
1695713093563848000,3.911847900390625,0.624237060546875,0.999908447265625,-0.621185302734375
1695713093573369300,3.921369384765625,0.585784912109375,0.92376708984375,-0.57708740234375
1695713093582921500,3.93092138671875,0.530853271484375,0.830078125,-0.50445556640625
1695713093592473300,3.940473388671875,0.47271728515625,0.698699951171875,-0.41168212890625
1695713093602025500,3.950025390625,0.39825439453125,0.560302734375,-0.313568115234375
1695713093611547000,3.959546875,0.323486328125,0.423583984375,-0.20721435546875
1695713093621099000,3.96909912109375,0.262298583984375,0.310211181640625,-0.0921630859375
1695713093630651000,3.97865087890625,0.204925537109375,0.290985107421875,0.008697509765625
1695713093640203000,3.988203125,0.150604248046875,0.314483642578125,0.105438232421875
1695713093649755000,3.9977548828125,0.11688232421875,0.323944091796875,0.21484375
1695713093659276300,4.0072763671875,0.09490966796875,0.331573486328125,0.328521728515625
1695713093668828400,4.016828369140625,0.08453369140625,0.332794189453125,0.424346923828125
1695713093678380300,4.02638037109375,0.0872802734375,0.328216552734375,0.5010986328125
1695713093687932400,4.035932373046875,0.0970458984375,0.312652587890625,0.5621337890625
1695713093697453800,4.045453857421875,0.11199951171875,0.298614501953125,0.609130859375
1695713093707006000,4.055005859375,0.126190185546875,0.290679931640625,0.64422607421875
1695713093716557800,4.064557861328125,0.139007568359375,0.281829833984375,0.673980712890625
1695713093726110000,4.07410986328125,0.150299072265625,0.279693603515625,0.690460205078125
1695713093735661800,4.083661865234375,0.170440673828125,0.273895263671875,0.684051513671875
1695713093745183500,4.09318359375,0.220489501953125,0.264434814453125,0.665130615234375
1695713093754735400,4.1027353515625,0.3082275390625,0.280303955078125,0.63385009765625
1695713093764287500,4.11228759765625,0.4248046875,0.360870361328125,0.5908203125
1695713093773839400,4.12183935546875,0.556488037109375,0.49774169921875,0.53070068359375
1695713093783391500,4.1313916015625,0.67901611328125,0.647430419921875,0.429229736328125
1695713093792943400,4.140943359375,0.75653076171875,0.722198486328125,0.247802734375
1695713093802495500,4.15049560546875,0.78369140625,0.623321533203125,-0.000762939453125
1695713093812047400,4.16004736328125,0.77728271484375,0.376434326171875,-0.275115966796875
1695713093821599500,4.169599609375,0.7464599609375,0.11474609375,-0.51300048828125
1695713093831121000,4.179120849609375,0.6707763671875,-0.076141357421875,-0.669708251953125
1695713093840672800,4.1886728515625,0.546417236328125,-0.1837158203125,-0.713348388671875
1695713093850225000,4.198224853515625,0.3668212890625,-0.142822265625,-0.647735595703125
1695713093859776800,4.20777685546875,0.211029052734375,0.10284423828125,-0.47698974609375
1695713093869298400,4.21729833984375,0.103759765625,0.504150390625,-0.230712890625
1695713093878850300,4.226850341796875,0.0543212890625,0.8966064453125,0.052947998046875
1695713093888402400,4.23640234375,0.0274658203125,1.15264892578125,0.351409912109375
1695713093897954300,4.245954345703125,-0.0030517578125,1.2689208984375,0.6341552734375
1695713093907476000,4.25547607421875,-0.083160400390625,1.15325927734375,0.90545654296875
1695713093917027800,4.26502783203125,-0.28900146484375,0.605010986328125,1.21124267578125
1695713093926580000,4.274580078125,-0.532684326171875,-0.56304931640625,1.514434814453125
1695713093936131800,4.2841318359375,-0.63262939453125,-2.188262939453125,1.480865478515625
1695713093945684000,4.29368408203125,-0.475616455078125,-3.05755615234375,0.837860107421875
1695713093955205400,4.303205322265625,-0.105743408203125,-1.869354248046875,-0.318450927734375
1695713093964757200,4.31275732421875,0.237274169921875,-0.003204345703125,-1.1376953125
1695713093974309400,4.322309326171875,0.269012451171875,0.1727294921875,-0.593719482421875
1695713093983861200,4.331861328125,-0.03082275390625,-0.64056396484375,0.60302734375
1695713093993383000,4.3413828125,-0.459136962890625,-1.165618896484375,1.379852294921875
1695713094002934800,4.350934814453125,-0.74951171875,-0.9075927734375,1.457366943359375
1695713094012487000,4.36048681640625,-0.883636474609375,0.047607421875,1.127166748046875
1695713094022038800,4.370038818359375,-0.931854248046875,0.628204345703125,0.9857177734375
1695713094031591000,4.3795908203125,-0.879974365234375,0.17547607421875,1.19384765625
1695713094041112300,4.3891123046875,-0.71319580078125,-0.836944580078125,1.528472900390625
1695713094050664400,4.39866455078125,-0.428009033203125,-1.828765869140625,1.739654541015625
1695713094060216300,4.40821630859375,-0.02197265625,-2.30926513671875,1.743011474609375
1695713094069799000,4.417798828125,0.386962890625,-1.828155517578125,1.511993408203125
1695713094079320300,4.4273203125,0.584869384765625,-0.690765380859375,1.088409423828125
1695713094088872400,4.43687255859375,0.47698974609375,0.08331298828125,0.8795166015625
1695713094098424300,4.44642431640625,0.189666748046875,0.11871337890625,0.96771240234375
1695713094107976400,4.4559765625,-0.095977783203125,-0.402374267578125,1.124725341796875
1695713094117528300,4.4655283203125,-0.3057861328125,-1.132049560546875,1.21551513671875
1695713094127049700,4.4750498046875,-0.437774658203125,-1.67327880859375,1.25701904296875
1695713094136601900,4.484601806640625,-0.490264892578125,-1.828765869140625,1.2677001953125
1695713094146153700,4.49415380859375,-0.440826416015625,-1.6326904296875,1.22283935546875
1695713094155705900,4.503705810546875,-0.3045654296875,-1.24786376953125,1.151580810546875
1695713094165227300,4.513227294921875,-0.160980224609375,-0.9027099609375,1.101531982421875
1695713094174779400,4.522779296875,-0.097198486328125,-0.745086669921875,1.096649169921875
1695713094184331300,4.532331298828125,-0.118255615234375,-0.734710693359375,1.120758056640625
1695713094193883400,4.54188330078125,-0.180206298828125,-0.779571533203125,1.139373779296875
1695713094203435300,4.551435302734375,-0.2581787109375,-0.86822509765625,1.107330322265625
1695713094212957000,4.56095703125,-0.3155517578125,-0.90972900390625,1.059722900390625
1695713094222508800,4.5705087890625,-0.34027099609375,-0.86517333984375,1.029510498046875
1695713094232061000,4.58006103515625,-0.32470703125,-0.742340087890625,1.021270751953125
1695713094241612800,4.58961279296875,-0.2813720703125,-0.56976318359375,1.017913818359375
1695713094251134200,4.59913427734375,-0.2398681640625,-0.422821044921875,1.002197265625
1695713094260686300,4.608686279296875,-0.2288818359375,-0.346527099609375,0.96649169921875
1695713094270238200,4.61823828125,-0.25421142578125,-0.359649658203125,0.92376708984375
1695713094279790300,4.627790283203125,-0.289306640625,-0.403289794921875,0.90606689453125
1695713094289342200,4.63734228515625,-0.3179931640625,-0.411529541015625,0.8929443359375
1695713094298863900,4.64686376953125,-0.34027099609375,-0.378265380859375,0.86578369140625
1695713094308415700,4.656415771484375,-0.36407470703125,-0.353851318359375,0.820465087890625
1695713094317968000,4.6659677734375,-0.400848388671875,-0.366058349609375,0.769500732421875
1695713094327519700,4.675519775390625,-0.438690185546875,-0.413665771484375,0.728302001953125
1695713094337041400,4.68504150390625,-0.477752685546875,-0.452423095703125,0.706329345703125
1695713094346623700,4.694623779296875,-0.514984130859375,-0.427703857421875,0.703582763671875
1695713094356176000,4.70417578125,-0.540924072265625,-0.399932861328125,0.678863525390625
1695713094365727700,4.713727783203125,-0.552520751953125,-0.420684814453125,0.63690185546875
1695713094375249400,4.72324951171875,-0.552215576171875,-0.475616455078125,0.59051513671875
1695713094384801300,4.73280126953125,-0.532379150390625,-0.5340576171875,0.52520751953125
1695713094394353400,4.742353515625,-0.485687255859375,-0.5377197265625,0.443878173828125
1695713094403905300,4.7519052734375,-0.428924560546875,-0.49835205078125,0.377655029296875
1695713094413457400,4.76145751953125,-0.3826904296875,-0.471954345703125,0.326385498046875
1695713094422978800,4.770978759765625,-0.36865234375,-0.479888916015625,0.267333984375
1695713094432530700,4.78053076171875,-0.39215087890625,-0.50567626953125,0.18585205078125
1695713094442082800,4.790082763671875,-0.436553955078125,-0.528564453125,0.092010498046875
1695713094451634700,4.799634765625,-0.485382080078125,-0.53741455078125,0.011138916015625
1695713094461156400,4.80915625,-0.531768798828125,-0.537109375,-0.0567626953125
1695713094470708200,4.818708251953125,-0.572662353515625,-0.56121826171875,-0.14007568359375
1695713094480260400,4.82826025390625,-0.60577392578125,-0.6207275390625,-0.264434814453125
1695713094489812200,4.837812255859375,-0.6219482421875,-0.684967041015625,-0.4278564453125
1695713094499364400,4.8473642578125,-0.59967041015625,-0.6634521484375,-0.608978271484375
1695713094508885800,4.8568857421875,-0.499114990234375,-0.52947998046875,-0.80596923828125
1695713094518438000,4.86643798828125,-0.330810546875,-0.26580810546875,-1.034393310546875
1695713094527989800,4.87598974609375,-0.129241943359375,0.13641357421875,-1.2738037109375
1695713094537542000,4.8855419921875,0.09521484375,0.607757568359375,-1.5185546875
1695713094547063300,4.895063232421875,0.340576171875,1.043853759765625,-1.782073974609375
1695713094556615200,4.904615234375,0.545501708984375,1.414947509765625,-2.066802978515625
1695713094566167300,4.914167236328125,0.6658935546875,1.65679931640625,-2.34100341796875
1695713094575719200,4.92371923828125,0.699462890625,1.701507568359375,-2.56317138671875
1695713094585271300,4.933271240234375,0.627593994140625,1.60736083984375,-2.72979736328125
1695713094594792700,4.942792724609375,0.4571533203125,1.457061767578125,-2.813568115234375
1695713094604344800,4.9523447265625,0.213775634765625,1.312408447265625,-2.793731689453125
1695713094613896700,4.961896728515625,-0.084991455078125,1.1407470703125,-2.72003173828125
1695713094623448800,4.97144873046875,-0.38848876953125,0.9173583984375,-2.62603759765625
1695713094633000700,4.981000732421875,-0.59967041015625,0.589447021484375,-2.537078857421875
1695713094642552800,4.990552734375,-0.64056396484375,0.0787353515625,-2.465362548828125
1695713094652104700,5.000104736328125,-0.529327392578125,-0.56396484375,-2.405242919921875
1695713094661656800,5.00965673828125,-0.3521728515625,-1.201019287109375,-2.29766845703125
1695713094671208700,5.019208740234375,-0.180816650390625,-1.552581787109375,-2.090301513671875
1695713094680730400,5.02873046875,-0.083465576171875,-1.413726806640625,-1.831512451171875
1695713094690282200,5.0382822265625,-0.058746337890625,-0.778350830078125,-1.63848876953125
1695713094699834400,5.04783447265625,-0.0213623046875,0.241241455078125,-1.56036376953125
1695713094709386200,5.05738623046875,0.101318359375,1.420135498046875,-1.593017578125
1695713094718907600,5.06690771484375,0.272369384765625,2.20794677734375,-1.819915771484375
1695713094728459800,5.076459716796875,0.41107177734375,2.414703369140625,-2.098541259765625
1695713094738011600,5.08601171875,0.42236328125,2.142486572265625,-2.132110595703125
1695713094747563800,5.095563720703125,0.3338623046875,1.58905029296875,-1.822357177734375
1695713094757085200,5.105085205078125,0.33905029296875,1.433563232421875,-1.6143798828125
1695713094766637300,5.11463720703125,0.4144287109375,1.391143798828125,-1.409454345703125
1695713094776189200,5.124189208984375,0.502777099609375,1.421966552734375,-1.25335693359375
1695713094785741300,5.1337412109375,0.559539794921875,1.324615478515625,-1.087799072265625
1695713094795293200,5.143293212890625,0.588836669921875,0.954742431640625,-0.794677734375
1695713094804814800,5.15281494140625,0.648956298828125,0.969696044921875,-0.654754638671875
1695713094814366700,5.16236669921875,0.624847412109375,1.303253173828125,-0.665435791015625
1695713094823918800,5.1719189453125,0.572967529296875,1.381378173828125,-0.636138916015625
1695713094833470700,5.181470703125,0.530853271484375,1.379547119140625,-0.592193603515625
1695713094843022800,5.19102294921875,0.488739013671875,1.311492919921875,-0.513916015625
1695713094852544300,5.200544189453125,0.4437255859375,1.15966796875,-0.379791259765625
1695713094862096100,5.21009619140625,0.39520263671875,0.93048095703125,-0.19378662109375
1695713094871648300,5.219648193359375,0.34393310546875,0.670623779296875,0.030975341796875
1695713094881200000,5.2292001953125,0.294952392578125,0.430908203125,0.272216796875
1695713094890721800,5.2387216796875,0.250091552734375,0.247955322265625,0.52276611328125
1695713094900273700,5.248273681640625,0.209808349609375,0.113525390625,0.764312744140625
1695713094909825800,5.25782568359375,0.179290771484375,0.019989013671875,0.98114013671875
1695713094919377700,5.267377685546875,0.165557861328125,-0.038604736328125,1.157989501953125
1695713094928929800,5.2769296875,0.168304443359375,-0.038604736328125,1.29364013671875
1695713094938481700,5.286481689453125,0.188446044921875,0.07659912109375,1.389007568359375
1695713094948033800,5.29603369140625,0.200347900390625,0.281219482421875,1.416778564453125
1695713094957585700,5.305585693359375,0.187530517578125,0.498046875,1.36077880859375
1695713094967137800,5.3151376953125,0.184783935546875,0.688629150390625,1.2213134765625
1695713094976659200,5.3246591796875,0.233306884765625,0.86029052734375,0.9942626953125
1695713094986211300,5.33421142578125,0.34454345703125,1.016693115234375,0.64422607421875
1695713094995763200,5.34376318359375,0.46783447265625,1.13037109375,0.162353515625
1695713095005315300,5.3533154296875,0.575408935546875,1.094512939453125,-0.355377197265625
1695713095014836700,5.362836669921875,0.6939697265625,0.78216552734375,-0.731353759765625
1695713095024388600,5.372388671875,0.80963134765625,0.17822265625,-0.84625244140625
1695713095033940700,5.381940673828125,0.865020751953125,-0.427703857421875,-0.739898681640625
1695713095043492600,5.39149267578125,0.8306884765625,-0.58685302734375,-0.565185546875
1695713095053044700,5.401044677734375,0.714111328125,-0.20050048828125,-0.388946533203125
1695713095062566100,5.410566162109375,0.567169189453125,0.4547119140625,-0.18798828125
1695713095072118300,5.4201181640625,0.4705810546875,1.066741943359375,0.044097900390625
1695713095081670100,5.429670166015625,0.43701171875,1.53289794921875,0.28106689453125
1695713095091222300,5.43922216796875,0.41168212890625,1.83380126953125,0.5670166015625
1695713095100743700,5.44874365234375,0.32318115234375,1.812896728515625,0.98785400390625
1695713095110295800,5.4582958984375,0.12237548828125,0.92437744140625,1.58416748046875
1695713095119847700,5.46784765625,-0.26458740234375,-1.094818115234375,2.041015625
1695713095129399800,5.47739990234375,-0.6787109375,-3.270111083984375,1.831817626953125
1695713095138951700,5.48695166015625,-0.791473388671875,-3.583221435546875,0.5426025390625
1695713095148473000,5.49647314453125,-0.3924560546875,-0.797271728515625,-1.371917724609375
1695713095158025200,5.506025146484375,0.3363037109375,1.507568359375,-1.568603515625
1695713095167577000,5.5155771484375,0.438232421875,1.20330810546875,-0.036468505859375
1695713095177129200,5.525129150390625,0.123291015625,0.42938232421875,1.420440673828125
1695713095186650600,5.534650634765625,-0.131378173828125,0.11138916015625,1.804351806640625
1695713095196202800,5.54420263671875,-0.30426025390625,0.44677734375,1.3519287109375
1695713095205785000,5.55378515625,-0.63018798828125,0.17120361328125,1.069488525390625
1695713095215337200,5.563337158203125,-0.94970703125,-0.837860107421875,1.436920166015625
1695713095224889000,5.57288916015625,-1.051025390625,-1.774444580078125,2.0098876953125
1695713095234410800,5.58241064453125,-0.849456787109375,-2.4371337890625,2.3602294921875
1695713095243962600,5.591962646484375,-0.415496826171875,-2.488861083984375,2.249298095703125
1695713095253514800,5.6015146484375,0.08331298828125,-1.505584716796875,1.73614501953125
1695713095263066600,5.611066650390625,0.3070068359375,-0.047149658203125,1.183624267578125
1695713095272588300,5.62058837890625,0.230865478515625,0.729827880859375,1.00433349609375
1695713095282140200,5.63014013671875,0.0775146484375,0.671234130859375,1.179351806640625
1695713095291692300,5.6396923828125,-0.00762939453125,0.268096923828125,1.461029052734375
1695713095301244200,5.649244140625,-0.056304931640625,-0.1300048828125,1.669921875
1695713095310765600,5.658765625,-0.160064697265625,-0.427703857421875,1.710205078125
1695713095320317700,5.668317626953125,-0.28106689453125,-0.5303955078125,1.6473388671875
1695713095329869600,5.67786962890625,-0.35736083984375,-0.476837158203125,1.543121337890625
1695713095339421700,5.687421630859375,-0.338134765625,-0.283203125,1.450653076171875
1695713095348973600,5.6969736328125,-0.25115966796875,-0.1422119140625,1.402740478515625
1695713095358495200,5.7064951171875,-0.151519775390625,-0.1922607421875,1.374359130859375
1695713095368047000,5.716047119140625,-0.088043212890625,-0.341644287109375,1.3507080078125
1695713095377599200,5.72559912109375,-0.095367431640625,-0.358734130859375,1.334228515625
1695713095387151000,5.735151123046875,-0.152740478515625,-0.2618408203125,1.30859375
1695713095396672800,5.7446728515625,-0.2301025390625,-0.19287109375,1.25274658203125
1695713095406224600,5.754224609375,-0.29541015625,-0.18341064453125,1.182403564453125
1695713095415776800,5.76377685546875,-0.33355712890625,-0.23193359375,1.115570068359375
1695713095425328600,5.77332861328125,-0.355224609375,-0.29693603515625,1.074371337890625
1695713095434880800,5.782880859375,-0.37567138671875,-0.377960205078125,1.063079833984375
1695713095444402200,5.792402099609375,-0.39947509765625,-0.468292236328125,1.078033447265625
1695713095453954000,5.8019541015625,-0.433807373046875,-0.5255126953125,1.098480224609375
1695713095463506200,5.811506103515625,-0.470428466796875,-0.4986572265625,1.119537353515625
1695713095473058000,5.82105810546875,-0.503997802734375,-0.424041748046875,1.144256591796875
1695713095482579700,5.830579833984375,-0.529632568359375,-0.368499755859375,1.153106689453125
1695713095492162000,5.840162109375,-0.547943115234375,-0.385284423828125,1.122283935546875
1695713095501714200,5.849714111328125,-0.560150146484375,-0.446929931640625,1.045989990234375
1695713095511266000,5.85926611328125,-0.58197021484375,-0.50567626953125,0.93963623046875
1695713095520818200,5.868818115234375,-0.6201171875,-0.54107666015625,0.812530517578125
1695713095530339600,5.878339599609375,-0.655517578125,-0.5615234375,0.681610107421875
1695713095539891700,5.8878916015625,-0.66741943359375,-0.56182861328125,0.57159423828125
1695713095549443600,5.897443603515625,-0.62408447265625,-0.55877685546875,0.49072265625
1695713095558995700,5.90699560546875,-0.550079345703125,-0.543212890625,0.427398681640625
1695713095568517000,5.91651708984375,-0.480499267578125,-0.50201416015625,0.363616943359375
1695713095578069200,5.9260693359375,-0.443267822265625,-0.451812744140625,0.28350830078125
1695713095587621000,5.93562109375,-0.447235107421875,-0.417633056640625,0.18768310546875
1695713095597173200,5.94517333984375,-0.456390380859375,-0.391387939453125,0.083160400390625
1695713095606725000,5.95472509765625,-0.447540283203125,-0.330047607421875,-0.023040771484375
1695713095616246500,5.96424658203125,-0.405731201171875,-0.27618408203125,-0.13092041015625
1695713095625798700,5.973798583984375,-0.2972412109375,-0.274658203125,-0.269622802734375
1695713095635350500,5.9833505859375,-0.117034912109375,-0.25848388671875,-0.457763671875
1695713095644902700,5.992902587890625,0.06866455078125,-0.157470703125,-0.679168701171875
1695713095654424000,6.002424072265625,0.186004638671875,0.017242431640625,-0.92742919921875
1695713095663976200,6.01197607421875,0.264129638671875,0.20751953125,-1.2103271484375
1695713095673528000,6.021528076171875,0.36529541015625,0.382232666015625,-1.5350341796875
1695713095683080200,6.031080078125,0.4388427734375,0.49774169921875,-1.86981201171875
1695713095692601600,6.0406015625,0.42449951171875,0.53497314453125,-2.180633544921875
1695713095702153700,6.05015380859375,0.357666015625,0.49072265625,-2.452545166015625
1695713095711705600,6.05970556640625,0.293731689453125,0.390167236328125,-2.691650390625
1695713095721257700,6.0692578125,0.248260498046875,0.258026123046875,-2.871246337890625
1695713095730809600,6.0788095703125,0.170440673828125,0.030364990234375,-2.99560546875
1695713095740331000,6.0883310546875,0.09796142578125,-0.2978515625,-3.06427001953125
1695713095749883100,6.097883056640625,0.05157470703125,-0.584716796875,-3.01300048828125
1695713095759435000,6.10743505859375,0.01739501953125,-0.710296630859375,-2.827606201171875
1695713095768987100,6.116987060546875,0.00823974609375,-0.788116455078125,-2.5830078125
1695713095778539000,6.1265390625,-0.01373291015625,-1.127166748046875,-2.411956787109375
1695713095788091100,6.136091064453125,-0.03082275390625,-1.60003662109375,-2.30865478515625
1695713095797643000,6.14564306640625,0.00823974609375,-1.922607421875,-2.21954345703125
1695713095807195100,6.155195068359375,0.04791259765625,-1.92840576171875,-2.113494873046875
1695713095816747000,6.1647470703125,0.0439453125,-1.454010009765625,-1.9775390625
1695713095826268700,6.1742685546875,0.0799560546875,-0.574951171875,-1.8865966796875
1695713095835820500,6.183820556640625,0.202789306640625,0.4522705078125,-1.89422607421875
1695713095845372700,6.19337255859375,0.33172607421875,1.369171142578125,-1.98211669921875
1695713095854924500,6.202924560546875,0.3656005859375,1.779327392578125,-2.198944091796875
1695713095864446200,6.2124462890625,0.38848876953125,0.972747802734375,-2.045745849609375
1695713095873998000,6.221998046875,0.40435791015625,0.0799560546875,-1.803741455078125
1695713095883550200,6.23155029296875,0.31829833984375,0.379180908203125,-1.727752685546875
1695713095893102000,6.24110205078125,0.200653076171875,1.15447998046875,-1.677703857421875
1695713095902654200,6.250654296875,0.251312255859375,1.56402587890625,-1.6107177734375
1695713095912175600,6.260175537109375,0.33477783203125,1.8994140625,-1.61346435546875
1695713095921727500,6.2697275390625,0.4071044921875,1.671295166015625,-1.406707763671875
1695713095931279600,6.279279541015625,0.521087646484375,1.2872314453125,-1.1322021484375
1695713095940831500,6.28883154296875,0.615997314453125,1.066131591796875,-0.8465576171875
1695713095950353200,6.298353271484375,0.6640625,1.006927490234375,-0.608978271484375
1695713095959905000,6.307905029296875,0.67230224609375,1.014251708984375,-0.44189453125
1695713095969457200,6.31745703125,0.645294189453125,1.031341552734375,-0.315704345703125
1695713095979009000,6.327009033203125,0.594329833984375,1.001129150390625,-0.1849365234375
1695713095988561200,6.33656103515625,0.531158447265625,0.88623046875,-0.009613037109375
1695713095998082600,6.34608251953125,0.4730224609375,0.688323974609375,0.23284912109375
1695713096007634400,6.355634521484375,0.413818359375,0.44952392578125,0.53375244140625
1695713096017186600,6.3651865234375,0.3668212890625,0.258026123046875,0.87158203125
1695713096026738700,6.37473876953125,0.34759521484375,0.15625,1.22467041015625
1695713096036260000,6.384260009765625,0.34210205078125,0.126953125,1.57440185546875
1695713096045812000,6.39381201171875,0.34332275390625,0.19866943359375,1.888885498046875
1695713096055364000,6.403364013671875,0.35369873046875,0.353851318359375,2.126312255859375
1695713096064916000,6.412916015625,0.37384033203125,0.54656982421875,2.223052978515625
1695713096074468000,6.422468017578125,0.4022216796875,0.731048583984375,2.095794677734375
1695713096084020000,6.43202001953125,0.433349609375,0.8697509765625,1.70135498046875
1695713096093572000,6.441572021484375,0.44891357421875,0.937957763671875,1.087493896484375
1695713096103124000,6.4511240234375,0.435791015625,1.019744873046875,0.317230224609375
1695713096112676000,6.460676025390625,0.3839111328125,1.110382080078125,-0.639495849609375
1695713096122197500,6.470197509765625,0.37261962890625,1.035919189453125,-1.479339599609375
1695713096131749600,6.47974951171875,0.496978759765625,0.45135498046875,-1.6461181640625
1695713096141301500,6.489301513671875,0.644378662109375,-0.453643798828125,-1.2322998046875
1695713096150853600,6.498853515625,0.69183349609375,-0.928955078125,-0.77850341796875
1695713096160375000,6.508375,0.550994873046875,-0.61614990234375,-0.57464599609375
1695713096169927200,6.51792724609375,0.288543701171875,0.03448486328125,-0.50933837890625
1695713096179479000,6.52747900390625,0.113525390625,0.5377197265625,-0.4156494140625
1695713096189031200,6.53703125,0.04364013671875,0.937652587890625,-0.12603759765625
1695713096198583000,6.5465830078125,-0.195159912109375,1.28387451171875,0.338592529296875
1695713096208104400,6.5561044921875,-0.611572265625,1.21002197265625,1.002197265625
1695713096217656600,6.565656494140625,-1.06292724609375,0.194091796875,1.876373291015625
1695713096227208400,6.57520849609375,-1.251373291015625,-1.97174072265625,2.08587646484375
1695713096236760600,6.584760498046875,-0.843048095703125,-3.284454345703125,0.799407958984375
1695713096246282000,6.594281982421875,-0.124359130859375,-1.31866455078125,-1.088714599609375
1695713096255834000,6.603834228515625,0.43609619140625,0.77484130859375,-1.104583740234375
1695713096265386000,6.613385986328125,0.573883056640625,-0.027313232421875,0.618896484375
1695713096274938000,6.622938232421875,0.40130615234375,-0.989990234375,1.902618408203125
1695713096284490000,6.632489990234375,0.147857666015625,-0.95001220703125,1.9561767578125
1695713096294011400,6.642011474609375,-0.133209228515625,-0.28778076171875,1.24298095703125
1695713096303563500,6.6515634765625,-0.511322021484375,-0.057830810546875,0.800323486328125
1695713096313115400,6.661115478515625,-0.841217041015625,-0.51422119140625,1.2408447265625
1695713096322667500,6.67066748046875,-0.9588623046875,-1.136016845703125,2.0538330078125
1695713096332189000,6.68018896484375,-0.791778564453125,-1.70684814453125,2.624053955078125
1695713096341741000,6.689740966796875,-0.3826904296875,-1.9915771484375,2.589263916015625
1695713096351323600,6.69932373046875,0.132904052734375,-1.72210693359375,1.98272705078125
1695713096360875500,6.70887548828125,0.3668212890625,-1.093902587890625,1.3238525390625
1695713096370427600,6.718427734375,0.31646728515625,-0.64910888671875,1.095733642578125
1695713096379949000,6.727948974609375,0.194549560546875,-0.443267822265625,1.20574951171875
1695713096389501000,6.7375009765625,0.10894775390625,-0.327606201171875,1.480560302734375
1695713096399053000,6.747052978515625,0.0384521484375,-0.412750244140625,1.7315673828125
1695713096408605000,6.75660498046875,-0.065765380859375,-0.648193359375,1.815948486328125
1695713096418126600,6.766126708984375,-0.176239013671875,-0.810394287109375,1.766510009765625
1695713096427678500,6.775678466796875,-0.24383544921875,-0.87249755859375,1.65557861328125
1695713096437230600,6.785230712890625,-0.2508544921875,-0.822601318359375,1.513824462890625
1695713096446782500,6.794782470703125,-0.211639404296875,-0.745086669921875,1.407623291015625
1695713096456303900,6.804303955078125,-0.157928466796875,-0.751495361328125,1.35955810546875
1695713096465856000,6.81385595703125,-0.143890380859375,-0.8544921875,1.35406494140625
1695713096475408000,6.823407958984375,-0.180511474609375,-0.91888427734375,1.34796142578125
1695713096484960000,6.8329599609375,-0.23040771484375,-0.84930419921875,1.30615234375
1695713096494512000,6.84251220703125,-0.2728271484375,-0.767364501953125,1.24786376953125
1695713096504033500,6.852033447265625,-0.30364990234375,-0.682220458984375,1.19873046875
1695713096513585400,6.86158544921875,-0.31951904296875,-0.5340576171875,1.179962158203125
1695713096523137500,6.871137451171875,-0.3375244140625,-0.417938232421875,1.168060302734375
1695713096532689400,6.880689453125,-0.36163330078125,-0.337066650390625,1.154022216796875
1695713096542211000,6.890211181640625,-0.3765869140625,-0.29998779296875,1.158905029296875
1695713096551763000,6.899762939453125,-0.39154052734375,-0.331573486328125,1.165313720703125
1695713096561315000,6.909315185546875,-0.412139892578125,-0.372161865234375,1.164703369140625
1695713096570867000,6.918866943359375,-0.437469482421875,-0.366973876953125,1.167144775390625
1695713096580419000,6.928419189453125,-0.465850830078125,-0.338592529296875,1.165008544921875
1695713096589940500,6.9379404296875,-0.496063232421875,-0.323028564453125,1.146392822265625
1695713096599492400,6.947492431640625,-0.526275634765625,-0.318450927734375,1.106109619140625
1695713096609044500,6.95704443359375,-0.555267333984375,-0.333709716796875,1.033782958984375
1695713096618596400,6.966596435546875,-0.58349609375,-0.364837646484375,0.94085693359375
1695713096628118000,6.976117919921875,-0.61248779296875,-0.374603271484375,0.827789306640625
1695713096637700400,6.985700439453125,-0.6121826171875,-0.370330810546875,0.701751708984375
1695713096647252500,6.99525244140625,-0.562286376953125,-0.360870361328125,0.58746337890625
1695713096656804600,7.0048046875,-0.482940673828125,-0.2996826171875,0.4931640625
1695713096666356500,7.0143564453125,-0.423431396484375,-0.2099609375,0.412445068359375
1695713096675878000,7.0238779296875,-0.3973388671875,-0.19866943359375,0.331268310546875
1695713096685430000,7.033429931640625,-0.415496826171875,-0.30181884765625,0.24078369140625
1695713096694982000,7.04298193359375,-0.448455810546875,-0.444488525390625,0.14617919921875
1695713096704534000,7.052533935546875,-0.460968017578125,-0.52886962890625,0.061798095703125
1695713096714055400,7.062055419921875,-0.436248779296875,-0.5718994140625,-0.020904541015625
1695713096723607600,7.071607666015625,-0.386962890625,-0.609130859375,-0.11688232421875
1695713096733159400,7.081159423828125,-0.3082275390625,-0.60302734375,-0.245819091796875
1695713096742711600,7.090711669921875,-0.170745849609375,-0.51483154296875,-0.4119873046875
1695713096752263400,7.100263427734375,-0.020751953125,-0.388031005859375,-0.609283447265625
1695713096761784800,7.109784912109375,0.06378173828125,-0.21484375,-0.86944580078125
1695713096771337000,7.1193369140625,0.11505126953125,-0.021209716796875,-1.1932373046875
1695713096780888800,7.128888916015625,0.193328857421875,0.172119140625,-1.5313720703125
1695713096790441000,7.13844091796875,0.286102294921875,0.358123779296875,-1.84906005859375
1695713096799962400,7.14796240234375,0.361328125,0.48248291015625,-2.111663818359375
1695713096809514500,7.157514404296875,0.4376220703125,0.5224609375,-2.308349609375
1695713096819066400,7.16706640625,0.46142578125,0.52978515625,-2.504425048828125
1695713096828618500,7.176618408203125,0.384521484375,0.5242919921875,-2.751312255859375
1695713096838140000,7.186139892578125,0.242462158203125,0.372772216796875,-3.0133056640625
1695713096847692000,7.195692138671875,0.06378173828125,0.013275146484375,-3.177642822265625
1695713096857244000,7.205243896484375,-0.076446533203125,-0.396575927734375,-3.197174072265625
1695713096866796000,7.214796142578125,-0.116729736328125,-0.6341552734375,-3.07952880859375
1695713096876348000,7.224347900390625,-0.073089599609375,-0.752410888671875,-2.851104736328125
1695713096885869300,7.233869384765625,-0.01373291015625,-0.97442626953125,-2.554168701171875
1695713096895421400,7.24342138671875,0.0250244140625,-1.31591796875,-2.27935791015625
1695713096904973300,7.252973388671875,0.00213623046875,-1.60614013671875,-2.076263427734375
1695713096914525400,7.262525390625,-0.084991455078125,-1.7047119140625,-1.94427490234375
1695713096924077300,7.272077392578125,-0.181427001953125,-1.462554931640625,-1.91925048828125
1695713096933629400,7.28162939453125,-0.177154541015625,-0.735626220703125,-1.92108154296875
1695713096943181300,7.291181396484375,-0.036468505859375,0.423583984375,-1.89788818359375
1695713096952733400,7.3007333984375,0.1123046875,1.5447998046875,-1.94793701171875
1695713096962285300,7.310285400390625,0.10528564453125,2.176361083984375,-2.165985107421875
1695713096971807000,7.319806884765625,0.06103515625,2.094268798828125,-2.467498779296875
1695713096981358800,7.32935888671875,0.07720947265625,1.58935546875,-2.64556884765625
1695713096990911000,7.338910888671875,0.147552490234375,1.091766357421875,-2.60040283203125
1695713097000462800,7.348462890625,0.211029052734375,0.8123779296875,-2.35626220703125
1695713097009984500,7.357984619140625,0.259857177734375,0.7763671875,-1.97967529296875
1695713097019536400,7.367536376953125,0.31097412109375,0.8099365234375,-1.57958984375
1695713097029088500,7.377088623046875,0.3863525390625,0.78125,-1.24420166015625
1695713097038640400,7.386640380859375,0.480194091796875,0.755462646484375,-0.991363525390625
1695713097048192500,7.396192626953125,0.551300048828125,0.810546875,-0.82305908203125
1695713097057714000,7.4057138671875,0.561981201171875,0.9234619140625,-0.707244873046875
1695713097067265800,7.415265869140625,0.540924072265625,1.012420654296875,-0.615997314453125
1695713097076818000,7.42481787109375,0.514373779296875,1.033172607421875,-0.52490234375
1695713097086369800,7.434369873046875,0.478515625,1.000518798828125,-0.403594970703125
1695713097095891500,7.443891357421875,0.43701171875,0.941619873046875,-0.239410400390625
1695713097105443300,7.453443359375,0.39215087890625,0.843505859375,-0.024871826171875
1695713097114995500,7.462995361328125,0.3546142578125,0.725250244140625,0.23712158203125
1695713097124547300,7.47254736328125,0.3302001953125,0.618743896484375,0.53192138671875
1695713097134099500,7.482099365234375,0.32318115234375,0.548095703125,0.85723876953125
1695713097143620900,7.491620849609375,0.3204345703125,0.53192138671875,1.201171875
1695713097153173000,7.501173095703125,0.32135009765625,0.584564208984375,1.525421142578125
1695713097162724900,7.510724853515625,0.33111572265625,0.701751708984375,1.785125732421875
1695713097172246300,7.520246337890625,0.34149169921875,0.8367919921875,1.94488525390625
1695713097181798400,7.52979833984375,0.33782958984375,0.9356689453125,1.95526123046875
1695713097191350300,7.539350341796875,0.3411865234375,0.954742431640625,1.779327392578125
1695713097200902400,7.54890234375,0.37384033203125,0.87554931640625,1.404876708984375
1695713097210454300,7.558454345703125,0.4290771484375,0.83160400390625,0.835723876953125
1695713097220006400,7.56800634765625,0.4425048828125,0.88134765625,0.076751708984375
1695713097229558300,7.577558349609375,0.4150390625,1.012725830078125,-0.77606201171875
1695713097239110400,7.5871103515625,0.404052734375,0.938720703125,-1.363372802734375
1695713097248662300,7.596662353515625,0.495452880859375,0.41259765625,-1.406402587890625
1695713097258214400,7.60621435546875,0.606536865234375,-0.386810302734375,-1.084747314453125
1695713097267735800,7.61573583984375,0.632781982421875,-0.870361328125,-0.7745361328125
1695713097277288000,7.625287841796875,0.495147705078125,-0.731964111328125,-0.665130615234375
1695713097286839800,7.63483984375,0.256500244140625,-0.309295654296875,-0.619659423828125
1695713097296392000,7.644391845703125,0.118865966796875,0.15960693359375,-0.51513671875
1695713097305943800,7.65394384765625,0.10162353515625,0.677032470703125,-0.329437255859375
1695713097315465500,7.663465576171875,0.0103759765625,1.253662109375,-0.09521484375
1695713097325017300,7.673017333984375,-0.139007568359375,1.663970947265625,0.17547607421875
1695713097334569500,7.682569580078125,-0.277099609375,1.59149169921875,0.54168701171875
1695713097344121300,7.692121337890625,-0.3082275390625,0.4522705078125,0.774688720703125
1695713097353642800,7.701642822265625,-0.179290771484375,-1.3006591796875,0.65582275390625
1695713097363195000,7.71119482421875,-0.0384521484375,-1.881866455078125,0.056610107421875
1695713097372746800,7.720746826171875,0.107421875,-0.846099853515625,-0.733489990234375
1695713097382299000,7.730298828125,0.190277099609375,-0.662841796875,-0.13946533203125
1695713097391820300,7.7398203125,0.1153564453125,-0.815582275390625,1.062774658203125
1695713097401372400,7.749372314453125,-0.172271728515625,-0.111236572265625,1.611328125
1695713097410924300,7.75892431640625,-0.444183349609375,0.90728759765625,1.3299560546875
1695713097420476400,7.768476318359375,-0.571441650390625,0.968170166015625,1.159210205078125
1695713097430028300,7.7780283203125,-0.566558837890625,0.15350341796875,1.67999267578125
1695713097439550000,7.787550048828125,-0.412139892578125,-0.704498291015625,2.493438720703125
1695713097449101800,7.797101806640625,-0.162811279296875,-1.479034423828125,2.876434326171875
1695713097458654000,7.806654052734375,0.1123046875,-1.774444580078125,2.545013427734375
1695713097468205800,7.816205810546875,0.39306640625,-1.3800048828125,1.708984375
1695713097477727200,7.825727294921875,0.524749755859375,-0.61309814453125,0.96343994140625
1695713097487279400,7.835279296875,0.526580810546875,-0.045013427734375,0.740814208984375
1695713097496862000,7.844862060546875,0.4827880859375,0.21270751953125,0.9490966796875
1695713097506413800,7.854413818359375,0.37445068359375,0.256500244140625,1.34307861328125
1695713097515966000,7.863966064453125,0.240020751953125,0.005340576171875,1.73736572265625
1695713097525487400,7.8734873046875,0.1104736328125,-0.422210693359375,1.993408203125
1695713097535039200,7.883039306640625,-0.00946044921875,-0.765228271484375,2.05657958984375
1695713097544591400,7.89259130859375,-0.102691650390625,-0.89385986328125,1.9830322265625
1695713097554143200,7.902143310546875,-0.131378173828125,-0.670928955078125,1.797637939453125
1695713097563665000,7.911664794921875,-0.104827880859375,-0.2142333984375,1.560821533203125
1695713097573216800,7.921216796875,-0.062103271484375,0.1416015625,1.37298583984375
1695713097582769000,7.930768798828125,-0.03143310546875,0.1519775390625,1.29974365234375
1695713097592320800,7.94032080078125,-0.020751953125,-0.075836181640625,1.32904052734375
1695713097601873000,7.949872802734375,-0.052032470703125,-0.29632568359375,1.3604736328125
1695713097611394300,7.959394287109375,-0.121917724609375,-0.393218994140625,1.31561279296875
1695713097620946400,7.968946533203125,-0.190582275390625,-0.404205322265625,1.209716796875
1695713097630498300,7.978498291015625,-0.23345947265625,-0.368499755859375,1.122283935546875
1695713097640050400,7.988050537109375,-0.26275634765625,-0.2813720703125,1.112213134765625
1695713097649571800,7.99757177734375,-0.28411865234375,-0.17913818359375,1.157989501953125
1695713097659123700,8.007123779296874,-0.29754638671875,-0.12725830078125,1.21337890625
1695713097668675800,8.01667578125,-0.306396484375,-0.155029296875,1.2371826171875
1695713097678227700,8.026227783203124,-0.3106689453125,-0.22979736328125,1.229248046875
1695713097687779800,8.03577978515625,-0.3131103515625,-0.321502685546875,1.2115478515625
1695713097697301200,8.04530126953125,-0.31982421875,-0.410308837890625,1.207275390625
1695713097706853400,8.054853271484374,-0.3271484375,-0.482330322265625,1.224365234375
1695713097716405200,8.0644052734375,-0.3387451171875,-0.540771484375,1.25
1695713097725957400,8.073957275390624,-0.360107421875,-0.60272216796875,1.2432861328125
1695713097735478800,8.083478759765624,-0.38330078125,-0.60028076171875,1.20330810546875
1695713097745031000,8.093031005859375,-0.411529541015625,-0.54473876953125,1.136932373046875
1695713097754582800,8.102582763671874,-0.455474853515625,-0.53741455078125,1.030120849609375
1695713097764135000,8.112135009765625,-0.507965087890625,-0.58013916015625,0.8905029296875
1695713097773656300,8.12165625,-0.529632568359375,-0.61065673828125,0.742950439453125
1695713097783239000,8.131239013671875,-0.500640869140625,-0.59661865234375,0.6085205078125
1695713097792790800,8.140790771484374,-0.435028076171875,-0.52947998046875,0.4937744140625
1695713097802343000,8.150343017578125,-0.3759765625,-0.468292236328125,0.388946533203125
1695713097811894800,8.159894775390624,-0.35888671875,-0.50445556640625,0.26885986328125
1695713097821416200,8.169416259765624,-0.3863525390625,-0.63812255859375,0.13519287109375
1695713097830968300,8.17896826171875,-0.429534912109375,-0.772247314453125,0.015411376953125
1695713097840520200,8.188520263671874,-0.457305908203125,-0.839996337890625,-0.081787109375
1695713097850072300,8.198072265625,-0.441741943359375,-0.877685546875,-0.1702880859375
1695713097859593700,8.20759375,-0.403289794921875,-0.91033935546875,-0.275421142578125
1695713097869145900,8.217145751953124,-0.37322998046875,-0.90972900390625,-0.44464111328125
1695713097878697700,8.22669775390625,-0.33203125,-0.8563232421875,-0.695343017578125
1695713097888249900,8.236249755859374,-0.284423828125,-0.726165771484375,-1.044464111328125
1695713097897801700,8.2458017578125,-0.240478515625,-0.485076904296875,-1.481475830078125
1695713097907323400,8.255323486328125,-0.180511474609375,-0.13458251953125,-1.93603515625
1695713097916875300,8.264875244140624,-0.100860595703125,0.279083251953125,-2.31719970703125
1695713097926427400,8.274427490234375,-0.00823974609375,0.723114013671875,-2.5982666015625
1695713097935979300,8.283979248046874,0.10833740234375,1.086273193359375,-2.805633544921875
1695713097945500700,8.293500732421874,0.270538330078125,1.15936279296875,-2.95013427734375
1695713097955052800,8.303052734375,0.41839599609375,0.90240478515625,-2.99896240234375
1695713097964604700,8.312604736328124,0.45379638671875,0.41046142578125,-2.9791259765625
1695713097974156800,8.32215673828125,0.390625,-0.21697998046875,-2.917327880859375
1695713097983708700,8.331708740234374,0.254058837890625,-0.743865966796875,-2.826995849609375
1695713097993230300,8.341230224609374,0.1025390625,-1.029815673828125,-2.7264404296875
1695713098002782200,8.3507822265625,0.07110595703125,-1.177215576171875,-2.62298583984375
1695713098012334300,8.360334228515624,0.163116455078125,-1.34490966796875,-2.475738525390625
1695713098021886200,8.36988623046875,0.248565673828125,-1.5667724609375,-2.264404296875
1695713098031407900,8.379407958984375,0.30303955078125,-1.854095458984375,-2.027740478515625
1695713098040959700,8.388959716796874,0.36041259765625,-2.00836181640625,-1.777496337890625
1695713098050512000,8.398511962890625,0.40924072265625,-1.7138671875,-1.54296875
1695713098060063700,8.408063720703124,0.447998046875,-0.93170166015625,-1.379852294921875
1695713098069615900,8.417615966796875,0.540008544921875,0.009002685546875,-1.391143798828125
1695713098079167700,8.427167724609374,0.656585693359375,1.040191650390625,-1.474761962890625
1695713098088720000,8.436719970703125,0.69793701171875,1.88629150390625,-1.64886474609375
1695713098098271700,8.446271728515624,0.629730224609375,2.232666015625,-1.956787109375
1695713098107823900,8.455823974609375,0.525360107421875,2.2149658203125,-2.188873291015625
1695713098117345300,8.46534521484375,0.486297607421875,2.034454345703125,-2.2314453125
1695713098126897200,8.474897216796874,0.510101318359375,1.834716796875,-2.121124267578125
1695713098136449300,8.48444921875,0.572662353515625,1.703948974609375,-1.88812255859375
1695713098146001200,8.494001220703124,0.6640625,1.6229248046875,-1.578369140625
1695713098155522800,8.503522705078124,0.74859619140625,1.52862548828125,-1.2591552734375
1695713098165074700,8.51307470703125,0.8056640625,1.430206298828125,-0.995330810546875
1695713098174626800,8.522626708984374,0.852203369140625,1.332855224609375,-0.80169677734375
1695713098184178700,8.5321787109375,0.898590087890625,1.292724609375,-0.653839111328125
1695713098193730800,8.541730712890624,0.942230224609375,1.2841796875,-0.52154541015625
1695713098203252200,8.551252197265624,0.965423583984375,1.278076171875,-0.387725830078125
1695713098212804400,8.560804443359375,0.959930419921875,1.21307373046875,-0.244903564453125
1695713098222356200,8.570356201171874,0.918121337890625,1.080169677734375,-0.08636474609375
1695713098231908400,8.579908447265625,0.847015380859375,0.8660888671875,0.083160400390625
1695713098241429800,8.5894296875,0.755615234375,0.592193603515625,0.26214599609375
1695713098250981600,8.598981689453124,0.655364990234375,0.337982177734375,0.440826416015625
1695713098260533800,8.60853369140625,0.559539794921875,0.14190673828125,0.623779296875
1695713098270085600,8.618085693359374,0.47271728515625,0.03997802734375,0.818023681640625
1695713098279637800,8.6276376953125,0.391845703125,0.0439453125,1.024627685546875
1695713098289159200,8.6371591796875,0.31494140625,0.1708984375,1.23626708984375
1695713098298711300,8.646711181640624,0.233306884765625,0.357513427734375,1.419830322265625
1695713098308263200,8.65626318359375,0.149993896484375,0.535888671875,1.532745361328125
1695713098317815300,8.665815185546874,0.07720947265625,0.686187744140625,1.546173095703125
1695713098327336700,8.675336669921874,0.05096435546875,0.82916259765625,1.442413330078125
1695713098336888800,8.684888916015625,0.0921630859375,0.963287353515625,1.2030029296875
1695713098346440700,8.694440673828124,0.177764892578125,1.104583740234375,0.808258056640625
1695713098355992800,8.703992919921875,0.267181396484375,1.27044677734375,0.283203125
1695713098365575200,8.7135751953125,0.3399658203125,1.342926025390625,-0.274505615234375
1695713098375096800,8.723096923828125,0.426025390625,1.070404052734375,-0.686798095703125
1695713098384648700,8.732648681640624,0.545501708984375,0.42327880859375,-0.79254150390625
1695713098394200800,8.742200927734375,0.67108154296875,-0.23529052734375,-0.646209716796875
1695713098403752700,8.751752685546874,0.728759765625,-0.4998779296875,-0.44525146484375
1695713098413274000,8.761274169921874,0.651092529296875,-0.201416015625,-0.295867919921875
1695713098422826200,8.770826171875,0.499725341796875,0.40283203125,-0.2056884765625
1695713098432378000,8.780378173828124,0.3924560546875,0.953826904296875,-0.10528564453125
1695713098441930200,8.78993017578125,0.39093017578125,1.377410888671875,0.065155029296875
1695713098451482000,8.799482177734374,0.452880859375,1.694183349609375,0.296173095703125
1695713098461003800,8.809003662109374,0.4315185546875,1.85943603515625,0.58563232421875
1695713098470555600,8.8185556640625,0.263824462890625,1.670074462890625,0.95367431640625
1695713098480107800,8.828107666015624,-0.041961669921875,0.670623779296875,1.449127197265625
1695713098489659600,8.83765966796875,-0.3009033203125,-1.461334228515625,1.857147216796875
1695713098499181300,8.847181396484375,-0.24810791015625,-3.293304443359375,1.524200439453125
1695713098508733200,8.856733154296874,0.093994140625,-2.73712158203125,-0.1092529296875
1695713098518285300,8.866285400390625,0.3741455078125,-0.28228759765625,-1.2713623046875
1695713098527837200,8.875837158203124,0.43304443359375,0.79376220703125,-0.362701416015625
1695713098537358600,8.885358642578124,0.214691162109375,0.55816650390625,1.020355224609375
1695713098546910700,8.89491064453125,-0.122528076171875,0.368499755859375,1.771087646484375
1695713098556462600,8.904462646484374,-0.35919189453125,0.622100830078125,1.515350341796875
1695713098566014700,8.9140146484375,-0.59326171875,1.101531982421875,0.678863525390625
1695713098575536000,8.9235361328125,-0.941009521484375,0.4034423828125,0.628662109375
1695713098585088300,8.933088134765624,-1.291046142578125,-0.796966552734375,1.465301513671875
1695713098594640100,8.94264013671875,-1.243133544921875,-1.775970458984375,2.32177734375
1695713098604192300,8.952192138671874,-0.61981201171875,-2.435302734375,2.71728515625
1695713098613744000,8.961744140625,0.223541259765625,-2.505645751953125,2.42034912109375
1695713098623265500,8.971265625,0.76812744140625,-1.568603515625,1.5753173828125
1695713098632817700,8.980817626953124,0.907745361328125,-0.22186279296875,0.94879150390625
1695713098642400300,8.990400146484374,0.81085205078125,0.577239990234375,0.95428466796875
1695713098651952000,8.9999521484375,0.620269775390625,0.708465576171875,1.24267578125
1695713098661504300,9.009504150390624,0.40679931640625,0.43701171875,1.497039794921875
1695713098671025700,9.019025634765624,0.191497802734375,-0.1837158203125,1.61346435546875
1695713098680577800,9.028577880859375,-0.0164794921875,-0.870361328125,1.61163330078125
1695713098690129700,9.038129638671874,-0.143585205078125,-1.2451171875,1.5802001953125
1695713098699681800,9.047681884765625,-0.177459716796875,-1.104278564453125,1.56097412109375
1695713098709203200,9.057203125,-0.175933837890625,-0.735015869140625,1.547393798828125
1695713098718755000,9.066755126953124,-0.166778564453125,-0.4888916015625,1.507415771484375
1695713098728307200,9.07630712890625,-0.183258056640625,-0.428314208984375,1.430206298828125
1695713098737859000,9.085859130859374,-0.210418701171875,-0.468597412109375,1.317138671875
1695713098747411200,9.0954111328125,-0.210723876953125,-0.4986572265625,1.2103271484375
1695713098756932600,9.1049326171875,-0.170440673828125,-0.466156005859375,1.166534423828125
1695713098766484700,9.114484619140624,-0.128631591796875,-0.424041748046875,1.175994873046875
1695713098776036600,9.12403662109375,-0.101776123046875,-0.360260009765625,1.194000244140625
1695713098785588700,9.133588623046874,-0.114288330078125,-0.28564453125,1.183013916015625
1695713098795110100,9.143110107421874,-0.160369873046875,-0.250244140625,1.120452880859375
1695713098804662300,9.152662353515625,-0.222625732421875,-0.28411865234375,1.044769287109375
1695713098814214100,9.162214111328124,-0.28900146484375,-0.331268310546875,1.007080078125
1695713098823766300,9.171766357421875,-0.3485107421875,-0.312957763671875,1.028289794921875
1695713098833318100,9.181318115234374,-0.3985595703125,-0.2337646484375,1.063385009765625
1695713098842839600,9.190839599609374,-0.431976318359375,-0.1629638671875,1.079254150390625
1695713098852391700,9.2003916015625,-0.452423095703125,-0.1513671875,1.086273193359375
1695713098861943600,9.209943603515624,-0.464019775390625,-0.1776123046875,1.099700927734375
1695713098871495700,9.21949560546875,-0.465240478515625,-0.2056884765625,1.093902587890625
1695713098881017000,9.22901708984375,-0.463409423828125,-0.242919921875,1.043243408203125
1695713098890569200,9.2385693359375,-0.463409423828125,-0.28106689453125,0.93994140625
1695713098900121000,9.24812109375,-0.462799072265625,-0.3070068359375,0.789642333984375
1695713098909673200,9.257673095703124,-0.443267822265625,-0.326995849609375,0.63140869140625
1695713098919194600,9.267194580078124,-0.402984619140625,-0.340423583984375,0.51300048828125
1695713098928777200,9.276777099609374,-0.34698486328125,-0.334625244140625,0.431365966796875
1695713098938329000,9.2863291015625,-0.3057861328125,-0.334625244140625,0.345001220703125
1695713098947881200,9.295881103515624,-0.2984619140625,-0.364837646484375,0.2398681640625
1695713098957433000,9.30543310546875,-0.321044921875,-0.426483154296875,0.1348876953125
1695713098966954800,9.314954833984375,-0.3466796875,-0.480499267578125,0.061492919921875
1695713098976506600,9.324506591796874,-0.34210205078125,-0.487518310546875,0.027923583984375
1695713098986058800,9.334058837890625,-0.3173828125,-0.49652099609375,0.001373291015625
1695713098995610600,9.343610595703124,-0.30853271484375,-0.53955078125,-0.05767822265625
1695713099005132000,9.353132080078124,-0.3277587890625,-0.555419921875,-0.20233154296875
1695713099014684200,9.36268408203125,-0.3314208984375,-0.49774169921875,-0.44769287109375
1695713099024236000,9.372236083984374,-0.27801513671875,-0.371856689453125,-0.722503662109375
1695713099033788200,9.3817880859375,-0.186920166015625,-0.174560546875,-0.993804931640625
1695713099043340000,9.391340087890624,-0.083160400390625,0.07110595703125,-1.28265380859375
1695713099052861700,9.40086181640625,0.01861572265625,0.320281982421875,-1.59149169921875
1695713099062413600,9.41041357421875,0.135345458984375,0.53863525390625,-1.90582275390625
1695713099071965700,9.419965576171874,0.263824462890625,0.678863525390625,-2.185821533203125
1695713099081517600,9.429517578125,0.3778076171875,0.76873779296875,-2.415008544921875
1695713099091039000,9.4390390625,0.4302978515625,0.83465576171875,-2.64739990234375
1695713099100591000,9.448591064453124,0.39886474609375,0.7965087890625,-2.893524169921875
1695713099110143000,9.45814306640625,0.293731689453125,0.57159423828125,-3.08746337890625
1695713099119695000,9.467695068359374,0.167694091796875,0.1458740234375,-3.162689208984375
1695713099129247200,9.477247314453125,0.09735107421875,-0.24017333984375,-3.101654052734375
1695713099138768600,9.4867685546875,0.0897216796875,-0.345001220703125,-2.98736572265625
1695713099148320500,9.496320556640624,0.06195068359375,-0.2716064453125,-2.840728759765625
1695713099157872600,9.50587255859375,-0.01434326171875,-0.397186279296875,-2.68157958984375
1695713099167424500,9.515424560546874,-0.048980712890625,-0.8966064453125,-2.549896240234375
1695713099176946200,9.5249462890625,-0.01922607421875,-1.544647216796875,-2.423553466796875
1695713099186498000,9.534498046875,0.01495361328125,-1.97265625,-2.27264404296875
1695713099196050200,9.54405029296875,0.0653076171875,-1.908111572265625,-2.062835693359375
1695713099205602000,9.55360205078125,0.139312744140625,-1.24542236328125,-1.795196533203125
1695713099215154200,9.563154296875,0.232391357421875,-0.191650390625,-1.614990234375
1695713099224706000,9.5727060546875,0.33172607421875,1.037139892578125,-1.5850830078125
1695713099234258200,9.582258056640624,0.3759765625,1.799468994140625,-1.816558837890625
1695713099243810000,9.59181005859375,0.31005859375,1.8914794921875,-2.216796875
1695713099253362200,9.601362060546874,0.221099853515625,1.6082763671875,-2.481536865234375
1695713099262883600,9.610883544921874,0.219268798828125,1.305999755859375,-2.497711181640625
1695713099272435700,9.620435791015625,0.287628173828125,1.084136962890625,-2.31719970703125
1695713099281987600,9.629987548828124,0.37200927734375,0.963592529296875,-2.023773193359375
1695713099291539700,9.639539794921875,0.44677734375,0.944366455078125,-1.674346923828125
1695713099301061000,9.64906103515625,0.526885986328125,0.961151123046875,-1.335296630859375
1695713099310613000,9.658613037109374,0.592193603515625,0.974273681640625,-1.070709228515625
1695713099320165000,9.6681650390625,0.629730224609375,1.030426025390625,-0.882568359375
1695713099329717000,9.677717041015624,0.647430419921875,1.1273193359375,-0.733184814453125
1695713099339269000,9.68726904296875,0.648040771484375,1.2158203125,-0.591888427734375
1695713099348790500,9.69679052734375,0.634002685546875,1.251220703125,-0.4498291015625
1695713099358342700,9.7063427734375,0.607757568359375,1.197509765625,-0.287628173828125
1695713099367894500,9.71589453125,0.572662353515625,1.100921630859375,-0.09429931640625
1695713099377446700,9.72544677734375,0.532684326171875,0.982818603515625,0.13702392578125
1695713099386968000,9.734968017578124,0.497589111328125,0.843505859375,0.405120849609375
1695713099396520000,9.74452001953125,0.487823486328125,0.728302001953125,0.706939697265625
1695713099406072000,9.754072021484374,0.507965087890625,0.625762939453125,1.044464111328125
1695713099415624000,9.7636240234375,0.536956787109375,0.5645751953125,1.401824951171875
1695713099425176000,9.773176025390624,0.573883056640625,0.57220458984375,1.751251220703125
1695713099434697500,9.782697509765624,0.622406005859375,0.643768310546875,2.04803466796875
1695713099444249600,9.79224951171875,0.657806396484375,0.76263427734375,2.236480712890625
1695713099453801500,9.801801513671874,0.67474365234375,0.966033935546875,2.205963134765625
1695713099463353600,9.811353515625,0.6829833984375,1.1553955078125,1.861724853515625
1695713099472875000,9.820875,0.655670166015625,1.17401123046875,1.184539794921875
1695713099482427100,9.83042724609375,0.555877685546875,1.090850830078125,0.1910400390625
1695713099491979000,9.83997900390625,0.4071044921875,1.17706298828125,-1.096343994140625
1695713099501531100,9.84953125,0.3326416015625,1.19842529296875,-2.127838134765625
1695713099511113500,9.859113525390624,0.43914794921875,0.49468994140625,-2.151947021484375
1695713099520635100,9.86863525390625,0.544891357421875,-0.5072021484375,-1.53106689453125
1695713099530187000,9.87818701171875,0.534515380859375,-0.9796142578125,-0.957794189453125
1695713099539739100,9.8877392578125,0.33721923828125,-0.713958740234375,-0.656280517578125
1695713099549291000,9.897291015625,0.096435546875,-0.22430419921875,-0.53497314453125
1695713099558812400,9.9068125,0.01129150390625,0.316925048828125,-0.40435791015625
1695713099568364500,9.916364501953124,-0.042877197265625,1.074676513671875,-0.1312255859375
1695713099577916400,9.92591650390625,-0.269775390625,1.790008544921875,0.307464599609375
1695713099587468500,9.935468505859374,-0.551910400390625,2.0159912109375,1.022491455078125
1695713099597020700,9.945020751953125,-0.72296142578125,1.18438720703125,1.907501220703125
1695713099606542000,9.9545419921875,-0.519256591796875,-1.0205078125,2.04376220703125
1695713099616094000,9.964093994140624,-0.100250244140625,-2.6861572265625,0.704498291015625
1695713099625646000,9.97364599609375,0.11474609375,-1.404266357421875,-1.057281494140625
1695713099635198000,9.983197998046874,0.45562744140625,0.1861572265625,-1.033172607421875
1695713099644719600,9.9927197265625,0.76934814453125,-0.29876708984375,0.715789794921875
1695713099654271500,10.002271484375,0.76629638671875,-0.87890625,2.0233154296875
1695713099663823600,10.01182373046875,0.4534912109375,-0.56793212890625,2.131500244140625
1695713099673375500,10.02137548828125,0.01220703125,0.0848388671875,1.34429931640625
1695713099682927600,10.030927734375,-0.431976318359375,0.324859619140625,0.997314453125
1695713099692449000,10.040448974609374,-0.6109619140625,0.06591796875,1.443023681640625
1695713099702001000,10.0500009765625,-0.514984130859375,-0.468292236328125,2.06573486328125
1695713099711553000,10.059552978515624,-0.24810791015625,-1.085357666015625,2.39013671875
1695713099721105000,10.06910498046875,0.07354736328125,-1.32476806640625,2.238311767578125
1695713099730626600,10.07862646484375,0.3582763671875,-0.98968505859375,1.7169189453125
1695713099740178400,10.088178466796874,0.485382080078125,-0.413360595703125,1.21124267578125
1695713099749730600,10.09773046875,0.494842529296875,0.107421875,1.075286865234375
1695713099759282400,10.107282470703124,0.4193115234375,0.426025390625,1.234130859375
1695713099768834600,10.11683447265625,0.289459228515625,0.40679931640625,1.524810791015625
1695713099778356000,10.12635595703125,0.160675048828125,0.07904052734375,1.815032958984375
1695713099787938600,10.1359384765625,0.06103515625,-0.456695556640625,1.95220947265625
1695713099797490400,10.145490478515624,0.01708984375,-0.9210205078125,1.94671630859375
1695713099807042600,10.15504248046875,0.0189208984375,-1.091766357421875,1.837310791015625
1695713099816564000,10.16456396484375,0.0421142578125,-0.943603515625,1.70135498046875
1695713099826116000,10.1741162109375,0.06103515625,-0.669403076171875,1.59820556640625
1695713099835668000,10.18366796875,0.03387451171875,-0.5181884765625,1.542205810546875
1695713099845220000,10.19322021484375,-0.04241943359375,-0.523681640625,1.498260498046875
1695713099854741500,10.202741455078124,-0.117645263671875,-0.5859375,1.415863037109375
1695713099864293400,10.21229345703125,-0.174713134765625,-0.609130859375,1.31561279296875
1695713099873845500,10.221845458984374,-0.23712158203125,-0.53131103515625,1.25457763671875
1695713099883397400,10.2313974609375,-0.286865234375,-0.383148193359375,1.236572265625
1695713099892949500,10.240949462890624,-0.313720703125,-0.25390625,1.243896484375
1695713099902471000,10.250470947265624,-0.3375244140625,-0.213623046875,1.241455078125
1695713099912023000,10.26002294921875,-0.35980224609375,-0.24261474609375,1.2371826171875
1695713099921575000,10.269574951171874,-0.37689208984375,-0.331268310546875,1.2445068359375
1695713099931127000,10.279126953125,-0.3912353515625,-0.454254150390625,1.2689208984375
1695713099940648400,10.2886484375,-0.411834716796875,-0.498046875,1.3128662109375
1695713099950200600,10.29820068359375,-0.434112548828125,-0.445404052734375,1.34857177734375
1695713099959752400,10.30775244140625,-0.458831787109375,-0.383758544921875,1.34307861328125
1695713099969304600,10.3173046875,-0.486602783203125,-0.341644287109375,1.282958984375
1695713099978856400,10.3268564453125,-0.503082275390625,-0.337677001953125,1.167144775390625
1695713099988377900,10.3363779296875,-0.503997802734375,-0.387115478515625,1.0107421875
1695713099997930000,10.345929931640624,-0.489044189453125,-0.494384765625,0.850830078125
1695713100007481900,10.35548193359375,-0.453643798828125,-0.63385009765625,0.708160400390625
1695713100017034000,10.365033935546874,-0.40008544921875,-0.675506591796875,0.5938720703125
1695713100026555400,10.374555419921874,-0.36285400390625,-0.5615234375,0.4949951171875
1695713100036107500,10.384107421875,-0.35675048828125,-0.446624755859375,0.367584228515625
1695713100045659400,10.393659423828124,-0.37200927734375,-0.420074462890625,0.21636962890625
1695713100055211500,10.40321142578125,-0.3924560546875,-0.440521240234375,0.084686279296875
1695713100064763400,10.412763427734374,-0.40283203125,-0.444183349609375,0.012969970703125
1695713100074315500,10.4223154296875,-0.3857421875,-0.452728271484375,-0.021209716796875
1695713100083867400,10.431867431640624,-0.3314208984375,-0.49041748046875,-0.07476806640625
1695713100093419500,10.44141943359375,-0.27008056640625,-0.533447265625,-0.2130126953125
1695713100102971400,10.450971435546874,-0.197601318359375,-0.56304931640625,-0.4351806640625
1695713100112493000,10.4604931640625,-0.074920654296875,-0.526123046875,-0.685272216796875
1695713100122045000,10.470044921875,0.04791259765625,-0.341339111328125,-0.957794189453125
1695713100131597000,10.47959716796875,0.133819580078125,-0.035247802734375,-1.28753662109375
1695713100141149000,10.48914892578125,0.217437744140625,0.283966064453125,-1.65985107421875
1695713100150701000,10.498701171875,0.32196044921875,0.5169677734375,-2.023468017578125
1695713100160222500,10.508222412109374,0.418701171875,0.639190673828125,-2.3126220703125
1695713100169774300,10.5177744140625,0.489349365234375,0.703277587890625,-2.532806396484375
1695713100179326500,10.527326416015624,0.520477294921875,0.738677978515625,-2.750396728515625
1695713100188878300,10.53687841796875,0.46630859375,0.627593994140625,-2.98065185546875
1695713100198400000,10.54639990234375,0.3399658203125,0.364532470703125,-3.155670166015625
1695713100207952000,10.555951904296874,0.154571533203125,0.05035400390625,-3.198394775390625
1695713100217504000,10.56550390625,-0.02685546875,-0.13519287109375,-3.152618408203125
1695713100227055900,10.575055908203124,-0.074310302734375,-0.14404296875,-3.0615234375
1695713100236577500,10.58457763671875,-0.060882568359375,-0.2294921875,-2.91961669921875
1695713100246129400,10.59412939453125,-0.099029541015625,-0.66314697265625,-2.741851806640625
1695713100255681500,10.603681640625,-0.120391845703125,-1.446380615234375,-2.56072998046875
1695713100265233400,10.6132333984375,-0.085601806640625,-2.167510986328125,-2.3748779296875
1695713100274754800,10.6227548828125,-0.052947998046875,-2.514801025390625,-2.160186767578125
1695713100284307000,10.632306884765624,-0.01708984375,-2.180938720703125,-1.88018798828125
1695713100293858800,10.64185888671875,0.03936767578125,-1.285400390625,-1.59942626953125
1695713100303411000,10.651410888671874,0.127716064453125,-0.25970458984375,-1.5203857421875
1695713100312962800,10.660962890625,0.214996337890625,0.92803955078125,-1.55670166015625
1695713100322484500,10.670484375,0.225677490234375,1.5997314453125,-1.822662353515625
1695713100332036400,10.680036376953124,0.139617919921875,1.706695556640625,-2.162322998046875
1695713100341588500,10.68958837890625,0.0799560546875,1.48345947265625,-2.335205078125
1695713100351140400,10.699140380859374,0.09979248046875,1.207275390625,-2.3101806640625
1695713100360723000,10.708722900390624,0.187530517578125,1.056976318359375,-2.093658447265625
1695713100370244400,10.718244384765624,0.30364990234375,0.958404541015625,-1.763458251953125
1695713100379796500,10.72779638671875,0.40435791015625,0.89202880859375,-1.411590576171875
1695713100389348400,10.737348388671874,0.483245849609375,0.84259033203125,-1.104888916015625
1695713100398900500,10.746900390625,0.548248291015625,0.802001953125,-0.8624267578125
1695713100408422000,10.756421875,0.582733154296875,0.8380126953125,-0.682525634765625
1695713100417974000,10.76597412109375,0.589447021484375,0.91552734375,-0.55755615234375
1695713100427526000,10.77552587890625,0.583343505859375,1.004486083984375,-0.44891357421875
1695713100437078000,10.785078125,0.570526123046875,1.061859130859375,-0.331268310546875
1695713100446630000,10.7946298828125,0.548248291015625,1.078033447265625,-0.19195556640625
1695713100456151300,10.8041513671875,0.518035888671875,1.067352294921875,-0.011444091796875
1695713100465703400,10.813703369140624,0.486602783203125,1.020660400390625,0.22125244140625
1695713100475255300,10.82325537109375,0.46630859375,0.9307861328125,0.49896240234375
1695713100484807400,10.832807373046874,0.4693603515625,0.836181640625,0.811004638671875
1695713100494328800,10.842328857421874,0.500335693359375,0.7952880859375,1.151580810546875
1695713100503881000,10.851880859375,0.545501708984375,0.83770751953125,1.490936279296875
1695713100513432800,10.861432861328124,0.613861083984375,0.91827392578125,1.798248291015625
1695713100522985000,10.87098486328125,0.6842041015625,1.014251708984375,2.015380859375
1695713100532536800,10.880536865234374,0.74615478515625,1.13677978515625,2.02362060546875
1695713100542058500,10.89005859375,0.80657958984375,1.16912841796875,1.688232421875
1695713100551610400,10.8996103515625,0.83038330078125,0.93475341796875,0.9619140625
1695713100561162500,10.90916259765625,0.72723388671875,0.630035400390625,-0.086669921875
1695713100570714400,10.91871435546875,0.4437255859375,0.688934326171875,-1.307220458984375
1695713100580235800,10.92823583984375,0.215301513671875,0.8087158203125,-2.200927734375
1695713100589788000,10.937787841796874,0.244598388671875,0.322723388671875,-2.30804443359375
1695713100599339800,10.94733984375,0.4168701171875,-0.446624755859375,-1.827850341796875
1695713100608892000,10.956891845703124,0.534210205078125,-0.741424560546875,-1.23291015625
1695713100618413300,10.966413330078124,0.41290283203125,-0.321807861328125,-0.7757568359375
1695713100627965400,10.97596533203125,0.141754150390625,0.271453857421875,-0.4498291015625
1695713100637517300,10.985517333984374,-0.081024169921875,0.552978515625,-0.16571044921875
1695713100647100000,10.995099853515624,-0.195770263671875,0.733184814453125,0.086822509765625
1695713100656651800,11.00465185546875,-0.23712158203125,1.094512939453125,0.25299072265625
1695713100666173400,11.01417333984375,-0.28717041015625,1.56219482421875,0.345001220703125
1695713100675725300,11.023725341796874,-0.38970947265625,1.98577880859375,0.5877685546875
1695713100685277400,11.03327734375,-0.483245849609375,1.9354248046875,1.22711181640625
1695713100694829300,11.042829345703124,-0.551300048828125,0.40924072265625,1.6876220703125
1695713100704351000,11.05235107421875,-0.3076171875,-2.249603271484375,1.388702392578125
1695713100713902800,11.06190283203125,-0.003662109375,-2.956390380859375,0.720977783203125
1695713100723455000,11.071455078125,0.38818359375,-1.133575439453125,-0.4345703125
1695713100733006800,11.0810068359375,0.871734619140625,-0.411529541015625,-0.5120849609375
1695713100742559000,11.09055908203125,1.15478515625,-1.470794677734375,0.828704833984375
1695713100752080400,11.100080322265624,1.11236572265625,-1.806488037109375,1.864471435546875
1695713100761632300,11.10963232421875,0.7061767578125,-0.702056884765625,1.855621337890625
1695713100771184400,11.119184326171874,0.137786865234375,1.009063720703125,1.047821044921875
1695713100780736300,11.128736328125,-0.3759765625,1.2158203125,0.8392333984375
1695713100790258000,11.1382578125,-0.66680908203125,0.2008056640625,1.5960693359375
1695713100799809800,11.147809814453124,-0.68634033203125,-0.98907470703125,2.577056884765625
1695713100809362000,11.15736181640625,-0.459747314453125,-1.9677734375,3.10089111328125
1695713100818913800,11.166913818359374,-0.128326416015625,-2.548370361328125,2.934722900390625
1695713100828466000,11.1764658203125,0.154571533203125,-2.41851806640625,2.231597900390625
1695713100837987300,11.1859873046875,0.294342041015625,-1.525421142578125,1.441192626953125
1695713100847539500,11.19553955078125,0.31494140625,-0.53131103515625,1.045684814453125
1695713100857091300,11.20509130859375,0.3338623046875,0.0738525390625,1.080169677734375
1695713100866643500,11.2146435546875,0.34149169921875,0.258331298828125,1.376953125
1695713100876164900,11.224164794921874,0.34027099609375,0.04241943359375,1.736907958984375
1695713100885716700,11.233716796875,0.3240966796875,-0.384979248046875,2.008056640625
1695713100895268900,11.243268798828124,0.288238525390625,-0.766754150390625,2.09869384765625
1695713100904820700,11.25282080078125,0.265655517578125,-0.928955078125,2.034912109375
1695713100914372900,11.262372802734374,0.253143310546875,-0.92010498046875,1.877899169921875
1695713100923894300,11.271894287109374,0.243377685546875,-0.814971923828125,1.68792724609375
1695713100933476900,11.281476806640624,0.171051025390625,-0.697784423828125,1.521148681640625
1695713100943028700,11.29102880859375,0.072021484375,-0.684967041015625,1.415557861328125
1695713100952580900,11.300580810546874,-0.01922607421875,-0.723724365234375,1.3433837890625
1695713100962102300,11.310102294921874,-0.085296630859375,-0.799713134765625,1.29058837890625
1695713100971654400,11.319654296875,-0.142059326171875,-0.87249755859375,1.2652587890625
1695713100981206300,11.329206298828124,-0.196990966796875,-0.840301513671875,1.2408447265625
1695713100990758400,11.33875830078125,-0.2252197265625,-0.719146728515625,1.2103271484375
1695713101000279800,11.34827978515625,-0.24017333984375,-0.57037353515625,1.179656982421875
1695713101009832000,11.35783203125,-0.26092529296875,-0.435638427734375,1.155548095703125
1695713101019383800,11.3673837890625,-0.2935791015625,-0.339202880859375,1.157379150390625
1695713101028936000,11.37693603515625,-0.33172607421875,-0.315093994140625,1.181793212890625
1695713101038487800,11.38648779296875,-0.36285400390625,-0.351715087890625,1.22406005859375
1695713101048009200,11.39600927734375,-0.38543701171875,-0.384368896484375,1.26861572265625
1695713101057561300,11.405561279296874,-0.3936767578125,-0.404815673828125,1.2872314453125
1695713101067113200,11.41511328125,-0.409088134765625,-0.428619384765625,1.26129150390625
1695713101076665300,11.424665283203124,-0.433197021484375,-0.444183349609375,1.2127685546875
1695713101086186800,11.434186767578124,-0.458831787109375,-0.455474853515625,1.147308349609375
1695713101095739000,11.44373876953125,-0.481109619140625,-0.4876708984375,1.057281494140625
1695713101105290800,11.453290771484374,-0.491790771484375,-0.546875,0.9442138671875
1695713101114843000,11.4628427734375,-0.473175048828125,-0.61248779296875,0.820465087890625
1695713101124394800,11.472394775390624,-0.411529541015625,-0.6500244140625,0.695343017578125
1695713101133916400,11.48191650390625,-0.3216552734375,-0.616455078125,0.58502197265625
1695713101143468300,11.49146826171875,-0.24444580078125,-0.533447265625,0.50933837890625
1695713101153020400,11.5010205078125,-0.214996337890625,-0.469207763671875,0.459136962890625
1695713101162572300,11.510572265625,-0.225830078125,-0.48980712890625,0.401153564453125
1695713101172093700,11.52009375,-0.2581787109375,-0.57708740234375,0.321197509765625
1695713101181645800,11.529645751953124,-0.30426025390625,-0.64178466796875,0.23162841796875
1695713101191197700,11.53919775390625,-0.3533935546875,-0.64453125,0.16754150390625
1695713101200750300,11.548750244140624,-0.37506103515625,-0.64422607421875,0.1446533203125
1695713101210302200,11.55830224609375,-0.38726806640625,-0.65765380859375,0.102386474609375
1695713101219854300,11.567854248046874,-0.40313720703125,-0.6268310546875,-0.021820068359375
1695713101229406200,11.57740625,-0.3863525390625,-0.5126953125,-0.2252197265625
1695713101238958300,11.586958251953124,-0.3143310546875,-0.323333740234375,-0.49896240234375
1695713101248510200,11.59651025390625,-0.207977294921875,-0.063934326171875,-0.79071044921875
1695713101258031900,11.606031982421875,-0.079193115234375,0.262908935546875,-1.091766357421875
1695713101267583700,11.615583740234374,0.0592041015625,0.56396484375,-1.411895751953125
1695713101277136000,11.625135986328125,0.236053466796875,0.745391845703125,-1.748504638671875
1695713101286687700,11.634687744140624,0.426025390625,0.8026123046875,-2.073211669921875
1695713101296239900,11.644239990234375,0.542755126953125,0.836181640625,-2.34893798828125
1695713101305761300,11.65376123046875,0.541839599609375,0.90728759765625,-2.60009765625
1695713101315313400,11.6633134765625,0.44342041015625,0.89996337890625,-2.855072021484375
1695713101324865300,11.672865234375,0.265045166015625,0.655975341796875,-3.07403564453125
1695713101334417400,11.68241748046875,0.08575439453125,0.243988037109375,-3.199920654296875
1695713101343938800,11.691938720703124,-0.081634521484375,-0.071868896484375,-3.218841552734375
1695713101353490700,11.70149072265625,-0.22796630859375,-0.12451171875,-3.188629150390625
1695713101363042800,11.711042724609374,-0.2764892578125,0.017242431640625,-3.159942626953125
1695713101372594700,11.7205947265625,-0.24169921875,-0.020904541015625,-3.09051513671875
1695713101382116400,11.730116455078125,-0.215911865234375,-0.425262451171875,-2.95440673828125
1695713101391668200,11.739668212890624,-0.25146484375,-0.93841552734375,-2.7392578125
1695713101401220400,11.749220458984375,-0.308837890625,-1.3116455078125,-2.517547607421875
1695713101410772200,11.758772216796874,-0.3436279296875,-1.475982666015625,-2.33917236328125
1695713101420324400,11.768324462890625,-0.301513671875,-1.346435546875,-2.187042236328125
1695713101429845800,11.777845703125,-0.173492431640625,-0.799102783203125,-2.00531005859375
1695713101439398000,11.78739794921875,-0.00457763671875,0.07232666015625,-1.794891357421875
1695713101448949800,11.79694970703125,0.107421875,1.114349365234375,-1.827239990234375
1695713101458502000,11.806501953125,0.132598876953125,1.610107421875,-2.146759033203125
1695713101468023300,11.816023193359374,0.10955810546875,1.307830810546875,-2.436065673828125
1695713101477575200,11.8255751953125,0.140228271484375,0.8526611328125,-2.525482177734375
1695713101487127300,11.835127197265624,0.229339599609375,0.634613037109375,-2.415618896484375
1695713101496679200,11.84467919921875,0.3460693359375,0.654144287109375,-2.166290283203125
1695713101506261800,11.85426171875,0.480499267578125,0.754241943359375,-1.826324462890625
1695713101515783200,11.863783203125,0.584869384765625,0.810546875,-1.5020751953125
1695713101525335300,11.873335205078124,0.626068115234375,0.82122802734375,-1.24969482421875
1695713101534887200,11.88288720703125,0.628204345703125,0.843505859375,-1.067657470703125
1695713101544439300,11.892439208984374,0.604705810546875,0.88897705078125,-0.9002685546875
1695713101553960700,11.901960693359374,0.575714111328125,0.954742431640625,-0.720672607421875
1695713101563512800,11.911512939453125,0.546112060546875,0.989837646484375,-0.538330078125
1695713101573064700,11.921064697265624,0.487823486328125,0.962066650390625,-0.359039306640625
1695713101582616800,11.930616943359375,0.40679931640625,0.89447021484375,-0.16632080078125
1695713101592168700,11.940168701171874,0.33416748046875,0.84075927734375,0.062713623046875
1695713101601690400,11.9496904296875,0.31097412109375,0.82366943359375,0.342559814453125
1695713101611242200,11.9592421875,0.338134765625,0.82275390625,0.688629150390625
1695713101620794400,11.96879443359375,0.384521484375,0.85174560546875,1.120147705078125
1695713101630346200,11.97834619140625,0.44189453125,0.899658203125,1.595458984375
1695713101639867600,11.98786767578125,0.494232177734375,0.972442626953125,2.01690673828125
1695713101649419800,11.997419677734374,0.518646240234375,1.068267822265625,2.2900390625
1695713101658971600,12.0069716796875,0.515289306640625,1.1639404296875,2.303466796875
1695713101668523800,12.016523681640624,0.517120361328125,1.217041015625,1.9580078125
1695713101678075600,12.02607568359375,0.569915771484375,1.13525390625,1.24481201171875
1695713101687597300,12.035597412109375,0.557403564453125,1.15142822265625,0.343170166015625
1695713101697149200,12.045149169921874,0.33538818359375,1.52557373046875,-0.4888916015625
1695713101706701300,12.054701416015625,0.0274658203125,1.5203857421875,-1.078033447265625
1695713101716253200,12.064253173828124,-0.167083740234375,0.521240234375,-1.19476318359375
1695713101725774800,12.07377490234375,-0.090484619140625,-0.834503173828125,-0.855712890625
1695713101735326700,12.08332666015625,0.0927734375,-1.36260986328125,-0.619049072265625
1695713101744878800,12.09287890625,0.1025390625,-0.9161376953125,-0.663909912109375
1695713101754430700,12.1024306640625,-0.067596435546875,-0.220947265625,-0.77484130859375
1695713101763952000,12.1119521484375,-0.26123046875,0.2069091796875,-0.765533447265625
1695713101773504300,12.121504150390624,-0.427093505859375,0.53924560546875,-0.5609130859375
1695713101783056100,12.13105615234375,-0.73394775390625,0.946502685546875,-0.18829345703125
1695713101792638700,12.140638671875,-1.0565185546875,1.15325927734375,0.348663330078125
1695713101802190800,12.15019091796875,-1.0784912109375,0.5718994140625,0.84442138671875
1695713101811712300,12.159712158203124,-0.69580078125,-0.648193359375,0.8770751953125
1695713101821264100,12.16926416015625,-0.27618408203125,-0.87982177734375,0.309906005859375
1695713101830816300,12.178816162109374,0.0140380859375,-0.032196044921875,-0.379791259765625
1695713101840368000,12.1883681640625,0.35186767578125,-0.93597412109375,0.26885986328125
1695713101849920300,12.197920166015624,0.641021728515625,-2.01812744140625,1.736297607421875
1695713101859441700,12.207441650390624,0.7122802734375,-1.6778564453125,2.38311767578125
1695713101868993800,12.216993896484375,0.508270263671875,-0.830535888671875,2.112579345703125
1695713101878545700,12.226545654296874,0.155487060546875,-0.21331787109375,1.543426513671875
1695713101888097800,12.236097900390625,-0.125274658203125,0.06866455078125,1.436309814453125
1695713101897619200,12.245619140625,-0.158843994140625,-0.041656494140625,1.795501708984375
1695713101907171300,12.25517138671875,-0.073394775390625,-0.306396484375,2.158660888671875
1695713101916723200,12.26472314453125,0.054931640625,-0.464630126953125,2.235260009765625
1695713101926275300,12.274275390625,0.220184326171875,-0.56121826171875,2.02392578125
1695713101935796700,12.283796630859374,0.3594970703125,-0.50262451171875,1.7120361328125
1695713101945348600,12.2933486328125,0.4290771484375,-0.315093994140625,1.461029052734375
1695713101954900700,12.302900634765624,0.44342041015625,-0.17822265625,1.379547119140625
1695713101964452600,12.31245263671875,0.4205322265625,-0.181884765625,1.498260498046875
1695713101974004700,12.322004638671874,0.35064697265625,-0.364227294921875,1.72882080078125
1695713101983526100,12.331526123046874,0.244598388671875,-0.64453125,1.93023681640625
1695713101993078300,12.341078369140625,0.11749267578125,-0.96038818359375,2.0355224609375
1695713102002630100,12.350630126953124,0.01007080078125,-1.120452880859375,2.03643798828125
1695713102012182300,12.360182373046875,-0.04058837890625,-1.095428466796875,1.9329833984375
1695713102021703700,12.36970361328125,0.00701904296875,-0.826263427734375,1.774444580078125
1695713102031255600,12.379255615234374,0.09552001953125,-0.53680419921875,1.61651611328125
1695713102040807700,12.3888076171875,0.146636962890625,-0.364227294921875,1.515350341796875
1695713102050359800,12.39835986328125,0.144195556640625,-0.29510498046875,1.467742919921875
1695713102059911700,12.40791162109375,0.08331298828125,-0.28228759765625,1.413726806640625
1695713102069433000,12.41743310546875,-0.00518798828125,-0.2825927734375,1.32781982421875
1695713102079015700,12.427015625,-0.099029541015625,-0.29571533203125,1.25213623046875
1695713102088567800,12.43656787109375,-0.174407958984375,-0.341949462890625,1.2286376953125
1695713102098119700,12.44611962890625,-0.208587646484375,-0.378875732421875,1.251220703125
1695713102107641000,12.45564111328125,-0.206451416015625,-0.360260009765625,1.282958984375
1695713102117193200,12.465193115234374,-0.201873779296875,-0.26580810546875,1.300048828125
1695713102126745000,12.4747451171875,-0.209197998046875,-0.13671875,1.3037109375
1695713102136297200,12.484297119140624,-0.225830078125,-0.041961669921875,1.29791259765625
1695713102145849000,12.49384912109375,-0.25238037109375,-0.027923583984375,1.28753662109375
1695713102155370800,12.503370849609375,-0.28717041015625,-0.087738037109375,1.28265380859375
1695713102164922600,12.512922607421874,-0.32318115234375,-0.22216796875,1.2664794921875
1695713102174474800,12.522474853515625,-0.36834716796875,-0.367889404296875,1.23504638671875
1695713102184026600,12.532026611328124,-0.417022705078125,-0.396881103515625,1.192626953125
1695713102193548000,12.541548095703124,-0.464019775390625,-0.335235595703125,1.142425537109375
1695713102203100200,12.55110009765625,-0.501861572265625,-0.360565185546875,1.049652099609375
1695713102212652300,12.56065234375,-0.525360107421875,-0.5279541015625,0.90576171875
1695713102222204200,12.5702041015625,-0.513763427734375,-0.694427490234375,0.742645263671875
1695713102231725600,12.5797255859375,-0.450286865234375,-0.711822509765625,0.595703125
1695713102241277700,12.589277587890624,-0.34576416015625,-0.5926513671875,0.47271728515625
1695713102250829600,12.59882958984375,-0.2459716796875,-0.450897216796875,0.354156494140625
1695713102260381700,12.608381591796874,-0.204925537109375,-0.385284423828125,0.234375
1695713102269933600,12.61793359375,-0.2264404296875,-0.398406982421875,0.130615234375
1695713102279455200,12.627455322265625,-0.28564453125,-0.411529541015625,0.073089599609375
1695713102289007000,12.637007080078124,-0.33782958984375,-0.407257080078125,0.071258544921875
1695713102298559200,12.646559326171875,-0.33538818359375,-0.453338623046875,0.083465576171875
1695713102308111000,12.656111083984374,-0.31219482421875,-0.5291748046875,0.059051513671875
1695713102317632500,12.665632568359374,-0.30853271484375,-0.5908203125,-0.040130615234375
1695713102327184600,12.6751845703125,-0.30792236328125,-0.56671142578125,-0.211181640625
1695713102336736500,12.684736572265624,-0.27923583984375,-0.410003662109375,-0.4254150390625
1695713102346288600,12.69428857421875,-0.264892578125,-0.19256591796875,-0.695953369140625
1695713102355840500,12.703840576171874,-0.22979736328125,0.008392333984375,-1.013946533203125
1695713102365392600,12.713392578125,-0.122833251953125,0.19683837890625,-1.338348388671875
1695713102374944800,12.72294482421875,0.00579833984375,0.44525146484375,-1.6314697265625
1695713102384496600,12.73249658203125,0.130157470703125,0.727081298828125,-1.88690185546875
1695713102394048800,12.742048828125,0.261993408203125,0.943756103515625,-2.118072509765625
1695713102403570200,12.751570068359374,0.41107177734375,1.018524169921875,-2.32025146484375
1695713102413122000,12.7611220703125,0.553741455078125,0.967254638671875,-2.527923583984375
1695713102422674200,12.770674072265624,0.579376220703125,0.89569091796875,-2.7386474609375
1695713102432226000,12.78022607421875,0.4351806640625,0.79986572265625,-2.96295166015625
1695713102441778200,12.789778076171874,0.248260498046875,0.674591064453125,-3.0975341796875
1695713102451299600,12.799299560546874,0.167388916015625,0.45562744140625,-3.05419921875
1695713102460851700,12.808851806640625,0.159454345703125,0.118408203125,-2.902374267578125
1695713102470403600,12.818403564453124,0.1055908203125,-0.318145751953125,-2.7252197265625
1695713102479955700,12.827955810546875,0.076904296875,-0.90240478515625,-2.56988525390625
1695713102489477000,12.83747705078125,0.11016845703125,-1.57501220703125,-2.424468994140625
1695713102499029000,12.847029052734374,0.171051025390625,-2.0257568359375,-2.27783203125
1695713102508581000,12.8565810546875,0.227813720703125,-2.0635986328125,-2.138824462890625
1695713102518133200,12.86613330078125,0.275726318359375,-1.836090087890625,-1.95343017578125
1695713102527654700,12.875654541015624,0.279083251953125,-1.079254150390625,-1.682281494140625
1695713102537206500,12.88520654296875,0.32867431640625,0.018157958984375,-1.402740478515625
1695713102546758700,12.894758544921874,0.44097900390625,1.268310546875,-1.415252685546875
1695713102556310500,12.904310546875,0.502777099609375,2.392120361328125,-1.812896728515625
1695713102565862700,12.913862548828124,0.4119873046875,2.608642578125,-2.259521484375
1695713102575384000,12.923384033203124,0.290985107421875,2.28179931640625,-2.512969970703125
1695713102584936200,12.932936279296875,0.273284912109375,1.90093994140625,-2.58819580078125
1695713102594488000,12.942488037109374,0.3265380859375,1.681976318359375,-2.477264404296875
