time,seconds_elapsed,z,y,x
1696083018249134000,0.331134033203125,7.5540056228637695,2.806004285812378,0.9409212470054626
1696083018259134000,0.341134033203125,7.958625793457031,2.7748796939849854,1.4748282432556152
1696083018269134000,0.351134033203125,8.339303970336914,2.9281086921691895,2.1930887699127197
1696083018279134000,0.361134033203125,8.710405349731445,3.0597896575927734,3.047818660736084
1696083018289134300,0.37113427734375,9.074323654174805,3.205836057662964,3.821146011352539
1696083018299134500,0.381134521484375,9.244312286376953,3.3303346633911133,4.182670593261719
1696083018309134300,0.39113427734375,8.64815616607666,3.2609026432037354,3.9001545906066895
1696083018319134500,0.401134521484375,7.965808391571045,3.2154128551483154,2.8874073028564453
1696083018329134300,0.41113427734375,7.099107265472412,3.406949043273926,2.4157495498657227
1696083018339134500,0.421134521484375,6.526893138885498,3.9432501792907715,2.2864625453948975
1696083018349134300,0.43113427734375,6.256348133087158,4.082113742828369,2.6671407222747803
1696083018359134500,0.441134521484375,6.318597793579102,4.321534156799316,3.2345664501190186
1696083018369134300,0.45113427734375,6.988974094390869,4.091690540313721,3.4787750244140625
1696083018379134500,0.461134521484375,7.204452037811279,4.000710964202881,4.1156325340271
1696083018389134300,0.47113427734375,6.929119110107422,4.067748546600342,4.455609321594238
1696083018399134500,0.481134521484375,6.969820499420166,4.120420932769775,4.07014274597168
1696083018409134300,0.49113427734375,7.158962249755859,4.055777549743652,3.2321722507476807
1696083018419134200,0.50113427734375,6.617872714996338,3.4548330307006836,3.177105665206909
1696083018429134300,0.51113427734375,3.5218706130981445,2.875436305999756,3.758896589279175
1696083018439134200,0.52113427734375,5.166986465454102,2.7916390895843506,5.3920416831970215
1696083018449134300,0.53113427734375,5.966650009155273,2.6862943172454834,4.67827033996582
1696083018459134200,0.54113427734375,4.98742151260376,2.070984363555908,5.372888088226318
1696083018469134300,0.55113427734375,4.177882194519043,1.1971008777618408,5.885247230529785
1696083018479134200,0.56113427734375,3.3016040325164795,1.0438719987869263,5.8349690437316895
1696083018489134300,0.57113427734375,2.164358377456665,0.6272808313369751,4.8937482833862305
1696083018499134200,0.58113427734375,0.751779317855835,-0.6991068720817566,4.244919776916504
1696083018509134300,0.59113427734375,-0.6272808313369751,-2.7964274883270264,4.747702121734619
1696083018519134200,0.60113427734375,-1.4987702369689941,-4.010287761688232,4.627991676330566
1696083018529134300,0.61113427734375,-1.5322890281677246,-4.24970817565918,3.914519786834717
1696083018539134200,0.62113427734375,-0.48602294921875,-4.144362926483154,3.0310592651367188
1696083018549134300,0.63113427734375,1.4700398445129395,-4.242525577545166,2.470816135406494
1696083018559134200,0.64113427734375,3.3470940589904785,-4.570530891418457,2.293645143508911
1696083018569134300,0.65113427734375,5.128679275512695,-4.81473970413208,2.5019407272338867
1696083018579134000,0.661134033203125,6.277895927429199,-4.807557106018066,2.942473888397217
1696083018589133800,0.6711337890625,6.7567362785339355,-5.806238174438477,2.853888511657715
1696083018599134000,0.681134033203125,7.166144847869873,-6.143820762634277,3.5913026332855225
1696083018609133600,0.691133544921875,6.682516098022461,-5.875670433044434,5.937919616699219
1696083018619133700,0.7011337890625,6.055235385894775,-5.758354187011719,8.7391357421875
1696083018629133600,0.711133544921875,5.126285076141357,-5.425560474395752,11.059117317199707
1696083018639133700,0.7211337890625,3.9001545906066895,-5.830180644989014,12.802095413208008
1696083018649133600,0.731133544921875,2.518700122833252,-6.191704750061035,15.428833961486816
1696083018659133700,0.7411337890625,1.3838485479354858,-6.203675746917725,18.799869537353516
1696083018669133600,0.751133544921875,0.689530074596405,-6.275501728057861,22.240337371826172
1696083018679133200,0.76113330078125,0.608127236366272,-6.866869926452637,25.336339950561523
1696083018689133300,0.77113330078125,1.6496049165725708,-6.737582683563232,28.321908950805664
1696083018699133200,0.78113330078125,3.1316158771514893,-6.033687591552734,31.02017593383789
1696083018709133300,0.79113330078125,4.388571739196777,-5.846940040588379,32.49021530151367
1696083018719133400,0.801133544921875,4.901230335235596,-5.684134006500244,32.60034942626953
1696083018729133000,0.811133056640625,4.627991676330566,-4.707000732421875,32.404022216796875
1696083018739133000,0.8211328125,4.316745758056641,-3.9624037742614746,30.23248291015625
1696083018749133000,0.831133056640625,3.665522813796997,-3.514688014984131,26.830322265625
1696083018759133000,0.8411328125,3.88818359375,-3.531447410583496,23.44940948486328
1696083018769133000,0.851133056640625,3.2776620388031006,-3.1196448802948,20.554821014404297
1696083018779134200,0.86113427734375,1.501164436340332,-1.845929503440857,20.724807739257812
1696083018789134000,0.871134033203125,-1.1109095811843872,-2.233790159225464,19.23322105407715
1696083018799134200,0.88113427734375,-1.7525556087493896,-1.5203180313110352,18.555662155151367
1696083018809134000,0.891134033203125,-2.0254945755004883,-1.5179238319396973,17.449541091918945
1696083018819134200,0.90113427734375,-1.742978811264038,-1.6112977266311646,14.741698265075684
1696083018829134000,0.911134033203125,-1.5466543436050415,-1.745373010635376,11.207557678222656
1696083018839134200,0.92113427734375,-1.0103530883789062,-1.5394717454910278,7.039252281188965
1696083018849134000,0.931134033203125,-0.4620809257030487,-0.5602431893348694,3.3662476539611816
1696083018859134200,0.94113427734375,0.17956513166427612,0.9409212470054626,0.5003881454467773
1696083018869134000,0.951134033203125,0.5770025849342346,1.7621324062347412,-1.7908629179000854
1696083018879134500,0.961134521484375,0.9193734526634216,2.2888567447662354,-3.378218650817871
1696083018889134600,0.971134521484375,1.3838485479354858,2.6384103298187256,-4.477157115936279
1696083018899134700,0.981134765625,1.8555063009262085,2.96162748336792,-5.286696434020996
1696083018909134800,0.991134765625,2.0925323963165283,3.0310592651367188,-5.535693645477295
1696083018919134700,1.001134765625,2.1715409755706787,2.6144683361053467,-5.47344446182251
1696083018929134800,1.011134765625,2.0374655723571777,2.0254945755004883,-5.219658851623535
1696083018939135000,1.021135009765625,1.9488801956176758,1.4867992401123047,-4.786009311676025
1696083018949134800,1.031134765625,1.2186486721038818,-0.07422025501728058,-5.463867664337158
1696083018959135000,1.041135009765625,0.849941611289978,-0.14604631066322327,-3.8738183975219727
1696083018969134800,1.051134765625,0.689530074596405,0.7086837291717529,-1.216254472732544
1696083018979135200,1.06113525390625,0.11252748221158981,0.3256114423274994,1.2497732639312744
1696083018989135600,1.071135498046875,-0.9959878921508789,-0.7565677165985107,3.203441858291626
1696083018999135500,1.081135498046875,-2.559401512145996,-1.6543933153152466,4.829104900360107
1696083019009135600,1.091135498046875,-4.323928356170654,-1.721431016921997,6.608295917510986
1696083019019135500,1.101135498046875,-6.325780391693115,-1.335964560508728,9.694421768188477
1696083019029136000,1.111135986328125,-7.0248870849609375,-1.5059528350830078,12.170026779174805
1696083019039137500,1.121137451171875,-6.830956935882568,-2.0446481704711914,14.693514823913574
1696083019049137400,1.131137451171875,-6.5388641357421875,-2.252943754196167,16.580446243286133
1696083019059137500,1.141137451171875,-6.653785705566406,-3.07415509223938,17.61713409423828
1696083019069137400,1.151137451171875,-7.671321392059326,-3.773261785507202,17.96668815612793
1696083019079136300,1.16113623046875,-6.56998872756958,-4.158728122711182,19.755157470703125
1696083019089135900,1.171135986328125,-1.8100165128707886,-4.400542736053467,23.32730484008789
1696083019099135700,1.1811357421875,-0.05027823522686958,-3.1196448802948,26.068965911865234
1696083019109136000,1.191135986328125,0.26336219906806946,-1.4269442558288574,19.036895751953125
1696083019119136000,1.201135986328125,-6.742371082305908,1.2880805730819702,11.669638633728027
1696083019129135900,1.211135986328125,-4.965873718261719,-3.3710360527038574,12.778153419494629
1696083019139136000,1.221135986328125,0.9097966551780701,-5.533299446105957,15.093646049499512
1696083019149136000,1.231135986328125,0.706289529800415,-5.056853294372559,14.42297077178955
1696083019159136000,1.241135986328125,-0.6607996821403503,-4.000710964202881,12.08622932434082
1696083019169135900,1.251135986328125,-0.9983820915222168,-2.7676970958709717,9.495702743530273
1696083019179136000,1.261135986328125,0.8427590131759644,-1.4891934394836426,7.328950881958008
1696083019189136000,1.271135986328125,-1.5921441316604614,0.6129156351089478,6.409577369689941
1696083019199136000,1.281135986328125,0.19632454216480255,-2.006340980529785,4.182670593261719
1696083019209135900,1.291135986328125,-0.17717093229293823,-1.482010841369629,5.150227069854736
1696083019219136000,1.301135986328125,-2.011129379272461,-2.166752576828003,6.672939300537109
1696083019229136000,1.311135986328125,-2.346317768096924,-1.6903064250946045,6.493374347686768
1696083019239135700,1.3211357421875,-1.8602946996688843,-1.4293384552001953,5.497386455535889
1696083019249135900,1.331135986328125,-2.300827741622925,-0.8044517636299133,5.384859085083008
1696083019259135700,1.3411357421875,-2.207453966140747,-0.9097966551780701,5.262754440307617
1696083019269136000,1.351135986328125,-2.7030537128448486,-1.5825673341751099,5.085583686828613
1696083019279135700,1.3611357421875,-1.479616641998291,-1.015141487121582,3.2537200450897217
1696083019289135600,1.371135498046875,-2.4588451385498047,-2.1811177730560303,2.8850131034851074
1696083019299135500,1.381135498046875,-2.4420857429504395,-5.923554420471191,3.5913026332855225
1696083019309135600,1.391135498046875,-1.9393033981323242,-6.127061367034912,2.477998733520508
1696083019319135500,1.401135498046875,-2.123656988143921,-4.7189717292785645,0.17477671802043915
1696083019329135600,1.411135498046875,0.2801215946674347,-5.24838924407959,-0.9433154463768005
1696083019342637800,1.424637939453125,2.669534921646118,-4.661510944366455,-4.242525577545166
1696083019352638000,1.434637939453125,-0.30885201692581177,-5.186140060424805,-4.486733913421631
1696083019362637800,1.444637939453125,-0.9576807022094727,-9.122207641601562,-1.3862427473068237
1696083019372638000,1.454637939453125,0.8092401623725891,-13.192350387573242,0.8834604024887085
1696083019382637800,1.464637939453125,1.0295066833496094,-12.914623260498047,0.4213795065879822
1696083019392638200,1.47463818359375,-0.47165772318840027,-13.786112785339355,2.1595699787139893
1696083019402638300,1.484638427734375,-1.170764684677124,-15.900491714477539,4.548983097076416
1696083019412638200,1.49463818359375,-3.531447410583496,-24.879047393798828,14.636054039001465
1696083019422638300,1.504638427734375,4.089296340942383,-21.237167358398438,10.211569786071777
1696083019432638200,1.51463818359375,6.763918876647949,-17.35856056213379,6.962637901306152
1696083019442638300,1.524638427734375,8.396764755249023,-14.387057304382324,6.196493148803711
1696083019452638200,1.53463818359375,7.264307022094727,-12.691962242126465,6.814197540283203
1696083019462638300,1.544638427734375,4.953902721405029,-10.309731483459473,6.864475727081299
1696083019472638200,1.55463818359375,5.128679275512695,-8.279448509216309,5.24838924407959
1696083019482638300,1.564638427734375,6.749553680419922,-8.102277755737305,3.6296098232269287
1696083019492638200,1.57463818359375,5.040093898773193,-8.092700958251953,3.335123062133789
1696083019502638300,1.584638427734375,1.1348515748977661,-7.841310024261475,1.843535304069519
1696083019512638200,1.59463818359375,-0.48602294921875,-7.293037414550781,1.4173674583435059
1696083019522638300,1.604638427734375,-2.070984363555908,-6.730400085449219,2.118868589401245
1696083019532638200,1.61463818359375,-3.181894063949585,-5.820603370666504,2.87064790725708
1696083019542638300,1.624638427734375,-3.0142998695373535,-5.454290866851807,3.9408559799194336
1696083019552638200,1.63463818359375,-1.3766659498214722,-5.851728439331055,4.003105163574219
1696083019562638300,1.644638427734375,-0.38307225704193115,-6.687304496765137,4.0533833503723145
1696083019572638200,1.65463818359375,0.8020575642585754,-9.864410400390625,4.189853191375732
1696083019582638300,1.664638427734375,2.63362193107605,-12.62971305847168,6.5388641357421875
1696083019592638200,1.67463818359375,3.450044631958008,-15.443199157714844,7.798214435577393
1696083019602638300,1.684638427734375,4.345476150512695,-19.870079040527344,4.8722004890441895
1696083019612638200,1.69463818359375,-0.45489832758903503,-23.55236053466797,2.1978771686553955
1696083019622638300,1.704638427734375,-3.579331636428833,-25.168746948242188,0.21787235140800476
1696083019632638200,1.71463818359375,-6.076783180236816,-25.214235305786133,-0.5363011956214905
1696083019642638300,1.724638427734375,-8.710405349731445,-21.53644371032715,-3.3638534545898438
1696083019652638500,1.734638427734375,-7.1565680503845215,-16.762405395507812,-4.704606533050537
1696083019662638300,1.744638427734375,-4.704606533050537,-12.90025806427002,-4.410119533538818
1696083019672638200,1.75463818359375,-2.671929121017456,-10.240300178527832,-3.5865142345428467
1696083019682638300,1.764638427734375,1.0558429956436157,-8.655338287353516,-3.490746021270752
1696083019692638200,1.77463818359375,5.229235649108887,-7.944260597229004,-4.194641590118408
1696083019702638300,1.784638427734375,7.798214435577393,-7.530063629150391,-5.772719383239746
1696083019712638200,1.79463818359375,7.695263385772705,-7.386411666870117,-6.53646993637085
1696083019722638300,1.804638427734375,5.583577632904053,-7.635408401489258,-6.390423774719238
1696083019732638200,1.81463818359375,2.389413356781006,-8.233959197998047,-4.865017890930176
1696083019742638300,1.824638427734375,-0.6153098344802856,-8.882787704467773,-3.332728862762451
1696083019752638200,1.83463818359375,-2.583343744277954,-9.5316162109375,-2.1284453868865967
1696083019762638300,1.844638427734375,-3.8786067962646484,-9.952995300292969,-1.3862427473068237
1696083019772638200,1.85463818359375,-4.750096321105957,-10.094253540039062,-0.7733271718025208
1696083019782638300,1.864638427734375,-4.800374507904053,-10.034399032592773,-0.0454898327589035
1696083019792638200,1.87463818359375,-3.732560396194458,-9.957783699035645,0.4836287498474121
1696083019802638300,1.884638427734375,-2.6671407222747803,-9.852438926696777,0.7493851184844971
1696083019812638500,1.894638427734375,-2.0685901641845703,-9.792584419250488,0.9433154463768005
1696083019822638300,1.904638427734375,-1.7932571172714233,-9.787796020507812,1.1779472827911377
1696083019832638500,1.914638427734375,-1.6280571222305298,-9.749488830566406,1.5131354331970215
1696083019842638300,1.924638427734375,-1.4460978507995605,-9.732728958129883,1.8315643072128296
1696083019852638200,1.93463818359375,-1.139639973640442,-9.720758438110352,2.0207061767578125
1696083019862638300,1.944638427734375,-0.7876923680305481,-9.773430824279785,2.1284453868865967
1696083019872638200,1.95463818359375,-0.47165772318840027,-9.816526412963867,2.10210919380188
1696083019882638300,1.964638427734375,-0.19153612852096558,-9.814131736755371,1.9728221893310547
1696083019892638200,1.97463818359375,0.0454898327589035,-9.864410400390625,1.702277421951294
1696083019902638300,1.984638427734375,0.08619125932455063,-9.876380920410156,1.3958195447921753
1696083019912638200,1.99463818359375,-0.009576806798577309,-9.890746116638184,1.0319008827209473
1696083019922638300,2.004638427734375,-0.2585737705230713,-9.919476509094238,0.6775590777397156
1696083019932638200,2.01463818359375,-0.5482721924781799,-9.89553451538086,0.33997663855552673
1696083019942638300,2.024638427734375,-0.9217676520347595,-9.864410400390625,0.023942016065120697
1696083019952638200,2.03463818359375,-1.1659762859344482,-9.826103210449219,-0.17956513166427612
1696083019962638300,2.044638427734375,-1.2042834758758545,-9.773430824279785,-0.3495534360408783
1696083019972638200,2.05463818359375,-1.1540051698684692,-9.933841705322266,-0.3878606855869293
1696083019982638300,2.064638427734375,-1.0821791887283325,-9.878775596618652,-0.4836287498474121
1696083019992638200,2.07463818359375,-1.0749965906143188,-9.718363761901855,-0.5027823448181152
1696083020002638300,2.084638427734375,-1.1109095811843872,-9.574711799621582,-0.6105214357376099
1696083020012638200,2.09463818359375,-1.0271124839782715,-9.567529678344727,-0.5386953949928284
1696083020022638300,2.104638427734375,-1.0749965906143188,-9.737517356872559,-0.3998316824436188
1696083020032638200,2.11463818359375,-1.2234370708465576,-9.917082786560059,-0.3280056416988373
1696083020042638300,2.124638427734375,-1.434126853942871,-10.043975830078125,-0.35434186458587646
1696083020052638500,2.134638427734375,-1.6328455209732056,-9.993697166442871,-0.4357447028160095
1696083020062638300,2.144638427734375,-1.7884687185287476,-9.778219223022461,-0.49320554733276367
1696083020072638500,2.154638427734375,-1.900996208190918,-9.579500198364258,-0.5291185975074768
1696083020082638300,2.164638427734375,-1.9919757843017578,-9.52922248840332,-0.4572925269603729
1696083020092638500,2.174638427734375,-2.0254945755004883,-9.605836868286133,-0.35673606395721436
1696083020102638300,2.184638427734375,-2.027888774871826,-9.771036148071289,-0.19632454216480255
1696083020112638200,2.19463818359375,-2.0638017654418945,-9.972148895263672,-0.17477671802043915
1696083020122638300,2.204638427734375,-2.1140801906585693,-10.065523147583008,-0.24899697303771973
1696083020132638200,2.21463818359375,-1.946485996246338,-10.063129425048828,-0.19393034279346466
1696083020142638300,2.224638427734375,-1.8148049116134644,-9.996091842651367,-0.22026655077934265
1696083020152638200,2.23463818359375,-1.5873557329177856,-9.938630104064941,-0.05506663769483566
1696083020162638300,2.244638427734375,-1.3670891523361206,-10.010457038879395,0.06703764945268631
1696083020172638500,2.254638427734375,-1.2234370708465576,-10.201992988586426,0.17956513166427612
1696083020182638300,2.264638427734375,-1.1516109704971313,-10.25466537475586,0.17717093229293823
1696083020192638500,2.274638427734375,-1.0965443849563599,-10.201992988586426,0.12689268589019775
1696083020202638300,2.284638427734375,-1.0295066833496094,-10.053552627563477,0.05746084079146385
1696083020212638500,2.294638427734375,-0.9720458984375,-9.900322914123535,-0.009576806798577309
1696083020222638300,2.304638427734375,-0.9217676520347595,-9.783007621765137,-0.06224924325942993
1696083020232638500,2.314638427734375,-0.8619126081466675,-9.703998565673828,-0.12928688526153564
1696083020242638300,2.324638427734375,-0.7924807667732239,-9.699210166931152,-0.2346317619085312
1696083020252638500,2.334638427734375,-0.6847416758537292,-9.682451248168945,-0.42856210470199585
1696083020262638300,2.344638427734375,-0.5961562395095825,-9.615413665771484,-0.629675030708313
1696083020272638200,2.35463818359375,-0.545877993106842,-9.502885818481445,-0.7469909191131592
1696083020282638300,2.364638427734375,-0.5746083855628967,-9.455001831054688,-0.7230489253997803
1696083020292638500,2.374638427734375,-0.6703764796257019,-9.452607154846191,-0.7015010714530945
1696083020302638300,2.384638427734375,-0.7326257228851318,-9.438241958618164,-0.7422025203704834
1696083020312638200,2.39463818359375,-0.7541735172271729,-9.466972351074219,-0.7781155705451965
1696083020322638300,2.404638427734375,-0.667982280254364,-9.543587684631348,-0.8906430602073669
1696083020332638200,2.41463818359375,-0.4692635238170624,-9.701604843139648,-0.9624691009521484
1696083020342638300,2.424638427734375,-0.14604631066322327,-9.96257209777832,-0.9768342971801758
1696083020352638200,2.43463818359375,0.42377370595932007,-10.35761547088623,-0.8595184087753296
1696083020362638300,2.444638427734375,1.2186486721038818,-10.80772590637207,-0.6512228846549988
1696083020372638200,2.45463818359375,2.1045033931732178,-11.17164421081543,-0.35434186458587646
1696083020382638300,2.464638427734375,2.9233202934265137,-11.23868179321289,0.033518824726343155
1696083020392638200,2.47463818359375,3.2968156337738037,-11.039963722229004,0.4836287498474121
1696083020402638300,2.484638427734375,2.9975404739379883,-10.790966033935547,1.015141487121582
1696083020412638200,2.49463818359375,2.1715409755706787,-10.726323127746582,1.6376339197158813
1696083020422638300,2.504638427734375,1.1659762859344482,-10.838850021362305,2.1954829692840576
1696083020432638200,2.51463818359375,0.3471592366695404,-11.02320384979248,2.5330653190612793
1696083020442638300,2.524638427734375,0.0694318488240242,-11.300930976867676,2.451662540435791
1696083020452638200,2.53463818359375,0.6703764796257019,-11.834837913513184,2.0829553604125977
1696083020462638300,2.544638427734375,1.7764976024627686,-12.790124893188477,1.9608511924743652
1696083020472638000,2.554637939453125,2.676717519760132,-13.74780559539795,2.2840683460235596
1696083020482637800,2.564637939453125,2.873042106628418,-14.116512298583984,2.779668092727661
1696083020492638000,2.574637939453125,2.5282769203186035,-13.838785171508789,3.292027235031128
1696083020502637800,2.584637939453125,2.0231003761291504,-13.158831596374512,3.6774938106536865
1696083020512638000,2.594637939453125,1.601720929145813,-12.284948348999023,3.9624037742614746
1696083020522637800,2.604637939453125,1.2545616626739502,-11.427824020385742,4.089296340942383
1696083020532638000,2.614637939453125,1.0079588890075684,-10.862792015075684,3.5051112174987793
1696083020542637800,2.624637939453125,0.7038952708244324,-10.975319862365723,2.3367409706115723
1696083020552638000,2.634637939453125,-0.6177040338516235,-11.918635368347168,0.6440402865409851
1696083020562637800,2.644637939453125,-1.4245500564575195,-13.039121627807617,-1.3215993642807007
1696083020572638000,2.654637939453125,-1.8076223134994507,-14.015955924987793,-2.87064790725708
1696083020582637800,2.664637939453125,-2.006340980529785,-14.652813911437988,-4.050989151000977
1696083020592638000,2.674637939453125,-2.513911724090576,-14.48282527923584,-4.580107688903809
1696083020602637800,2.684637939453125,-3.050212860107422,-13.529932975769043,-4.60165548324585
1696083020612637400,2.694637451171875,-2.87064790725708,-12.430994033813477,-4.405331134796143
1696083020622637300,2.70463720703125,-2.628833532333374,-11.437400817871094,-3.952826976776123
1696083020632637400,2.714637451171875,-2.1787235736846924,-10.877157211303711,-3.378218650817871
1696083020642637300,2.72463720703125,-1.599326729774475,-10.515633583068848,-2.851494312286377
1696083020652637400,2.734637451171875,-0.8523358106613159,-10.168474197387695,-2.2409727573394775
1696083020662637600,2.744637451171875,-1.2425906658172607,-9.981725692749023,-1.0749965906143188
1696083020672637400,2.754637451171875,-2.2002713680267334,-9.998485565185547,0.12689268589019775
1696083020682637300,2.76463720703125,-1.280897855758667,-9.715970039367676,0.9002198576927185
1696083020692637400,2.774637451171875,0.038307227194309235,-9.392752647399902,1.015141487121582
1696083020702637300,2.78463720703125,0.8571242094039917,-9.115025520324707,0.9433154463768005
1696083020712637400,2.794637451171875,0.9217676520347595,-9.031228065490723,0.9528923034667969
1696083020722637300,2.80463720703125,0.3878606855869293,-9.107842445373535,0.7613561153411865
1696083020732637400,2.814637451171875,-0.38546648621559143,-9.162909507751465,0.3495534360408783
1696083020742637300,2.82463720703125,-0.9552865028381348,-9.208398818969727,-0.1149216815829277
1696083020752637400,2.834637451171875,-1.5155296325683594,-9.392752647399902,-0.28969839215278625
1696083020762637300,2.84463720703125,-1.5490485429763794,-9.514857292175293,-0.5985504388809204
1696083020772637700,2.8546376953125,-1.0773907899856567,-9.524434089660645,-1.091755986213684
1696083020782637800,2.864637939453125,-0.6416460275650024,-9.438241958618164,-1.5059528350830078
1696083020792638000,2.874637939453125,-0.4405331015586853,-9.186851501464844,-1.7597382068634033
1696083020802637800,2.884637939453125,-0.40940847992897034,-8.877999305725098,-1.9129672050476074
1696083020812638000,2.894637939453125,-0.5985504388809204,-8.482955932617188,-1.9704279899597168
1696083020822637800,2.904637939453125,-0.8379706144332886,-8.023268699645996,-2.056619167327881
1696083020832638000,2.914637939453125,-0.9193734526634216,-7.628225803375244,-2.0661959648132324
1696083020842637800,2.924637939453125,-0.9648633003234863,-7.230788230895996,-2.145204782485962
1696083020852638000,2.934637939453125,-0.9959878921508789,-6.8932061195373535,-2.1763293743133545
1696083020862637800,2.944637939453125,-0.9361328482627869,-6.534075736999512,-2.1763293743133545
1696083020872638000,2.954637939453125,-0.7948749661445618,-6.060023784637451,-2.207453966140747
1696083020882637800,2.964637939453125,-0.6847416758537292,-5.6554036140441895,-2.3367409706115723
1696083020892638000,2.974637939453125,-0.507570743560791,-5.2555718421936035,-2.518700122833252
1696083020902637800,2.984637939453125,-0.2944868206977844,-4.855441093444824,-2.6192567348480225
1696083020912638200,2.99463818359375,-0.002394201699644327,-4.503493309020996,-2.580949544906616
1696083020922638300,3.004638427734375,0.37828385829925537,-4.23773717880249,-2.4372973442077637
1696083020932638200,3.01463818359375,0.7589619159698486,-4.129997730255127,-2.118868589401245
1696083020942638300,3.024638427734375,1.1683704853057861,-4.240131378173828,-1.5825673341751099
1696083020952638200,3.03463818359375,1.7381904125213623,-4.608838081359863,-0.6368576288223267
1696083020962638300,3.044638427734375,2.652775526046753,-5.257966041564941,0.5674257874488831
1696083020972638200,3.05463818359375,3.914519786834717,-6.225223541259766,1.5753847360610962
1696083020982638300,3.064638427734375,5.341763496398926,-7.41753625869751,2.719813108444214
1696083020992638200,3.07463818359375,6.804620742797852,-8.86363410949707,4.151545524597168
1696083021002638300,3.084638427734375,7.32655668258667,-10.573094367980957,5.961861610412598
1696083021012638200,3.09463818359375,7.50851583480835,-12.646472930908203,7.814973831176758
1696083021022638300,3.104638427734375,8.669703483581543,-14.95957088470459,9.34965705871582
1696083021032638200,3.11463818359375,9.577106475830078,-16.92760467529297,10.043975830078125
1696083021042638300,3.124638427734375,9.447818756103516,-17.890073776245117,9.988908767700195
1696083021052638500,3.134638427734375,8.408735275268555,-16.87253761291504,9.009679794311523
1696083021062638300,3.144638427734375,6.438307762145996,-14.528315544128418,6.725611686706543
1696083021072638500,3.154638427734375,4.431667327880859,-11.308114051818848,4.527435302734375
1696083021082638300,3.164638427734375,2.7892448902130127,-8.473379135131836,2.75812029838562
1696083021092638200,3.17463818359375,1.8387469053268433,-7.788637638092041,1.173158884048462
1696083021102638300,3.184638427734375,1.9991583824157715,-8.655338287353516,0.17238251864910126
1696083021112638200,3.19463818359375,1.7501614093780518,-10.237905502319336,-0.9169792532920837
1696083021122638300,3.204638427734375,0.17477671802043915,-12.804490089416504,-2.403778553009033
1696083021132638200,3.21463818359375,-1.9393033981323242,-15.301941871643066,-3.318363666534424
1696083021142638300,3.224638427734375,-3.404554843902588,-16.786346435546875,-3.773261785507202
1696083021152638200,3.23463818359375,-2.911349296569824,-17.54770278930664,-4.24970817565918
1696083021162638300,3.244638427734375,-1.7166426181793213,-16.321870803833008,-4.189853191375732
1696083021172638200,3.25463818359375,-2.2625205516815186,-13.180379867553711,-3.93367338180542
1696083021182638300,3.264638427734375,-2.4803929328918457,-10.28818416595459,-3.450044631958008
1696083021192638200,3.27463818359375,-2.9305028915405273,-8.109460830688477,-3.711012601852417
1696083021202638300,3.284638427734375,-3.428496837615967,-6.019322395324707,-4.144362926483154
1696083021212638200,3.29463818359375,-3.485957622528076,-4.089296340942383,-4.367023944854736
1696083021222638300,3.304638427734375,-3.957615375518799,-2.8155810832977295,-4.558559894561768
1696083021232638200,3.31463818359375,-3.313575267791748,-3.0119056701660156,-4.623203277587891
1696083021242638300,3.324638427734375,-2.1595699787139893,-4.522646903991699,-4.49870491027832
1696083021252638200,3.33463818359375,-1.920149803161621,-6.431125164031982,-4.671087741851807
1696083021262638300,3.344638427734375,-1.577778935432434,-8.34648609161377,-4.32871675491333
1696083021272638200,3.35463818359375,-1.0845733880996704,-10.020033836364746,-3.184288263320923
1696083021282638300,3.364638427734375,-0.9217676520347595,-11.154885292053223,-1.9345149993896484
1696083021292638200,3.37463818359375,-0.9481038451194763,-12.033556938171387,-0.8810662031173706
1696083021302638300,3.384638427734375,-0.5123591423034668,-12.440570831298828,0.2944868206977844
1696083021312638200,3.39463818359375,1.0103530883789062,-12.378321647644043,1.6519991159439087
1696083021322638300,3.404638427734375,3.1962592601776123,-12.08383560180664,2.940079689025879
1696083021332638200,3.41463818359375,4.843470096588135,-11.396698951721191,3.6798880100250244
1696083021342638300,3.424638427734375,4.759673118591309,-10.261847496032715,3.5673606395721436
1696083021352638200,3.43463818359375,3.112462282180786,-9.220370292663574,2.9903578758239746
1696083021362638300,3.444638427734375,1.1875240802764893,-8.545205116271973,2.425326347351074
1696083021372638200,3.45463818359375,-0.3232172429561615,-8.415918350219727,2.1164743900299072
1696083021382638300,3.464638427734375,-1.2641384601593018,-8.743924140930176,2.0183119773864746
1696083021392638200,3.47463818359375,-1.8842366933822632,-8.952219009399414,1.944091796875
1696083021402638300,3.484638427734375,-2.4444799423217773,-8.99052619934082,1.8986018896102905
1696083021412638200,3.49463818359375,-2.8395233154296875,-9.07911205291748,1.5921441316604614
1696083021422638300,3.504638427734375,-2.8658595085144043,-9.275436401367188,1.216254472732544
1696083021432638200,3.51463818359375,-2.647987127304077,-9.268254280090332,0.8810662031173706
1696083021442638300,3.524638427734375,-2.293645143508911,-9.119813919067383,0.44771572947502136
1696083021452638200,3.53463818359375,-1.8267759084701538,-9.007286071777344,-0.10055647045373917
1696083021462638000,3.54463818359375,-1.1061211824417114,-8.949825286865234,-0.6177040338516235
1696083021472638200,3.55463818359375,-0.2059013396501541,-8.997709274291992,-0.9145850539207458
1696083021482638000,3.56463818359375,0.6129156351089478,-9.016862869262695,-1.1516109704971313
1696083021492638200,3.57463818359375,1.1994950771331787,-9.07911205291748,-1.3742717504501343
1696083021502638000,3.58463818359375,1.1899182796478271,-9.026439666748047,-1.721431016921997
1696083021512638200,3.59463818359375,0.8906430602073669,-9.033622741699219,-1.9321208000183105
1696083021522638000,3.60463818359375,0.4812345504760742,-9.07911205291748,-1.9177556037902832
1696083021532638200,3.61463818359375,0.10055647045373917,-9.182063102722168,-1.86508309841156
1696083021542638000,3.62463818359375,0.004788403399288654,-9.493309020996094,-1.920149803161621
1696083021552638200,3.63463818359375,0.2944868206977844,-9.96017837524414,-1.8626888990402222
1696083021562638000,3.64463818359375,0.8068459630012512,-10.484508514404297,-1.6974890232086182
1696083021572638200,3.65463818359375,1.4963760375976562,-11.087847709655762,-1.3503297567367554
1696083021582638000,3.66463818359375,2.1356279850006104,-11.322479248046875,-0.8667010068893433
1696083021592638200,3.67463818359375,2.2601263523101807,-11.123760223388672,-0.15801730751991272
1696083021602638000,3.68463818359375,1.766920804977417,-11.006444931030273,0.7805097699165344
1696083021612638200,3.69463818359375,0.9289502501487732,-11.176432609558105,1.764526605606079
1696083021622638000,3.70463818359375,-0.06703764945268631,-11.636119842529297,2.6599581241607666
1696083021632638200,3.71463818359375,-1.0007762908935547,-12.284948348999023,3.56017804145813
1696083021642638000,3.72463818359375,-1.6089035272598267,-12.847585678100586,4.414907932281494
1696083021652638200,3.73463818359375,-1.625662922859192,-13.05588150024414,5.310638427734375
1696083021662638000,3.74463818359375,-0.8259995579719543,-12.739846229553223,5.94749641418457
1696083021672638200,3.75463818359375,0.4836287498474121,-12.296918869018555,5.892429828643799
1696083021682638000,3.76463818359375,1.623268723487854,-12.474090576171875,5.55245304107666
1696083021692638200,3.77463818359375,2.5043349266052246,-13.041516304016113,4.865017890930176
1696083021702638000,3.78463818359375,3.1507694721221924,-13.678373336791992,3.890577793121338
1696083021712638200,3.79463818359375,3.49314022064209,-14.260164260864258,3.0621838569641113
1696083021722638000,3.80463818359375,3.6535518169403076,-14.535497665405273,2.3774423599243164
1696083021732638200,3.81463818359375,3.9169139862060547,-14.35832691192627,1.8794482946395874
1696083021742638000,3.82463818359375,4.3622355461120605,-13.515567779541016,1.1013327836990356
1696083021752638200,3.83463818359375,5.430348873138428,-12.574646949768066,-0.15322890877723694
1696083021762638300,3.844638427734375,4.9922099113464355,-12.225092887878418,-0.9624691009521484
1696083021772638200,3.85463818359375,2.782062292098999,-12.280159950256348,-1.4867992401123047
1696083021782638300,3.864638427734375,0.7876923680305481,-12.608165740966797,-2.3965959548950195
1696083021792638200,3.87463818359375,-0.8188169598579407,-13.14925479888916,-3.026270866394043
1696083021802638300,3.884638427734375,-1.1085153818130493,-13.99440860748291,-3.8115692138671875
1696083021812638200,3.89463818359375,-2.0159177780151367,-15.151106834411621,-4.802768707275391
1696083021822638300,3.904638427734375,-3.7612907886505127,-15.53657341003418,-5.650615215301514
1696083021832638200,3.91463818359375,-4.788403511047363,-15.270816802978516,-5.818209171295166
1696083021842638300,3.924638427734375,-4.833893299102783,-14.427759170532227,-5.617096424102783
1696083021852638200,3.93463818359375,-3.998316764831543,-13.347973823547363,-4.7836151123046875
1696083021862638300,3.944638427734375,-2.940079689025879,-12.471695899963379,-3.2321722507476807
1696083021872638200,3.95463818359375,-0.6368576288223267,-11.772588729858398,-1.721431016921997
1696083021882638300,3.964638427734375,1.2282254695892334,-11.32966136932373,-0.2801215946674347
1696083021892638200,3.97463818359375,1.7094600200653076,-10.910676002502441,0.7086837291717529
1696083021902638300,3.984638427734375,1.1468225717544556,-10.434229850769043,1.1683704853057861
1696083021912638200,3.99463818359375,-0.08619125932455063,-9.790189743041992,1.1228805780410767
1696083021922638300,4.004638427734375,-0.9720458984375,-9.16769790649414,0.8092401623725891
1696083021932638200,4.01463818359375,-1.4987702369689941,-8.688857078552246,0.5602431893348694
1696083021942638300,4.024638427734375,-1.4844050407409668,-8.21959400177002,-0.05506663769483566
1696083021952638200,4.03463818359375,-1.7597382068634033,-7.690474987030029,-0.586579442024231
1696083021962638300,4.044638427734375,-1.900996208190918,-7.257124423980713,-1.0845733880996704
1696083021972638200,4.05463818359375,-1.5466543436050415,-6.723217487335205,-1.656787633895874
1696083021982638300,4.064638427734375,-1.2090718746185303,-6.361693382263184,-2.03507137298584
1696083021992638200,4.07463818359375,-0.8762778043746948,-6.153397560119629,-2.229001760482788
1696083022002638300,4.084638427734375,-0.6105214357376099,-6.014533996582031,-2.3726539611816406
1696083022012638200,4.09463818359375,-0.5889736413955688,-5.8780646324157715,-2.3582887649536133
1696083022022638300,4.104638427734375,-0.6536170840263367,-5.770325183868408,-2.255337953567505
1696083022032638200,4.11463818359375,-0.7445967197418213,-5.700893402099609,-2.0925323963165283
1696083022042638300,4.124638427734375,-0.9097966551780701,-5.662586212158203,-1.86508309841156
1696083022052638500,4.134638427734375,-1.1827356815338135,-5.614702224731445,-1.5490485429763794
1696083022062638300,4.144638427734375,-1.436521053314209,-5.454290866851807,-1.4437036514282227
1696083022072638500,4.154638427734375,-1.6831238269805908,-5.2364182472229,-1.5897499322891235
1696083022082638300,4.164638427734375,-1.944091796875,-4.925172328948975,-2.0231003761291504
1696083022092638200,4.17463818359375,-2.075772762298584,-4.5394062995910645,-2.5905263423919678
1696083022102638300,4.184638427734375,-1.920149803161621,-4.1395745277404785,-3.1914708614349365
1696083022112638200,4.19463818359375,-1.599326729774475,-3.7828385829925537,-3.6774938106536865
1696083022122638300,4.204638427734375,-1.0678139925003052,-3.5218706130981445,-4.015076160430908
1696083022132638200,4.21463818359375,-0.4141969084739685,-3.6296098232269287,-4.019864559173584
1696083022142638300,4.224638427734375,0.2059013396501541,-4.350264549255371,-3.1004912853240967
1696083022152638200,4.23463818359375,1.0654197931289673,-5.504569053649902,-1.3263877630233765
1696083022162638300,4.244638427734375,2.937685489654541,-7.099107265472412,1.0247182846069336
1696083022172638200,4.25463818359375,6.371270179748535,-9.402329444885254,3.294421434402466
1696083022182638300,4.264638427734375,9.215581893920898,-12.1101713180542,5.511751651763916
1696083022192638200,4.27463818359375,9.150938034057617,-14.796765327453613,7.245153427124023
1696083022202638300,4.284638427734375,8.480561256408691,-16.973094940185547,8.492532730102539
1696083022212638200,4.29463818359375,9.627384185791016,-18.244415283203125,10.0487642288208
1696083022222638300,4.304638427734375,11.159673690795898,-18.014572143554688,11.233893394470215
1696083022232638200,4.31463818359375,9.759065628051758,-16.724098205566406,11.284172058105469
1696083022242638300,4.324638427734375,7.137414455413818,-14.842254638671875,8.461407661437988
1696083022252638200,4.33463818359375,5.15740966796875,-12.962507247924805,5.0161519050598145
1696083022262638300,4.344638427734375,3.936067581176758,-10.905887603759766,2.87064790725708
1696083022272638200,4.35463818359375,3.471592426300049,-8.693645477294922,1.6184803247451782
1696083022282638300,4.364638427734375,3.339911460876465,-8.123826026916504,0.6416460275650024
1696083022292638200,4.37463818359375,3.426102638244629,-9.754277229309082,0.07661445438861847
1696083022302638300,4.384638427734375,3.28963303565979,-11.478102684020996,-0.3687070608139038
1696083022312638200,4.39463818359375,2.655169725418091,-13.283329963684082,-0.790086567401886
1696083022322638300,4.404638427734375,0.9241618514060974,-15.601217269897461,-0.9385270476341248
1696083022332638200,4.41463818359375,-0.5363011956214905,-17.406444549560547,-1.2689268589019775
1696083022342638300,4.424638427734375,2.3056161403656006,-17.67459487915039,-2.2194249629974365
1696083022352638200,4.43463818359375,1.072602391242981,-14.185944557189941,-1.867477297782898
1696083022362638300,4.444638427734375,-3.179499864578247,-11.11178970336914,-1.968033790588379
1696083022372638200,4.45463818359375,-5.001786708831787,-8.95700740814209,-2.360682964324951
1696083022382638300,4.464638427734375,-5.614702224731445,-7.738358974456787,-3.3231520652770996
1696083022392638200,4.47463818359375,-6.000168800354004,-6.256348133087158,-3.9408559799194336
1696083022402638300,4.484638427734375,-6.021716594696045,-4.874594688415527,-3.60566782951355
1696083022412638200,4.49463818359375,-5.320215225219727,-4.151545524597168,-2.6791117191314697
1696083022422638000,4.50463818359375,-4.37420654296875,-4.335899353027344,-2.0614075660705566
1696083022432638200,4.51463818359375,-3.6942532062530518,-4.881777286529541,-2.0183119773864746
1696083022442638000,4.52463818359375,-3.339911460876465,-5.887641429901123,-2.0638017654418945
1696083022452638200,4.53463818359375,-1.946485996246338,-7.795820236206055,-2.801215887069702
1696083022462638300,4.544638427734375,-0.524330198764801,-9.684844970703125,-2.6671407222747803
1696083022472638200,4.55463818359375,0.1867477297782898,-11.027992248535156,-2.070984363555908
1696083022482638000,4.56463818359375,0.6105214357376099,-11.830049514770508,-1.45806884765625
1696083022492638200,4.57463818359375,1.0582371950149536,-12.071864128112793,-0.5051765441894531
1696083022502638000,4.58463818359375,1.7741034030914307,-11.62175464630127,0.9672574996948242
1696083022512638200,4.59463818359375,2.8658595085144043,-10.910676002502441,2.2218191623687744
1696083022522638000,4.60463818359375,3.7684733867645264,-10.211569786071777,3.021482467651367
1696083022532638200,4.61463818359375,4.151545524597168,-9.514857292175293,2.956839084625244
1696083022542638000,4.62463818359375,3.708618402481079,-8.7391357421875,2.051830768585205
1696083022552638200,4.63463818359375,2.456450939178467,-8.19804573059082,0.7709329724311829
1696083022562638300,4.644638427734375,0.7110779285430908,-8.154950141906738,-0.16519992053508759
1696083022572638200,4.65463818359375,-0.9648633003234863,-8.600272178649902,-0.4884171485900879
1696083022582638000,4.66463818359375,-2.078166961669922,-8.959402084350586,-0.9026140570640564
1696083022592638200,4.67463818359375,-2.5546131134033203,-9.306561470031738,-1.2449848651885986
1696083022602638000,4.68463818359375,-3.069366693496704,-9.5531644821167,-1.235408067703247
1696083022612638200,4.69463818359375,-3.622427225112915,-9.581894874572754,-1.1683704853057861
1696083022622638000,4.70463818359375,-3.4524388313293457,-9.337685585021973,-1.2018892765045166
1696083022632638200,4.71463818359375,-2.3032219409942627,-9.268254280090332,-1.0031704902648926
1696083022642638000,4.72463818359375,-0.9385270476341248,-9.378387451171875,-0.5602431893348694
1696083022652638200,4.73463818359375,0.49320554733276367,-9.411906242370605,-0.395043283700943
1696083022662638300,4.744638427734375,1.4077905416488647,-9.507674217224121,-0.08619125932455063
1696083022672638200,4.75463818359375,1.6687586307525635,-9.663297653198242,0.40462008118629456
1696083022682638000,4.76463818359375,1.4867992401123047,-9.74470043182373,0.7326257228851318
1696083022692638200,4.77463818359375,0.8643068075180054,-9.771036148071289,0.727837324142456
1696083022702638000,4.78463818359375,0.08858546614646912,-9.917082786560059,0.5410895943641663
1696083022712638200,4.79463818359375,-0.31603461503982544,-10.190021514892578,0.22505496442317963
1696083022722638300,4.804638427734375,-0.05746084079146385,-10.546757698059082,0.031124621629714966
1696083022732638200,4.81463818359375,0.8403648138046265,-10.822091102600098,-0.004788403399288654
1696083022742638300,4.824638427734375,2.1380221843719482,-10.834061622619629,0.11971008777618408
1696083022752638200,4.83463818359375,3.31118106842041,-10.604218482971191,0.3902548849582672
1696083022762638300,4.844638427734375,3.8379054069519043,-10.252270698547363,0.9050082564353943
1696083022772638200,4.85463818359375,3.4308910369873047,-9.912294387817383,1.522712230682373
1696083022782638300,4.864638427734375,2.3726539611816406,-9.718363761901855,2.233790159225464
1696083022792638200,4.87463818359375,1.0342950820922852,-9.816526412963867,2.8586769104003906
1696083022802638300,4.884638427734375,-0.35673606395721436,-10.118195533752441,3.5051112174987793
1696083022812638200,4.89463818359375,-1.6065093278884888,-10.484508514404297,4.180276393890381
1696083022822638300,4.904638427734375,-2.406172752380371,-10.877157211303711,4.985027313232422
1696083022832638200,4.91463818359375,-2.2577321529388428,-11.142913818359375,5.882853031158447
1696083022842638300,4.924638427734375,-0.7398083209991455,-11.018415451049805,6.4502787590026855
1696083022852638200,4.93463818359375,1.7884687185287476,-10.747870445251465,6.335357189178467
1696083022862638300,4.944638427734375,4.2975921630859375,-10.802937507629395,5.624279022216797
1696083022872638200,4.95463818359375,5.925948619842529,-11.423035621643066,4.750096321105957
1696083022882638300,4.964638427734375,5.839757442474365,-12.411840438842773,3.804386615753174
1696083022892638200,4.97463818359375,4.697423934936523,-13.189956665039062,2.9735984802246094
1696083022902638300,4.984638427734375,3.337517261505127,-13.855544090270996,2.2218191623687744
1696083022912638200,4.99463818359375,3.1004912853240967,-14.092570304870605,1.1659762859344482
1696083022922638300,5.004638427734375,3.73016619682312,-13.913004875183105,0.43095630407333374
1696083022932638200,5.01463818359375,3.1004912853240967,-13.857938766479492,0.181959331035614
1696083022942638300,5.024638427734375,1.048660397529602,-14.152425765991211,-0.1628057211637497
1696083022952638200,5.03463818359375,-0.49559974670410156,-14.8374662399292,-1.0247182846069336
1696083022962638000,5.04463818359375,-0.9097966551780701,-15.833454132080078,-1.9321208000183105
1696083022972638200,5.05463818359375,-1.2856862545013428,-16.846200942993164,-3.4620156288146973
1696083022982638300,5.064638427734375,-2.1164743900299072,-18.33778953552246,-5.47344446182251
1696083022992638200,5.07463818359375,-2.889801502227783,-19.386449813842773,-6.979397296905518
1696083023002638300,5.084638427734375,-4.0294413566589355,-19.336172103881836,-7.63301420211792
1696083023012638200,5.09463818359375,-4.271255970001221,-17.507001876831055,-7.692869186401367
1696083023022638300,5.104638427734375,-3.021482467651367,-14.825495719909668,-6.52449893951416
1696083023032638200,5.11463818359375,-1.7549498081207275,-13.010391235351562,-4.651933670043945
1696083023042638300,5.124638427734375,-0.2849099934101105,-11.830049514770508,-2.7222073078155518
1696083023052638200,5.13463818359375,0.8188169598579407,-11.095029830932617,-0.8236053586006165
1696083023062638300,5.144638427734375,1.0295066833496094,-10.71674633026123,0.40701428055763245
1696083023072638200,5.15463818359375,0.6392518281936646,-10.376769065856934,1.0342950820922852
1696083023082638300,5.164638427734375,0.3711012601852417,-9.80216121673584,1.1994950771331787
1696083023092638200,5.17463818359375,-0.24899697303771973,-9.04319953918457,1.0079588890075684
1696083023102638300,5.184638427734375,-0.7182605266571045,-8.23156452178955,0.8427590131759644
1696083023112638200,5.19463818359375,-0.507570743560791,-7.3576812744140625,0.26336219906806946
1696083023122638300,5.204638427734375,-0.6631938815116882,-6.572382926940918,-0.4141969084739685
1696083023132638200,5.21463818359375,-1.3958195447921753,-5.789478778839111,-0.6368576288223267
1696083023142638300,5.224638427734375,-1.9488801956176758,-4.982633113861084,-0.5674257874488831
1696083023152638200,5.23463818359375,-1.6927006244659424,-4.371812343597412,-0.9624691009521484
1696083023162638300,5.244638427734375,-0.768538773059845,-4.390965938568115,-1.3982137441635132
1696083023172638200,5.25463818359375,-0.304063618183136,-4.659116744995117,-1.7070658206939697
1696083023182638300,5.264638427734375,-0.3711012601852417,-4.9491143226623535,-1.9536685943603516
1696083023192638200,5.27463818359375,-0.5985504388809204,-5.186140060424805,-2.1308395862579346
1696083023202638300,5.284638427734375,-0.8930372595787048,-5.442319869995117,-2.1954829692840576
1696083023212638200,5.29463818359375,-1.1540051698684692,-5.629067420959473,-2.31758713722229
1696083023222638300,5.304638427734375,-1.5131354331970215,-5.7631425857543945,-2.315192937850952
1696083023232638200,5.31463818359375,-1.8818424940109253,-5.861305236816406,-2.2649147510528564
1696083023242638300,5.324638427734375,-2.051830768585205,-5.858911037445068,-2.341529369354248
1696083023252638200,5.33463818359375,-2.140416383743286,-5.68892240524292,-2.43011474609375
1696083023262638300,5.344638427734375,-1.987187385559082,-5.339369297027588,-2.6575639247894287
1696083023272638200,5.35463818359375,-1.8171991109848022,-4.807557106018066,-2.896984100341797
1696083023282638300,5.364638427734375,-1.6160861253738403,-4.37420654296875,-3.069366693496704
1696083023292638200,5.37463818359375,-1.2282254695892334,-4.256890773773193,-3.021482467651367
1696083023302638300,5.384638427734375,-0.7350199222564697,-4.462791919708252,-2.631227731704712
1696083023312638200,5.39463818359375,-0.002394201699644327,-5.013757705688477,-1.8770540952682495
1696083023322638300,5.404638427734375,1.036689281463623,-5.870882034301758,-0.8810662031173706
1696083023332638200,5.41463818359375,2.3271639347076416,-7.108684062957764,1.0462661981582642
1696083023342638300,5.424638427734375,4.015076160430908,-8.858845710754395,3.44765043258667
1696083023352638200,5.43463818359375,7.374440670013428,-11.118971824645996,5.81342077255249
1696083023362638000,5.44463818359375,9.251494407653809,-13.276147842407227,7.429507255554199
1696083023372638200,5.45463818359375,9.308955192565918,-14.590564727783203,8.913911819458008
1696083023382638300,5.464638427734375,9.330503463745117,-14.933234214782715,10.613795280456543
1696083023392638200,5.47463818359375,9.545981407165527,-15.069704055786133,12.29931354522705
1696083023402638300,5.484638427734375,8.882787704467773,-15.112799644470215,13.015179634094238
1696083023412639000,5.494638916015625,6.440701961517334,-14.518738746643066,11.152490615844727
1696083023422638800,5.504638916015625,4.400542736053467,-13.094188690185547,7.084742069244385
1696083023432639000,5.514638916015625,2.9305028915405273,-11.04475212097168,4.2760443687438965
1696083023442638800,5.524638916015625,2.2888567447662354,-8.80856704711914,2.4133553504943848
1696083023452639000,5.534638916015625,1.7932571172714233,-7.76948356628418,0.9097966551780701
1696083023462639000,5.54463916015625,1.3192051649093628,-9.253889083862305,-0.11013327538967133
1696083023472639000,5.554638916015625,1.278503656387329,-11.461342811584473,-0.6153098344802856
1696083023482638800,5.564638916015625,1.778891921043396,-13.833996772766113,-0.6967126727104187
1696083023492639000,5.574638916015625,3.665522813796997,-16.230892181396484,-0.395043283700943
1696083023502638800,5.584638916015625,13.292906761169434,-19.86768341064453,-0.7757213711738586
1696083023512639000,5.594638916015625,11.145308494567871,-21.098304748535156,-2.231395959854126
1696083023522638800,5.604638916015625,-0.912190854549408,-18.555662155151367,-3.227383852005005
1696083023532639000,5.614638916015625,-3.4356794357299805,-15.617976188659668,-3.7612907886505127
1696083023542639000,5.62463916015625,-4.7189717292785645,-12.387898445129395,-3.3734302520751953
1696083023552639000,5.634638916015625,-5.8780646324157715,-9.44063663482666,-3.313575267791748
1696083023562639000,5.64463916015625,-5.538087844848633,-6.84053373336792,-3.2178070545196533
1696083023572639000,5.654638916015625,-5.24838924407959,-4.460397720336914,-3.3470940589904785
1696083023582639000,5.66463916015625,-5.195716857910156,-2.7509377002716064,-3.485957622528076
1696083023592639000,5.674638916015625,-5.049670696258545,-2.013523578643799,-2.8203697204589844
1696083023602638800,5.684638916015625,-5.128679275512695,-1.9632453918457031,-2.470816135406494
1696083023612639000,5.694638916015625,-6.100725173950195,-2.935291290283203,-2.123656988143921
1696083023622638800,5.704638916015625,-5.5237226486206055,-4.73573112487793,-1.9057846069335938
1696083023632639000,5.714638916015625,-3.732560396194458,-7.041646480560303,-1.5538369417190552
1696083023642638800,5.724638916015625,-2.4875755310058594,-9.162909507751465,-1.4652514457702637
1696083023652639000,5.734638916015625,-2.008735179901123,-10.90109920501709,-1.45806884765625
1696083023662639000,5.74463916015625,-2.10210919380188,-11.9928560256958,-1.139639973640442
1696083023672639000,5.754638916015625,-2.7557260990142822,-12.383110046386719,-0.6775590777397156
1696083023682638800,5.764638916015625,-2.734178304672241,-12.519579887390137,0.4668693244457245
1696083023692639000,5.774638916015625,0.7182605266571045,-12.59380054473877,2.4684219360351562
1696083023702638800,5.784638916015625,4.862623691558838,-12.222699165344238,3.8570590019226074
1696083023712638200,5.79463818359375,7.877223014831543,-11.324872970581055,3.9408559799194336
1696083023722638300,5.804638427734375,8.389581680297852,-10.041581153869629,3.0095114707946777
1696083023732638200,5.81463818359375,6.577171325683594,-9.177274703979492,1.8818424940109253
1696083023742638300,5.824638427734375,3.56017804145813,-8.624214172363281,0.8738836050033569
1696083023752638200,5.83463818359375,0.6512228846549988,-8.600272178649902,0.28730419278144836
1696083023762638000,5.84463818359375,-1.9297266006469727,-8.7391357421875,-0.30885201692581177
1696083023772638200,5.85463818359375,-3.584120035171509,-9.064746856689453,-1.0893617868423462
1696083023782638000,5.86463818359375,-4.046200752258301,-9.340080261230469,-1.4101848602294922
1696083023792638200,5.87463818359375,-4.091690540313721,-9.486125946044922,-1.4676456451416016
1696083023802638000,5.88463818359375,-4.055777549743652,-9.505280494689941,-1.3263877630233765
1696083023812638200,5.89463818359375,-3.509899616241455,-9.462183952331543,-1.2018892765045166
1696083023822638300,5.904638427734375,-2.300827741622925,-9.292196273803711,-1.3192051649093628
1696083023832638200,5.91463818359375,-0.9433154463768005,-9.119813919067383,-1.2832920551300049
1696083023842638000,5.92463818359375,0.304063618183136,-9.13417911529541,-1.1444283723831177
1696083023852638200,5.93463818359375,1.1779472827911377,-9.536404609680176,-0.8188169598579407
1696083023862638000,5.94463818359375,1.5514427423477173,-10.005668640136719,-0.47644615173339844
1696083023872638200,5.95463818359375,1.460463047027588,-10.3456449508667,-0.23702596127986908
1696083023882638000,5.96463818359375,0.9888052940368652,-10.340856552124023,-0.0933738648891449
1696083023892638200,5.97463818359375,0.47884035110473633,-10.077494621276855,-0.002394201699644327
1696083023902638000,5.98463818359375,0.10534487664699554,-9.775824546813965,0.1149216815829277
1696083023912638200,5.99463818359375,0.10295066982507706,-9.68005657196045,0.21787235140800476
1696083023922638000,6.00463818359375,0.6009446382522583,-9.828496932983398,0.3016694188117981
1696083023932638200,6.01463818359375,1.381454348564148,-10.084676742553711,0.4213795065879822
1696083023942638000,6.02463818359375,2.140416383743286,-10.362403869628906,0.5841852426528931
1696083023952638200,6.03463818359375,2.4612393379211426,-10.587459564208984,0.9074024558067322
1696083023962638000,6.04463818359375,2.188300371170044,-10.664073944091797,1.2976573705673218
1696083023972638200,6.05463818359375,1.5298948287963867,-10.434229850769043,1.7166426181793213
1696083023982638000,6.06463818359375,0.871489405632019,-10.134955406188965,2.070984363555908
1696083023992638200,6.07463818359375,0.30885201692581177,-10.010457038879395,2.494758129119873
1696083024002638000,6.08463818359375,-0.2561795711517334,-10.206781387329102,3.1028854846954346
1696083024012638200,6.09463818359375,-0.9050082564353943,-10.462960243225098,3.799597978591919
1696083024022638300,6.104638427734375,-1.3239935636520386,-10.767024040222168,4.508281707763672
1696083024032638200,6.11463818359375,-1.1683704853057861,-10.858003616333008,5.2340240478515625
1696083024042638300,6.124638427734375,-0.20350714027881622,-10.905887603759766,5.758354187011719
1696083024052638200,6.13463818359375,0.9241618514060974,-11.612177848815918,5.966650009155273
1696083024062638300,6.144638427734375,1.800439715385437,-12.725481033325195,5.724835395812988
1696083024072638200,6.15463818359375,2.58813214302063,-13.522750854492188,5.06643009185791
1696083024082638300,6.164638427734375,3.44765043258667,-13.992013931274414,4.474762916564941
1696083024092638200,6.17463818359375,4.268861770629883,-14.217068672180176,3.8953661918640137
1696083024102638300,6.184638427734375,5.056853294372559,-14.039897918701172,3.095702886581421
1696083024112638200,6.19463818359375,5.571606636047363,-13.489232063293457,2.011129379272461
1696083024122638000,6.20463818359375,5.20289945602417,-12.962507247924805,0.5363011956214905
1696083024132638200,6.21463818359375,3.4404678344726562,-13.151649475097656,-0.2561795711517334
1696083024142638000,6.22463818359375,0.9002198576927185,-13.948918342590332,-0.28730419278144836
1696083024152638200,6.23463818359375,-1.2521674633026123,-14.909292221069336,-1.0654197931289673
1696083024162638000,6.24463818359375,-2.58813214302063,-16.26201629638672,-2.205059766769409
1696083024172638200,6.25463818359375,-3.40216064453125,-17.516578674316406,-3.936067581176758
1696083024182638000,6.26463818359375,-3.9695863723754883,-18.505382537841797,-5.377676486968994
1696083024192638200,6.27463818359375,-4.616020679473877,-18.368913650512695,-6.43351936340332
1696083024202638000,6.28463818359375,-4.223371982574463,-17.037736892700195,-6.957849502563477
1696083024212638200,6.29463818359375,-2.6216509342193604,-15.055338859558105,-6.502951145172119
1696083024222638000,6.30463818359375,-1.4437036514282227,-13.383886337280273,-4.903624534606934
1696083024232638200,6.31463818359375,1.278503656387329,-11.988067626953125,-3.4979286193847656
1696083024242638000,6.32463818359375,3.205836057662964,-11.056722640991211,-1.8195933103561401
1696083024252638200,6.33463818359375,2.626439332962036,-10.436624526977539,-0.6631938815116882
1696083024262638000,6.34463818359375,0.933738648891449,-9.85962200164795,-0.06224924325942993
1696083024272638200,6.35463818359375,-0.3471592366695404,-9.122207641601562,0.22505496442317963
1696083024282638000,6.36463818359375,-0.9744400978088379,-8.327332496643066,0.4357447028160095
1696083024292638200,6.37463818359375,-1.237802267074585,-7.522881031036377,0.36152446269989014
1696083024302638000,6.38463818359375,-1.2665326595306396,-6.87405252456665,0.13407529890537262
1696083024312638200,6.39463818359375,-1.800439715385437,-6.390423774719238,0.19632454216480255
1696083024322638000,6.40463818359375,-1.9369091987609863,-6.026504993438721,0.3064578175544739
1696083024332638200,6.41463818359375,-1.6663644313812256,-5.68892240524292,0.10773907601833344
1696083024342638000,6.42463818359375,-1.3886369466781616,-5.569212436676025,0.019153613597154617
1696083024352638200,6.43463818359375,-1.3096283674240112,-5.5883660316467285,-0.1867477297782898
1696083024362638000,6.44463818359375,-1.4413094520568848,-5.789478778839111,-0.4812345504760742
1696083024372638200,6.45463818359375,-1.4867992401123047,-6.091148376464844,-0.9720458984375
1696083024382638000,6.46463818359375,-1.601720929145813,-6.4071831703186035,-1.482010841369629
1696083024392638200,6.47463818359375,-1.8315643072128296,-6.672939300537109,-1.7621324062347412
1696083024402638000,6.48463818359375,-1.9800047874450684,-6.816591739654541,-1.9943699836730957
1696083024412638200,6.49463818359375,-1.98958158493042,-6.783072471618652,-2.2864625453948975
1696083024422638000,6.50463818359375,-1.9967641830444336,-6.589142322540283,-2.7916390895843506
1696083024432638200,6.51463818359375,-2.166752576828003,-6.239588737487793,-3.464409828186035
1696083024442638000,6.52463818359375,-2.2673089504241943,-5.770325183868408,-4.041412353515625
1696083024452638200,6.53463818359375,-2.142810583114624,-5.135861873626709,-4.55616569519043
1696083024462638300,6.544638427734375,-1.7860745191574097,-4.414907932281494,-4.956296920776367
1696083024472638200,6.55463818359375,-1.4844050407409668,-3.7636849880218506,-5.135861873626709
1696083024482638300,6.564638427734375,-0.9193734526634216,-3.359065055847168,-5.1023430824279785
1696083024492638200,6.57463818359375,-0.1628057211637497,-3.380612850189209,-4.469974517822266
1696083024502638300,6.584638427734375,0.6033388376235962,-3.9432501792907715,-2.9328970909118652
1696083024512638200,6.59463818359375,1.7573440074920654,-4.793191909790039,-0.7637503147125244
1696083024522638300,6.604638427734375,3.866635799407959,-6.002562999725342,1.678335428237915
1696083024532638200,6.61463818359375,7.71202278137207,-8.008903503417969,4.259284973144531
1696083024542638300,6.624638427734375,12.826037406921387,-10.939406394958496,7.099107265472412
1696083024552638200,6.63463818359375,12.153266906738281,-13.965678215026855,9.840468406677246
1696083024562638300,6.644638427734375,9.579500198364258,-16.592416763305664,12.2681884765625
1696083024572638200,6.65463818359375,8.633790969848633,-18.488624572753906,13.802871704101562
1696083024582638300,6.664638427734375,8.909123420715332,-18.783111572265625,13.359944343566895
1696083024592638200,6.67463818359375,8.492532730102539,-17.626710891723633,10.644920349121094
1696083024602638300,6.684638427734375,6.948272705078125,-14.949994087219238,6.933907508850098
1696083024612638200,6.69463818359375,4.9275665283203125,-11.887510299682617,4.280832767486572
1696083024622638300,6.704638427734375,3.8067808151245117,-8.715193748474121,2.410961151123047
1696083024632638200,6.71463818359375,3.227383852005005,-5.5021748542785645,1.3862427473068237
1696083024642638300,6.724638427734375,2.3535003662109375,-3.423708438873291,0.31842881441116333
1696083024652638200,6.73463818359375,1.7190368175506592,-5.061641693115234,-0.0694318488240242
1696083024662638300,6.744638427734375,1.173158884048462,-8.597877502441406,-0.4908113479614258
1696083024672638200,6.75463818359375,0.9648633003234863,-12.610559463500977,-0.8403648138046265
1696083024682638300,6.764638427734375,-0.0071826050989329815,-16.94196891784668,-1.048660397529602
1696083024692638200,6.77463818359375,-0.8762778043746948,-19.862895965576172,-2.674323320388794
1696083024702638300,6.784638427734375,2.875436305999756,-23.358430862426758,-5.325003623962402
1696083024712638200,6.79463818359375,-0.26815059781074524,-23.54996681213379,-6.716034889221191
1696083024722638300,6.804638427734375,-2.892195701599121,-19.29786491394043,-5.73441219329834
1696083024732638200,6.81463818359375,-3.4189200401306152,-13.54429817199707,-4.314351558685303
1696083024742638300,6.824638427734375,-4.41969633102417,-9.28261947631836,-3.490746021270752
1696083024752638200,6.83463818359375,-5.245995044708252,-6.47900915145874,-3.550601005554199
1696083024762638300,6.844638427734375,-5.3704938888549805,-4.213795185089111,-3.794809579849243
1696083024772638200,6.85463818359375,-4.855441093444824,-2.8131868839263916,-3.627215623855591
1696083024782638300,6.864638427734375,-5.468656063079834,-1.7286136150360107,-2.7748796939849854
1696083024792638200,6.87463818359375,-5.6769514083862305,-1.4221558570861816,-1.8842366933822632
1696083024802638300,6.884638427734375,-4.273650169372559,-2.9927520751953125,-1.0893617868423462
1696083024812638200,6.89463818359375,-2.9664158821105957,-5.315426826477051,-0.7972691655158997
1696083024822638300,6.904638427734375,-2.2840683460235596,-7.561188220977783,-0.6775590777397156
1696083024832638200,6.91463818359375,-2.1930887699127197,-9.675268173217773,-0.706289529800415
1696083024842638300,6.924638427734375,-2.3056161403656006,-11.435006141662598,-0.6344634294509888
1696083024852638200,6.93463818359375,-2.557007312774658,-12.6273193359375,-0.31842881441116333
1696083024862638300,6.944638427734375,-2.671929121017456,-13.043910026550293,0.4692635238170624
1696083024872638200,6.95463818359375,-0.8954314589500427,-12.828432083129883,2.051830768585205
1696083024882638300,6.964638427734375,2.4660277366638184,-12.304101943969727,3.488351821899414
1696083024892638200,6.97463818359375,5.794267177581787,-11.004050254821777,3.44765043258667
1696083024902638300,6.984638427734375,7.654561996459961,-9.493309020996094,2.2673089504241943
1696083024912638200,6.99463818359375,7.501333236694336,-8.47098445892334,1.0103530883789062
1696083024922638300,7.004638427734375,5.621884822845459,-8.372822761535645,0.22026655077934265
1696083024932638200,7.01463818359375,2.4636335372924805,-8.825326919555664,-0.09576806426048279
1696083024942638300,7.024638427734375,-0.6368576288223267,-9.40711784362793,-0.33518823981285095
1696083024952638200,7.03463818359375,-2.8419175148010254,-9.557952880859375,-0.5530605912208557
1696083024962638300,7.044638427734375,-4.02465295791626,-9.550769805908203,-0.7565677165985107
1696083024972638200,7.05463818359375,-4.402936935424805,-9.505280494689941,-0.6751648783683777
1696083024982638300,7.064638427734375,-3.8546648025512695,-9.462183952331543,-0.363918662071228
1696083024992638200,7.07463818359375,-2.296039342880249,-9.13417911529541,-0.45010992884635925
1696083025002638300,7.084638427734375,-0.6105214357376099,-8.798990249633789,-0.6153098344802856
1696083025012638200,7.09463818359375,0.8355764150619507,-8.655338287353516,-0.667982280254364
1696083025022638300,7.104638427734375,1.6615760326385498,-8.621819496154785,-0.5386953949928284
1696083025032638200,7.11463818359375,1.8507179021835327,-8.868422508239746,-0.2322375625371933
1696083025042638300,7.124638427734375,1.4939818382263184,-9.392752647399902,0.23942017555236816
1696083025052638200,7.13463818359375,0.8403648138046265,-10.027215957641602,0.5985504388809204
1696083025062638300,7.144638427734375,0.2106897532939911,-10.616189956665039,0.6512228846549988
1696083025072638200,7.15463818359375,-0.043095629662275314,-10.960954666137695,0.5650315880775452
1696083025082638300,7.164638427734375,0.272938996553421,-10.726323127746582,0.5961562395095825
1696083025092638200,7.17463818359375,1.1180921792984009,-10.261847496032715,0.9361328482627869
1696083025102638300,7.184638427734375,2.1547815799713135,-10.07270622253418,1.3072341680526733
1696083025112638200,7.19463818359375,2.8443117141723633,-10.223540306091309,1.6208745241165161
1696083025122638300,7.204638427734375,2.8371291160583496,-10.498873710632324,1.659181833267212
1696083025132638200,7.21463818359375,2.0254945755004883,-10.563517570495605,1.5969325304031372
1696083025142638000,7.22463818359375,0.9744400978088379,-10.635343551635742,1.623268723487854
1696083025152638200,7.23463818359375,-0.021547814831137657,-10.802937507629395,2.0661959648132324
1696083025162638000,7.24463818359375,-0.828393816947937,-11.126154899597168,2.691082715988159
1696083025172638200,7.25463818359375,-1.3072341680526733,-11.394305229187012,3.406949043273926
1696083025182638000,7.26463818359375,-1.2641384601593018,-11.437400817871094,4.065354347229004
1696083025192638200,7.27463818359375,-0.2992752194404602,-11.229104995727539,4.60165548324585
1696083025202638000,7.28463818359375,1.3718775510787964,-11.154885292053223,4.778826713562012
1696083025212638200,7.29463818359375,3.1268274784088135,-11.44458293914795,4.6471452713012695
1696083025222638000,7.30463818359375,4.266467571258545,-12.23227596282959,4.331110954284668
1696083025232638200,7.31463818359375,4.54419469833374,-13.09179401397705,3.957615375518799
1696083025242638000,7.32463818359375,4.347870349884033,-13.685556411743164,3.670311212539673
1696083025252638200,7.33463818359375,3.823540210723877,-13.72386360168457,3.184288263320923
1696083025262638000,7.34463818359375,3.4404678344726562,-13.199533462524414,2.695871114730835
1696083025272638200,7.35463818359375,3.339911460876465,-12.814066886901855,2.4827871322631836
1696083025282637800,7.364637939453125,1.8555063009262085,-13.02236270904541,2.4875755310058594
1696083025292637700,7.3746376953125,-0.3734954595565796,-13.956101417541504,2.070984363555908
1696083025302637800,7.384637939453125,-1.778891921043396,-15.10561752319336,1.0845733880996704
1696083025312637700,7.3946376953125,-2.1499931812286377,-16.479888916015625,-0.6057330369949341
1696083025322637800,7.404637939453125,-1.968033790588379,-17.947534561157227,-2.9903578758239746
1696083025332637700,7.4146376953125,-1.9847931861877441,-19.36729621887207,-5.035305500030518
1696083025342637800,7.424637939453125,-2.980781078338623,-20.27230453491211,-7.096713066101074
1696083025352637700,7.4346376953125,-4.323928356170654,-19.278711318969727,-7.762300968170166
1696083025362637800,7.444637939453125,-4.759673118591309,-16.664241790771484,-7.300220489501953
1696083025372637700,7.4546376953125,-3.3423056602478027,-14.042292594909668,-6.055235385894775
1696083025382637800,7.464637939453125,-1.05105459690094,-12.304101943969727,-4.299986362457275
1696083025392637700,7.4746376953125,2.279279947280884,-11.066299438476562,-2.300827741622925
1696083025402637800,7.484637939453125,3.0550012588500977,-10.424653053283691,-0.912190854549408
1696083025412637700,7.4946376953125,2.078166961669922,-10.01524543762207,-0.2801215946674347
1696083025422637800,7.504637939453125,0.5602431893348694,-9.577106475830078,0.12449848651885986
1696083025432637700,7.5146376953125,-0.9074024558067322,-8.98813247680664,0.3064578175544739
1696083025442637800,7.524637939453125,-1.6184803247451782,-8.269871711730957,0.3495534360408783
1696083025452637700,7.5346376953125,-1.501164436340332,-7.439084053039551,-0.026336219161748886
1696083025462637800,7.544637939453125,-1.4269442558288574,-6.675333499908447,-0.31124621629714966
1696083025472637700,7.5546376953125,-1.7501614093780518,-6.086359977722168,-0.4165911078453064
1696083025482637800,7.564637939453125,-1.742978811264038,-5.717652797698975,-0.6344634294509888
1696083025492637700,7.5746376953125,-1.5921441316604614,-5.487809658050537,-1.01753568649292
1696083025502637800,7.584637939453125,-1.558625340461731,-5.612308025360107,-1.4221558570861816
1696083025512637700,7.5946376953125,-1.4413094520568848,-5.791872978210449,-1.7597382068634033
1696083025522637800,7.604637939453125,-1.5203180313110352,-5.909189224243164,-1.9704279899597168
1696083025532637700,7.6146376953125,-1.556231141090393,-6.057629585266113,-2.0231003761291504
1696083025542637800,7.624637939453125,-1.5275006294250488,-6.194098949432373,-2.10210919380188
1696083025552637700,7.6346376953125,-1.7908629179000854,-6.280290126800537,-2.0039467811584473
1696083025562637800,7.644637939453125,-1.9991583824157715,-6.328174591064453,-1.9991583824157715
1696083025572637700,7.6546376953125,-1.9847931861877441,-6.323386192321777,-2.0590133666992188
1696083025582638000,7.66463818359375,-2.006340980529785,-6.088754177093506,-2.2912509441375732
1696083025592638200,7.67463818359375,-2.1523873805999756,-5.6984992027282715,-2.7102363109588623
1696083025602638000,7.68463818359375,-2.343923568725586,-5.217264652252197,-3.0765492916107178
1696083025612638200,7.69463818359375,-2.3247697353363037,-4.572925090789795,-3.5266590118408203
1696083025622638000,7.70463818359375,-1.9943699836730957,-3.9217023849487305,-3.9432501792907715
1696083025632638200,7.71463818359375,-1.5490485429763794,-3.406949043273926,-4.218583583831787
1696083025642638000,7.72463818359375,-0.9241618514060974,-3.1244332790374756,-4.194641590118408
1696083025652638200,7.73463818359375,-0.24660277366638184,-3.0358476638793945,-3.6080620288848877
1696083025662638000,7.74463818359375,0.4812345504760742,-3.646369218826294,-1.9273324012756348
1696083025672638200,7.75463818359375,1.4101848602294922,-4.745307922363281,0.5147533416748047
1696083025682638000,7.76463818359375,3.1723172664642334,-6.459855556488037,3.4356794357299805
1696083025692638200,7.77463818359375,7.690474987030029,-9.050381660461426,6.790255069732666
1696083025702638000,7.78463818359375,11.664850234985352,-12.253823280334473,10.568305969238281
1696083025712638200,7.79463818359375,11.22671127319336,-15.651494979858398,13.640066146850586
1696083025722638000,7.80463818359375,11.53316879272461,-18.866907119750977,14.497190475463867
1696083025732638200,7.81463818359375,13.980043411254883,-21.06478500366211,14.205098152160645
1696083025742638000,7.82463818359375,15.002666473388672,-22.079927444458008,13.23784065246582
1696083025752638200,7.83463818359375,10.278607368469238,-20.844518661499023,9.387964248657227
1696083025762638000,7.84463818359375,6.00495719909668,-17.418415069580078,3.665522813796997
1696083025772638200,7.85463818359375,3.9815573692321777,-12.598588943481445,0.7565677165985107
1696083025782638000,7.86463818359375,3.359065055847168,-8.09509563446045,0.2801215946674347
1696083025792638200,7.87463818359375,2.209848165512085,-5.4351372718811035,-1.4197616577148438
1696083025802638000,7.88463818359375,2.4660277366638184,-6.244377136230469,-2.827552318572998
1696083025812638200,7.89463818359375,3.3494882583618164,-9.031228065490723,-4.414907932281494
1696083025822638000,7.90463818359375,2.410961151123047,-12.091017723083496,-4.977844715118408
1696083025832638200,7.91463818359375,-0.646434485912323,-15.170260429382324,-4.311957359313965
1696083025842638000,7.92463818359375,1.3239935636520386,-18.38327980041504,-1.2497732639312744
1696083025852638200,7.93463818359375,2.9975404739379883,-17.13111114501953,0.13407529890537262
1696083025862638000,7.94463818359375,0.6560112833976746,-11.87314510345459,-0.1604115068912506
1696083025872638200,7.95463818359375,-2.454056739807129,-7.1134724617004395,-1.2641384601593018
1696083025882638000,7.96463818359375,-5.535693645477295,-4.242525577545166,-1.4245500564575195
1696083025892638200,7.97463818359375,-6.890811920166016,-3.162740468978882,-1.0199298858642578
1696083025902638000,7.98463818359375,-7.175721645355225,-3.691859006881714,-0.9265560507774353
1696083025912638200,7.99463818359375,-7.084742069244385,-5.602731227874756,-1.5610195398330688
1696083025922638000,8.00463818359375,-6.6705451011657715,-7.81257963180542,-2.1595699787139893
1696083025932638200,8.01463818359375,-5.971438407897949,-9.952995300292969,-2.779668092727661
1696083025942638000,8.02463818359375,-5.121496677398682,-12.158055305480957,-3.114856481552124
1696083025952638200,8.03463818359375,-4.973056316375732,-13.920187950134277,-3.07415509223938
1696083025962638000,8.04463818359375,-5.274725437164307,-14.933234214782715,-2.5905263423919678
1696083025972638200,8.05463818359375,-4.1611223220825195,-14.341567039489746,-1.7501614093780518
1696083025982638000,8.06463818359375,-2.142810583114624,-12.78773021697998,-0.7805097699165344
1696083025992638200,8.07463818359375,-0.1412578970193863,-10.858003616333008,-0.019153613597154617
1696083026002638000,8.08463818359375,1.9488801956176758,-9.150938034057617,0.24181437492370605
1696083026012638200,8.09463818359375,3.3901896476745605,-7.934683799743652,0.3734954595565796
1696083026022638000,8.10463818359375,3.88818359375,-7.484573841094971,0.6200982332229614
1696083026032638200,8.11463818359375,3.622427225112915,-7.537246227264404,0.6823474764823914
1696083026042638000,8.12463818359375,2.628833532333374,-7.841310024261475,0.6631938815116882
1696083026052638200,8.13463818359375,1.2330138683319092,-8.224382400512695,0.6320692300796509
1696083026062638000,8.14463818359375,0.004788403399288654,-8.578723907470703,0.629675030708313
1696083026072638200,8.15463818359375,-0.7445967197418213,-8.98813247680664,0.40940847992897034
1696083026082638000,8.16463818359375,-0.8978256583213806,-9.19163990020752,-0.08619125932455063
1696083026092638200,8.17463818359375,-0.933738648891449,-9.1940336227417,-0.6224924325942993
1696083026102638000,8.18463818359375,-1.0678139925003052,-9.13417911529541,-0.849941611289978
1696083026112638200,8.19463818359375,-1.094150185585022,-8.940248489379883,-0.9097966551780701
1696083026122638000,8.20463818359375,-1.036689281463623,-8.657732963562012,-0.9481038451194763
1696083026132638200,8.21463818359375,-1.0678139925003052,-8.461407661437988,-0.7086837291717529
1696083026142638000,8.22463818359375,-1.0079588890075684,-8.449437141418457,-0.40462008118629456
1696083026152638200,8.23463818359375,-0.5410895943641663,-8.818143844604492,0.06464344263076782
1696083026162638000,8.24463818359375,0.4213795065879822,-9.493309020996094,0.3734954595565796
1696083026172638200,8.25463818359375,1.53707754611969,-10.101436614990234,0.5410895943641663
1696083026182638000,8.26463818359375,1.920149803161621,-10.316914558410645,0.6871358752250671
1696083026192638200,8.27463818359375,1.4197616577148438,-10.122983932495117,0.8355764150619507
1696083026202638000,8.28463818359375,0.7565677165985107,-9.761459350585938,1.036689281463623
1696083026212638200,8.29463818359375,0.3423708379268646,-9.311349868774414,1.237802267074585
1696083026222638000,8.30463818359375,0.24899697303771973,-9.050381660461426,1.2066776752471924
1696083026232638200,8.31463818359375,0.2513911724090576,-9.107842445373535,0.7350199222564697
1696083026242638000,8.32463818359375,0.7972691655158997,-9.701604843139648,0.07422025501728058
1696083026252638200,8.33463818359375,2.0159177780151367,-10.47253704071045,-0.4405331015586853
1696083026262638000,8.34463818359375,3.2968156337738037,-11.126154899597168,-0.5722141861915588
1696083026272638200,8.35463818359375,4.000710964202881,-11.535563468933105,-0.21547815203666687
1696083026282638000,8.36463818359375,3.8163576126098633,-11.557110786437988,0.524330198764801
1696083026292638200,8.37463818359375,2.985569477081299,-11.267412185668945,1.359906554222107
1696083026302638000,8.38463818359375,1.7262194156646729,-10.850821495056152,2.1284453868865967
1696083026312638200,8.39463818359375,0.45489832758903503,-10.74068832397461,2.738966703414917
1696083026322638000,8.40463818359375,-0.6248866319656372,-10.850821495056152,3.2848446369171143
1696083026332638200,8.41463818359375,-1.3838485479354858,-11.176432609558105,3.9049429893493652
1696083026342638000,8.42463818359375,-1.7573440074920654,-11.511621475219727,4.707000732421875
1696083026352638200,8.43463818359375,-1.4700398445129395,-11.676820755004883,5.633855819702148
1696083026362638000,8.44463818359375,-0.3711012601852417,-11.482891082763672,6.316203594207764
1696083026372638200,8.45463818359375,1.403002142906189,-11.29374885559082,6.395212173461914
1696083026382638000,8.46463818359375,3.2561142444610596,-11.703157424926758,6.148609161376953
1696083026392638200,8.47463818359375,4.704606533050537,-13.029544830322266,6.021716594696045
1696083026402638000,8.48463818359375,5.207687854766846,-14.545074462890625,5.5883660316467285
1696083026412638200,8.49463818359375,4.946720123291016,-15.246874809265137,4.376600742340088
1696083026422638000,8.50463818359375,4.390965938568115,-14.830284118652344,2.9281086921691895
1696083026432638200,8.51463818359375,4.632780075073242,-14.286500930786133,2.1116859912872314
1696083026442638000,8.52463818359375,3.469198226928711,-13.699921607971191,1.5873557329177856
1696083026452638200,8.53463818359375,0.7972691655158997,-13.652037620544434,1.192312479019165
1696083026462638000,8.54463818359375,-1.4652514457702637,-14.485219955444336,0.4884171485900879
1696083026472638200,8.55463818359375,-2.5929205417633057,-15.799935340881348,-0.395043283700943
1696083026482638000,8.56463818359375,-2.4851813316345215,-17.404050827026367,-2.2649147510528564
1696083026492638200,8.57463818359375,-2.1140801906585693,-19.036895751953125,-4.663905143737793
1696083026502638000,8.58463818359375,-2.7006595134735107,-20.075979232788086,-7.137414455413818
1696083026512638200,8.59463818359375,-3.821146011352539,-19.654600143432617,-8.425495147705078
1696083026522638000,8.60463818359375,-3.8594532012939453,-17.777545928955078,-8.65054988861084
1696083026532638200,8.61463818359375,-2.628833532333374,-15.151106834411621,-7.89158821105957
1696083026542638000,8.62463818359375,-1.1252747774124146,-13.02475643157959,-6.411971569061279
1696083026552638200,8.63463818359375,0.002394201699644327,-11.777377128601074,-4.290409564971924
1696083026562638000,8.64463818359375,1.139639973640442,-10.637737274169922,-2.8443117141723633
1696083026572638200,8.65463818359375,0.9289502501487732,-10.003273963928223,-1.5873557329177856
1696083026582638000,8.66463818359375,0.07422025501728058,-9.682451248168945,-0.7398083209991455
1696083026592638200,8.67463818359375,-0.19871874153614044,-9.251494407653809,-0.2801215946674347
1696083026602638000,8.68463818359375,-0.12928688526153564,-8.573935508728027,-0.14365209639072418
1696083026612638200,8.69463818359375,-0.3423708379268646,-7.767089366912842,-0.07422025501728058
1696083026622638000,8.70463818359375,-0.9289502501487732,-6.9147539138793945,-0.31842881441116333
1696083026632638200,8.71463818359375,-2.5546131134033203,-6.127061367034912,0.3734954595565796
1696083026642638000,8.72463818359375,-3.313575267791748,-5.365705490112305,0.4836287498474121
1696083026652638200,8.73463818359375,-2.5737667083740234,-4.963479518890381,0.21547815203666687
1696083026662638000,8.74463818359375,-1.4963760375976562,-4.903624534606934,-0.10295066982507706
1696083026672638200,8.75463818359375,-0.6919242739677429,-5.068824291229248,-0.5674257874488831
1696083026682638000,8.76463818359375,-0.7134721279144287,-5.377676486968994,-0.9481038451194763
1696083026692638200,8.77463818359375,-1.0055646896362305,-5.715258598327637,-1.2425906658172607
1696083026702638000,8.78463818359375,-1.3263877630233765,-6.060023784637451,-1.4317326545715332
1696083026712638200,8.79463818359375,-1.659181833267212,-6.344933986663818,-1.501164436340332
1696083026722638000,8.80463818359375,-1.8483237028121948,-6.440701961517334,-1.5658079385757446
1696083026732638200,8.81463818359375,-1.9919757843017578,-6.383241176605225,-1.6735470294952393
1696083026742638000,8.82463818359375,-2.094926595687866,-6.124667167663574,-1.9800047874450684
1696083026752638200,8.83463818359375,-2.2002713680267334,-5.6984992027282715,-2.497152328491211
1696083026762638000,8.84463818359375,-2.3511061668395996,-5.200505256652832,-2.999934673309326
1696083026772638200,8.85463818359375,-2.451662540435791,-4.69024133682251,-3.44765043258667
1696083026782638000,8.86463818359375,-2.449268341064453,-4.165910720825195,-3.7876269817352295
1696083026792638200,8.87463818359375,-2.1930887699127197,-3.648763418197632,-4.094084739685059
1696083026802638000,8.88463818359375,-1.9369091987609863,-3.1747114658355713,-4.252102375030518
1696083026812638200,8.89463818359375,-1.6136919260025024,-2.8610711097717285,-3.9647979736328125
1696083026822638000,8.90463818359375,-0.7709329724311829,-3.292027235031128,-2.806004285812378
1696083026832638200,8.91463818359375,0.6392518281936646,-4.321534156799316,-1.0414776802062988
1696083026842638000,8.92463818359375,3.0382418632507324,-5.818209171295166,1.403002142906189
1696083026852638200,8.93463818359375,7.5540056228637695,-8.238747596740723,4.355052947998047
1696083026862638000,8.94463818359375,14.830284118652344,-12.112565994262695,8.200440406799316
1696083026872638200,8.95463818359375,13.75977611541748,-16.56847381591797,12.222699165344238
1696083026882638000,8.96463818359375,10.434229850769043,-20.63143539428711,14.406210899353027
1696083026892638200,8.97463818359375,10.9585599899292,-22.15654182434082,14.190732955932617
1696083026902638000,8.98463818359375,12.677597045898438,-21.00493049621582,13.5778169631958
1696083026912638200,8.99463818359375,10.077494621276855,-17.739238739013672,11.298537254333496
1696083026922638000,9.00463818359375,6.12945556640625,-14.090176582336426,6.696881294250488
1696083026932638200,9.01463818359375,3.4955344200134277,-10.187627792358398,3.7205893993377686
1696083026942638000,9.02463818359375,3.251325845718384,-6.684910297393799,1.886630892753601
1696083026952638200,9.03463818359375,3.4620156288146973,-4.0964789390563965,0.18914192914962769
1696083026962638000,9.04463818359375,2.827552318572998,-4.110844135284424,-1.2497732639312744
1696083026972638200,9.05463818359375,-0.06224924325942993,-7.879617214202881,-2.296039342880249
1696083026982638000,9.06463818359375,-1.680729627609253,-12.713510513305664,-3.0885202884674072
1696083026992638200,9.07463818359375,-2.6431987285614014,-15.550938606262207,-3.445256233215332
1696083027002638000,9.08463818359375,-2.049436569213867,-17.868526458740234,-2.7964274883270264
1696083027012638200,9.09463818359375,1.173158884048462,-19.156606674194336,-1.0989385843276978
1696083027022638000,9.10463818359375,0.3016694188117981,-18.33060646057129,-1.1037269830703735
1696083027032638200,9.11463818359375,-1.5107412338256836,-15.103222846984863,-2.5785553455352783
1696083027042638000,9.12463818359375,-2.0925323963165283,-11.643301963806152,-4.041412353515625
1696083027052638200,9.13463818359375,-2.3798365592956543,-8.236352920532227,-5.360917091369629
1696083027062638000,9.14463818359375,-3.3854012489318848,-5.657797813415527,-5.581183433532715
1696083027072638200,9.15463818359375,-4.824316501617432,-4.94193172454834,-5.238812446594238
1696083027082638000,9.16463818359375,-5.81342077255249,-5.674557209014893,-4.73573112487793
1696083027092638200,9.17463818359375,-6.282684326171875,-7.0679826736450195,-4.443638324737549
1696083027102638000,9.18463818359375,-6.4502787590026855,-8.839692115783691,-4.355052947998047
1696083027112638200,9.19463818359375,-6.368875980377197,-10.300154685974121,-4.20421838760376
1696083027122638000,9.20463818359375,-6.091148376464844,-11.073482513427734,-3.5051112174987793
1696083027132638200,9.21463818359375,-5.372888088226318,-11.470919609069824,-2.607285737991333
1696083027142638000,9.22463818359375,-4.977844715118408,-11.439794540405273,-2.051830768585205
1696083027152638200,9.23463818359375,-4.32871675491333,-10.98729133605957,-1.6041151285171509
1696083027162638000,9.24463818359375,-2.494758129119873,-10.637737274169922,-0.4884171485900879
1696083027172638200,9.25463818359375,0.19393034279346466,-10.350433349609375,1.0127472877502441
1696083027182638000,9.26463818359375,3.2130186557769775,-9.950601577758789,2.341529369354248
1696083027192638200,9.27463818359375,5.571606636047363,-9.428665161132812,3.248931646347046
1696083027202638000,9.28463818359375,6.6035075187683105,-8.894758224487305,3.380612850189209
1696083027212638200,9.29463818359375,6.234800338745117,-8.459013938903809,2.9448680877685547
1696083027222638000,9.30463818359375,4.711789131164551,-8.214805603027344,2.099714994430542
1696083027232638200,9.31463818359375,2.5234885215759277,-8.391976356506348,1.048660397529602
1696083027242638000,9.32463818359375,0.7038952708244324,-8.485349655151367,0.1628057211637497
1696083027252638200,9.33463818359375,-0.828393816947937,-8.655338287353516,-0.5937620401382446
1696083027262638000,9.34463818359375,-2.3965959548950195,-8.851662635803223,-1.3838485479354858
1696083027272638200,9.35463818359375,-3.5913026332855225,-8.92348861694336,-1.8483237028121948
1696083027282638000,9.36463818359375,-4.039018154144287,-8.798990249633789,-2.0374655723571777
1696083027292638200,9.37463818359375,-3.471592426300049,-8.700828552246094,-1.2186486721038818
1696083027302638000,9.38463818359375,-2.078166961669922,-8.794201850891113,-0.4908113479614258
1696083027312638200,9.39463818359375,0.12210428714752197,-9.304166793823242,-0.16998831927776337
1696083027322638000,9.40463818359375,2.5498247146606445,-10.144532203674316,0.16759411990642548
1696083027332638200,9.41463818359375,3.801992416381836,-10.929829597473145,1.0031704902648926
1696083027342638000,9.42463818359375,3.406949043273926,-11.291354179382324,2.1140801906585693
1696083027352638200,9.43463818359375,2.0398597717285156,-11.013627052307129,2.8658595085144043
1696083027362638000,9.44463818359375,0.36152446269989014,-10.316914558410645,2.985569477081299
1696083027372638200,9.45463818359375,-0.8140285611152649,-9.897929191589355,2.655169725418091
1696083027382638000,9.46463818359375,-1.3000515699386597,-9.885957717895508,2.248155355453491
1696083027392638200,9.47463818359375,-1.0534487962722778,-10.204386711120605,1.6950948238372803
1696083027402638000,9.48463818359375,0.2346317619085312,-10.383952140808105,1.036689281463623
1696083027412638200,9.49463818359375,2.008735179901123,-10.441412925720215,0.689530074596405
1696083027422638000,9.50463818359375,3.466804027557373,-10.491691589355469,0.7038952708244324
1696083027432638200,9.51463818359375,4.010287761688232,-10.486903190612793,1.1037269830703735
1696083027442638000,9.52463818359375,3.576937437057495,-10.240300178527832,1.4317326545715332
1696083027452638200,9.53463818359375,2.5905263423919678,-9.878775596618652,1.6950948238372803
1696083027462638000,9.54463818359375,1.3623007535934448,-9.665691375732422,1.965639591217041
1696083027472638200,9.55463818359375,0.07900865375995636,-9.785401344299316,2.6001031398773193
1696083027482638000,9.56463818359375,-1.0773907899856567,-10.122983932495117,3.3949780464172363
1696083027492638200,9.57463818359375,-1.6974890232086182,-10.606613159179688,4.264073371887207
1696083027502638000,9.58463818359375,-1.4939818382263184,-10.965743064880371,5.28190803527832
1696083027512638200,9.59463818359375,-0.31842881441116333,-11.130943298339844,5.949890613555908
1696083027522638600,9.604638671875,1.6160861253738403,-11.638513565063477,5.8086323738098145
1696083027532638500,9.614638427734375,3.3854012489318848,-12.634501457214355,5.229235649108887
1696083027542638600,9.624638671875,4.311957359313965,-13.766959190368652,4.4723687171936035
1696083027552638700,9.634638671875,4.1611223220825195,-14.3702974319458,3.821146011352539
1696083027562638600,9.644638671875,3.4380736351013184,-14.528315544128418,3.1292216777801514
1696083027572638700,9.654638671875,2.9712042808532715,-14.257770538330078,2.4636335372924805
1696083027582638600,9.664638671875,3.423708438873291,-13.980043411254883,2.2194249629974365
1696083027592638500,9.674638427734376,2.9759926795959473,-13.860332489013672,1.941697597503662
1696083027602638600,9.684638671875,1.070208191871643,-14.255375862121582,1.5298948287963867
1696083027612638500,9.694638427734375,-0.6392518281936646,-15.062520980834961,0.689530074596405
1696083027622638600,9.704638671875,-1.601720929145813,-16.005836486816406,-0.2944868206977844
1696083027632638500,9.714638427734375,-1.8363527059555054,-17.23406219482422,-1.6496049165725708
1696083027642638600,9.724638671875,-2.2361843585968018,-18.46468162536621,-3.445256233215332
1696083027652638500,9.734638427734374,-2.760514497756958,-19.25716209411621,-5.430348873138428
1696083027662638600,9.744638671875,-3.8067808151245117,-19.101539611816406,-7.070376873016357
1696083027672638500,9.754638427734376,-4.106055736541748,-17.882890701293945,-7.680898189544678
1696083027682638600,9.764638671875,-3.1890766620635986,-15.550938606262207,-7.4223246574401855
1696083027692638500,9.774638427734375,-1.98958158493042,-13.513174057006836,-6.055235385894775
1696083027702638600,9.784638671875,1.4245500564575195,-11.909058570861816,-4.28322696685791
1696083027712638500,9.794638427734375,3.6798880100250244,-10.939406394958496,-2.6455929279327393
1696083027722638600,9.804638671875,2.300827741622925,-10.28818416595459,-2.276885747909546
1696083027732638500,9.814638427734375,-0.040701430290937424,-9.816526412963867,-1.889025092124939
1696083027742638600,9.824638671875,-0.9696516990661621,-9.244312286376953,-1.1085153818130493
1696083027752638500,9.834638427734374,-1.094150185585022,-8.511686325073242,-0.6631938815116882
1696083027762638600,9.844638671875,-1.015141487121582,-7.676109790802002,-0.33039984107017517
1696083027772638500,9.854638427734375,-1.3479355573654175,-6.847716331481934,-0.19153612852096558
1696083027782638600,9.864638671875,-1.9752163887023926,-6.021716594696045,0.08140286058187485
1696083027792638700,9.874638671875,-2.6599581241607666,-5.360917091369629,0.272938996553421
1696083027802638600,9.884638671875,-2.52109432220459,-5.018546104431152,0.5578489899635315
1696083027812638700,9.894638671875,-1.7764976024627686,-5.056853294372559,0.4405331015586853
1696083027822638000,9.90463818359375,-1.039083480834961,-5.396830081939697,-0.20111294090747833
1696083027832638200,9.91463818359375,-1.0965443849563599,-5.861305236816406,-0.7254431247711182
1696083027842638000,9.92463818359375,-1.6927006244659424,-6.287472724914551,-0.9265560507774353
1696083027852638200,9.93463818359375,-2.051830768585205,-6.507739543914795,-1.137245774269104
1696083027862638000,9.94463818359375,-2.0470423698425293,-6.548440933227539,-1.3670891523361206
1696083027872638200,9.95463818359375,-2.10210919380188,-6.502951145172119,-1.50355863571167
1696083027882638000,9.96463818359375,-2.126051187515259,-6.237194538116455,-1.7501614093780518
1696083027892638200,9.97463818359375,-2.169146776199341,-5.789478778839111,-2.0877439975738525
1696083027902638000,9.98463818359375,-2.31758713722229,-5.250783443450928,-2.5067291259765625
1696083027912638200,9.99463818359375,-2.4612393379211426,-4.644751071929932,-2.983175277709961
1696083027922638000,10.00463818359375,-2.5522189140319824,-4.0749311447143555,-3.469198226928711
1696083027932638200,10.01463818359375,-2.5043349266052246,-3.5913026332855225,-3.9480385780334473
1696083027942638000,10.02463818359375,-2.319981336593628,-3.2130186557769775,-4.352658748626709
1696083027952638200,10.03463818359375,-1.8267759084701538,-2.8850131034851074,-4.666299343109131
1696083027962638000,10.04463818359375,-1.2210428714752197,-2.8993782997131348,-4.261679172515869
1696083027972638200,10.05463818359375,-0.33997663855552673,-3.620033025741577,-2.4875755310058594
1696083027982638000,10.06463818359375,0.5650315880775452,-4.778826713562012,-0.24660277366638184
1696083027992638200,10.07463818359375,2.513911724090576,-6.467038154602051,2.279279947280884
1696083028002638000,10.08463818359375,8.889969825744629,-9.543587684631348,5.353734493255615
1696083028012638200,10.09463818359375,15.677831649780273,-14.006379127502441,9.069535255432129
1696083028022638000,10.10463818359375,15.775993347167969,-18.87169647216797,12.996026039123535
1696083028032638200,10.11463818359375,13.407828330993652,-22.57792091369629,15.632341384887695
1696083028042638000,10.12463818359375,14.315231323242188,-23.581090927124023,15.778388023376465
1696083028052638200,10.13463818359375,12.191574096679688,-21.543624877929688,13.96328353881836
1696083028062638000,10.14463818359375,7.76948356628418,-17.77275848388672,8.509291648864746
1696083028072638200,10.15463818359375,4.869806289672852,-13.067852020263672,4.206612586975098
1696083028082638000,10.16463818359375,3.9647979736328125,-8.856451034545898,1.9081788063049316
1696083028092638200,10.17463818359375,3.423708438873291,-6.637026309967041,0.5171475410461426
1696083028102638000,10.18463818359375,2.1092917919158936,-8.451830863952637,-1.4891934394836426
1696083028112638200,10.19463818359375,0.7206547260284424,-12.074258804321289,-2.920926094055176
1696083028122638000,10.20463818359375,-0.7661445140838623,-14.700997352600098,-3.313575267791748
1696083028132638200,10.21463818359375,-2.5091233253479004,-15.606005668640137,-3.3901896476745605
1696083028142638000,10.22463818359375,2.008735179901123,-16.50861930847168,-2.87064790725708
1696083028152638200,10.23463818359375,4.067748546600342,-13.953706741333008,-1.3287819623947144
1696083028162638600,10.244638671875,-1.5705963373184204,-9.354445457458496,-2.5067291259765625
1696083028172638700,10.254638671875,-5.3226094245910645,-5.641038417816162,-3.157952070236206
1696083028182638600,10.264638671875,-7.063194274902344,-3.6750996112823486,-2.9257144927978516
1696083028192638700,10.274638671875,-7.051223278045654,-3.5745432376861572,-2.9688100814819336
1696083028202638600,10.284638671875,-6.634632110595703,-4.752490520477295,-2.8227639198303223
1696083028212638700,10.294638671875,-5.9427080154418945,-6.890811920166016,-3.043030261993408
1696083028222638600,10.304638671875,-5.140650272369385,-9.289801597595215,-3.6320040225982666
1696083028232638700,10.314638671875,-4.3191399574279785,-11.743858337402344,-4.307168960571289
1696083028242638600,10.324638671875,-4.37420654296875,-13.831602096557617,-4.211400985717773
1696083028252638700,10.334638671875,-5.38246488571167,-15.220539093017578,-3.3255462646484375
1696083028262638600,10.344638671875,-4.850652694702148,-14.703091621398926,-2.425326347351074
1696083028272638700,10.354638671875,-2.6815059185028076,-13.412616729736328,-1.455674648284912
1696083028282638600,10.364638671875,-0.5027823448181152,-11.703157424926758,-0.6631938815116882
1696083028292638700,10.374638671875,1.070208191871643,-9.881169319152832,-0.24660277366638184
1696083028302638800,10.384638916015625,2.5330653190612793,-8.329727172851562,0.0071826050989329815
1696083028312638700,10.394638671875,3.576937437057495,-7.407959461212158,0.3016694188117981
1696083028322638800,10.404638916015625,3.7900211811065674,-7.185298442840576,0.8834604024887085
1696083028332638700,10.414638671875,2.875436305999756,-7.558794021606445,1.5442601442337036
1696083028342638600,10.424638671875,1.6903064250946045,-8.063970565795898,1.7693150043487549
1696083028352638700,10.434638671875,0.5722141861915588,-8.41112995147705,1.3742717504501343
1696083028362638600,10.444638671875,-0.2992752194404602,-8.715193748474121,0.8427590131759644
1696083028372638700,10.454638671875,-1.070208191871643,-9.014469146728516,0.40701428055763245
1696083028382638600,10.464638671875,-1.1994950771331787,-9.064746856689453,0.4189853072166443
1696083028392638700,10.474638671875,-1.137245774269104,-8.911518096923828,0.47884035110473633
1696083028402638600,10.484638671875,-1.3862427473068237,-8.633790969848633,0.27054479718208313
1696083028412638700,10.494638671875,-2.070984363555908,-8.487744331359863,0.27054479718208313
1696083028422638600,10.504638671875,-2.0015525817871094,-8.473379135131836,0.4165911078453064
1696083028432638700,10.514638671875,-1.235408067703247,-8.679280281066895,0.545877993106842
1696083028442638600,10.524638671875,-0.16519992053508759,-9.364022254943848,0.7445967197418213
1696083028452638700,10.534638671875,1.3694833517074585,-10.300154685974121,0.9409212470054626
1696083028462638000,10.54463818359375,2.5953147411346436,-10.93461799621582,1.1994950771331787
1696083028472638200,10.55463818359375,2.8203697204589844,-11.035175323486328,1.5275006294250488
1696083028482638000,10.56463818359375,2.2242133617401123,-10.580276489257812,1.8579005002975464
1696083028492638200,10.57463818359375,1.2066776752471924,-9.742305755615234,2.1308395862579346
1696083028502638000,10.58463818359375,-0.002394201699644327,-9.000102996826172,2.118868589401245
1696083028512638200,10.59463818359375,-1.05105459690094,-8.763077735900879,1.5275006294250488
1696083028522638000,10.60463818359375,-1.53707754611969,-9.126996040344238,0.5650315880775452
1696083028532638200,10.61463818359375,-1.2090718746185303,-9.881169319152832,-0.395043283700943
1696083028542638000,10.62463818359375,0.033518824726343155,-10.855609893798828,-1.1109095811843872
1696083028552638200,10.63463818359375,1.9608511924743652,-11.700762748718262,-1.4652514457702637
1696083028562638000,10.64463818359375,4.01268196105957,-11.971307754516602,-1.3862427473068237
1696083028572638200,10.65463818359375,5.404012680053711,-11.739069938659668,-0.8786720037460327
1696083028582638000,10.66463818359375,5.471050262451172,-11.162067413330078,-0.05985504388809204
1696083028592638200,10.67463818359375,3.866635799407959,-10.441412925720215,0.8738836050033569
1696083028602638000,10.68463818359375,1.6041151285171509,-10.178050994873047,1.50355863571167
1696083028612638200,10.69463818359375,-0.38546648621559143,-10.405499458312988,2.011129379272461
1696083028622638000,10.70463818359375,-1.7310078144073486,-10.960954666137695,2.7916390895843506
1696083028632638200,10.71463818359375,-2.38462495803833,-11.650485038757324,3.7421371936798096
1696083028642638000,10.72463818359375,-2.2242133617401123,-12.093412399291992,4.812345504760742
1696083028652638200,10.73463818359375,-1.0295066833496094,-12.136507987976074,5.916371822357178
1696083028662638000,10.74463818359375,1.1180921792984009,-11.911452293395996,6.507739543914795
1696083028672638200,10.75463818359375,3.31118106842041,-11.935394287109375,6.646603107452393
1696083028682638000,10.76463818359375,4.663905143737793,-12.69675064086914,6.711246490478516
1696083028692638200,10.77463818359375,5.0376996994018555,-13.467683792114258,6.443096160888672
1696083028702638000,10.78463818359375,4.477157115936279,-13.66879653930664,5.72244119644165
1696083028712638200,10.79463818359375,3.6607344150543213,-13.29530143737793,4.278438568115234
1696083028722638000,10.80463818359375,3.6942532062530518,-12.852374076843262,2.8586769104003906
1696083028732638200,10.81463818359375,3.2297780513763428,-12.691962242126465,1.6160861253738403
1696083028742638000,10.82463818359375,1.867477297782898,-13.051093101501465,0.7757213711738586
1696083028752638200,10.83463818359375,0.05027823522686958,-14.190732955932617,0.31364041566848755
1696083028762638000,10.84463818359375,-1.3431471586227417,-15.359402656555176,-0.7110779285430908
1696083028772638200,10.85463818359375,-1.1348515748977661,-16.683395385742188,-2.2457611560821533
1696083028782638000,10.86463818359375,-0.5889736413955688,-18.14385986328125,-4.414907932281494
1696083028792638200,10.87463818359375,-0.8571242094039917,-19.350536346435547,-6.124667167663574
1696083028802638000,10.88463818359375,-2.7485435009002686,-19.886837005615234,-7.285854816436768
1696083028812638200,10.89463818359375,-4.278438568115234,-18.718467712402344,-7.901165008544922
1696083028822638000,10.90463818359375,-4.469974517822266,-16.62114715576172,-7.668927192687988
1696083028832638200,10.91463818359375,-4.017470359802246,-14.188338279724121,-6.071994781494141
1696083028842638000,10.92463818359375,-1.8746598958969116,-12.320860862731934,-4.683058738708496
1696083028852638200,10.93463818359375,0.8307880163192749,-11.130943298339844,-3.442862033843994
1696083028862638000,10.94463818359375,1.7741034030914307,-10.340856552124023,-1.9584569931030273
1696083028872638200,10.95463818359375,1.3742717504501343,-9.938630104064941,-1.0654197931289673
1696083028882638000,10.96463818359375,-0.33518823981285095,-9.696816444396973,-0.5434837937355042
1696083028892638200,10.97463818359375,-2.300827741622925,-9.301773071289062,0
1696083028902638000,10.98463818359375,-2.8778305053710938,-8.818143844604492,0.5913678407669067
1696083028912638200,10.99463818359375,-2.013523578643799,-7.977779388427734,0.7398083209991455
1696083028922638000,11.00463818359375,-0.5482721924781799,-6.941090106964111,0.6584054827690125
1696083028932638200,11.01463818359375,-0.2944868206977844,-6.1845221519470215,0.9241618514060974
1696083028942638000,11.02463818359375,-1.0654197931289673,-5.703287601470947,0.8331822156906128
1696083028952638200,11.03463818359375,-1.5897499322891235,-5.624279022216797,0.8331822156906128
1696083028962638000,11.04463818359375,-1.922544002532959,-5.6434326171875,0.5913678407669067
1696083036341286700,18.42328662109375,-0.40222588181495667,-9.720758438110352,-0.24420857429504395
1696083036351285500,18.433285400390623,-0.3758896589279175,-9.696816444396973,-0.23702596127986908
1696083036361285600,18.44328564453125,-0.395043283700943,-9.74709415435791,-0.16519992053508759
1696083036371285500,18.453285400390627,-0.44532153010368347,-9.806949615478516,-0.14365209639072418
1696083036381285600,18.46328564453125,-0.5027823448181152,-9.833285331726074,-0.090979665517807
1696083036391285500,18.473285400390626,-0.5339069962501526,-9.794978141784668,-0.07182604819536209
1696083036401285600,18.48328564453125,-0.5602431893348694,-9.749488830566406,-0.05506663769483566
1696083036411285500,18.493285400390626,-0.5315127968788147,-9.694421768188477,-0.038307227194309235
1696083036421285600,18.50328564453125,-0.47884035110473633,-9.708786964416504,-0.07900865375995636
1696083036431285500,18.513285400390625,-0.44532153010368347,-9.783007621765137,-0.07422025501728058
1696083036441285600,18.52328564453125,-0.4429273009300232,-9.778219223022461,-0.0933738648891449
1696083036451285500,18.533285400390625,-0.45250412821769714,-9.814131736755371,-0.15801730751991272
1696083036461285600,18.54328564453125,-0.4357447028160095,-9.794978141784668,-0.22505496442317963
1696083036471285500,18.553285400390624,-0.4692635238170624,-9.771036148071289,-0.2825157940387726
1696083036481285600,18.56328564453125,-0.44771572947502136,-9.778219223022461,-0.3519476354122162
1696083036491285500,18.573285400390624,-0.4381389021873474,-9.857227325439453,-0.4620809257030487
1696083036501285600,18.58328564453125,-0.48602294921875,-9.952995300292969,-0.5315127968788147
1696083036511285500,18.593285400390624,-0.507570743560791,-9.950601577758789,-0.5746083855628967
1696083036521285600,18.60328564453125,-0.6655880808830261,-10.036792755126953,-0.7829039692878723
1696083036531285500,18.613285400390627,-0.7613561153411865,-9.905111312866211,-0.5913678407669067
1696083036541285600,18.62328564453125,-0.586579442024231,-9.862015724182129,-0.7709329724311829
1696083036551285500,18.633285400390626,-0.6440402865409851,-10.156502723693848,-1.2641384601593018
1696083036561285600,18.64328564453125,-0.9313444495201111,-10.304943084716797,-1.280897855758667
1696083036571285500,18.653285400390626,-0.9911994934082031,-10.087071418762207,-1.048660397529602
1696083036581285600,18.66328564453125,-0.5147533416748047,-9.455001831054688,-0.4213795065879822
1696083036591285500,18.673285400390625,0.24660277366638184,-8.607454299926758,0.23942017555236816
1696083036601285600,18.68328564453125,0.3734954595565796,-8.384793281555176,-0.3519476354122162
1696083036611285500,18.693285400390625,-0.5434837937355042,-9.708786964416504,-0.8882488012313843
1696083036621285600,18.70328564453125,-1.292868971824646,-10.659285545349121,-1.4844050407409668
1696083036631285500,18.713285400390625,-1.9823989868164062,-11.636119842529297,-2.7054479122161865
1696083036641285600,18.72328564453125,-2.293645143508911,-12.009614944458008,-3.689464807510376
1696083036651285500,18.733285400390624,-1.6519991159439087,-11.660061836242676,-4.050989151000977
1696083036661285600,18.74328564453125,-1.0079588890075684,-11.739069938659668,-4.278438568115234
1696083036671285500,18.753285400390624,-0.6177040338516235,-11.909058570861816,-4.120420932769775
1696083036681285600,18.76328564453125,-0.24181437492370605,-11.743858337402344,-3.28963303565979
1696083036691285500,18.773285400390623,-0.016759412363171577,-11.276988983154297,-2.425326347351074
1696083036701285600,18.78328564453125,0.05506663769483566,-10.261847496032715,-1.290474772453308
1696083036711285500,18.793285400390626,-0.2585737705230713,-9.220370292663574,-0.4189853072166443
1696083036721285600,18.80328564453125,-0.8786720037460327,-7.862857818603516,0.689530074596405
1696083036731285500,18.813285400390626,-1.0414776802062988,-6.318597793579102,1.9249382019042969
1696083036741285600,18.82328564453125,-0.667982280254364,-5.667374610900879,1.644816517829895
1696083036751285500,18.833285400390626,-0.6512228846549988,-7.257124423980713,0.33039984107017517
1696083036761285600,18.84328564453125,-0.8236053586006165,-8.669703483581543,0.2992752194404602
1696083036771285500,18.853285400390625,-1.1085153818130493,-10.235511779785156,0.10534487664699554
1696083036781285600,18.86328564453125,-0.9768342971801758,-10.745476722717285,0.2322375625371933
1696083036791285800,18.87328564453125,-0.47644615173339844,-10.19959831237793,-0.47405192255973816
1696083036801285600,18.88328564453125,-0.15322890877723694,-9.534010887145996,-1.039083480834961
1696083036811285800,18.89328564453125,-0.24899697303771973,-9.052776336669922,-1.3958195447921753
1696083036821285600,18.90328564453125,-0.5889736413955688,-8.607454299926758,-1.4317326545715332
1696083036831285800,18.91328564453125,-0.8930372595787048,-8.514080047607422,-0.9361328482627869
1696083036841285600,18.92328564453125,-0.9768342971801758,-8.444648742675781,-0.1843535304069519
1696083036851285500,18.933285400390623,-0.8619126081466675,-8.576330184936523,0.2801215946674347
1696083036861285600,18.94328564453125,-0.8259995579719543,-8.7175874710083,0.629675030708313
1696083036871285500,18.953285400390627,-0.7206547260284424,-8.882787704467773,0.8236053586006165
1696083036881285600,18.96328564453125,-0.4812345504760742,-8.889969825744629,1.0654197931289673
1696083036891285500,18.973285400390626,-0.29209262132644653,-8.655338287353516,0.790086567401886
1696083036901285600,18.98328564453125,-0.304063618183136,-9.26107120513916,0
1696083036911285500,18.993285400390626,-0.2106897532939911,-9.684844970703125,-0.3998316824436188
1696083036921285600,19.00328564453125,-0.22266076505184174,-9.883563995361328,-0.5578489899635315
1696083036931285500,19.013285400390625,-0.3998316824436188,-10.570699691772461,-1.8100165128707886
1696083036941285600,19.02328564453125,-0.8092401623725891,-11.090241432189941,-2.6408045291900635
1696083036951285500,19.033285400390625,-1.4317326545715332,-11.537957191467285,-3.0885202884674072
1696083036961285600,19.04328564453125,-1.8962076902389526,-11.638513565063477,-2.762908697128296
1696083036971285500,19.053285400390624,-2.1068975925445557,-11.365574836730957,-1.9321208000183105
1696083036981285600,19.06328564453125,-1.7549498081207275,-11.133337020874023,-1.1324573755264282
1696083036991285500,19.073285400390624,-1.3742717504501343,-10.834061622619629,-0.8451532125473022
1696083037001285600,19.08328564453125,-1.1755530834197998,-10.26663589477539,-0.8259995579719543
1696083037011285500,19.093285400390624,-0.9576807022094727,-9.818920135498047,-0.9648633003234863
1696083037021285600,19.10328564453125,-0.7374141216278076,-9.455001831054688,-1.1516109704971313
1696083037031285500,19.113285400390627,-2.4636335372924805,-8.640973091125488,-1.6424223184585571
1696083037041285600,19.12328564453125,-4.146757125854492,-8.154950141906738,-1.944091796875
1696083037051285800,19.13328564453125,-1.9297266006469727,-9.249100685119629,-1.9321208000183105
1696083037061285600,19.14328564453125,-0.8427590131759644,-10.094253540039062,-2.5306711196899414
1696083037071285800,19.15328564453125,-0.6560112833976746,-9.421483039855957,-2.9903578758239746
1696083037081285600,19.16328564453125,-1.778891921043396,-10.01763916015625,-3.6367924213409424
1696083037091285500,19.173285400390625,-2.5498247146606445,-9.49809741973877,-3.3494882583618164
1696083037101285600,19.18328564453125,-0.05506663769483566,-8.47098445892334,-2.2601263523101807
1696083037111285500,19.193285400390625,3.203441858291626,-8.178892135620117,-0.993593692779541
1696083037121285600,19.20328564453125,3.181894063949585,-8.061576843261719,-0.7015010714530945
1696083037131285500,19.213285400390625,2.5665841102600098,-8.444648742675781,-0.828393816947937
1696083037141285600,19.22328564453125,1.3886369466781616,-9.296984672546387,-1.0606313943862915
1696083037151285500,19.233285400390624,-0.19153612852096558,-10.309731483459473,-1.9129672050476074
1696083037161285600,19.24328564453125,-1.1827356815338135,-10.53478717803955,-2.8443117141723633
1696083037171285500,19.253285400390624,-1.37906014919281,-10.47253704071045,-3.5242648124694824
1696083037181285600,19.26328564453125,-1.3503297567367554,-10.273818969726562,-3.995922565460205
1696083037191285500,19.273285400390623,-1.237802267074585,-9.883563995361328,-4.347870349884033
1696083037201285600,19.28328564453125,-1.403002142906189,-9.952995300292969,-4.759673118591309
1696083037211285500,19.293285400390626,-1.7932571172714233,-10.604218482971191,-5.095160484313965
1696083037221285600,19.30328564453125,-1.8794482946395874,-11.583447456359863,-5.205293655395508
1696083037231285500,19.313285400390626,-1.6519991159439087,-12.459725379943848,-5.341763496398926
1696083037241285600,19.32328564453125,-1.015141487121582,-13.738228797912598,-5.104737281799316
1696083037251285500,19.333285400390626,-0.33279404044151306,-15.194202423095703,-3.2848446369171143
1696083037261285600,19.34328564453125,-0.11013327538967133,-15.165472030639648,-2.319981336593628
1696083037271285500,19.353285400390625,0.45489832758903503,-14.854226112365723,-1.37906014919281
1696083037281285600,19.36328564453125,-0.6200982332229614,-14.4133939743042,-0.17477671802043915
1696083037291285800,19.37328564453125,-1.4293384552001953,-13.740622520446777,1.3670891523361206
1696083037301285600,19.38328564453125,-1.8986018896102905,-13.180379867553711,2.360682964324951
1696083037311285800,19.39328564453125,-2.580949544906616,-12.969690322875977,3.1866824626922607
1696083037321285600,19.40328564453125,-2.542642116546631,-11.62414836883545,3.9815573692321777
1696083037331285800,19.41328564453125,-2.145204782485962,-11.20516300201416,3.3854012489318848
1696083037341285600,19.42328564453125,-1.6855180263519287,-11.193192481994629,2.403778553009033
1696083037351285500,19.433285400390623,-1.4173674583435059,-11.985672950744629,1.2545616626739502
1696083037361285600,19.44328564453125,-1.403002142906189,-11.976096153259277,1.5538369417190552
1696083037371285500,19.453285400390627,-1.5849615335464478,-11.432612419128418,3.955221176147461
1696083037381285600,19.46328564453125,-2.4396915435791016,-11.933000564575195,5.5237226486206055
1696083037391285500,19.473285400390626,-2.1164743900299072,-12.723087310791016,4.9491143226623535
1696083037401285600,19.48328564453125,-1.161187767982483,-13.367127418518066,4.228160381317139
1696083037411285500,19.493285400390626,0.11013327538967133,-13.733440399169922,3.0765492916107178
1696083037421285600,19.50328564453125,0.8690952062606812,-13.051093101501465,2.7461493015289307
1696083037431285500,19.513285400390625,1.2473790645599365,-11.753435134887695,3.2609026432037354
1696083037441285600,19.52328564453125,0.7254431247711182,-10.980108261108398,2.7988216876983643
1696083037451285500,19.533285400390625,-0.7182605266571045,-10.05115795135498,2.8802247047424316
1696083037461285600,19.54328564453125,-0.002394201699644327,-9.749488830566406,3.531447410583496
1696083037471285500,19.553285400390624,0.15083470940589905,-10.510845184326172,1.8411411046981812
1696083037481285600,19.56328564453125,0.12210428714752197,-10.07509994506836,0.4644751250743866
1696083037491285500,19.573285400390624,-0.19632454216480255,-9.246706008911133,-0.6129156351089478
1696083037501285600,19.58328564453125,-0.3519476354122162,-7.934683799743652,-0.7781155705451965
1696083037511285500,19.593285400390624,-0.38307225704193115,-7.259518623352051,-0.1412578970193863
1696083037521285600,19.60328564453125,0.3663128614425659,-7.424718856811523,-0.028730420395731926
1696083037531285500,19.613285400390627,2.0925323963165283,-8.078335762023926,0.22744916379451752
1696083037541285600,19.62328564453125,1.41257905960083,-7.429507255554199,1.1851298809051514
1696083037551285800,19.63328564453125,1.656787633895874,-7.4462666511535645,2.8107926845550537
1696083037561285600,19.64328564453125,0.10773907601833344,-6.625055313110352,5.411195278167725
1696083037571285800,19.65328564453125,-1.479616641998291,-6.148609161376953,7.247547626495361
1696083037581285600,19.66328564453125,-4.271255970001221,-6.409577369689941,7.630620002746582
1696083037591285500,19.673285400390625,-3.335123062133789,-8.23156452178955,5.011363506317139
1696083037601285600,19.68328564453125,-1.1779472827911377,-7.218817234039307,4.079719543457031
1696083037611285500,19.693285400390625,1.721431016921997,-6.419154167175293,2.719813108444214
1696083037621285600,19.70328564453125,5.799055576324463,-6.680121898651123,-2.3726539611816406
1696083037631285500,19.713285400390625,6.562806129455566,-6.100725173950195,-2.4803929328918457
1696083037641285600,19.72328564453125,6.890811920166016,-6.139032363891602,-1.2282254695892334
1696083037651285500,19.733285400390624,8.945036888122559,-6.7136406898498535,-0.7374141216278076
1696083037661285600,19.74328564453125,8.19804573059082,-7.5540056228637695,-0.730231523513794
1696083037671285500,19.753285400390624,10.496479988098145,-8.959402084350586,-0.7326257228851318
1696083037681285600,19.76328564453125,9.239523887634277,-11.370363235473633,-0.15562310814857483
1696083037691285500,19.773285400390623,7.546823024749756,-14.02792739868164,1.4197616577148438
1696083037701285600,19.78328564453125,6.941090106964111,-16.008230209350586,3.7469255924224854
1696083037711285500,19.793285400390626,6.40000057220459,-16.362573623657227,5.954679012298584
1696083037721285600,19.80328564453125,5.981015205383301,-15.287576675415039,8.533234596252441
1696083037731285500,19.813285400390626,5.990592002868652,-13.697526931762695,11.164462089538574
1696083037741285600,19.82328564453125,6.4502787590026855,-12.11974811553955,12.53633975982666
1696083037751285500,19.833285400390626,6.170156955718994,-11.56668758392334,12.47887897491455
1696083037761285600,19.84328564453125,4.733336925506592,-12.045528411865234,9.763854026794434
1696083037771285500,19.853285400390625,2.250549554824829,-13.324031829833984,6.277895927429199
1696083037781285600,19.86328564453125,0.5770025849342346,-14.257770538330078,3.8283286094665527
1696083037791285800,19.87328564453125,0.38307225704193115,-14.595353126525879,2.853888511657715
1696083037801285600,19.88328564453125,1.381454348564148,-14.343961715698242,3.4596214294433594
1696083037811285800,19.89328564453125,3.375824451446533,-13.69034481048584,5.107131481170654
1696083037821285600,19.90328564453125,5.368099689483643,-13.50838565826416,6.701669692993164
1696083037831285800,19.91328564453125,6.953061103820801,-13.647249221801758,7.7072343826293945
1696083037841285600,19.92328564453125,7.826944828033447,-13.702315330505371,8.334515571594238
1696083037851285500,19.933285400390623,8.298602104187012,-13.786112785339355,8.308178901672363
1696083037861285600,19.94328564453125,7.673715591430664,-13.754987716674805,7.961019992828369
1696083037871285500,19.953285400390627,6.376058578491211,-13.465290069580078,7.285854816436768
1696083037881285600,19.96328564453125,4.620809078216553,-12.847585678100586,6.289866924285889
1696083037891285500,19.973285400390626,2.6384103298187256,-12.213122367858887,5.056853294372559
1696083038201285600,20.28328564453125,6.816591739654541,-1.4077905416488647,2.4157495498657227
1696083038211285500,20.293285400390626,6.833351135253906,-1.2473790645599365,1.721431016921997
1696083038221285600,20.30328564453125,7.23797082901001,-0.6248866319656372,0.9050082564353943
1696083038231285500,20.313285400390626,7.700051784515381,0.3447650372982025,0.5219359993934631
1696083038241285600,20.32328564453125,8.174103736877441,0.933738648891449,0.586579442024231
1696083038251285500,20.333285400390626,8.619425773620605,0.950498104095459,1.2401964664459229
1696083038261285600,20.34328564453125,8.787019729614258,1.0654197931289673,2.0829553604125977
1696083038271285500,20.353285400390625,9.055170059204102,1.3623007535934448,2.492363929748535
1696083038281285600,20.36328564453125,9.361627578735352,1.7357962131500244,2.580949544906616
1696083038291285800,20.37328564453125,9.56274127960205,1.9321208000183105,2.4181437492370605
1696083038301285600,20.38328564453125,9.794978141784668,1.8387469053268433,2.3127987384796143
1696083038311285800,20.39328564453125,10.07270622253418,1.6759412288665771,2.3032219409942627
1696083038321285600,20.40328564453125,10.340856552124023,1.6208745241165161,2.2625205516815186
1696083038331285800,20.41328564453125,10.778995513916016,1.6041151285171509,2.1332337856292725
1696083038341285600,20.42328564453125,11.181221008300781,1.6735470294952393,2.0590133666992188
1696083038351285800,20.43328564453125,11.403882026672363,2.1954829692840576,2.3080103397369385
1696083038361285600,20.44328564453125,11.363180160522461,2.6647465229034424,2.319981336593628
1696083038371285800,20.45328564453125,10.817302703857422,2.6599581241607666,2.1811177730560303
1696083038801655000,20.883655029296875,2.8634653091430664,5.356128692626953,9.153332710266113
1696083038811670000,20.893669921875,2.9472622871398926,4.913201332092285,9.098265647888184
1696083038821655000,20.903655029296875,3.576937437057495,4.364629745483398,8.753500938415527
1696083038831647500,20.9136474609375,4.800374507904053,3.691859006881714,7.273883819580078
1696083038841642500,20.923642578125,5.3489460945129395,3.579331636428833,7.209240436553955
1696083038851638800,20.933638671875,5.8565168380737305,3.375824451446533,7.367258071899414
1696083038861635800,20.9436357421875,6.237194538116455,3.3949780464172363,7.137414455413818
1696083038871633400,20.95363330078125,6.601113319396973,3.181894063949585,6.332962989807129
1696083038881631500,20.963631591796876,6.414365768432617,3.445256233215332,5.023334503173828
1696083038891629600,20.973629638671873,6.723217487335205,3.2968156337738037,4.1156325340271
1696083038901628000,20.9836279296875,7.142202854156494,2.80361008644104,3.201047658920288
1696083038911626500,20.99362646484375,8.169315338134766,2.1811177730560303,2.2218191623687744
1696083038921625000,21.003625,8.92348861694336,2.1284453868865967,1.048660397529602
1696083038931624000,21.0136240234375,23.705589294433594,0.17477671802043915,1.1516109704971313
1696083038941622500,21.02362255859375,13.824419975280762,1.558625340461731,-0.7445967197418213
