time,seconds_elapsed,z,y,x
1696083017979134000,0.061134033203125,8.248324394226074,4.331110954284668,0.1867477297782898
1696083017989134000,0.071134033203125,8.233959197998047,4.323928356170654,0.20111294090747833
1696083017999134000,0.081134033203125,8.339303970336914,4.256890773773193,0.09576806426048279
1696083018009134000,0.091134033203125,8.394370079040527,4.321534156799316,0.2322375625371933
1696083018019134000,0.101134033203125,8.399158477783203,4.3191399574279785,0.14844051003456116
1696083018029134000,0.111134033203125,8.482955932617188,4.20421838760376,0.009576806798577309
1696083018039134000,0.121134033203125,8.578723907470703,4.211400985717773,0.0933738648891449
1696083018049134000,0.131134033203125,8.638579368591309,4.163516521453857,0.14604631066322327
1696083018059134000,0.141134033203125,8.59069538116455,4.065354347229004,0.21308395266532898
1696083018069134000,0.151134033203125,8.425495147705078,4.113238334655762,0.15083470940589905
1696083018079134000,0.161134033203125,8.315361976623535,4.158728122711182,0.05985504388809204
1696083018089134000,0.171134033203125,8.25550651550293,4.170699596405029,-0.21787235140800476
1696083018099134000,0.181134033203125,8.150161743164062,4.256890773773193,-0.3423708379268646
1696083018109134000,0.191134033203125,7.98256778717041,4.2329487800598145,-0.40462008118629456
1696083018119134000,0.201134033203125,7.680898189544678,4.266467571258545,-0.3711012601852417
1696083018129134000,0.211134033203125,7.364863872528076,4.1156325340271,0.1149216815829277
1696083018139134000,0.221134033203125,7.269095420837402,3.799597978591919,-0.023942016065120697
1696083018149134000,0.231134033203125,7.623437404632568,3.383007049560547,-0.12210428714752197
1696083018159134000,0.241134033203125,8.315361976623535,3.205836057662964,0.07900865375995636
1696083018169134000,0.251134033203125,8.46859073638916,3.3854012489318848,0.13168109953403473
1696083018179134000,0.261134033203125,8.43507194519043,3.5745432376861572,0.10055647045373917
1696083018189134000,0.271134033203125,8.37761116027832,3.6607344150543213,-0.07661445438861847
1696083018199134000,0.281134033203125,8.2219877243042,3.603273630142212,-0.2825157940387726
1696083018209134000,0.291134033203125,7.831733226776123,3.579331636428833,-0.031124621629714966
1696083018219134000,0.301134033203125,7.606678009033203,3.488351821899414,0.22505496442317963
1696083018229134000,0.311134033203125,7.424718856811523,3.1196448802948,0.31364041566848755
1696083018239134000,0.321134033203125,7.281066417694092,2.978386878967285,0.6057330369949341
1696083018249134000,0.331134033203125,7.412747859954834,2.9089550971984863,1.0199298858642578
1696083018259134000,0.341134033203125,7.817368030548096,2.8778305053710938,1.5538369417190552
1696083018269134000,0.351134033203125,8.19804573059082,3.0310592651367188,2.27209734916687
1696083018279134000,0.361134033203125,8.569147109985352,3.162740468978882,3.1268274784088135
1696083018289134000,0.371134033203125,8.933065414428711,3.308786630630493,3.9001545906066895
1696083018299134200,0.38113427734375,9.10305404663086,3.4332852363586426,4.261679172515869
1696083018309134000,0.391134033203125,8.506897926330566,3.3638534545898438,3.97916316986084
1696083018319134200,0.40113427734375,7.824550628662109,3.318363666534424,2.9664158821105957
1696083018329134000,0.411134033203125,6.957849502563477,3.509899616241455,2.494758129119873
1696083018339134200,0.42113427734375,6.3856353759765625,4.046200752258301,2.365471363067627
1696083018349134000,0.431134033203125,6.115090370178223,4.185064792633057,2.7461493015289307
1696083018359134200,0.44113427734375,6.177339553833008,4.424484729766846,3.313575267791748
1696083018369134000,0.451134033203125,6.847716331481934,4.194641590118408,3.557783842086792
1696083018379134200,0.46113427734375,7.063194274902344,4.10366153717041,4.194641590118408
1696083018389134000,0.471134033203125,6.787860870361328,4.170699596405029,4.534617900848389
1696083018399134200,0.48113427734375,6.8285627365112305,4.223371982574463,4.14915132522583
1696083018409134000,0.491134033203125,7.017704486846924,4.158728122711182,3.31118106842041
1696083018419134000,0.501134033203125,6.476614952087402,3.557783842086792,3.2561142444610596
1696083018429134000,0.511134033203125,3.380612850189209,2.978386878967285,3.8379054069519043
1696083018439134000,0.521134033203125,5.025728702545166,2.894589900970459,5.471050262451172
1696083018449134000,0.531134033203125,5.825392246246338,2.7892448902130127,4.757278919219971
1696083018459134000,0.541134033203125,4.845864295959473,2.1739351749420166,5.451896667480469
1696083018469134000,0.551134033203125,4.036623954772949,1.3000515699386597,5.9642558097839355
1696083018479134000,0.561134033203125,3.160346269607544,1.1468225717544556,5.91397762298584
1696083018489134000,0.571134033203125,2.0231003761291504,0.730231523513794,4.973056316375732
1696083018499134000,0.581134033203125,0.6105214357376099,-0.5961562395095825,4.323928356170654
1696083018509134000,0.591134033203125,-0.768538773059845,-2.693476915359497,4.8267107009887695
1696083018519134000,0.601134033203125,-1.6400281190872192,-3.907337188720703,4.707000732421875
1696083018529134000,0.611134033203125,-1.6735470294952393,-4.146757125854492,3.993528366088867
1696083018539134000,0.621134033203125,-0.6272808313369751,-4.041412353515625,3.1100680828094482
1696083018549134000,0.631134033203125,1.3287819623947144,-4.1395745277404785,2.5498247146606445
1696083018559134000,0.641134033203125,3.205836057662964,-4.467580318450928,2.3726539611816406
1696083018569134000,0.651134033203125,4.98742151260376,-4.711789131164551,2.580949544906616
1696083018579133700,0.6611337890625,6.136638164520264,-4.704606533050537,3.021482467651367
1696083018589133600,0.671133544921875,6.615478515625,-5.703287601470947,2.9328970909118652
1696083018599133700,0.6811337890625,7.0248870849609375,-6.040870189666748,3.670311212539673
1696083018609133300,0.69113330078125,6.541258335113525,-5.772719383239746,6.016928195953369
1696083018619133400,0.701133544921875,5.91397762298584,-5.6554036140441895,8.818143844604492
1696083018629133300,0.71113330078125,4.985027313232422,-5.3226094245910645,11.1381254196167
1696083018639133400,0.721133544921875,3.758896589279175,-5.727229595184326,12.881104469299316
1696083018649133600,0.731133544921875,2.3774423599243164,-6.088754177093506,15.507843017578125
1696083018659133400,0.741133544921875,1.2425906658172607,-6.100725173950195,18.87887954711914
1696083018669133600,0.751133544921875,0.5482721924781799,-6.172551155090332,22.319347381591797
1696083018679133000,0.7611328125,0.4668693244457245,-6.763918876647949,25.415348052978516
1696083018689133000,0.771133056640625,1.5083470344543457,-6.634632110595703,28.40091896057129
1696083018699133000,0.7811328125,2.9903578758239746,-5.930737018585205,31.099184036254883
1696083018709133000,0.791133056640625,4.247313976287842,-5.743988990783691,32.5692253112793
1696083018719133200,0.80113330078125,4.759673118591309,-5.581183433532715,32.67935562133789
1696083018729132800,0.8111328125,4.486733913421631,-4.6040496826171875,32.4830322265625
1696083018739132700,0.821132568359375,4.175487995147705,-3.8594532012939453,30.311491012573242
1696083018749132800,0.8311328125,3.5242648124694824,-3.4117374420166016,26.909330368041992
1696083018759132700,0.841132568359375,3.7469255924224854,-3.428496837615967,23.528419494628906
1696083018769132800,0.8511328125,3.136404275894165,-3.0166940689086914,20.63382911682129
1696083018779134000,0.861134033203125,1.359906554222107,-1.742978811264038,20.803817749023438
1696083018789134000,0.871134033203125,-1.2521674633026123,-2.1308395862579346,19.31222915649414
1696083018799134000,0.881134033203125,-1.8938134908676147,-1.4173674583435059,18.63467025756836
1696083018809134000,0.891134033203125,-2.166752576828003,-1.414973258972168,17.528549194335938
1696083018819134000,0.901134033203125,-1.8842366933822632,-1.5083470344543457,14.820707321166992
1696083018829134000,0.911134033203125,-1.6879122257232666,-1.6424223184585571,11.286565780639648
1696083018839134000,0.921134033203125,-1.1516109704971313,-1.436521053314209,7.118260860443115
1696083018849133800,0.9311337890625,-0.6033388376235962,-0.4572925269603729,3.445256233215332
1696083018859134000,0.941134033203125,0.038307227194309235,1.0438719987869263,0.5793967843055725
1696083018869133800,0.9511337890625,0.4357447028160095,1.86508309841156,-1.7118542194366455
1696083018879134500,0.961134521484375,0.7781155705451965,2.3918075561523438,-3.2992098331451416
1696083018889134300,0.97113427734375,1.2425906658172607,2.741360902786255,-4.398148536682129
1696083018899134500,0.981134521484375,1.7142484188079834,3.064578056335449,-5.207687854766846
1696083018909134600,0.991134521484375,1.9512743949890137,3.134010076522827,-5.4566850662231445
1696083018919134500,1.001134521484375,2.030282974243164,2.717418909072876,-5.394435882568359
1696083018929134600,1.011134521484375,1.8962076902389526,2.1284453868865967,-5.140650272369385
1696083018939134700,1.021134765625,1.8076223134994507,1.5897499322891235,-4.707000732421875
1696083018949134600,1.031134521484375,1.0773907899856567,0.028730420395731926,-5.384859085083008
1696083018959134700,1.041134765625,0.7086837291717529,-0.043095629662275314,-3.794809579849243
1696083018969134600,1.051134521484375,0.5482721924781799,0.811634361743927,-1.137245774269104
1696083018979135000,1.061135009765625,-0.028730420395731926,0.42856210470199585,1.3287819623947144
1696083018989135400,1.07113525390625,-1.137245774269104,-0.6536170840263367,3.2824504375457764
1696083018999135200,1.08113525390625,-2.7006595134735107,-1.5514427423477173,4.908412933349609
1696083019009135400,1.09113525390625,-4.46518611907959,-1.6184803247451782,6.687304496765137
1696083019019135200,1.10113525390625,-6.467038154602051,-1.2330138683319092,9.773430824279785
1696083019029135600,1.111135498046875,-7.166144847869873,-1.403002142906189,12.249034881591797
1696083019039137300,1.12113720703125,-6.972214698791504,-1.941697597503662,14.772823333740234
1696083019049137200,1.13113720703125,-6.680121898651123,-2.1499931812286377,16.659454345703125
1696083019059137300,1.14113720703125,-6.795043468475342,-2.9712042808532715,17.696144104003906
1696083019069137200,1.15113720703125,-7.81257963180542,-3.670311212539673,18.045696258544922
1696083019079136000,1.161135986328125,-6.711246490478516,-4.055777549743652,19.834165573120117
1696083019089135600,1.171135498046875,-1.9512743949890137,-4.2975921630859375,23.406314849853516
1696083019099135700,1.1811357421875,-0.19153612852096558,-3.0166940689086914,26.147974014282227
1696083019109135600,1.191135498046875,0.12210428714752197,-1.3239935636520386,19.11590576171875
1696083019119135700,1.2011357421875,-6.883629322052002,1.3910311460494995,11.74864673614502
1696083019129135600,1.211135498046875,-5.107131481170654,-3.268085241317749,12.857162475585938
1696083019139135700,1.2211357421875,0.768538773059845,-5.430348873138428,15.17265510559082
1696083019149135600,1.231135498046875,0.5650315880775452,-4.953902721405029,14.501978874206543
1696083019159135700,1.2411357421875,-0.8020575642585754,-3.8977603912353516,12.165238380432129
1696083019169135600,1.251135498046875,-1.139639973640442,-2.6647465229034424,9.574711799621582
1696083019179135700,1.2611357421875,0.7015010714530945,-1.3862427473068237,7.407959461212158
1696083019189135600,1.271135498046875,-1.7334020137786865,0.7158663272857666,6.488585948944092
1696083019199135700,1.2811357421875,0.05506663769483566,-1.9033904075622559,4.261679172515869
1696083019209135600,1.291135498046875,-0.31842881441116333,-1.37906014919281,5.229235649108887
1696083019219135700,1.3011357421875,-2.1523873805999756,-2.0638017654418945,6.75194787979126
1696083019229135600,1.311135498046875,-2.4875755310058594,-1.5873557329177856,6.572382926940918
1696083019239135500,1.321135498046875,-2.0015525817871094,-1.3263877630233765,5.576395034790039
1696083019249135600,1.331135498046875,-2.4420857429504395,-0.7015010714530945,5.463867664337158
1696083019259135500,1.341135498046875,-2.3487119674682617,-0.8068459630012512,5.341763496398926
1696083019269135600,1.351135498046875,-2.8443117141723633,-1.479616641998291,5.164592266082764
1696083019279135500,1.361135498046875,-1.6208745241165161,-0.912190854549408,3.332728862762451
1696083019289135400,1.37113525390625,-2.6001031398773193,-2.078166961669922,2.964021682739258
1696083019299135500,1.381135498046875,-2.583343744277954,-5.820603370666504,3.670311212539673
1696083019309135400,1.39113525390625,-2.0805611610412598,-6.024110794067383,2.557007312774658
1696083019319135200,1.40113525390625,-2.2649147510528564,-4.616020679473877,0.2537853717803955
1696083019329135400,1.41113525390625,0.1388636976480484,-5.1454386711120605,-0.8643068075180054
1696083019342637800,1.424637939453125,2.5282769203186035,-4.558559894561768,-4.163516521453857
1696083019352638000,1.434637939453125,-0.45010992884635925,-5.083189487457275,-4.4077253341674805
1696083019362637800,1.444637939453125,-1.0989385843276978,-9.019257545471191,-1.3072341680526733
1696083019372638000,1.454637939453125,0.667982280254364,-13.089400291442871,0.9624691009521484
1696083019382637800,1.464637939453125,0.8882488012313843,-12.81167221069336,0.5003881454467773
1696083019392638200,1.47463818359375,-0.6129156351089478,-13.683161735534668,2.2385785579681396
1696083019402638300,1.484638427734375,-1.3120225667953491,-15.797541618347168,4.627991676330566
1696083019412638200,1.49463818359375,-3.6727054119110107,-24.77609634399414,14.715362548828125
1696083019422638300,1.504638427734375,3.9480385780334473,-21.13421630859375,10.29057788848877
1696083019432638200,1.51463818359375,6.622661113739014,-17.2556095123291,7.041646480560303
1696083019442638300,1.524638427734375,8.25550651550293,-14.284106254577637,6.275501728057861
1696083019452638200,1.53463818359375,7.123049259185791,-12.589012145996094,6.8932061195373535
1696083019462638300,1.544638427734375,4.812345504760742,-10.206781387329102,6.943484306335449
1696083019472638200,1.55463818359375,4.98742151260376,-8.176498413085938,5.32739782333374
1696083019482638300,1.564638427734375,6.608295917510986,-7.999327182769775,3.708618402481079
1696083019492638200,1.57463818359375,4.898836135864258,-7.989750385284424,3.4141316413879395
1696083019502638300,1.584638427734375,0.993593692779541,-7.738358974456787,1.922544002532959
1696083019512638200,1.59463818359375,-0.6272808313369751,-7.190086841583252,1.4963760375976562
1696083019522638300,1.604638427734375,-2.212242364883423,-6.6274495124816895,2.1978771686553955
1696083019532638200,1.61463818359375,-3.3231520652770996,-5.717652797698975,2.9496564865112305
1696083019542638300,1.624638427734375,-3.155557870864868,-5.351340293884277,4.019864559173584
1696083019552638200,1.63463818359375,-1.5179238319396973,-5.748777389526367,4.082113742828369
1696083019562638300,1.644638427734375,-0.524330198764801,-6.584353923797607,4.132391929626465
1696083019572638200,1.65463818359375,0.6607996821403503,-9.761459350585938,4.268861770629883
1696083019582638300,1.664638427734375,2.492363929748535,-12.526762962341309,6.617872714996338
1696083019592638200,1.67463818359375,3.308786630630493,-15.340249061584473,7.877223014831543
1696083019602638300,1.684638427734375,4.20421838760376,-19.767127990722656,4.951508522033691
1696083019612638200,1.69463818359375,-0.5961562395095825,-23.44940948486328,2.276885747909546
1696083019622638300,1.704638427734375,-3.7205893993377686,-25.0657958984375,0.2968810200691223
1696083019632638200,1.71463818359375,-6.218040943145752,-25.111286163330078,-0.4572925269603729
1696083019642638300,1.724638427734375,-8.851662635803223,-21.43349266052246,-3.2848446369171143
1696083019652638500,1.734638427734375,-7.297826290130615,-16.659454345703125,-4.6255974769592285
1696083019662638300,1.744638427734375,-4.845864295959473,-12.797307014465332,-4.331110954284668
1696083019672638200,1.75463818359375,-2.8131868839263916,-10.137349128723145,-3.507505416870117
1696083019682638300,1.764638427734375,0.9145850539207458,-8.552388191223145,-3.4117374420166016
1696083019692638200,1.77463818359375,5.087977886199951,-7.841310024261475,-4.1156325340271
1696083019702638300,1.784638427734375,7.656956195831299,-7.427113056182861,-5.693710803985596
1696083019712638200,1.79463818359375,7.5540056228637695,-7.28346061706543,-6.457461357116699
1696083019722638300,1.804638427734375,5.442319869995117,-7.5324578285217285,-6.31141471862793
1696083019732638200,1.81463818359375,2.248155355453491,-8.13100814819336,-4.786009311676025
1696083019742638300,1.824638427734375,-0.7565677165985107,-8.779836654663086,-3.2537200450897217
1696083019752638200,1.83463818359375,-2.7246015071868896,-9.428665161132812,-2.049436569213867
1696083019762638300,1.844638427734375,-4.019864559173584,-9.850045204162598,-1.3072341680526733
1696083019772638200,1.85463818359375,-4.891354084014893,-9.991303443908691,-0.6943184733390808
1696083019782638300,1.864638427734375,-4.94193172454834,-9.931447982788086,0.033518824726343155
1696083019792638200,1.87463818359375,-3.8738183975219727,-9.854833602905273,0.5626373887062073
1696083019802638300,1.884638427734375,-2.808398485183716,-9.749488830566406,0.828393816947937
1696083019812638500,1.894638427734375,-2.209848165512085,-9.6896333694458,1.0223240852355957
1696083019822638300,1.904638427734375,-1.9345149993896484,-9.684844970703125,1.256955862045288
1696083019832638500,1.914638427734375,-1.7693150043487549,-9.646537780761719,1.5921441316604614
1696083019842638300,1.924638427734375,-1.5873557329177856,-9.629778861999512,1.9105730056762695
1696083019852638200,1.93463818359375,-1.280897855758667,-9.617807388305664,2.099714994430542
1696083019862638300,1.944638427734375,-0.9289502501487732,-9.670479774475098,2.207453966140747
1696083019872638200,1.95463818359375,-0.6129156351089478,-9.71357536315918,2.1811177730560303
1696083019882638300,1.964638427734375,-0.33279404044151306,-9.711181640625,2.051830768585205
1696083019892638200,1.97463818359375,-0.09576806426048279,-9.761459350585938,1.7812861204147339
1696083019902638300,1.984638427734375,-0.05506663769483566,-9.773430824279785,1.4748282432556152
1696083019912638200,1.99463818359375,-0.15083470940589905,-9.787796020507812,1.1109095811843872
1696083019922638300,2.004638427734375,-0.3998316824436188,-9.816526412963867,0.7565677165985107
1696083019932638200,2.01463818359375,-0.689530074596405,-9.792584419250488,0.4189853072166443
1696083019942638300,2.024638427734375,-1.0630255937576294,-9.761459350585938,0.10295066982507706
1696083019952638200,2.03463818359375,-1.3072341680526733,-9.723152160644531,-0.10055647045373917
1696083019962638300,2.044638427734375,-1.3455413579940796,-9.670479774475098,-0.27054479718208313
1696083019972638200,2.05463818359375,-1.2952631711959839,-9.830891609191895,-0.30885201692581177
1696083019982638300,2.064638427734375,-1.2234370708465576,-9.775824546813965,-0.40462008118629456
1696083019992638200,2.07463818359375,-1.216254472732544,-9.615413665771484,-0.42377370595932007
1696083020002638300,2.084638427734375,-1.2521674633026123,-9.471760749816895,-0.5315127968788147
1696083020012638200,2.09463818359375,-1.1683704853057861,-9.464578628540039,-0.4596867263317108
1696083020022638300,2.104638427734375,-1.216254472732544,-9.634567260742188,-0.3208230137825012
1696083020032638200,2.11463818359375,-1.3646949529647827,-9.814131736755371,-0.24899697303771973
1696083020042638300,2.124638427734375,-1.5753847360610962,-9.941024780273438,-0.2753331959247589
1696083020052638500,2.134638427734375,-1.7741034030914307,-9.890746116638184,-0.35673606395721436
1696083020062638300,2.144638427734375,-1.9297266006469727,-9.675268173217773,-0.4141969084739685
1696083020072638500,2.154638427734375,-2.0422539710998535,-9.47654914855957,-0.45010992884635925
1696083020082638300,2.164638427734375,-2.1332337856292725,-9.426271438598633,-0.37828385829925537
1696083020092638500,2.174638427734375,-2.166752576828003,-9.502885818481445,-0.2777273952960968
1696083020102638300,2.184638427734375,-2.169146776199341,-9.668086051940918,-0.1173158809542656
1696083020112638200,2.19463818359375,-2.205059766769409,-9.8691987991333,-0.09576806426048279
1696083020122638300,2.204638427734375,-2.255337953567505,-9.96257209777832,-0.16998831927776337
1696083020132638200,2.21463818359375,-2.0877439975738525,-9.96017837524414,-0.1149216815829277
1696083020142638300,2.224638427734375,-1.9560627937316895,-9.89314079284668,-0.1412578970193863
1696083020152638200,2.23463818359375,-1.7286136150360107,-9.83568000793457,0.023942016065120697
1696083020162638300,2.244638427734375,-1.5083470344543457,-9.907505989074707,0.14604631066322327
1696083020172638500,2.254638427734375,-1.3646949529647827,-10.099041938781738,0.2585737705230713
1696083020182638300,2.264638427734375,-1.292868971824646,-10.151714324951172,0.2561795711517334
1696083020192638500,2.274638427734375,-1.237802267074585,-10.099041938781738,0.2059013396501541
1696083020202638300,2.284638427734375,-1.170764684677124,-9.950601577758789,0.1364694982767105
1696083020212638500,2.294638427734375,-1.113303780555725,-9.797372817993164,0.0694318488240242
1696083020222638300,2.304638427734375,-1.0630255937576294,-9.68005657196045,0.016759412363171577
1696083020232638500,2.314638427734375,-1.0031704902648926,-9.601048469543457,-0.05027823522686958
1696083020242638300,2.324638427734375,-0.933738648891449,-9.596260070800781,-0.15562310814857483
1696083020252638500,2.334638427734375,-0.8259995579719543,-9.579500198364258,-0.3495534360408783
1696083020262638300,2.344638427734375,-0.7374141216278076,-9.512462615966797,-0.5506663918495178
1696083020272638200,2.35463818359375,-0.6871358752250671,-9.399934768676758,-0.667982280254364
1696083020282638300,2.364638427734375,-0.7158663272857666,-9.35205078125,-0.6440402865409851
1696083020292638500,2.374638427734375,-0.811634361743927,-9.34965705871582,-0.6224924325942993
1696083020302638300,2.384638427734375,-0.8738836050033569,-9.335291862487793,-0.6631938815116882
1696083020312638200,2.39463818359375,-0.8954314589500427,-9.364022254943848,-0.6991068720817566
1696083020322638300,2.404638427734375,-0.8092401623725891,-9.44063663482666,-0.811634361743927
1696083020332638200,2.41463818359375,-0.6105214357376099,-9.598653793334961,-0.8834604024887085
1696083020342638300,2.424638427734375,-0.28730419278144836,-9.85962200164795,-0.8978256583213806
1696083020352638200,2.43463818359375,0.2825157940387726,-10.25466537475586,-0.7805097699165344
1696083020362638300,2.444638427734375,1.0773907899856567,-10.704774856567383,-0.5722141861915588
1696083020372638200,2.45463818359375,1.9632453918457031,-11.068694114685059,-0.2753331959247589
1696083020382638300,2.464638427734375,2.782062292098999,-11.13573169708252,0.11252748221158981
1696083020392638200,2.47463818359375,3.155557870864868,-10.937012672424316,0.5626373887062073
1696083020402638300,2.484638427734375,2.8562827110290527,-10.688015937805176,1.094150185585022
1696083020412638200,2.49463818359375,2.030282974243164,-10.623372077941895,1.7166426181793213
1696083020422638300,2.504638427734375,1.0247182846069336,-10.735899925231934,2.274491548538208
1696083020432638200,2.51463818359375,0.2059013396501541,-10.920252799987793,2.612074136734009
1696083020442638300,2.524638427734375,-0.07182604819536209,-11.197980880737305,2.5306711196899414
1696083020452638200,2.53463818359375,0.5291185975074768,-11.731887817382812,2.161964178085327
1696083020462638300,2.544638427734375,1.6352397203445435,-12.687173843383789,2.0398597717285156
1696083020472638000,2.554637939453125,2.535459518432617,-13.644854545593262,2.363077163696289
1696083020482637800,2.564637939453125,2.7317841053009033,-14.013562202453613,2.8586769104003906
1696083020492638000,2.574637939453125,2.387019157409668,-13.735834121704102,3.3710360527038574
1696083020502637800,2.584637939453125,1.8818424940109253,-13.05588150024414,3.756502389907837
1696083020512638000,2.594637939453125,1.460463047027588,-12.181997299194336,4.041412353515625
1696083020522637800,2.604637939453125,1.113303780555725,-11.324872970581055,4.168305397033691
1696083020532638000,2.614637939453125,0.8667010068893433,-10.759841918945312,3.584120035171509
1696083020542637800,2.624637939453125,0.5626373887062073,-10.872368812561035,2.4157495498657227
1696083020552638000,2.634637939453125,-0.7589619159698486,-11.81568431854248,0.7230489253997803
1696083020562637800,2.644637939453125,-1.5658079385757446,-12.936171531677246,-1.2425906658172607
1696083020572638000,2.654637939453125,-1.9488801956176758,-13.913004875183105,-2.7916390895843506
1696083020582637800,2.664637939453125,-2.1475989818573,-14.5498628616333,-3.971980571746826
1696083020592638000,2.674637939453125,-2.655169725418091,-14.379874229431152,-4.501099109649658
1696083020602637800,2.684637939453125,-3.1914708614349365,-13.426982879638672,-4.522646903991699
1696083020612637400,2.694637451171875,-3.0119056701660156,-12.328043937683105,-4.326322555541992
1696083020622637300,2.70463720703125,-2.7700912952423096,-11.334449768066406,-3.8738183975219727
1696083020632637400,2.714637451171875,-2.319981336593628,-10.77420711517334,-3.2992098331451416
1696083020642637300,2.72463720703125,-1.7405846118927002,-10.41268253326416,-2.7724854946136475
1696083020652637400,2.734637451171875,-0.993593692779541,-10.065523147583008,-2.161964178085327
1696083020662637600,2.744637451171875,-1.3838485479354858,-9.878775596618652,-0.9959878921508789
1696083020672637400,2.754637451171875,-2.341529369354248,-9.89553451538086,0.2059013396501541
1696083020682637300,2.76463720703125,-1.4221558570861816,-9.613018989562988,0.9792284965515137
1696083020692637400,2.774637451171875,-0.10295066982507706,-9.289801597595215,1.094150185585022
1696083020702637300,2.78463720703125,0.7158663272857666,-9.01207447052002,1.0223240852355957
1696083020712637400,2.794637451171875,0.7805097699165344,-8.928277015686035,1.0319008827209473
1696083020722637300,2.80463720703125,0.24660277366638184,-9.004891395568848,0.8403648138046265
1696083020732637400,2.814637451171875,-0.5267243981361389,-9.059958457946777,0.42856210470199585
1696083020742637300,2.82463720703125,-1.0965443849563599,-9.105448722839355,-0.035913024097681046
1696083020752637400,2.834637451171875,-1.656787633895874,-9.289801597595215,-0.2106897532939911
1696083020762637300,2.84463720703125,-1.6903064250946045,-9.411906242370605,-0.5195417404174805
1696083020772637700,2.8546376953125,-1.2186486721038818,-9.421483039855957,-1.0127472877502441
1696083020782637800,2.864637939453125,-0.7829039692878723,-9.335291862487793,-1.4269442558288574
1696083020792638000,2.874637939453125,-0.5817909836769104,-9.083900451660156,-1.680729627609253
1696083020802637800,2.884637939453125,-0.5506663918495178,-8.77504825592041,-1.8339585065841675
1696083020812638000,2.894637939453125,-0.7398083209991455,-8.3800048828125,-1.8914192914962769
1696083020822637800,2.904637939453125,-0.9792284965515137,-7.920318603515625,-1.9776105880737305
1696083020832638000,2.914637939453125,-1.0606313943862915,-7.525275230407715,-1.987187385559082
1696083020842637800,2.924637939453125,-1.1061211824417114,-7.127837657928467,-2.0661959648132324
1696083020852638000,2.934637939453125,-1.137245774269104,-6.790255069732666,-2.097320795059204
1696083020862637800,2.944637939453125,-1.0773907899856567,-6.431125164031982,-2.097320795059204
1696083020872638000,2.954637939453125,-0.9361328482627869,-5.957073211669922,-2.1284453868865967
1696083020882637800,2.964637939453125,-0.8259995579719543,-5.55245304107666,-2.2577321529388428
1696083020892638000,2.974637939453125,-0.6488286852836609,-5.152621269226074,-2.4396915435791016
1696083020902637800,2.984637939453125,-0.4357447028160095,-4.752490520477295,-2.540247917175293
1696083020912638200,2.99463818359375,-0.14365209639072418,-4.400542736053467,-2.5019407272338867
1696083020922638300,3.004638427734375,0.23702596127986908,-4.134786128997803,-2.3582887649536133
1696083020932638200,3.01463818359375,0.6177040338516235,-4.027047157287598,-2.0398597717285156
1696083020942638300,3.024638427734375,1.0271124839782715,-4.137180328369141,-1.50355863571167
1696083020952638200,3.03463818359375,1.5969325304031372,-4.505887508392334,-0.5578489899635315
1696083020962638300,3.044638427734375,2.5115175247192383,-5.155015468597412,0.646434485912323
1696083020972638200,3.05463818359375,3.773261785507202,-6.122272968292236,1.6543933153152466
1696083020982638300,3.064638427734375,5.200505256652832,-7.3145856857299805,2.7988216876983643
1696083020992638200,3.07463818359375,6.663362503051758,-8.760683059692383,4.230554580688477
1696083021002638300,3.084638427734375,7.185298442840576,-10.47014331817627,6.040870189666748
1696083021012638200,3.09463818359375,7.367258071899414,-12.543521881103516,7.893982410430908
1696083021022638300,3.104638427734375,8.528446197509766,-14.856619834899902,9.428665161132812
1696083021032638200,3.11463818359375,9.435848236083984,-16.82465362548828,10.122983932495117
1696083021042638300,3.124638427734375,9.306561470031738,-17.78712272644043,10.067917823791504
1696083021052638500,3.134638427734375,8.267477989196777,-16.76958656311035,9.088688850402832
1696083021062638300,3.144638427734375,6.297049522399902,-14.42536449432373,6.804620742797852
1696083021072638500,3.154638427734375,4.290409564971924,-11.20516300201416,4.606443881988525
1696083021082638300,3.164638427734375,2.647987127304077,-8.370428085327148,2.8371291160583496
1696083021092638200,3.17463818359375,1.6974890232086182,-7.6856865882873535,1.2521674633026123
1696083021102638300,3.184638427734375,1.8579005002975464,-8.552388191223145,0.2513911724090576
1696083021112638200,3.19463818359375,1.6089035272598267,-10.134955406188965,-0.8379706144332886
1696083021122638300,3.204638427734375,0.033518824726343155,-12.701539039611816,-2.3247697353363037
1696083021132638200,3.21463818359375,-2.0805611610412598,-15.198990821838379,-3.2393548488616943
1696083021142638300,3.224638427734375,-3.5458126068115234,-16.683395385742188,-3.6942532062530518
1696083021152638200,3.23463818359375,-3.0526070594787598,-17.444751739501953,-4.170699596405029
1696083021162638300,3.244638427734375,-1.8579005002975464,-16.218921661376953,-4.110844135284424
1696083021172638200,3.25463818359375,-2.403778553009033,-13.077428817749023,-3.8546648025512695
1696083021182638300,3.264638427734375,-2.6216509342193604,-10.185233116149902,-3.3710360527038574
1696083021192638200,3.27463818359375,-3.071760892868042,-8.006509780883789,-3.6320040225982666
1696083021202638300,3.284638427734375,-3.5697548389434814,-5.916371822357178,-4.065354347229004
1696083021212638200,3.29463818359375,-3.627215623855591,-3.9863457679748535,-4.288015365600586
1696083021222638300,3.304638427734375,-4.098873138427734,-2.7126305103302,-4.479551315307617
1696083021232638200,3.31463818359375,-3.4548330307006836,-2.9089550971984863,-4.54419469833374
1696083021242638300,3.324638427734375,-2.300827741622925,-4.41969633102417,-4.41969633102417
1696083021252638200,3.33463818359375,-2.0614075660705566,-6.328174591064453,-4.592078685760498
1696083021262638300,3.344638427734375,-1.7190368175506592,-8.243535995483398,-4.24970817565918
1696083021272638200,3.35463818359375,-1.2258312702178955,-9.917082786560059,-3.1052796840667725
1696083021282638300,3.364638427734375,-1.0630255937576294,-11.051934242248535,-1.8555063009262085
1696083021292638200,3.37463818359375,-1.0893617868423462,-11.9306058883667,-0.8020575642585754
1696083021302638300,3.384638427734375,-0.6536170840263367,-12.337620735168457,0.3734954595565796
1696083021312638200,3.39463818359375,0.8690952062606812,-12.275371551513672,1.7310078144073486
1696083021322638300,3.404638427734375,3.0550012588500977,-11.980884552001953,3.0190882682800293
1696083021332638200,3.41463818359375,4.702212333679199,-11.29374885559082,3.758896589279175
1696083021342638300,3.424638427734375,4.618414878845215,-10.158897399902344,3.646369218826294
1696083021352638200,3.43463818359375,2.9712042808532715,-9.117419242858887,3.069366693496704
1696083021362638300,3.444638427734375,1.0462661981582642,-8.442254066467285,2.5043349266052246
1696083021372638200,3.45463818359375,-0.4644751250743866,-8.312967300415039,2.1954829692840576
1696083021382638300,3.464638427734375,-1.4053963422775269,-8.640973091125488,2.097320795059204
1696083021392638200,3.47463818359375,-2.0254945755004883,-8.849268913269043,2.0231003761291504
1696083021402638300,3.484638427734375,-2.585737943649292,-8.88757610321045,1.9776105880737305
1696083021412638200,3.49463818359375,-2.980781078338623,-8.976161003112793,1.6711528301239014
1696083021422638300,3.504638427734375,-3.00711727142334,-9.172486305236816,1.2952631711959839
1696083021432638200,3.51463818359375,-2.7892448902130127,-9.165303230285645,0.9600749015808105
1696083021442638300,3.524638427734375,-2.434903144836426,-9.016862869262695,0.5267243981361389
1696083021452638200,3.53463818359375,-1.968033790588379,-8.904335021972656,-0.021547814831137657
1696083021462638000,3.54463818359375,-1.2473790645599365,-8.846874237060547,-0.5386953949928284
1696083021472638200,3.55463818359375,-0.3471592366695404,-8.894758224487305,-0.8355764150619507
1696083021482638000,3.56463818359375,0.47165772318840027,-8.913911819458008,-1.072602391242981
1696083021492638200,3.57463818359375,1.0582371950149536,-8.976161003112793,-1.2952631711959839
1696083021502638000,3.58463818359375,1.048660397529602,-8.92348861694336,-1.6424223184585571
1696083021512638200,3.59463818359375,0.7493851184844971,-8.930671691894531,-1.8531121015548706
1696083021522638000,3.60463818359375,0.33997663855552673,-8.976161003112793,-1.8387469053268433
1696083021532638200,3.61463818359375,-0.040701430290937424,-9.07911205291748,-1.7860745191574097
1696083021542638000,3.62463818359375,-0.1364694982767105,-9.390357971191406,-1.8411411046981812
1696083021552638200,3.63463818359375,0.15322890877723694,-9.857227325439453,-1.7836803197860718
1696083021562638000,3.64463818359375,0.6655880808830261,-10.38155746459961,-1.6184803247451782
1696083021572638200,3.65463818359375,1.3551181554794312,-10.984896659851074,-1.2713210582733154
1696083021582638000,3.66463818359375,1.9943699836730957,-11.219528198242188,-0.7876923680305481
1696083021592638200,3.67463818359375,2.118868589401245,-11.0208101272583,-0.07900865375995636
1696083021602638000,3.68463818359375,1.625662922859192,-10.903493881225586,0.8595184087753296
1696083021612638200,3.69463818359375,0.7876923680305481,-11.073482513427734,1.843535304069519
1696083021622638000,3.70463818359375,-0.2082955539226532,-11.53316879272461,2.738966703414917
1696083021632638200,3.71463818359375,-1.1420341730117798,-12.181997299194336,3.6391866207122803
1696083021642638000,3.72463818359375,-1.7501614093780518,-12.744634628295898,4.4939165115356445
1696083021652638200,3.73463818359375,-1.766920804977417,-12.952930450439453,5.389647483825684
1696083021662638000,3.74463818359375,-0.9672574996948242,-12.636896133422852,6.026504993438721
1696083021672638200,3.75463818359375,0.3423708379268646,-12.193968772888184,5.971438407897949
1696083021682638000,3.76463818359375,1.482010841369629,-12.371139526367188,5.6314616203308105
1696083021692638200,3.77463818359375,2.363077163696289,-12.938565254211426,4.944325923919678
1696083021702638000,3.78463818359375,3.0095114707946777,-13.575423240661621,3.9695863723754883
1696083021712638200,3.79463818359375,3.3518824577331543,-14.157214164733887,3.141192674636841
1696083021722638000,3.80463818359375,3.512293815612793,-14.432547569274902,2.456450939178467
1696083021732638200,3.81463818359375,3.77565598487854,-14.255375862121582,1.9584569931030273
1696083021742638000,3.82463818359375,4.220977783203125,-13.412616729736328,1.1803414821624756
1696083021752638200,3.83463818359375,5.289090633392334,-12.471695899963379,-0.07422025501728058
1696083021762638300,3.844638427734375,4.850652694702148,-12.122142791748047,-0.8834604024887085
1696083021772638200,3.85463818359375,2.6408045291900635,-12.17720890045166,-1.4077905416488647
1696083021782638300,3.864638427734375,0.646434485912323,-12.50521469116211,-2.31758713722229
1696083021792638200,3.87463818359375,-0.9600749015808105,-13.046304702758789,-2.9472622871398926
1696083021802638300,3.884638427734375,-1.2497732639312744,-13.891457557678223,-3.732560396194458
1696083021812638200,3.89463818359375,-2.1571757793426514,-15.048155784606934,-4.72376012802124
1696083021822638300,3.904638427734375,-3.9025487899780273,-15.433622360229492,-5.571606636047363
1696083021832638200,3.91463818359375,-4.92996072769165,-15.167866706848145,-5.739200592041016
1696083021842638300,3.924638427734375,-4.97545051574707,-14.324808120727539,-5.538087844848633
1696083021852638200,3.93463818359375,-4.1395745277404785,-13.245022773742676,-4.704606533050537
1696083021862638300,3.944638427734375,-3.0813376903533936,-12.368744850158691,-3.1531636714935303
1696083021872638200,3.95463818359375,-0.7781155705451965,-11.669638633728027,-1.6424223184585571
1696083021882638300,3.964638427734375,1.0869675874710083,-11.22671127319336,-0.20111294090747833
1696083021892638200,3.97463818359375,1.5682021379470825,-10.80772590637207,0.7876923680305481
1696083021902638300,3.984638427734375,1.0055646896362305,-10.331279754638672,1.2473790645599365
1696083021912638200,3.99463818359375,-0.22744916379451752,-9.687239646911621,1.2018892765045166
1696083021922638300,4.004638427734375,-1.113303780555725,-9.064746856689453,0.8882488012313843
1696083021932638200,4.01463818359375,-1.6400281190872192,-8.585906982421875,0.6392518281936646
1696083021942638300,4.024638427734375,-1.625662922859192,-8.116642951965332,0.023942016065120697
1696083021952638200,4.03463818359375,-1.900996208190918,-7.5875244140625,-0.507570743560791
1696083021962638300,4.044638427734375,-2.0422539710998535,-7.154173851013184,-1.0055646896362305
1696083021972638200,4.05463818359375,-1.6879122257232666,-6.620266914367676,-1.577778935432434
1696083021982638300,4.064638427734375,-1.3503297567367554,-6.258742332458496,-1.9560627937316895
1696083021992638200,4.07463818359375,-1.01753568649292,-6.0504469871521,-2.1499931812286377
1696083022002638300,4.084638427734375,-0.751779317855835,-5.911583423614502,-2.293645143508911
1696083022012638200,4.09463818359375,-0.730231523513794,-5.775113582611084,-2.279279947280884
1696083022022638300,4.104638427734375,-0.7948749661445618,-5.667374610900879,-2.1763293743133545
1696083022032638200,4.11463818359375,-0.8858546018600464,-5.59794282913208,-2.013523578643799
1696083022042638300,4.124638427734375,-1.05105459690094,-5.559635639190674,-1.7860745191574097
1696083022052638500,4.134638427734375,-1.3239935636520386,-5.511751651763916,-1.4700398445129395
1696083022062638300,4.144638427734375,-1.577778935432434,-5.351340293884277,-1.3646949529647827
1696083022072638500,4.154638427734375,-1.824381709098816,-5.133467674255371,-1.5107412338256836
1696083022082638300,4.164638427734375,-2.0853497982025146,-4.821922302246094,-1.944091796875
1696083022092638200,4.17463818359375,-2.2170307636260986,-4.436455726623535,-2.5115175247192383
1696083022102638300,4.184638427734375,-2.0614075660705566,-4.036623954772949,-3.112462282180786
1696083022112638200,4.19463818359375,-1.7405846118927002,-3.6798880100250244,-3.598485231399536
1696083022122638300,4.204638427734375,-1.2090718746185303,-3.4189200401306152,-3.936067581176758
1696083022132638200,4.21463818359375,-0.5554547905921936,-3.5266590118408203,-3.9408559799194336
1696083022142638300,4.224638427734375,0.06464344263076782,-4.247313976287842,-3.021482467651367
1696083022152638200,4.23463818359375,0.9241618514060974,-5.401618480682373,-1.2473790645599365
1696083022162638300,4.244638427734375,2.7964274883270264,-6.996156692504883,1.1037269830703735
1696083022172638200,4.25463818359375,6.230011940002441,-9.299378395080566,3.3734302520751953
1696083022182638300,4.264638427734375,9.074323654174805,-12.007221221923828,5.590760231018066
1696083022192638200,4.27463818359375,9.009679794311523,-14.693514823913574,7.324162483215332
1696083022202638300,4.284638427734375,8.339303970336914,-16.87014389038086,8.571541786193848
1696083022212638200,4.29463818359375,9.486125946044922,-18.141464233398438,10.127772331237793
1696083022222638300,4.304638427734375,11.018415451049805,-17.91162109375,11.312902450561523
1696083022232638200,4.31463818359375,9.617807388305664,-16.62114715576172,11.363180160522461
1696083022242638300,4.324638427734375,6.996156692504883,-14.739304542541504,8.540416717529297
1696083022252638200,4.33463818359375,5.0161519050598145,-12.859556198120117,5.095160484313965
1696083022262638300,4.344638427734375,3.794809579849243,-10.802937507629395,2.9496564865112305
1696083022272638200,4.35463818359375,3.3303346633911133,-8.59069538116455,1.6974890232086182
1696083022282638300,4.364638427734375,3.19865345954895,-8.020874977111816,0.7206547260284424
1696083022292638200,4.37463818359375,3.2848446369171143,-9.651326179504395,0.15562310814857483
1696083022302638300,4.384638427734375,3.1483752727508545,-11.375151634216309,-0.28969839215278625
1696083022312638200,4.39463818359375,2.513911724090576,-13.180379867553711,-0.7110779285430908
1696083022322638300,4.404638427734375,0.7829039692878723,-15.498266220092773,-0.8595184087753296
1696083022332638200,4.41463818359375,-0.6775590777397156,-17.30349349975586,-1.1899182796478271
1696083022342638300,4.424638427734375,2.164358377456665,-17.571645736694336,-2.140416383743286
1696083022352638200,4.43463818359375,0.9313444495201111,-14.082993507385254,-1.7884687185287476
1696083022362638300,4.444638427734375,-3.3207578659057617,-11.008838653564453,-1.889025092124939
1696083022372638200,4.45463818359375,-5.143044471740723,-8.854057312011719,-2.2816741466522217
1696083022382638300,4.464638427734375,-5.755959987640381,-7.635408401489258,-3.24414324760437
1696083022392638200,4.47463818359375,-6.1414265632629395,-6.153397560119629,-3.861847400665283
1696083022402638300,4.484638427734375,-6.1629743576049805,-4.771644115447998,-3.5266590118408203
1696083022412638200,4.49463818359375,-5.46147346496582,-4.048594951629639,-2.6001031398773193
1696083022422638000,4.50463818359375,-4.5154643058776855,-4.2329487800598145,-1.9823989868164062
1696083022432638200,4.51463818359375,-3.8355112075805664,-4.778826713562012,-1.9393033981323242
1696083022442638000,4.52463818359375,-3.4811692237854004,-5.7846903800964355,-1.9847931861877441
1696083022452638200,4.53463818359375,-2.0877439975738525,-7.692869186401367,-2.7222073078155518
1696083022462638300,4.544638427734375,-0.6655880808830261,-9.581894874572754,-2.58813214302063
1696083022472638200,4.55463818359375,0.0454898327589035,-10.925041198730469,-1.9919757843017578
1696083022482638000,4.56463818359375,0.4692635238170624,-11.727099418640137,-1.37906014919281
1696083022492638200,4.57463818359375,0.9169792532920837,-11.968914031982422,-0.42616790533065796
1696083022502638000,4.58463818359375,1.6328455209732056,-11.518803596496582,1.0462661981582642
1696083022512638200,4.59463818359375,2.7246015071868896,-10.80772590637207,2.300827741622925
1696083022522638000,4.60463818359375,3.627215623855591,-10.10861873626709,3.1004912853240967
1696083022532638200,4.61463818359375,4.010287761688232,-9.411906242370605,3.0358476638793945
1696083022542638000,4.62463818359375,3.5673606395721436,-8.636184692382812,2.1308395862579346
1696083022552638200,4.63463818359375,2.315192937850952,-8.09509563446045,0.849941611289978
1696083022562638300,4.644638427734375,0.569819986820221,-8.052000045776367,-0.08619125932455063
1696083022572638200,4.65463818359375,-1.1061211824417114,-8.497321128845215,-0.40940847992897034
1696083022582638000,4.66463818359375,-2.2194249629974365,-8.856451034545898,-0.8236053586006165
1696083022592638200,4.67463818359375,-2.695871114730835,-9.20361042022705,-1.1659762859344482
1696083022602638000,4.68463818359375,-3.2106244564056396,-9.450213432312012,-1.1563993692398071
1696083022612638200,4.69463818359375,-3.7636849880218506,-9.478943824768066,-1.0893617868423462
1696083022622638000,4.70463818359375,-3.5936968326568604,-9.234735488891602,-1.1228805780410767
1696083022632638200,4.71463818359375,-2.4444799423217773,-9.165303230285645,-0.9241618514060974
1696083022642638000,4.72463818359375,-1.0797849893569946,-9.275436401367188,-0.4812345504760742
1696083022652638200,4.73463818359375,0.3519476354122162,-9.308955192565918,-0.31603461503982544
1696083022662638300,4.744638427734375,1.2665326595306396,-9.404723167419434,-0.0071826050989329815
1696083022672638200,4.75463818359375,1.5275006294250488,-9.560346603393555,0.4836287498474121
1696083022682638000,4.76463818359375,1.3455413579940796,-9.641749382019043,0.811634361743927
1696083022692638200,4.77463818359375,0.7230489253997803,-9.668086051940918,0.8068459630012512
1696083022702638000,4.78463818359375,-0.05267243832349777,-9.814131736755371,0.6200982332229614
1696083022712638200,4.79463818359375,-0.4572925269603729,-10.087071418762207,0.304063618183136
1696083022722638300,4.804638427734375,-0.19871874153614044,-10.443806648254395,0.11013327538967133
1696083022732638200,4.81463818359375,0.6991068720817566,-10.71914005279541,0.07422025501728058
1696083022742638300,4.824638427734375,1.9967641830444336,-10.731111526489258,0.19871874153614044
1696083022752638200,4.83463818359375,3.1699230670928955,-10.50126838684082,0.4692635238170624
1696083022762638300,4.844638427734375,3.6966474056243896,-10.149320602416992,0.9840168952941895
1696083022772638200,4.85463818359375,3.28963303565979,-9.809343338012695,1.601720929145813
1696083022782638300,4.864638427734375,2.231395959854126,-9.615413665771484,2.3127987384796143
1696083022792638200,4.87463818359375,0.8930372595787048,-9.71357536315918,2.937685489654541
1696083022802638300,4.884638427734375,-0.49799394607543945,-10.01524543762207,3.584120035171509
1696083022812638200,4.89463818359375,-1.7477672100067139,-10.38155746459961,4.259284973144531
1696083022822638300,4.904638427734375,-2.5474305152893066,-10.77420711517334,5.064035892486572
1696083022832638200,4.91463818359375,-2.3989901542663574,-11.039963722229004,5.961861610412598
1696083022842638300,4.924638427734375,-0.8810662031173706,-10.915464401245117,6.529287338256836
1696083022852638200,4.93463818359375,1.647210717201233,-10.644920349121094,6.414365768432617
1696083022862638300,4.944638427734375,4.156333923339844,-10.699986457824707,5.703287601470947
1696083022872638200,4.95463818359375,5.7846903800964355,-11.320084571838379,4.829104900360107
1696083022882638300,4.964638427734375,5.6984992027282715,-12.308890342712402,3.883395195007324
1696083022892638200,4.97463818359375,4.55616569519043,-13.087005615234375,3.0526070594787598
1696083022902638300,4.984638427734375,3.1962592601776123,-13.752593994140625,2.300827741622925
1696083022912638200,4.99463818359375,2.959233283996582,-13.989620208740234,1.2449848651885986
1696083022922638300,5.004638427734375,3.5889084339141846,-13.810054779052734,0.5099649429321289
1696083022932638200,5.01463818359375,2.959233283996582,-13.754987716674805,0.26096799969673157
1696083022942638300,5.024638427734375,0.9074024558067322,-14.049474716186523,-0.08379705995321274
1696083022952638200,5.03463818359375,-0.6368576288223267,-14.734516143798828,-0.9457096457481384
1696083022962638000,5.04463818359375,-1.05105459690094,-15.730504035949707,-1.8531121015548706
1696083022972638200,5.05463818359375,-1.4269442558288574,-16.74325180053711,-3.383007049560547
1696083022982638300,5.064638427734375,-2.2577321529388428,-18.234838485717773,-5.394435882568359
1696083022992638200,5.07463818359375,-3.0310592651367188,-19.283498764038086,-6.900388717651367
1696083023002638300,5.084638427734375,-4.170699596405029,-19.23322105407715,-7.5540056228637695
1696083023012638200,5.09463818359375,-4.412513732910156,-17.404050827026367,-7.613860607147217
1696083023022638300,5.104638427734375,-3.162740468978882,-14.72254467010498,-6.44549036026001
1696083023032638200,5.11463818359375,-1.8962076902389526,-12.907440185546875,-4.572925090789795
1696083023042638300,5.124638427734375,-0.42616790533065796,-11.727099418640137,-2.6431987285614014
1696083023052638200,5.13463818359375,0.6775590777397156,-10.992079734802246,-0.7445967197418213
1696083023062638300,5.144638427734375,0.8882488012313843,-10.613795280456543,0.48602294921875
1696083023072638200,5.15463818359375,0.49799394607543945,-10.273818969726562,1.113303780555725
1696083023082638300,5.164638427734375,0.2298433631658554,-9.699210166931152,1.278503656387329
1696083023092638200,5.17463818359375,-0.3902548849582672,-8.940248489379883,1.0869675874710083
1696083023102638300,5.184638427734375,-0.8595184087753296,-8.12861442565918,0.9217676520347595
1696083023112638200,5.19463818359375,-0.6488286852836609,-7.254730224609375,0.3423708379268646
1696083023122638300,5.204638427734375,-0.8044517636299133,-6.469432353973389,-0.33518823981285095
1696083023132638200,5.21463818359375,-1.53707754611969,-5.686528205871582,-0.5578489899635315
1696083023142638300,5.224638427734375,-2.0901381969451904,-4.879383087158203,-0.4884171485900879
1696083023152638200,5.23463818359375,-1.8339585065841675,-4.268861770629883,-0.8834604024887085
1696083023162638300,5.244638427734375,-0.9097966551780701,-4.288015365600586,-1.3192051649093628
1696083023172638200,5.25463818359375,-0.44532153010368347,-4.55616569519043,-1.6280571222305298
1696083023182638300,5.264638427734375,-0.5123591423034668,-4.845864295959473,-1.8746598958969116
1696083023192638200,5.27463818359375,-0.7398083209991455,-5.083189487457275,-2.051830768585205
1696083023202638300,5.284638427734375,-1.0342950820922852,-5.339369297027588,-2.1164743900299072
1696083023212638200,5.29463818359375,-1.2952631711959839,-5.526116847991943,-2.2385785579681396
1696083023222638300,5.304638427734375,-1.6543933153152466,-5.660192012786865,-2.2361843585968018
1696083023232638200,5.31463818359375,-2.0231003761291504,-5.758354187011719,-2.185906171798706
1696083023242638300,5.324638427734375,-2.1930887699127197,-5.755959987640381,-2.2625205516815186
1696083023252638200,5.33463818359375,-2.2816741466522217,-5.585971832275391,-2.3511061668395996
1696083023262638300,5.344638427734375,-2.1284453868865967,-5.2364182472229,-2.5785553455352783
1696083023272638200,5.35463818359375,-1.9584569931030273,-4.704606533050537,-2.8179752826690674
1696083023282638300,5.364638427734375,-1.7573440074920654,-4.271255970001221,-2.9903578758239746
1696083023292638200,5.37463818359375,-1.3694833517074585,-4.153939723968506,-2.942473888397217
1696083023302638300,5.384638427734375,-0.8762778043746948,-4.359841346740723,-2.5522189140319824
1696083023312638200,5.39463818359375,-0.14365209639072418,-4.910807132720947,-1.7980455160140991
1696083023322638300,5.404638427734375,0.8954314589500427,-5.76793098449707,-0.8020575642585754
1696083023332638200,5.41463818359375,2.185906171798706,-7.005733489990234,1.1252747774124146
1696083023342638300,5.424638427734375,3.8738183975219727,-8.755894660949707,3.5266590118408203
1696083023352638200,5.43463818359375,7.233182430267334,-11.016021728515625,5.892429828643799
1696083023362638000,5.44463818359375,9.110237121582031,-13.173196792602539,7.50851583480835
1696083023372638200,5.45463818359375,9.16769790649414,-14.487613677978516,8.992920875549316
1696083023382638300,5.464638427734375,9.189245223999023,-14.830284118652344,10.692804336547852
1696083023392638200,5.47463818359375,9.404723167419434,-14.966753005981445,12.378321647644043
1696083023402638300,5.484638427734375,8.74152946472168,-15.009848594665527,13.094188690185547
1696083023412639000,5.494638916015625,6.29944372177124,-14.415787696838379,11.231499671936035
1696083023422638800,5.504638916015625,4.259284973144531,-12.99123764038086,7.163750648498535
1696083023432639000,5.514638916015625,2.7892448902130127,-10.941801071166992,4.355052947998047
1696083023442638800,5.524638916015625,2.1475989818573,-8.70561695098877,2.492363929748535
1696083023452639000,5.534638916015625,1.6519991159439087,-7.66653299331665,0.9888052940368652
1696083023462639000,5.54463916015625,1.1779472827911377,-9.150938034057617,-0.031124621629714966
1696083023472639000,5.554638916015625,1.137245774269104,-11.358391761779785,-0.5363011956214905
1696083023482638800,5.564638916015625,1.6376339197158813,-13.731045722961426,-0.6177040338516235
1696083023492639000,5.574638916015625,3.5242648124694824,-16.127941131591797,-0.31603461503982544
1696083023502638800,5.584638916015625,13.151649475097656,-19.764734268188477,-0.6967126727104187
1696083023512639000,5.594638916015625,11.004050254821777,-20.99535369873047,-2.1523873805999756
1696083023522638800,5.604638916015625,-1.0534487962722778,-18.45271110534668,-3.1483752727508545
1696083023532639000,5.614638916015625,-3.576937437057495,-15.51502513885498,-3.6822822093963623
1696083023542639000,5.62463916015625,-4.8602294921875,-12.284948348999023,-3.294421434402466
1696083023552639000,5.634638916015625,-6.019322395324707,-9.337685585021973,-3.2345664501190186
1696083023562639000,5.64463916015625,-5.679345607757568,-6.737582683563232,-3.138798475265503
1696083023572639000,5.654638916015625,-5.389647483825684,-4.357447147369385,-3.268085241317749
1696083023582639000,5.66463916015625,-5.33697509765625,-2.647987127304077,-3.406949043273926
1696083023592639000,5.674638916015625,-5.1909284591674805,-1.9105730056762695,-2.741360902786255
1696083023602638800,5.684638916015625,-5.269937038421631,-1.8602946996688843,-2.3918075561523438
1696083023612639000,5.694638916015625,-6.241982936859131,-2.832340717315674,-2.0446481704711914
1696083023622638800,5.704638916015625,-5.664980411529541,-4.632780075073242,-1.8267759084701538
1696083023632639000,5.714638916015625,-3.8738183975219727,-6.938695907592773,-1.4748282432556152
1696083023642638800,5.724638916015625,-2.628833532333374,-9.059958457946777,-1.3862427473068237
1696083023652639000,5.734638916015625,-2.1499931812286377,-10.798149108886719,-1.37906014919281
1696083023662639000,5.74463916015625,-2.2433669567108154,-11.889904975891113,-1.0606313943862915
1696083023672639000,5.754638916015625,-2.896984100341797,-12.280159950256348,-0.5985504388809204
1696083023682638800,5.764638916015625,-2.875436305999756,-12.41662883758545,0.545877993106842
1696083023692639000,5.774638916015625,0.5770025849342346,-12.490849494934082,2.5474305152893066
1696083023702638800,5.784638916015625,4.721365928649902,-12.11974811553955,3.936067581176758
1696083023712638200,5.79463818359375,7.735964775085449,-11.221922874450684,4.019864559173584
1696083023722638300,5.804638427734375,8.248324394226074,-9.938630104064941,3.0885202884674072
1696083023732638200,5.81463818359375,6.435913562774658,-9.074323654174805,1.9608511924743652
1696083023742638300,5.824638427734375,3.4189200401306152,-8.521263122558594,0.9528923034667969
1696083023752638200,5.83463818359375,0.5099649429321289,-8.497321128845215,0.3663128614425659
1696083023762638000,5.84463818359375,-2.070984363555908,-8.636184692382812,-0.2298433631658554
1696083023772638200,5.85463818359375,-3.7253777980804443,-8.961795806884766,-1.0103530883789062
1696083023782638000,5.86463818359375,-4.1874589920043945,-9.237129211425781,-1.3311761617660522
1696083023792638200,5.87463818359375,-4.2329487800598145,-9.38317584991455,-1.3886369466781616
1696083023802638000,5.88463818359375,-4.197035789489746,-9.402329444885254,-1.2473790645599365
1696083023812638200,5.89463818359375,-3.6511576175689697,-9.359233856201172,-1.1228805780410767
1696083023822638300,5.904638427734375,-2.4420857429504395,-9.189245223999023,-1.2401964664459229
1696083023832638200,5.91463818359375,-1.0845733880996704,-9.016862869262695,-1.2042834758758545
1696083023842638000,5.92463818359375,0.1628057211637497,-9.031228065490723,-1.0654197931289673
1696083023852638200,5.93463818359375,1.036689281463623,-9.433453559875488,-0.7398083209991455
1696083023862638000,5.94463818359375,1.4101848602294922,-9.902717590332031,-0.3974374830722809
1696083023872638200,5.95463818359375,1.3192051649093628,-10.242693901062012,-0.15801730751991272
1696083023882638000,5.96463818359375,0.8475474119186401,-10.237905502319336,-0.014365210197865963
1696083023892638200,5.97463818359375,0.33758243918418884,-9.974543571472168,0.07661445438861847
1696083023902638000,5.98463818359375,-0.035913024097681046,-9.672874450683594,0.19393034279346466
1696083023912638200,5.99463818359375,-0.038307227194309235,-9.577106475830078,0.2968810200691223
1696083023922638000,6.00463818359375,0.4596867263317108,-9.725546836853027,0.38067805767059326
1696083023932638200,6.01463818359375,1.2401964664459229,-9.981725692749023,0.5003881454467773
1696083023942638000,6.02463818359375,1.9991583824157715,-10.259453773498535,0.6631938815116882
1696083023952638200,6.03463818359375,2.319981336593628,-10.484508514404297,0.9864110946655273
1696083023962638000,6.04463818359375,2.0470423698425293,-10.56112289428711,1.3766659498214722
1696083023972638200,6.05463818359375,1.3886369466781616,-10.331279754638672,1.7956513166427612
1696083023982638000,6.06463818359375,0.730231523513794,-10.032004356384277,2.1499931812286377
1696083023992638200,6.07463818359375,0.16759411990642548,-9.907505989074707,2.5737667083740234
1696083024002638000,6.08463818359375,-0.3974374830722809,-10.103830337524414,3.181894063949585
1696083024012638200,6.09463818359375,-1.0462661981582642,-10.360010147094727,3.8786067962646484
1696083024022638300,6.104638427734375,-1.4652514457702637,-10.664073944091797,4.587290287017822
1696083024032638200,6.11463818359375,-1.3096283674240112,-10.755053520202637,5.313032627105713
1696083024042638300,6.124638427734375,-0.3447650372982025,-10.802937507629395,5.837363243103027
1696083024052638200,6.13463818359375,0.7829039692878723,-11.50922679901123,6.045658588409424
1696083024062638300,6.144638427734375,1.659181833267212,-12.622530937194824,5.803843975067139
1696083024072638200,6.15463818359375,2.4468741416931152,-13.4197998046875,5.1454386711120605
1696083024082638300,6.164638427734375,3.3063924312591553,-13.889062881469727,4.553771495819092
1696083024092638200,6.17463818359375,4.127603530883789,-14.114118576049805,3.974374771118164
1696083024102638300,6.184638427734375,4.915595531463623,-13.9369478225708,3.1747114658355713
1696083024112638200,6.19463818359375,5.430348873138428,-13.38628101348877,2.0901381969451904
1696083024122638000,6.20463818359375,5.061641693115234,-12.859556198120117,0.6153098344802856
1696083024132638200,6.21463818359375,3.2992098331451416,-13.048698425292969,-0.17717093229293823
1696083024142638000,6.22463818359375,0.7589619159698486,-13.845967292785645,-0.2082955539226532
1696083024152638200,6.23463818359375,-1.3934253454208374,-14.806342124938965,-0.9864110946655273
1696083024162638000,6.24463818359375,-2.7293899059295654,-16.15906524658203,-2.126051187515259
1696083024172638200,6.25463818359375,-3.5434184074401855,-17.41362762451172,-3.8570590019226074
1696083024182638000,6.26463818359375,-4.110844135284424,-18.402433395385742,-5.2986674308776855
1696083024192638200,6.27463818359375,-4.757278919219971,-18.265962600708008,-6.35451078414917
1696083024202638000,6.28463818359375,-4.364629745483398,-16.93478775024414,-6.878840923309326
1696083024212638200,6.29463818359375,-2.762908697128296,-14.952387809753418,-6.423942565917969
1696083024222638000,6.30463818359375,-1.5849615335464478,-13.280936241149902,-4.824316501617432
1696083024232638200,6.31463818359375,1.137245774269104,-11.885116577148438,-3.4189200401306152
1696083024242638000,6.32463818359375,3.064578056335449,-10.953771591186523,-1.7405846118927002
1696083024252638200,6.33463818359375,2.4851813316345215,-10.333673477172852,-0.5841852426528931
1696083024262638000,6.34463818359375,0.7924807667732239,-9.756670951843262,0.016759412363171577
1696083024272638200,6.35463818359375,-0.4884171485900879,-9.019257545471191,0.304063618183136
1696083024282638000,6.36463818359375,-1.115697979927063,-8.224382400512695,0.5147533416748047
1696083024292638200,6.37463818359375,-1.37906014919281,-7.419930458068848,0.4405331015586853
1696083024302638000,6.38463818359375,-1.4077905416488647,-6.771101474761963,0.21308395266532898
1696083024312638200,6.39463818359375,-1.941697597503662,-6.287472724914551,0.2753331959247589
1696083024322638000,6.40463818359375,-2.078166961669922,-5.923554420471191,0.38546648621559143
1696083024332638200,6.41463818359375,-1.8076223134994507,-5.585971832275391,0.1867477297782898
1696083024342638000,6.42463818359375,-1.5298948287963867,-5.466261863708496,0.09816227108240128
1696083024352638200,6.43463818359375,-1.4508862495422363,-5.485415458679199,-0.10773907601833344
1696083024362638000,6.44463818359375,-1.5825673341751099,-5.686528205871582,-0.40222588181495667
1696083024372638200,6.45463818359375,-1.6280571222305298,-5.9881978034973145,-0.8930372595787048
1696083024382638000,6.46463818359375,-1.742978811264038,-6.304232120513916,-1.403002142906189
1696083024392638200,6.47463818359375,-1.9728221893310547,-6.56998872756958,-1.6831238269805908
1696083024402638000,6.48463818359375,-2.121262788772583,-6.7136406898498535,-1.9153614044189453
1696083024412638200,6.49463818359375,-2.1308395862579346,-6.680121898651123,-2.207453966140747
1696083024422638000,6.50463818359375,-2.1380221843719482,-6.486191749572754,-2.7126305103302
1696083024432638200,6.51463818359375,-2.3080103397369385,-6.136638164520264,-3.3854012489318848
1696083024442638000,6.52463818359375,-2.408566951751709,-5.667374610900879,-3.9624037742614746
1696083024452638200,6.53463818359375,-2.2840683460235596,-5.03291130065918,-4.477157115936279
1696083024462638300,6.544638427734375,-1.9273324012756348,-4.311957359313965,-4.876988887786865
1696083024472638200,6.55463818359375,-1.625662922859192,-3.6607344150543213,-5.056853294372559
1696083024482638300,6.564638427734375,-1.0606313943862915,-3.2561142444610596,-5.023334503173828
1696083024492638200,6.57463818359375,-0.304063618183136,-3.2776620388031006,-4.390965938568115
1696083024502638300,6.584638427734375,0.4620809257030487,-3.840299606323242,-2.853888511657715
1696083024512638200,6.59463818359375,1.6160861253738403,-4.69024133682251,-0.6847416758537292
1696083024522638300,6.604638427734375,3.7253777980804443,-5.8996124267578125,1.7573440074920654
1696083024532638200,6.61463818359375,7.570765018463135,-7.905953407287598,4.338293552398682
1696083024542638300,6.624638427734375,12.68478012084961,-10.836456298828125,7.1781158447265625
1696083024552638200,6.63463818359375,12.012009620666504,-13.862727165222168,9.919476509094238
1696083024562638300,6.644638427734375,9.438241958618164,-16.489465713500977,12.347197532653809
1696083024572638200,6.65463818359375,8.492532730102539,-18.38567352294922,13.881880760192871
1696083024582638300,6.664638427734375,8.767866134643555,-18.680160522460938,13.438953399658203
1696083024592638200,6.67463818359375,8.351274490356445,-17.523759841918945,10.723928451538086
1696083024602638300,6.684638427734375,6.8070149421691895,-14.84704303741455,7.012916088104248
1696083024612638200,6.69463818359375,4.786009311676025,-11.784560203552246,4.359841346740723
1696083024622638300,6.704638427734375,3.665522813796997,-8.612242698669434,2.4899697303771973
1696083024632638200,6.71463818359375,3.0861260890960693,-5.399224281311035,1.4652514457702637
1696083024642638300,6.724638427734375,2.212242364883423,-3.3207578659057617,0.3974374830722809
1696083024652638200,6.73463818359375,1.577778935432434,-4.958691120147705,0.009576806798577309
1696083024662638300,6.744638427734375,1.0319008827209473,-8.494926452636719,-0.4118026793003082
1696083024672638200,6.75463818359375,0.8236053586006165,-12.507609367370605,-0.7613561153411865
1696083024682638300,6.764638427734375,-0.14844051003456116,-16.839019775390625,-0.9696516990661621
1696083024692638200,6.77463818359375,-1.01753568649292,-19.759944915771484,-2.5953147411346436
1696083024702638300,6.784638427734375,2.734178304672241,-23.25547981262207,-5.245995044708252
1696083024712638200,6.79463818359375,-0.40940847992897034,-23.4470157623291,-6.637026309967041
1696083024722638300,6.804638427734375,-3.0334534645080566,-19.194913864135742,-5.6554036140441895
1696083024732638200,6.81463818359375,-3.56017804145813,-13.4413480758667,-4.235342979431152
1696083024742638300,6.824638427734375,-4.5609540939331055,-9.179668426513672,-3.4117374420166016
1696083024752638200,6.83463818359375,-5.387253284454346,-6.376058578491211,-3.471592426300049
1696083024762638300,6.844638427734375,-5.511751651763916,-4.110844135284424,-3.7158010005950928
1696083024772638200,6.85463818359375,-4.996998310089111,-2.7102363109588623,-3.5482068061828613
1696083024782638300,6.864638427734375,-5.6099138259887695,-1.625662922859192,-2.695871114730835
1696083024792638200,6.87463818359375,-5.818209171295166,-1.3192051649093628,-1.8052281141281128
1696083024802638300,6.884638427734375,-4.414907932281494,-2.889801502227783,-1.0103530883789062
1696083024812638200,6.89463818359375,-3.1076738834381104,-5.2124762535095215,-0.7182605266571045
1696083024822638300,6.904638427734375,-2.425326347351074,-7.458237648010254,-0.5985504388809204
1696083024832638200,6.91463818359375,-2.3343467712402344,-9.572318077087402,-0.6272808313369751
1696083024842638300,6.924638427734375,-2.4468741416931152,-11.332056045532227,-0.5554547905921936
1696083024852638200,6.93463818359375,-2.698265314102173,-12.524368286132812,-0.23942017555236816
1696083024862638300,6.944638427734375,-2.8131868839263916,-12.940959930419922,0.5482721924781799
1696083024872638200,6.95463818359375,-1.036689281463623,-12.725481033325195,2.1308395862579346
1696083024882638300,6.964638427734375,2.3247697353363037,-12.201150894165039,3.5673606395721436
1696083024892638200,6.97463818359375,5.653009414672852,-10.90109920501709,3.5266590118408203
1696083024902638300,6.984638427734375,7.513304233551025,-9.390357971191406,2.346317768096924
1696083024912638200,6.99463818359375,7.3600754737854,-8.368034362792969,1.0893617868423462
1696083024922638300,7.004638427734375,5.480627059936523,-8.269871711730957,0.2992752194404602
1696083024932638200,7.01463818359375,2.322375535964966,-8.722375869750977,-0.016759412363171577
1696083024942638300,7.024638427734375,-0.7781155705451965,-9.304166793823242,-0.2561795711517334
1696083024952638200,7.03463818359375,-2.983175277709961,-9.455001831054688,-0.47405192255973816
1696083024962638300,7.044638427734375,-4.165910720825195,-9.447818756103516,-0.6775590777397156
1696083024972638200,7.05463818359375,-4.54419469833374,-9.402329444885254,-0.5961562395095825
1696083024982638300,7.064638427734375,-3.995922565460205,-9.359233856201172,-0.2849099934101105
1696083024992638200,7.07463818359375,-2.4372973442077637,-9.031228065490723,-0.3711012601852417
1696083025002638300,7.084638427734375,-0.751779317855835,-8.696040153503418,-0.5363011956214905
1696083025012638200,7.09463818359375,0.6943184733390808,-8.552388191223145,-0.5889736413955688
1696083025022638300,7.104638427734375,1.5203180313110352,-8.518868446350098,-0.4596867263317108
1696083025032638200,7.11463818359375,1.7094600200653076,-8.765471458435059,-0.15322890877723694
1696083025042638300,7.124638427734375,1.3527239561080933,-9.289801597595215,0.31842881441116333
1696083025052638200,7.13463818359375,0.6991068720817566,-9.924264907836914,0.6775590777397156
1696083025062638300,7.144638427734375,0.0694318488240242,-10.513238906860352,0.730231523513794
1696083025072638200,7.15463818359375,-0.1843535304069519,-10.858003616333008,0.6440402865409851
1696083025082638300,7.164638427734375,0.13168109953403473,-10.623372077941895,0.6751648783683777
1696083025092638200,7.17463818359375,0.9768342971801758,-10.158897399902344,1.015141487121582
1696083025102638300,7.184638427734375,2.013523578643799,-9.969755172729492,1.3862427473068237
1696083025112638200,7.19463818359375,2.7030537128448486,-10.120590209960938,1.699883222579956
1696083025122638300,7.204638427734375,2.695871114730835,-10.395922660827637,1.7381904125213623
1696083025132638200,7.21463818359375,1.8842366933822632,-10.460566520690918,1.6759412288665771
1696083025142638000,7.22463818359375,0.8331822156906128,-10.532392501831055,1.702277421951294
1696083025152638200,7.23463818359375,-0.1628057211637497,-10.699986457824707,2.145204782485962
1696083025162638000,7.24463818359375,-0.9696516990661621,-11.02320384979248,2.7700912952423096
1696083025172638200,7.25463818359375,-1.4484920501708984,-11.291354179382324,3.485957622528076
1696083025182638000,7.26463818359375,-1.4053963422775269,-11.334449768066406,4.144362926483154
1696083025192638200,7.27463818359375,-0.4405331015586853,-11.126154899597168,4.680664539337158
1696083025202638000,7.28463818359375,1.2306196689605713,-11.051934242248535,4.857835292816162
1696083025212638200,7.29463818359375,2.985569477081299,-11.341632843017578,4.726154327392578
1696083025222638000,7.30463818359375,4.125209331512451,-12.129324913024902,4.410119533538818
1696083025232638200,7.31463818359375,4.402936935424805,-12.98884391784668,4.036623954772949
1696083025242638000,7.32463818359375,4.206612586975098,-13.582605361938477,3.7493197917938232
1696083025252638200,7.33463818359375,3.6822822093963623,-13.620912551879883,3.2632968425750732
1696083025262638000,7.34463818359375,3.2992098331451416,-13.096582412719727,2.7748796939849854
1696083025272638200,7.35463818359375,3.19865345954895,-12.711115837097168,2.561795711517334
1696083025282637800,7.364637939453125,1.7142484188079834,-12.919411659240723,2.5665841102600098
1696083025292637700,7.3746376953125,-0.5147533416748047,-13.853150367736816,2.1499931812286377
1696083025302637800,7.384637939453125,-1.920149803161621,-15.002666473388672,1.1635819673538208
1696083025312637700,7.3946376953125,-2.2912509441375732,-16.376937866210938,-0.5267243981361389
1696083025322637800,7.404637939453125,-2.1092917919158936,-17.84458351135254,-2.911349296569824
1696083025332637700,7.4146376953125,-2.126051187515259,-19.264345169067383,-4.956296920776367
1696083025342637800,7.424637939453125,-3.1220390796661377,-20.169353485107422,-7.017704486846924
1696083025352637700,7.4346376953125,-4.46518611907959,-19.17576026916504,-7.683292388916016
1696083025362637800,7.444637939453125,-4.901230335235596,-16.56129264831543,-7.2212114334106445
1696083025372637700,7.4546376953125,-3.4835634231567383,-13.93934154510498,-5.976226806640625
1696083025382637800,7.464637939453125,-1.192312479019165,-12.201150894165039,-4.220977783203125
1696083025392637700,7.4746376953125,2.1380221843719482,-10.963348388671875,-2.2218191623687744
1696083025402637800,7.484637939453125,2.913743495941162,-10.32170295715332,-0.8331822156906128
1696083025412637700,7.4946376953125,1.9369091987609863,-9.912294387817383,-0.20111294090747833
1696083025422637800,7.504637939453125,0.4189853072166443,-9.47415542602539,0.20350714027881622
1696083025432637700,7.5146376953125,-1.048660397529602,-8.885181427001953,0.38546648621559143
1696083025442637800,7.524637939453125,-1.7597382068634033,-8.166921615600586,0.42856210470199585
1696083025452637700,7.5346376953125,-1.6424223184585571,-7.3361334800720215,0.05267243832349777
1696083025462637800,7.544637939453125,-1.5682021379470825,-6.572382926940918,-0.2322375625371933
1696083025472637700,7.5546376953125,-1.8914192914962769,-5.983409404754639,-0.33758243918418884
1696083025482637800,7.564637939453125,-1.8842366933822632,-5.614702224731445,-0.5554547905921936
1696083025492637700,7.5746376953125,-1.7334020137786865,-5.384859085083008,-0.9385270476341248
1696083025502637800,7.584637939453125,-1.699883222579956,-5.509357452392578,-1.3431471586227417
1696083025512637700,7.5946376953125,-1.5825673341751099,-5.68892240524292,-1.680729627609253
1696083025522637800,7.604637939453125,-1.6615760326385498,-5.806238174438477,-1.8914192914962769
1696083025532637700,7.6146376953125,-1.6974890232086182,-5.954679012298584,-1.944091796875
1696083025542637800,7.624637939453125,-1.6687586307525635,-6.091148376464844,-2.0231003761291504
1696083025552637700,7.6346376953125,-1.9321208000183105,-6.177339553833008,-1.9249382019042969
1696083025562637800,7.644637939453125,-2.140416383743286,-6.225223541259766,-1.920149803161621
1696083025572637700,7.6546376953125,-2.126051187515259,-6.22043514251709,-1.9800047874450684
1696083025582638000,7.66463818359375,-2.1475989818573,-5.985803604125977,-2.212242364883423
1696083025592638200,7.67463818359375,-2.293645143508911,-5.595548629760742,-2.631227731704712
1696083025602638000,7.68463818359375,-2.4851813316345215,-5.114314079284668,-2.9975404739379883
1696083025612638200,7.69463818359375,-2.4660277366638184,-4.469974517822266,-3.44765043258667
1696083025622638000,7.70463818359375,-2.1356279850006104,-3.818751811981201,-3.864241600036621
1696083025632638200,7.71463818359375,-1.6903064250946045,-3.3039982318878174,-4.1395745277404785
1696083025642638000,7.72463818359375,-1.0654197931289673,-3.021482467651367,-4.1156325340271
1696083025652638200,7.73463818359375,-0.3878606855869293,-2.9328970909118652,-3.529053211212158
1696083025662638000,7.74463818359375,0.33997663855552673,-3.5434184074401855,-1.8483237028121948
1696083025672638200,7.75463818359375,1.2689268589019775,-4.642356872558594,0.5937620401382446
1696083025682638000,7.76463818359375,3.0310592651367188,-6.356904983520508,3.514688014984131
1696083025692638200,7.77463818359375,7.549217224121094,-8.947430610656738,6.869264125823975
1696083025702638000,7.78463818359375,11.523591995239258,-12.150873184204102,10.647314071655273
1696083025712638200,7.79463818359375,11.085453033447266,-15.548543930053711,13.719075202941895
1696083025722638000,7.80463818359375,11.391910552978516,-18.763957977294922,14.576199531555176
1696083025732638200,7.81463818359375,13.838785171508789,-20.961833953857422,14.284106254577637
1696083025742638000,7.82463818359375,14.861408233642578,-21.97697639465332,13.316848754882812
1696083025752638200,7.83463818359375,10.137349128723145,-20.741567611694336,9.466972351074219
1696083025762638000,7.84463818359375,5.863699436187744,-17.315465927124023,3.7445313930511475
1696083025772638200,7.85463818359375,3.840299606323242,-12.495637893676758,0.8355764150619507
1696083025782638000,7.86463818359375,3.2178070545196533,-7.992144584655762,0.35913026332855225
1696083025792638200,7.87463818359375,2.0685901641845703,-5.332186222076416,-1.3407529592514038
1696083025802638000,7.88463818359375,2.3247697353363037,-6.1414265632629395,-2.7485435009002686
1696083025812638200,7.89463818359375,3.2082302570343018,-8.928277015686035,-4.335899353027344
1696083025822638000,7.90463818359375,2.2697031497955322,-11.988067626953125,-4.898836135864258
1696083025832638200,7.91463818359375,-0.7876923680305481,-15.067309379577637,-4.2329487800598145
1696083025842638000,7.92463818359375,1.1827356815338135,-18.28032875061035,-1.170764684677124
1696083025852638200,7.93463818359375,2.8562827110290527,-17.028160095214844,0.21308395266532898
1696083025862638000,7.94463818359375,0.5147533416748047,-11.770195007324219,-0.08140286058187485
1696083025872638200,7.95463818359375,-2.5953147411346436,-7.01052188873291,-1.1851298809051514
1696083025882638000,7.96463818359375,-5.6769514083862305,-4.1395745277404785,-1.3455413579940796
1696083025892638200,7.97463818359375,-7.032069683074951,-3.0597896575927734,-0.9409212470054626
1696083025902638000,7.98463818359375,-7.316979885101318,-3.5889084339141846,-0.8475474119186401
1696083025912638200,7.99463818359375,-7.22599983215332,-5.499780654907227,-1.482010841369629
1696083025922638000,8.00463818359375,-6.811803340911865,-7.709628582000732,-2.0805611610412598
1696083025932638200,8.01463818359375,-6.112696170806885,-9.850045204162598,-2.7006595134735107
1696083025942638000,8.02463818359375,-5.262754440307617,-12.055105209350586,-3.0358476638793945
1696083025952638200,8.03463818359375,-5.114314079284668,-13.81723690032959,-2.9951462745666504
1696083025962638000,8.04463818359375,-5.4159836769104,-14.830284118652344,-2.5115175247192383
1696083025972638200,8.05463818359375,-4.302380561828613,-14.238616943359375,-1.6711528301239014
1696083025982638000,8.06463818359375,-2.2840683460235596,-12.68478012084961,-0.7015010714530945
1696083025992638200,8.07463818359375,-0.2825157940387726,-10.755053520202637,0.05985504388809204
1696083026002638000,8.08463818359375,1.8076223134994507,-9.047987937927246,0.3208230137825012
1696083026012638200,8.09463818359375,3.248931646347046,-7.831733226776123,0.45250412821769714
1696083026022638000,8.10463818359375,3.7469255924224854,-7.381623268127441,0.6991068720817566
1696083026032638200,8.11463818359375,3.4811692237854004,-7.434295654296875,0.7613561153411865
1696083026042638000,8.12463818359375,2.4875755310058594,-7.738358974456787,0.7422025203704834
1696083026052638200,8.13463818359375,1.091755986213684,-8.121431350708008,0.7110779285430908
1696083026062638000,8.14463818359375,-0.1364694982767105,-8.475772857666016,0.7086837291717529
1696083026072638200,8.15463818359375,-0.8858546018600464,-8.885181427001953,0.4884171485900879
1696083026082638000,8.16463818359375,-1.039083480834961,-9.088688850402832,-0.0071826050989329815
1696083026092638200,8.17463818359375,-1.0749965906143188,-9.091083526611328,-0.5434837937355042
1696083026102638000,8.18463818359375,-1.2090718746185303,-9.031228065490723,-0.7709329724311829
1696083026112638200,8.19463818359375,-1.235408067703247,-8.837297439575195,-0.8307880163192749
1696083026122638000,8.20463818359375,-1.1779472827911377,-8.554781913757324,-0.8690952062606812
1696083026132638200,8.21463818359375,-1.2090718746185303,-8.358457565307617,-0.629675030708313
1696083026142638000,8.22463818359375,-1.1492167711257935,-8.34648609161377,-0.3256114423274994
1696083026152638200,8.23463818359375,-0.6823474764823914,-8.715193748474121,0.14365209639072418
1696083026162638000,8.24463818359375,0.2801215946674347,-9.390357971191406,0.45250412821769714
1696083026172638200,8.25463818359375,1.3958195447921753,-9.998485565185547,0.6200982332229614
1696083026182638000,8.26463818359375,1.778891921043396,-10.213963508605957,0.7661445140838623
1696083026192638200,8.27463818359375,1.278503656387329,-10.020033836364746,0.9145850539207458
1696083026202638000,8.28463818359375,0.6153098344802856,-9.658509254455566,1.115697979927063
1696083026212638200,8.29463818359375,0.20111294090747833,-9.208398818969727,1.316810965538025
1696083026222638000,8.30463818359375,0.10773907601833344,-8.947430610656738,1.2856862545013428
1696083026232638200,8.31463818359375,0.11013327538967133,-9.004891395568848,0.8140285611152649
1696083026242638000,8.32463818359375,0.6560112833976746,-9.598653793334961,0.15322890877723694
1696083026252638200,8.33463818359375,1.8746598958969116,-10.369586944580078,-0.36152446269989014
1696083026262638000,8.34463818359375,3.155557870864868,-11.02320384979248,-0.49320554733276367
1696083026272638200,8.35463818359375,3.8594532012939453,-11.432612419128418,-0.1364694982767105
1696083026282638000,8.36463818359375,3.6750996112823486,-11.4541597366333,0.6033388376235962
1696083026292638200,8.37463818359375,2.8443117141723633,-11.164462089538574,1.4389152526855469
1696083026302638000,8.38463818359375,1.5849615335464478,-10.747870445251465,2.207453966140747
1696083026312638200,8.39463818359375,0.31364041566848755,-10.637737274169922,2.8179752826690674
1696083026322638000,8.40463818359375,-0.7661445140838623,-10.747870445251465,3.3638534545898438
1696083026332638200,8.41463818359375,-1.525106430053711,-11.073482513427734,3.9839515686035156
1696083026342638000,8.42463818359375,-1.8986018896102905,-11.408670425415039,4.786009311676025
1696083026352638200,8.43463818359375,-1.6112977266311646,-11.573870658874512,5.712864398956299
1696083026362638000,8.44463818359375,-0.5123591423034668,-11.379940032958984,6.395212173461914
1696083026372638200,8.45463818359375,1.2617442607879639,-11.190797805786133,6.4742207527160645
1696083026382638000,8.46463818359375,3.114856481552124,-11.60020637512207,6.2276177406311035
1696083026392638200,8.47463818359375,4.563348293304443,-12.926593780517578,6.100725173950195
1696083026402638000,8.48463818359375,5.06643009185791,-14.442124366760254,5.667374610900879
1696083026412638200,8.49463818359375,4.8051629066467285,-15.143924713134766,4.455609321594238
1696083026422638000,8.50463818359375,4.24970817565918,-14.727333068847656,3.00711727142334
1696083026432638200,8.51463818359375,4.491522312164307,-14.183549880981445,2.190694570541382
1696083026442638000,8.52463818359375,3.3279404640197754,-13.596970558166504,1.6663644313812256
1696083026452638200,8.53463818359375,0.6560112833976746,-13.549086570739746,1.2713210582733154
1696083026462638000,8.54463818359375,-1.6065093278884888,-14.382268905639648,0.5674257874488831
1696083026472638200,8.55463818359375,-2.734178304672241,-15.696985244750977,-0.31603461503982544
1696083026482638000,8.56463818359375,-2.626439332962036,-17.30109977722168,-2.185906171798706
1696083026492638200,8.57463818359375,-2.255337953567505,-18.933944702148438,-4.584896087646484
1696083026502638000,8.58463818359375,-2.8419175148010254,-19.9730281829834,-7.058405876159668
1696083026512638200,8.59463818359375,-3.9624037742614746,-19.55164909362793,-8.34648609161377
1696083026522638000,8.60463818359375,-4.000710964202881,-17.67459487915039,-8.571541786193848
1696083026532638200,8.61463818359375,-2.7700912952423096,-15.048155784606934,-7.81257963180542
1696083026542638000,8.62463818359375,-1.2665326595306396,-12.921805381774902,-6.332962989807129
1696083026552638200,8.63463818359375,-0.1388636976480484,-11.674427032470703,-4.211400985717773
1696083026562638000,8.64463818359375,0.9983820915222168,-10.53478717803955,-2.765302896499634
1696083026572638200,8.65463818359375,0.7876923680305481,-9.900322914123535,-1.5083470344543457
1696083026582638000,8.66463818359375,-0.06703764945268631,-9.579500198364258,-0.6607996821403503
1696083026592638200,8.67463818359375,-0.33997663855552673,-9.148544311523438,-0.20111294090747833
1696083026602638000,8.68463818359375,-0.27054479718208313,-8.47098445892334,-0.06464344263076782
1696083026612638200,8.69463818359375,-0.4836287498474121,-7.6641387939453125,0.004788403399288654
1696083026622638000,8.70463818359375,-1.070208191871643,-6.811803340911865,-0.23942017555236816
1696083026632638200,8.71463818359375,-2.695871114730835,-6.024110794067383,0.45250412821769714
1696083026642638000,8.72463818359375,-3.4548330307006836,-5.262754440307617,0.5626373887062073
1696083026652638200,8.73463818359375,-2.715024709701538,-4.8602294921875,0.2944868206977844
1696083026662638000,8.74463818359375,-1.6376339197158813,-4.800374507904053,-0.023942016065120697
1696083026672638200,8.75463818359375,-0.8331822156906128,-4.965873718261719,-0.4884171485900879
1696083026682638000,8.76463818359375,-0.8547300100326538,-5.274725437164307,-0.8690952062606812
1696083026692638200,8.77463818359375,-1.1468225717544556,-5.612308025360107,-1.1635819673538208
1696083026702638000,8.78463818359375,-1.4676456451416016,-5.957073211669922,-1.3527239561080933
1696083026712638200,8.79463818359375,-1.800439715385437,-6.241982936859131,-1.4221558570861816
1696083026722638000,8.80463818359375,-1.98958158493042,-6.337751388549805,-1.4867992401123047
1696083026732638200,8.81463818359375,-2.1332337856292725,-6.280290126800537,-1.5945383310317993
1696083026742638000,8.82463818359375,-2.2361843585968018,-6.021716594696045,-1.900996208190918
1696083026752638200,8.83463818359375,-2.341529369354248,-5.595548629760742,-2.4181437492370605
1696083026762638000,8.84463818359375,-2.492363929748535,-5.097554683685303,-2.920926094055176
1696083026772638200,8.85463818359375,-2.5929205417633057,-4.587290287017822,-3.3686418533325195
1696083026782638000,8.86463818359375,-2.5905263423919678,-4.062960147857666,-3.708618402481079
1696083026792638200,8.87463818359375,-2.3343467712402344,-3.5458126068115234,-4.015076160430908
1696083026802638000,8.88463818359375,-2.078166961669922,-3.071760892868042,-4.173093795776367
1696083026812638200,8.89463818359375,-1.7549498081207275,-2.75812029838562,-3.885789394378662
1696083026822638000,8.90463818359375,-0.912190854549408,-3.1890766620635986,-2.7269957065582275
1696083026832638200,8.91463818359375,0.49799394607543945,-4.218583583831787,-0.9624691009521484
1696083026842638000,8.92463818359375,2.896984100341797,-5.715258598327637,1.482010841369629
1696083026852638200,8.93463818359375,7.412747859954834,-8.135796546936035,4.434061527252197
1696083026862638000,8.94463818359375,14.688726425170898,-12.009614944458008,8.279448509216309
1696083026872638200,8.95463818359375,13.618518829345703,-16.46552276611328,12.30170726776123
1696083026882638000,8.96463818359375,10.292972564697266,-20.528484344482422,14.485219955444336
1696083026892638200,8.97463818359375,10.817302703857422,-22.053590774536133,14.26974105834961
1696083026902638000,8.98463818359375,12.53633975982666,-20.901979446411133,13.65682601928711
1696083026912638200,8.99463818359375,9.936236381530762,-17.636287689208984,11.377545356750488
1696083026922638000,9.00463818359375,5.9881978034973145,-13.987225532531738,6.775889873504639
1696083026932638200,9.01463818359375,3.354276657104492,-10.084676742553711,3.799597978591919
1696083026942638000,9.02463818359375,3.1100680828094482,-6.5819597244262695,1.965639591217041
1696083026952638200,9.03463818359375,3.3207578659057617,-3.993528366088867,0.26815059781074524
1696083026962638000,9.04463818359375,2.6862943172454834,-4.0078935623168945,-1.170764684677124
1696083026972638200,9.05463818359375,-0.20350714027881622,-7.776666164398193,-2.2170307636260986
1696083026982638000,9.06463818359375,-1.821987509727478,-12.610559463500977,-3.0095114707946777
1696083026992638200,9.07463818359375,-2.784456491470337,-15.44798755645752,-3.3662476539611816
1696083027002638000,9.08463818359375,-2.190694570541382,-17.765575408935547,-2.717418909072876
1696083027012638200,9.09463818359375,1.0319008827209473,-19.05365562438965,-1.0199298858642578
1696083027022638000,9.10463818359375,0.1604115068912506,-18.2276554107666,-1.0247182846069336
1696083027032638200,9.11463818359375,-1.6519991159439087,-15.000271797180176,-2.499546527862549
1696083027042638000,9.12463818359375,-2.233790159225464,-11.540351867675781,-3.9624037742614746
1696083027052638200,9.13463818359375,-2.52109432220459,-8.133402824401855,-5.28190803527832
1696083027062638000,9.14463818359375,-3.5266590118408203,-5.554847240447998,-5.5021748542785645
1696083027072638200,9.15463818359375,-4.965873718261719,-4.838681697845459,-5.159803867340088
1696083027082638000,9.16463818359375,-5.954679012298584,-5.571606636047363,-4.656722068786621
1696083027092638200,9.17463818359375,-6.423942565917969,-6.96503210067749,-4.364629745483398
1696083027102638000,9.18463818359375,-6.591536521911621,-8.736741065979004,-4.2760443687438965
1696083027112638200,9.19463818359375,-6.510133743286133,-10.19720458984375,-4.125209331512451
1696083027122638000,9.20463818359375,-6.232406139373779,-10.970531463623047,-3.426102638244629
1696083027132638200,9.21463818359375,-5.514145851135254,-11.367968559265137,-2.5282769203186035
1696083027142638000,9.22463818359375,-5.119102478027344,-11.336844444274902,-1.9728221893310547
1696083027152638200,9.23463818359375,-4.469974517822266,-10.884340286254883,-1.525106430053711
1696083027162638000,9.24463818359375,-2.6360161304473877,-10.53478717803955,-0.40940847992897034
1696083027172638200,9.25463818359375,0.05267243832349777,-10.247482299804688,1.091755986213684
1696083027182638000,9.26463818359375,3.071760892868042,-9.847650527954102,2.4205379486083984
1696083027192638200,9.27463818359375,5.430348873138428,-9.325715065002441,3.3279404640197754
1696083027202638000,9.28463818359375,6.462249755859375,-8.791808128356934,3.4596214294433594
1696083027212638200,9.29463818359375,6.093542575836182,-8.356062889099121,3.023876667022705
1696083027222638000,9.30463818359375,4.570530891418457,-8.111854553222656,2.1787235736846924
1696083027232638200,9.31463818359375,2.382230758666992,-8.28902530670166,1.1276689767837524
1696083027242638000,9.32463818359375,0.5626373887062073,-8.382399559020996,0.24181437492370605
1696083027252638200,9.33463818359375,-0.9696516990661621,-8.552388191223145,-0.5147533416748047
1696083027262638000,9.34463818359375,-2.537853717803955,-8.748712539672852,-1.3048399686813354
1696083027272638200,9.35463818359375,-3.732560396194458,-8.820538520812988,-1.7693150043487549
1696083027282638000,9.36463818359375,-4.180276393890381,-8.696040153503418,-1.9584569931030273
1696083027292638200,9.37463818359375,-3.6128504276275635,-8.597877502441406,-1.139639973640442
1696083027302638000,9.38463818359375,-2.2194249629974365,-8.691251754760742,-0.4118026793003082
1696083027312638200,9.39463818359375,-0.019153613597154617,-9.201216697692871,-0.090979665517807
1696083027322638000,9.40463818359375,2.408566951751709,-10.041581153869629,0.24660277366638184
1696083027332638200,9.41463818359375,3.6607344150543213,-10.826879501342773,1.0821791887283325
1696083027342638000,9.42463818359375,3.265691041946411,-11.188404083251953,2.1930887699127197
1696083027352638200,9.43463818359375,1.8986018896102905,-10.910676002502441,2.9448680877685547
1696083027362638000,9.44463818359375,0.22026655077934265,-10.213963508605957,3.064578056335449
1696083027372638200,9.45463818359375,-0.9552865028381348,-9.794978141784668,2.734178304672241
1696083027382638000,9.46463818359375,-1.4413094520568848,-9.783007621765137,2.3271639347076416
1696083027392638200,9.47463818359375,-1.194706678390503,-10.101436614990234,1.7741034030914307
1696083027402638000,9.48463818359375,0.0933738648891449,-10.281001091003418,1.115697979927063
1696083027412638200,9.49463818359375,1.867477297782898,-10.338461875915527,0.768538773059845
1696083027422638000,9.50463818359375,3.3255462646484375,-10.388740539550781,0.7829039692878723
1696083027432638200,9.51463818359375,3.869029998779297,-10.383952140808105,1.1827356815338135
1696083027442638000,9.52463818359375,3.4356794357299805,-10.137349128723145,1.5107412338256836
1696083027452638200,9.53463818359375,2.449268341064453,-9.775824546813965,1.7741034030914307
1696083027462638000,9.54463818359375,1.2210428714752197,-9.56274127960205,2.0446481704711914
1696083027472638200,9.55463818359375,-0.06224924325942993,-9.682451248168945,2.6791117191314697
1696083027482638000,9.56463818359375,-1.2186486721038818,-10.020033836364746,3.4739866256713867
1696083027492638200,9.57463818359375,-1.8387469053268433,-10.503662109375,4.343081951141357
1696083027502638000,9.58463818359375,-1.6352397203445435,-10.862792015075684,5.360917091369629
1696083027512638200,9.59463818359375,-0.4596867263317108,-11.027992248535156,6.028899192810059
1696083027522638600,9.604638671875,1.4748282432556152,-11.535563468933105,5.887641429901123
1696083027532638500,9.614638427734375,3.24414324760437,-12.531551361083984,5.308244228363037
1696083027542638600,9.624638671875,4.170699596405029,-13.664008140563965,4.551377296447754
1696083027552638700,9.634638671875,4.019864559173584,-14.26734733581543,3.9001545906066895
1696083027562638600,9.644638671875,3.2968156337738037,-14.42536449432373,3.2082302570343018
1696083027572638700,9.654638671875,2.829946517944336,-14.15481948852539,2.542642116546631
1696083027582638600,9.664638671875,3.2824504375457764,-13.877092361450195,2.298433542251587
1696083027592638500,9.674638427734376,2.8347349166870117,-13.7573823928833,2.0207061767578125
1696083027602638600,9.684638671875,0.9289502501487732,-14.152425765991211,1.6089035272598267
1696083027612638500,9.694638427734375,-0.7805097699165344,-14.95957088470459,0.768538773059845
1696083027622638600,9.704638671875,-1.742978811264038,-15.902886390686035,-0.21547815203666687
1696083027632638500,9.714638427734375,-1.9776105880737305,-17.13111114501953,-1.5705963373184204
1696083027642638600,9.724638671875,-2.3774423599243164,-18.361730575561523,-3.3662476539611816
1696083027652638500,9.734638427734374,-2.9017724990844727,-19.154212951660156,-5.351340293884277
1696083027662638600,9.744638671875,-3.9480385780334473,-18.99858856201172,-6.991368293762207
1696083027672638500,9.754638427734376,-4.247313976287842,-17.779939651489258,-7.601889610290527
1696083027682638600,9.764638671875,-3.3303346633911133,-15.44798755645752,-7.343316078186035
1696083027692638500,9.774638427734375,-2.1308395862579346,-13.410223007202148,-5.976226806640625
1696083027702638600,9.784638671875,1.2832920551300049,-11.806107521057129,-4.20421838760376
1696083027712638500,9.794638427734375,3.5386300086975098,-10.836456298828125,-2.5665841102600098
1696083027722638600,9.804638671875,2.1595699787139893,-10.185233116149902,-2.1978771686553955
1696083027732638500,9.814638427734375,-0.181959331035614,-9.71357536315918,-1.8100165128707886
1696083027742638600,9.824638671875,-1.1109095811843872,-9.141361236572266,-1.0295066833496094
1696083027752638500,9.834638427734374,-1.235408067703247,-8.408735275268555,-0.5841852426528931
1696083027762638600,9.844638671875,-1.1563993692398071,-7.573159217834473,-0.2513911724090576
1696083027772638500,9.854638427734375,-1.4891934394836426,-6.744765281677246,-0.11252748221158981
1696083027782638600,9.864638671875,-2.1164743900299072,-5.918766021728516,0.1604115068912506
1696083027792638700,9.874638671875,-2.801215887069702,-5.257966041564941,0.3519476354122162
1696083027802638600,9.884638671875,-2.6623523235321045,-4.915595531463623,0.6368576288223267
1696083027812638700,9.894638671875,-1.9177556037902832,-4.953902721405029,0.5195417404174805
1696083027822638000,9.90463818359375,-1.1803414821624756,-5.29387903213501,-0.12210428714752197
1696083027832638200,9.91463818359375,-1.237802267074585,-5.758354187011719,-0.646434485912323
1696083027842638000,9.92463818359375,-1.8339585065841675,-6.1845221519470215,-0.8475474119186401
1696083027852638200,9.93463818359375,-2.1930887699127197,-6.404788970947266,-1.0582371950149536
1696083027862638000,9.94463818359375,-2.188300371170044,-6.44549036026001,-1.2880805730819702
1696083027872638200,9.95463818359375,-2.2433669567108154,-6.40000057220459,-1.4245500564575195
1696083027882638000,9.96463818359375,-2.2673089504241943,-6.134243965148926,-1.6711528301239014
1696083027892638200,9.97463818359375,-2.3104045391082764,-5.686528205871582,-2.008735179901123
1696083027902638000,9.98463818359375,-2.4588451385498047,-5.147832870483398,-2.427720546722412
1696083027912638200,9.99463818359375,-2.6024973392486572,-4.541800498962402,-2.9041666984558105
1696083027922638000,10.00463818359375,-2.693476915359497,-3.971980571746826,-3.3901896476745605
1696083027932638200,10.01463818359375,-2.6455929279327393,-3.488351821899414,-3.869029998779297
1696083027942638000,10.02463818359375,-2.4612393379211426,-3.1100680828094482,-4.273650169372559
1696083027952638200,10.03463818359375,-1.968033790588379,-2.782062292098999,-4.587290287017822
1696083027962638000,10.04463818359375,-1.3623007535934448,-2.7964274883270264,-4.182670593261719
1696083027972638200,10.05463818359375,-0.4812345504760742,-3.5170822143554688,-2.408566951751709
1696083027982638000,10.06463818359375,0.42377370595932007,-4.675876140594482,-0.16759411990642548
1696083027992638200,10.07463818359375,2.3726539611816406,-6.3640875816345215,2.3582887649536133
1696083028002638000,10.08463818359375,8.748712539672852,-9.44063663482666,5.432743072509766
1696083028012638200,10.09463818359375,15.53657341003418,-13.903428077697754,9.148544311523438
1696083028022638000,10.10463818359375,15.634736061096191,-18.76874542236328,13.075035095214844
1696083028032638200,10.11463818359375,13.266571044921875,-22.4749698638916,15.711350440979004
1696083028042638000,10.12463818359375,14.173973083496094,-23.478139877319336,15.857396125793457
1696083028052638200,10.13463818359375,12.05031681060791,-21.440673828125,14.042292594909668
1696083028062638000,10.14463818359375,7.628225803375244,-17.66980743408203,8.588300704956055
1696083028072638200,10.15463818359375,4.728548526763916,-12.9649019241333,4.285621166229248
1696083028082638000,10.16463818359375,3.823540210723877,-8.753500938415527,1.987187385559082
1696083028092638200,10.17463818359375,3.2824504375457764,-6.534075736999512,0.5961562395095825
1696083028102638000,10.18463818359375,1.968033790588379,-8.348880767822266,-1.4101848602294922
1696083028112638200,10.19463818359375,0.5793967843055725,-11.971307754516602,-2.8419175148010254
1696083028122638000,10.20463818359375,-0.9074024558067322,-14.597746849060059,-3.2345664501190186
1696083028132638200,10.21463818359375,-2.650381326675415,-15.50305461883545,-3.31118106842041
1696083028142638000,10.22463818359375,1.867477297782898,-16.405668258666992,-2.7916390895843506
1696083028152638200,10.23463818359375,3.9264907836914062,-13.85075569152832,-1.2497732639312744
1696083028162638600,10.244638671875,-1.7118542194366455,-9.251494407653809,-2.427720546722412
1696083028172638700,10.254638671875,-5.463867664337158,-5.538087844848633,-3.0789434909820557
1696083028182638600,10.264638671875,-7.204452037811279,-3.5721490383148193,-2.846705913543701
1696083028192638700,10.274638671875,-7.19248104095459,-3.471592426300049,-2.889801502227783
1696083028202638600,10.284638671875,-6.775889873504639,-4.649539470672607,-2.7437551021575928
1696083028212638700,10.294638671875,-6.08396577835083,-6.787860870361328,-2.964021682739258
1696083028222638600,10.304638671875,-5.28190803527832,-9.186851501464844,-3.552995204925537
1696083028232638700,10.314638671875,-4.460397720336914,-11.640908241271973,-4.228160381317139
1696083028242638600,10.324638671875,-4.5154643058776855,-13.728652000427246,-4.132391929626465
1696083028252638700,10.334638671875,-5.5237226486206055,-15.11758804321289,-3.246537446975708
1696083028262638600,10.344638671875,-4.9922099113464355,-14.600141525268555,-2.346317768096924
1696083028272638700,10.354638671875,-2.8227639198303223,-13.309666633605957,-1.3766659498214722
1696083028282638600,10.364638671875,-0.6440402865409851,-11.60020637512207,-0.5841852426528931
1696083028292638700,10.374638671875,0.9289502501487732,-9.778219223022461,-0.16759411990642548
1696083028302638800,10.384638916015625,2.3918075561523438,-8.226776123046875,0.08619125932455063
1696083028312638700,10.394638671875,3.4356794357299805,-7.305008888244629,0.38067805767059326
1696083028322638800,10.404638916015625,3.648763418197632,-7.082347869873047,0.9624691009521484
1696083028332638700,10.414638671875,2.734178304672241,-7.455843448638916,1.623268723487854
1696083028342638600,10.424638671875,1.5490485429763794,-7.961019992828369,1.8483237028121948
1696083028352638700,10.434638671875,0.43095630407333374,-8.308178901672363,1.4532804489135742
1696083028362638600,10.444638671875,-0.4405331015586853,-8.612242698669434,0.9217676520347595
1696083028372638700,10.454638671875,-1.2114660739898682,-8.911518096923828,0.48602294921875
1696083028382638600,10.464638671875,-1.3407529592514038,-8.961795806884766,0.49799394607543945
1696083028392638700,10.474638671875,-1.278503656387329,-8.80856704711914,0.5578489899635315
1696083028402638600,10.484638671875,-1.5275006294250488,-8.530839920043945,0.3495534360408783
1696083028412638700,10.494638671875,-2.212242364883423,-8.384793281555176,0.3495534360408783
1696083028422638600,10.504638671875,-2.142810583114624,-8.370428085327148,0.49559974670410156
1696083028432638700,10.514638671875,-1.3766659498214722,-8.576330184936523,0.6248866319656372
1696083028442638600,10.524638671875,-0.3064578175544739,-9.26107120513916,0.8236053586006165
1696083028452638700,10.534638671875,1.2282254695892334,-10.19720458984375,1.0199298858642578
1696083028462638000,10.54463818359375,2.454056739807129,-10.83166790008545,1.278503656387329
1696083028472638200,10.55463818359375,2.6791117191314697,-10.93222427368164,1.6065093278884888
1696083028482638000,10.56463818359375,2.0829553604125977,-10.477325439453125,1.9369091987609863
1696083028492638200,10.57463818359375,1.0654197931289673,-9.639355659484863,2.209848165512085
1696083028502638000,10.58463818359375,-0.14365209639072418,-8.8971529006958,2.1978771686553955
1696083028512638200,10.59463818359375,-1.192312479019165,-8.660126686096191,1.6065093278884888
1696083028522638000,10.60463818359375,-1.678335428237915,-9.024045944213867,0.6440402865409851
1696083028532638200,10.61463818359375,-1.3503297567367554,-9.778219223022461,-0.31603461503982544
1696083028542638000,10.62463818359375,-0.10773907601833344,-10.75265884399414,-1.0319008827209473
1696083028552638200,10.63463818359375,1.8195933103561401,-11.59781265258789,-1.3862427473068237
1696083028562638000,10.64463818359375,3.8714241981506348,-11.868356704711914,-1.3072341680526733
1696083028572638200,10.65463818359375,5.262754440307617,-11.636119842529297,-0.7996633648872375
1696083028582638000,10.66463818359375,5.329792022705078,-11.059117317199707,0.019153613597154617
1696083028592638200,10.67463818359375,3.7253777980804443,-10.338461875915527,0.9528923034667969
1696083028602638000,10.68463818359375,1.4628572463989258,-10.07509994506836,1.5825673341751099
1696083028612638200,10.69463818359375,-0.5267243981361389,-10.302549362182617,2.0901381969451904
1696083028622638000,10.70463818359375,-1.8722656965255737,-10.858003616333008,2.87064790725708
1696083028632638200,10.71463818359375,-2.5258827209472656,-11.547533988952637,3.821146011352539
1696083028642638000,10.72463818359375,-2.365471363067627,-11.990461349487305,4.891354084014893
1696083028652638200,10.73463818359375,-1.170764684677124,-12.033556938171387,5.995380401611328
1696083028662638000,10.74463818359375,0.9768342971801758,-11.808502197265625,6.586748123168945
1696083028672638200,10.75463818359375,3.1699230670928955,-11.832444190979004,6.725611686706543
1696083028682638000,10.76463818359375,4.522646903991699,-12.59380054473877,6.790255069732666
1696083028692638200,10.77463818359375,4.89644193649292,-13.36473274230957,6.522104740142822
1696083028702638000,10.78463818359375,4.335899353027344,-13.56584644317627,5.801449775695801
1696083028712638200,10.79463818359375,3.5194764137268066,-13.192350387573242,4.357447147369385
1696083028722638000,10.80463818359375,3.552995204925537,-12.749423027038574,2.937685489654541
1696083028732638200,10.81463818359375,3.0885202884674072,-12.589012145996094,1.6950948238372803
1696083028742638000,10.82463818359375,1.7262194156646729,-12.948142051696777,0.8547300100326538
1696083028752638200,10.83463818359375,-0.090979665517807,-14.08778190612793,0.3926490843296051
1696083028762638000,10.84463818359375,-1.4844050407409668,-15.256451606750488,-0.6320692300796509
1696083028772638200,10.85463818359375,-1.2761094570159912,-16.580446243286133,-2.166752576828003
1696083028782638000,10.86463818359375,-0.730231523513794,-18.040908813476562,-4.335899353027344
1696083028792638200,10.87463818359375,-0.9983820915222168,-19.24758529663086,-6.045658588409424
1696083028802638000,10.88463818359375,-2.889801502227783,-19.78388786315918,-7.206846237182617
1696083028812638200,10.89463818359375,-4.41969633102417,-18.615516662597656,-7.8221564292907715
1696083028822638000,10.90463818359375,-4.611232280731201,-16.51819610595703,-7.589918613433838
1696083028832638200,10.91463818359375,-4.158728122711182,-14.08538818359375,-5.99298620223999
1696083028842638000,10.92463818359375,-2.0159177780151367,-12.217910766601562,-4.6040496826171875
1696083028852638200,10.93463818359375,0.689530074596405,-11.027992248535156,-3.3638534545898438
1696083028862638000,10.94463818359375,1.6328455209732056,-10.237905502319336,-1.8794482946395874
1696083028872638200,10.95463818359375,1.2330138683319092,-9.83568000793457,-0.9864110946655273
1696083028882638000,10.96463818359375,-0.47644615173339844,-9.593865394592285,-0.4644751250743866
1696083028892638200,10.97463818359375,-2.4420857429504395,-9.198822021484375,0.07900865375995636
1696083028902638000,10.98463818359375,-3.0190882682800293,-8.715193748474121,0.6703764796257019
1696083028912638200,10.99463818359375,-2.1547815799713135,-7.874828815460205,0.8188169598579407
1696083028922638000,11.00463818359375,-0.689530074596405,-6.838139533996582,0.7374141216278076
1696083028932638200,11.01463818359375,-0.4357447028160095,-6.081571578979492,1.0031704902648926
1696083028942638000,11.02463818359375,-1.2066776752471924,-5.600337028503418,0.912190854549408
1696083028952638200,11.03463818359375,-1.7310078144073486,-5.521328449249268,0.912190854549408
1696083028962638000,11.04463818359375,-2.0638017654418945,-5.540482044219971,0.6703764796257019
1696083036341286700,18.42328662109375,-0.5434837937355042,-9.617807388305664,-0.16519992053508759
1696083036351285500,18.433285400390623,-0.5171475410461426,-9.593865394592285,-0.15801730751991272
1696083036361285600,18.44328564453125,-0.5363011956214905,-9.644144058227539,-0.08619125932455063
1696083036371285500,18.453285400390627,-0.586579442024231,-9.703998565673828,-0.06464344263076782
1696083036381285600,18.46328564453125,-0.6440402865409851,-9.730335235595703,-0.011971008032560349
1696083036391285500,18.473285400390626,-0.6751648783683777,-9.692028045654297,0.0071826050989329815
1696083036401285600,18.48328564453125,-0.7015010714530945,-9.646537780761719,0.023942016065120697
1696083036411285500,18.493285400390626,-0.6727706789970398,-9.591471672058105,0.040701430290937424
1696083036421285600,18.50328564453125,-0.6200982332229614,-9.605836868286133,0
1696083036431285500,18.513285400390625,-0.586579442024231,-9.68005657196045,0.004788403399288654
1696083036441285600,18.52328564453125,-0.5841852426528931,-9.675268173217773,-0.014365210197865963
1696083036451285500,18.533285400390625,-0.5937620401382446,-9.711181640625,-0.07900865375995636
1696083036461285600,18.54328564453125,-0.5770025849342346,-9.692028045654297,-0.14604631066322327
1696083036471285500,18.553285400390624,-0.6105214357376099,-9.668086051940918,-0.20350714027881622
1696083036481285600,18.56328564453125,-0.5889736413955688,-9.675268173217773,-0.272938996553421
1696083036491285500,18.573285400390624,-0.5793967843055725,-9.754277229309082,-0.38307225704193115
1696083036501285600,18.58328564453125,-0.6272808313369751,-9.850045204162598,-0.45250412821769714
1696083036511285500,18.593285400390624,-0.6488286852836609,-9.847650527954102,-0.49559974670410156
1696083036521285600,18.60328564453125,-0.8068459630012512,-9.933841705322266,-0.7038952708244324
1696083036531285500,18.613285400390627,-0.9026140570640564,-9.80216121673584,-0.5123591423034668
1696083036541285600,18.62328564453125,-0.727837324142456,-9.759065628051758,-0.6919242739677429
1696083036551285500,18.633285400390626,-0.7852981686592102,-10.053552627563477,-1.1851298809051514
1696083036561285600,18.64328564453125,-1.072602391242981,-10.201992988586426,-1.2018892765045166
1696083036571285500,18.653285400390626,-1.1324573755264282,-9.98412036895752,-0.9696516990661621
1696083036581285600,18.66328564453125,-0.6560112833976746,-9.35205078125,-0.3423708379268646
1696083036591285500,18.673285400390625,0.10534487664699554,-8.50450325012207,0.31842881441116333
1696083036601285600,18.68328564453125,0.2322375625371933,-8.281843185424805,-0.272938996553421
1696083036611285500,18.693285400390625,-0.6847416758537292,-9.605836868286133,-0.8092401623725891
1696083036621285600,18.70328564453125,-1.434126853942871,-10.556334495544434,-1.4053963422775269
1696083036631285500,18.713285400390625,-2.123656988143921,-11.53316879272461,-2.626439332962036
1696083036641285600,18.72328564453125,-2.434903144836426,-11.90666389465332,-3.6104562282562256
1696083036651285500,18.733285400390624,-1.7932571172714233,-11.557110786437988,-3.971980571746826
1696083036661285600,18.74328564453125,-1.1492167711257935,-11.636119842529297,-4.199429988861084
1696083036671285500,18.753285400390624,-0.7589619159698486,-11.806107521057129,-4.041412353515625
1696083036681285600,18.76328564453125,-0.38307225704193115,-11.640908241271973,-3.2106244564056396
1696083036691285500,18.773285400390623,-0.15801730751991272,-11.174038887023926,-2.346317768096924
1696083036701285600,18.78328564453125,-0.08619125932455063,-10.158897399902344,-1.2114660739898682
1696083036711285500,18.793285400390626,-0.3998316824436188,-9.117419242858887,-0.33997663855552673
1696083036721285600,18.80328564453125,-1.0199298858642578,-7.759906768798828,0.768538773059845
1696083036731285500,18.813285400390626,-1.1827356815338135,-6.215646743774414,2.0039467811584473
1696083036741285600,18.82328564453125,-0.8092401623725891,-5.56442403793335,1.723825216293335
1696083036751285500,18.833285400390626,-0.7924807667732239,-7.154173851013184,0.40940847992897034
1696083036761285600,18.84328564453125,-0.9648633003234863,-8.566753387451172,0.37828385829925537
1696083036771285500,18.853285400390625,-1.2497732639312744,-10.132560729980469,0.1843535304069519
1696083036781285600,18.86328564453125,-1.1180921792984009,-10.642525672912598,0.31124621629714966
1696083036791285800,18.87328564453125,-0.6177040338516235,-10.096648216247559,-0.395043283700943
1696083036801285600,18.88328564453125,-0.2944868206977844,-9.431059837341309,-0.9600749015808105
1696083036811285800,18.89328564453125,-0.3902548849582672,-8.949825286865234,-1.316810965538025
1696083036821285600,18.90328564453125,-0.730231523513794,-8.50450325012207,-1.3527239561080933
1696083036831285800,18.91328564453125,-1.0342950820922852,-8.41112995147705,-0.8571242094039917
1696083036841285600,18.92328564453125,-1.1180921792984009,-8.341697692871094,-0.10534487664699554
1696083036851285500,18.933285400390623,-1.0031704902648926,-8.473379135131836,0.35913026332855225
1696083036861285600,18.94328564453125,-0.9672574996948242,-8.61463737487793,0.7086837291717529
1696083036871285500,18.953285400390627,-0.8619126081466675,-8.779836654663086,0.9026140570640564
1696083036881285600,18.96328564453125,-0.6224924325942993,-8.787019729614258,1.1444283723831177
1696083036891285500,18.973285400390626,-0.43335050344467163,-8.552388191223145,0.8690952062606812
1696083036901285600,18.98328564453125,-0.44532153010368347,-9.158121109008789,0.07900865375995636
1696083036911285500,18.993285400390626,-0.3519476354122162,-9.581894874572754,-0.3208230137825012
1696083036921285600,19.00328564453125,-0.363918662071228,-9.78061294555664,-0.47884035110473633
1696083036931285500,19.013285400390625,-0.5410895943641663,-10.467748641967773,-1.7310078144073486
1696083036941285600,19.02328564453125,-0.950498104095459,-10.98729133605957,-2.561795711517334
1696083036951285500,19.033285400390625,-1.5729905366897583,-11.435006141662598,-3.0095114707946777
1696083036961285600,19.04328564453125,-2.0374655723571777,-11.535563468933105,-2.6839001178741455
1696083036971285500,19.053285400390624,-2.248155355453491,-11.26262378692627,-1.8531121015548706
1696083036981285600,19.06328564453125,-1.8962076902389526,-11.030386924743652,-1.0534487962722778
1696083036991285500,19.073285400390624,-1.5155296325683594,-10.731111526489258,-0.7661445140838623
1696083037001285600,19.08328564453125,-1.316810965538025,-10.16368579864502,-0.7469909191131592
1696083037011285500,19.093285400390624,-1.0989385843276978,-9.715970039367676,-0.8858546018600464
1696083037021285600,19.10328564453125,-0.8786720037460327,-9.35205078125,-1.072602391242981
1696083037031285500,19.113285400390627,-2.604891538619995,-8.538022994995117,-1.5634137392044067
1696083037041285600,19.12328564453125,-4.288015365600586,-8.052000045776367,-1.86508309841156
1696083037051285800,19.13328564453125,-2.070984363555908,-9.146149635314941,-1.8531121015548706
1696083037061285600,19.14328564453125,-0.9840168952941895,-9.991303443908691,-2.451662540435791
1696083037071285800,19.15328564453125,-0.7972691655158997,-9.31853199005127,-2.911349296569824
1696083037081285600,19.16328564453125,-1.920149803161621,-9.914688110351562,-3.557783842086792
1696083037091285500,19.173285400390625,-2.691082715988159,-9.395146369934082,-3.270479440689087
1696083037101285600,19.18328564453125,-0.19632454216480255,-8.368034362792969,-2.1811177730560303
1696083037111285500,19.193285400390625,3.0621838569641113,-8.075942039489746,-0.9145850539207458
1696083037121285600,19.20328564453125,3.0406360626220703,-7.958625793457031,-0.6224924325942993
1696083037131285500,19.213285400390625,2.425326347351074,-8.341697692871094,-0.7493851184844971
1696083037141285600,19.22328564453125,1.2473790645599365,-9.1940336227417,-0.9816226959228516
1696083037151285500,19.233285400390624,-0.33279404044151306,-10.206781387329102,-1.8339585065841675
1696083037161285600,19.24328564453125,-1.3239935636520386,-10.431836128234863,-2.765302896499634
1696083037171285500,19.253285400390624,-1.5203180313110352,-10.369586944580078,-3.445256233215332
1696083037181285600,19.26328564453125,-1.4915876388549805,-10.170867919921875,-3.9169139862060547
1696083037191285500,19.273285400390623,-1.37906014919281,-9.78061294555664,-4.268861770629883
1696083037201285600,19.28328564453125,-1.5442601442337036,-9.850045204162598,-4.680664539337158
1696083037211285500,19.293285400390626,-1.9345149993896484,-10.50126838684082,-5.0161519050598145
1696083037221285600,19.30328564453125,-2.0207061767578125,-11.480496406555176,-5.126285076141357
1696083037231285500,19.313285400390626,-1.7932571172714233,-12.35677433013916,-5.262754440307617
1696083037241285600,19.32328564453125,-1.1563993692398071,-13.63527774810791,-5.025728702545166
1696083037251285500,19.333285400390626,-0.47405192255973816,-15.091252326965332,-3.205836057662964
1696083037261285600,19.34328564453125,-0.2513911724090576,-15.062520980834961,-2.2409727573394775
1696083037271285500,19.353285400390625,0.31364041566848755,-14.751275062561035,-1.3000515699386597
1696083037281285600,19.36328564453125,-0.7613561153411865,-14.310442924499512,-0.09576806426048279
1696083037291285800,19.37328564453125,-1.5705963373184204,-13.637672424316406,1.4460978507995605
1696083037301285600,19.38328564453125,-2.0398597717285156,-13.077428817749023,2.4396915435791016
1696083037311285800,19.39328564453125,-2.7222073078155518,-12.866739273071289,3.265691041946411
1696083037321285600,19.40328564453125,-2.6839001178741455,-11.521198272705078,4.060565948486328
1696083037331285800,19.41328564453125,-2.2864625453948975,-11.102212905883789,3.464409828186035
1696083037341285600,19.42328564453125,-1.8267759084701538,-11.090241432189941,2.4827871322631836
1696083037351285500,19.433285400390623,-1.558625340461731,-11.882721900939941,1.3335703611373901
1696083037361285600,19.44328564453125,-1.5442601442337036,-11.87314510345459,1.6328455209732056
1696083037371285500,19.453285400390627,-1.7262194156646729,-11.32966136932373,4.034229755401611
1696083037381285600,19.46328564453125,-2.580949544906616,-11.830049514770508,5.602731227874756
1696083037391285500,19.473285400390626,-2.2577321529388428,-12.620136260986328,5.028122901916504
1696083037401285600,19.48328564453125,-1.3024457693099976,-13.264176368713379,4.307168960571289
1696083037411285500,19.493285400390626,-0.031124621629714966,-13.630489349365234,3.155557870864868
1696083037421285600,19.50328564453125,0.727837324142456,-12.948142051696777,2.82515811920166
1696083037431285500,19.513285400390625,1.1061211824417114,-11.650485038757324,3.339911460876465
1696083037441285600,19.52328564453125,0.5841852426528931,-10.877157211303711,2.8778305053710938
1696083037451285500,19.533285400390625,-0.8595184087753296,-9.948206901550293,2.959233283996582
1696083037461285600,19.54328564453125,-0.14365209639072418,-9.646537780761719,3.6104562282562256
1696083037471285500,19.553285400390624,0.009576806798577309,-10.407894134521484,1.920149803161621
1696083037481285600,19.56328564453125,-0.019153613597154617,-9.972148895263672,0.5434837937355042
1696083037491285500,19.573285400390624,-0.33758243918418884,-9.143755912780762,-0.5339069962501526
1696083037501285600,19.58328564453125,-0.49320554733276367,-7.831733226776123,-0.6991068720817566
1696083037511285500,19.593285400390624,-0.524330198764801,-7.1565680503845215,-0.06224924325942993
1696083037521285600,19.60328564453125,0.22505496442317963,-7.321768283843994,0.05027823522686958
1696083037531285500,19.613285400390627,1.9512743949890137,-7.9753851890563965,0.3064578175544739
1696083037541285600,19.62328564453125,1.2713210582733154,-7.32655668258667,1.2641384601593018
1696083037551285800,19.63328564453125,1.5155296325683594,-7.343316078186035,2.889801502227783
1696083037561285600,19.64328564453125,-0.033518824726343155,-6.522104740142822,5.490203857421875
1696083037571285800,19.65328564453125,-1.6208745241165161,-6.045658588409424,7.32655668258667
1696083037581285600,19.66328564453125,-4.412513732910156,-6.306626319885254,7.709628582000732
1696083037591285500,19.673285400390625,-3.4763808250427246,-8.12861442565918,5.090372085571289
1696083037601285600,19.68328564453125,-1.3192051649093628,-7.115866661071777,4.158728122711182
1696083037611285500,19.693285400390625,1.580173134803772,-6.316203594207764,2.7988216876983643
1696083037621285600,19.70328564453125,5.657797813415527,-6.577171325683594,-2.293645143508911
1696083037631285500,19.713285400390625,6.421548366546631,-5.997774600982666,-2.4013843536376953
1696083037641285600,19.72328564453125,6.749553680419922,-6.036081790924072,-1.1492167711257935
1696083037651285500,19.733285400390624,8.803778648376465,-6.610690116882324,-0.6584054827690125
1696083037661285600,19.74328564453125,8.056788444519043,-7.45105504989624,-0.6512228846549988
1696083037671285500,19.753285400390624,10.35522174835205,-8.856451034545898,-0.6536170840263367
1696083037681285600,19.76328564453125,9.098265647888184,-11.267412185668945,-0.07661445438861847
1696083037691285500,19.773285400390623,7.40556526184082,-13.924976348876953,1.4987702369689941
1696083037701285600,19.78328564453125,6.799831867218018,-15.905280113220215,3.825934410095215
1696083037711285500,19.793285400390626,6.258742332458496,-16.25962257385254,6.033687591552734
1696083037721285600,19.80328564453125,5.839757442474365,-15.184625625610352,8.612242698669434
1696083037731285500,19.813285400390626,5.849334239959717,-13.594576835632324,11.243470191955566
1696083037741285600,19.82328564453125,6.309020519256592,-12.01679801940918,12.615347862243652
1696083037751285500,19.833285400390626,6.028899192810059,-11.463737487792969,12.557887077331543
1696083037761285600,19.84328564453125,4.592078685760498,-11.942577362060547,9.842862129211426
1696083037771285500,19.853285400390625,2.1092917919158936,-13.221080780029297,6.356904983520508
1696083037781285600,19.86328564453125,0.4357447028160095,-14.15481948852539,3.907337188720703
1696083037791285800,19.87328564453125,0.24181437492370605,-14.492402076721191,2.9328970909118652
1696083037801285600,19.88328564453125,1.2401964664459229,-14.241010665893555,3.5386300086975098
1696083037811285800,19.89328564453125,3.2345664501190186,-13.587393760681152,5.186140060424805
1696083037821285600,19.90328564453125,5.226841449737549,-13.405434608459473,6.7806782722473145
1696083037831285800,19.91328564453125,6.811803340911865,-13.54429817199707,7.786243438720703
1696083037841285600,19.92328564453125,7.6856865882873535,-13.599365234375,8.41352367401123
1696083037851285500,19.933285400390623,8.157344818115234,-13.683161735534668,8.387187957763672
1696083037861285600,19.94328564453125,7.5324578285217285,-13.652037620544434,8.04002857208252
1696083037871285500,19.953285400390627,6.234800338745117,-13.36233901977539,7.364863872528076
1696083037881285600,19.96328564453125,4.479551315307617,-12.744634628295898,6.368875980377197
1696083037891285500,19.973285400390626,2.497152328491211,-12.1101713180542,5.135861873626709
1696083038201285600,20.28328564453125,6.675333499908447,-1.3048399686813354,2.494758129119873
1696083038211285500,20.293285400390626,6.6920928955078125,-1.1444283723831177,1.800439715385437
1696083038221285600,20.30328564453125,7.096713066101074,-0.5219359993934631,0.9840168952941895
1696083038231285500,20.313285400390626,7.558794021606445,0.44771572947502136,0.6009446382522583
1696083038241285600,20.32328564453125,8.032846450805664,1.036689281463623,0.6655880808830261
1696083038251285500,20.333285400390626,8.478167533874512,1.0534487962722778,1.3192051649093628
