time,seconds_elapsed,z,y,x
1695713014313272300,0.320272216796875,8.787042617797852,2.7074787616729736,3.5306098461151123
1695713014323246800,0.330246826171875,10.027721405029297,2.4675984382629395,3.827319860458374
1695713014333211600,0.340211669921875,10.185647964477539,1.6301103830337524,3.032304525375366
1695713014343182600,0.3501826171875,9.160921096801758,0.34636107087135315,2.347957134246826
1695713014353275600,0.360275634765625,7.829914093017578,0.32243284583091736,1.7874385118484497
1695713014363298000,0.370298095703125,6.598806858062744,-0.865005373954773,1.3280165195465088
1695713014373318700,0.380318603515625,5.986244201660156,-1.8993029594421387,0.4181457459926605
1695713014383340500,0.390340576171875,6.316453456878662,-2.675175666809082,0.9876375198364258
1695713014393390000,0.40039013671875,6.464808464050293,-3.809971809387207,1.9597218036651611
1695713014403423500,0.410423583984375,6.2877397537231445,-4.456034183502197,2.4771697521209717
1695713014413458200,0.420458251953125,5.650650501251221,-4.9878387451171875,2.7834508419036865
1695713014423492000,0.4304921875,4.324428558349609,-5.696114540100098,3.511467218399048
1695713014433527800,0.44052783203125,3.5198421478271484,-5.0356950759887695,2.7690939903259277
1695713014443562500,0.4505625,2.6488547325134277,-5.73978328704834,1.2699905633926392
1695713014453568300,0.460568359375,2.8450660705566406,-5.207978248596191,0.1782652884721756
1695713014463590700,0.470590576171875,1.7102699279785156,-5.840281963348389,0.9780662655830383
1695713014473655600,0.480655517578125,-1.2011969089508057,-6.189633846282959,1.2652050256729126
1695713014483695900,0.49069580078125,-2.2402801513671875,-5.950351715087891,1.2747762203216553
1695713014493714400,0.50071435546875,-2.4221346378326416,-6.97986364364624,2.3670997619628906
1695713014503745500,0.51074560546875,-0.25304099917411804,-6.7351975440979,3.2620155811309814
1695713014513798400,0.52079833984375,2.255833625793457,-7.247859954833984,3.607180118560791
1695713014523838700,0.530838623046875,5.052444934844971,-8.224729537963867,3.7507495880126953
1695713014533834800,0.540834716796875,7.791628837585449,-8.27258586883545,4.665405750274658
1695713014543856400,0.5508564453125,9.649057388305664,-8.554939270019531,6.786643028259277
1695713014553898800,0.560898681640625,10.89392375946045,-8.521439552307129,9.405587196350098
1695713014563929000,0.57092919921875,11.827722549438477,-7.759923934936523,13.432707786560059
1695713014573986000,0.580986083984375,11.420942306518555,-7.027719974517822,17.536399841308594
1695713014584019200,0.591019287109375,9.538987159729004,-6.002993583679199,18.92962074279785
1695713014594029300,0.601029296875,7.728816986083984,-5.006981372833252,19.69113540649414
1695713014604060000,0.611059814453125,5.621936798095703,-4.326821327209473,22.277179718017578
1695713014614095400,0.621095458984375,4.1760735511779785,-3.5365917682647705,25.31785774230957
1695713014624126500,0.63112646484375,3.5820555686950684,-2.4400808811187744,27.012575149536133
1695713014634160600,0.64116064453125,3.6783666610717773,-1.8562321662902832,26.610580444335938
1695713014644192300,0.651192138671875,5.038087844848633,-1.669592022895813,24.987051010131836
1695713014654226400,0.661226318359375,6.684948444366455,-1.8179470300674438,23.584259033203125
1695713014664258000,0.671258056640625,7.704888820648193,-1.7748762369155884,21.912872314453125
1695713014674311700,0.681311767578125,7.825128078460693,-1.9615163803100586,19.829919815063477
1695713014684345600,0.691345703125,6.843472957611084,-2.042872428894043,17.603397369384766
1695713014694381000,0.701381103515625,4.928018093109131,-2.0859432220458984,15.841084480285645
1695713014704415200,0.711415283203125,2.6297121047973633,-2.076371908187866,14.462220191955566
1695713014714440700,0.721440673828125,1.0109676122665405,-2.105085611343384,13.035499572753906
1695713014724473900,0.731473876953125,-0.19561325013637543,-2.129014015197754,11.44546890258789
1695713014734513700,0.741513671875,-1.1437692642211914,-1.8083757162094116,10.794621467590332
1695713014744547600,0.751547607421875,-1.0336993932724,-1.7126628160476685,10.904690742492676
1695713014754572800,0.76157275390625,0.2829512655735016,-1.6552350521087646,10.732407569885254
1695713014764606000,0.77160595703125,1.810768485069275,-1.7940187454223633,10.272387504577637
1695713014774785300,0.781785400390625,3.0173492431640625,-1.9280169010162354,9.698110580444336
1695713014784818400,0.791818359375,3.6059837341308594,-2.286940336227417,9.080163955688477
1695713014794697000,0.801697021484375,3.524627685546875,-2.1816561222076416,8.692526817321777
1695713014804711700,0.811711669921875,2.644068956375122,-2.152942180633545,8.065009117126465
1695713014814761000,0.821760986328125,1.4416756629943848,-2.1720848083496094,7.576872825622559
1695713014824779000,0.831779052734375,0.6616154313087463,-2.334796667098999,7.265207767486572
1695713014834849800,0.841849853515625,-1.4500504732131958,-2.7661030292510986,6.393621921539307
1695713014844873200,0.851873291015625,-4.371088981628418,-2.6177480220794678,5.589633464813232
1695713014854906400,0.86190625,-12.238689422607422,-4.580460548400879,3.7842490673065186
1695713014864930800,0.871930908203125,-11.587244033813477,-2.775674343109131,4.751547336578369
1695713014874956300,0.881956298828125,-2.369492530822754,-0.8123632669448853,7.035496711730957
1695713014884980700,0.891980712890625,1.7676976919174194,-2.38265323638916,9.309874534606934
1695713014895020000,0.90202001953125,3.266202926635742,-3.5222349166870117,9.726823806762695
1695713014905046000,0.9120458984375,2.155334949493408,-3.5509488582611084,8.70209789276123
1695713014915081000,0.9220810546875,3.99900484085083,-4.3794636726379395,8.22293472290039
1695713014925108000,0.93210791015625,7.087540626525879,-5.830710411071777,9.367302894592285
1695713014935127000,0.942126953125,8.193622589111328,-6.309275150299072,9.415159225463867
1695713014945153000,0.952153076171875,4.76530647277832,-7.161718368530273,8.10807991027832
1695713014955217400,0.962217529296875,-2.4939193725585938,-7.2574310302734375,6.676573276519775
1695713014965247500,0.97224755859375,-4.524229526519775,-8.3300142288208,8.380861282348633
1695713014975274000,0.98227392578125,-1.0863415002822876,-4.513461589813232,8.654241561889648
1695713014985303800,0.9923037109375,-0.052043892443180084,-3.8769710063934326,8.668598175048828
1695713014995338200,1.002338134765625,-0.4061816334724426,-3.8673996925354004,8.299505233764648
1695713015005368600,1.01236865234375,-2.6668007373809814,-3.2063822746276855,7.820940971374512
1695713015015418000,1.022418212890625,-0.641276478767395,-8.837292671203613,10.459028244018555
1695713015025450200,1.0324501953125,1.8059829473495483,-7.176074981689453,9.147162437438965
1695713015035485400,1.0424853515625,1.2023934125900269,-4.858626365661621,11.033903121948242
1695713015045517800,1.052517822265625,3.2374889850616455,-6.922435760498047,12.09212875366211
1695713015055535000,1.06253515625,3.3332018852233887,-7.444071292877197,11.474183082580566
1695713015065566000,1.07256591796875,3.38105845451355,-8.473583221435547,9.553942680358887
1695713015075597600,1.08259765625,2.9216363430023193,-8.602795600891113,8.002795219421387
1695713015085628400,1.09262841796875,1.7964116334915161,-6.965506553649902,9.142376899719238
1695713015095668200,1.102668212890625,0.010169495828449726,-6.754340171813965,11.982059478759766
1695713015105700000,1.1127001953125,-0.8470591902732849,-5.9264235496521,14.337793350219727
1695713015115733500,1.1227333984375,-4.807180881500244,-3.1106693744659424,18.183059692382812
1695713015125765600,1.132765625,-4.256233215332031,-2.66560435295105,16.83709716796875
1695713015135782400,1.142782470703125,-2.3407788276672363,-4.758127689361572,15.362519264221191
1695713015145812700,1.152812744140625,-1.196411371231079,-4.13060998916626,10.962119102478027
1695713015155857000,1.16285693359375,6.584449768066406,-3.053241729736328,4.344169616699219
1695713015165888500,1.172888427734375,11.947961807250977,-4.331607341766357,0.6526423692703247
1695713015175919900,1.182919921875,11.373085975646973,-3.652045488357544,0.18783657252788544
1695713015185951700,1.19295166015625,8.36590576171875,-2.4496521949768066,3.1040892601013184
1695713015195992300,1.202992431640625,3.3332018852233887,-0.8745766878128052,5.536991596221924
1695713015206025000,1.21302490234375,-1.3543375730514526,-0.2805584669113159,6.034698486328125
1695713015216064300,1.223064208984375,-4.965106964111328,-0.3044866919517517,4.96211576461792
1695713015226097700,1.23309765625,-5.7649078369140625,-0.7740781307220459,4.1144585609436035
1695713015236124200,1.243124267578125,-4.371088981628418,-0.33798620104789734,3.473181962966919
1695713015246156800,1.25315673828125,-1.5649060010910034,0.31764721870422363,4.48833703994751
1695713015256187400,1.2631875,-0.8901300430297852,-1.0803594589233398,4.320241451263428
1695713015266219800,1.2732197265625,-1.7186448574066162,-0.47676992416381836,4.942973613739014
1695713015276246000,1.28324609375,-4.4380879402160645,-1.5397813320159912,5.100899696350098
1695713015286277600,1.293277587890625,-3.0305099487304688,0.054436713457107544,4.0666022300720215
1695713015296311300,1.303311279296875,-1.1341979503631592,0.21236300468444824,4.526622295379639
1695713015306343200,1.31334326171875,-0.5599204897880554,-0.9990034699440002,5.493920803070068
1695713015316377000,1.323377197265625,1.4656038284301758,-1.022931694984436,5.651846885681152
1695713015326409500,1.333409423828125,4.727021217346191,-1.8753747940063477,6.379265308380127
1695713015336441600,1.343441650390625,5.761318683624268,-3.28773832321167,7.758727550506592
1695713015346629400,1.35362939453125,5.124229907989502,-4.408177375793457,7.883154392242432
1695713015356661500,1.36366162109375,4.046861171722412,-5.1218366622924805,7.399205684661865
1695713015366656800,1.37365673828125,2.964707374572754,-6.438487529754639,8.33300495147705
1695713015376685300,1.383685302734375,2.3324038982391357,-7.16650390625,7.4949188232421875
1695713015386713900,1.3937138671875,1.0157532691955566,-7.0755767822265625,6.6382880210876465
1695713015396655600,1.403655517578125,0.32602208852767944,-7.35314416885376,7.327421188354492
1695713015406677000,1.413677001953125,-1.0863415002822876,-7.683353424072266,6.585646152496338
1695713015416716800,1.423716796875,-3.221935749053955,-8.617152214050293,7.035496711730957
1695713015426740000,1.433739990234375,-4.160520553588867,-8.191229820251465,7.23170804977417
1695713015436749600,1.44374951171875,-3.2650065422058105,-5.700900077819824,6.020341873168945
1695713015446771500,1.453771484375,-3.3607194423675537,-4.8777689933776855,4.694119930267334
1695713015456813800,1.463813720703125,-2.331207513809204,-5.289334297180176,3.2715866565704346
1695713015466837800,1.473837646484375,0.8147560954093933,-6.366703033447266,1.6582261323928833
1695713015476881000,1.483880859375,1.7629120349884033,-6.826723098754883,0.5665007829666138
1695713015486907000,1.493906982421875,2.6775684356689453,-7.094718933105469,0.494716078042984
1695713015496939300,1.503939208984375,7.690532207489014,-12.77348518371582,5.153541564941406
1695713015506965800,1.5139658203125,6.689733982086182,-20.27737808227539,5.14875602722168
1695713015517034800,1.52403466796875,4.956732273101807,-25.9848575592041,4.938187599182129
1695713015527065600,1.534065673828125,0.7956135272979736,-27.842884063720703,3.9086756706237793
1695713015537078800,1.544078857421875,-2.9347970485687256,-20.61237335205078,4.080958843231201
1695713015547107800,1.55410791015625,-4.931607246398926,-13.367504119873047,2.8935208320617676
1695713015557134000,1.564134033203125,-3.820739507675171,-8.770293235778809,1.428515076637268
1695713015567163000,1.574162841796875,-0.018544375896453857,-6.467201232910156,-0.36729827523231506
1695713015577228500,1.584228515625,3.2039895057678223,-6.294918060302734,-1.3776676654815674
1695713015587261200,1.59426123046875,3.1274192333221436,-7.137789726257324,-2.124826431274414
1695713015597296400,1.60429638671875,2.0165512561798096,-8.416155815124512,-2.9246275424957275
1695713015607329300,1.614329345703125,1.168893814086914,-9.158528327941895,-2.799602508544922
1695713015617327400,1.624327392578125,0.7525427341461182,-9.407382011413574,-2.3162522315979004
1695713015627356700,1.634356689453125,0.4504488706588745,-9.512666702270508,-1.7174484729766846
1695713015637392400,1.644392333984375,-0.018544375896453857,-9.82373332977295,-1.6217355728149414
1695713015647422200,1.654422119140625,-1.0001999139785767,-11.093125343322754,-1.9286150932312012
1695713015657494300,1.664494384765625,-1.8526428937911987,-13.927424430847168,-2.1104695796966553
1695713015667528400,1.674528564453125,-0.5982056856155396,-16.192829132080078,-2.4119651317596436
1695713015677526800,1.68452685546875,0.23988047242164612,-15.862021446228027,-4.858626365661621
1695713015687557400,1.694557373046875,1.058824062347412,-9.708877563476562,-8.660821914672852
1695713015697598200,1.70459814453125,1.5810575485229492,-7.085147857666016,-8.100900650024414
1695713015707629800,1.7146298828125,1.5858432054519653,-7.386643409729004,-5.289932727813721
1695713015717667000,1.7246669921875,1.576271891593933,-8.550153732299805,-2.9341988563537598
1695713015727699200,1.73469921875,1.5667005777359009,-9.483952522277832,-2.0195422172546387
1695713015737745200,1.7447451171875,1.5230315923690796,-9.416953086853027,-1.425524115562439
1695713015747778600,1.754778564453125,1.5230315923690796,-9.507881164550781,-1.3776676654815674
1695713015757797400,1.76479736328125,1.3986048698425293,-9.656235694885254,-1.186241865158081
1695713015767829500,1.77482958984375,0.7668996453285217,-9.69930648803711,-0.7310073375701904
1695713015777866500,1.784866455078125,0.48394837975502014,-9.493523597717285,-0.5730810165405273
1695713015787899100,1.794899169921875,0.5994020700454712,-9.268598556518555,-1.028315544128418
1695713015797919500,1.80491943359375,0.9583254456520081,-9.038887977600098,-1.5882359743118286
1695713015807950600,1.81495068359375,1.1736794710159302,-8.96231746673584,-2.0482561588287354
1695713015817990000,1.824989990234375,1.1066805124282837,-9.158528327941895,-2.014756679534912
1695713015828022000,1.83502197265625,0.7716853022575378,-9.254241943359375,-1.6265212297439575
1695713015838065700,1.845065673828125,0.3403790295124054,-9.354740142822266,-1.2675977945327759
1695713015848098800,1.855098876953125,-0.08075776696205139,-9.57487964630127,-1.0666006803512573
1695713015858108400,1.8651083984375,-0.32961133122444153,-9.948758125305176,-1.2532408237457275
1695713015868139300,1.87513916015625,-0.2147558331489563,-10.197611808776855,-1.583450436592102
1695713015878185700,1.885185791015625,0.747757077217102,-10.173684120178223,-2.124826431274414
1695713015888218000,1.895218017578125,1.4656038284301758,-9.996614456176758,-2.770888566970825
1695713015898246000,1.905245849609375,0.8243274092674255,-9.876375198364258,-3.0681967735290527
1695713015908278000,1.915278076171875,-0.44446679949760437,-9.603593826293945,-2.857030153274536
1695713015918285600,1.92528564453125,-0.5407779216766357,-9.129815101623535,-2.823530673980713
1695713015928315100,1.935315185546875,-0.04247260093688965,-9.029315948486328,-2.641676187515259
1695713015938357200,1.945357177734375,-0.8901300430297852,-9.029315948486328,-2.857030153274536
1695713015948387800,1.955387939453125,-0.6747759580612183,-9.263813018798828,-3.6329028606414795
1695713015958471700,1.9654716796875,-0.018544375896453857,-9.393025398254395,-3.8291144371032715
1695713015968508000,1.9755078125,0.46480581164360046,-9.637093544006348,-3.4893336296081543
1695713015978527500,1.985527587890625,0.7334001660346985,-9.742377281188965,-2.8187451362609863
1695713015988561700,1.995561767578125,0.33080771565437317,-9.790233612060547,-2.076970100402832
1695713015998571800,2.00557177734375,-0.15254244208335876,-9.866804122924805,-1.5355939865112305
1695713016008603600,2.015603759765625,-0.2961117923259735,-9.737591743469238,-0.99481600522995
1695713016018630400,2.02563037109375,-0.047258246690034866,-9.483952522277832,-0.9517452120780945
1695713016028661800,2.035661865234375,0.27816563844680786,-9.235098838806152,-1.0761719942092896
1695713016038719200,2.04571923828125,0.6089733839035034,-9.21117115020752,-1.2005987167358398
1695713016048753400,2.05575341796875,0.6759724020957947,-9.546165466308594,-1.3824533224105835
1695713016058740000,2.065739990234375,0.3068794906139374,-9.7998046875,-1.7461622953414917
1695713016068769300,2.075769287109375,-0.1908276081085205,-9.766305923461914,-2.014756679534912
1695713016078850300,2.085850341796875,-0.46839502453804016,-9.694520950317383,-2.287538528442383
1695713016088884700,2.095884765625,-0.6699903607368469,-9.507881164550781,-2.311466693878174
1695713016098880000,2.1058798828125,-0.760917603969574,-9.148957252502441,-2.062613010406494
1695713016108910300,2.115910400390625,-0.7704889178276062,-9.034101486206055,-1.9573289155960083
1695713016118946300,2.1259462890625,-0.8279166221618652,-9.163313865661621,-1.755733609199524
1695713016128977200,2.13597705078125,-0.851844847202301,-9.550951957702637,-1.4446666240692139
1695713016139038000,2.146037841796875,-0.7465606927871704,-9.790233612060547,-1.5308083295822144
1695713016149072100,2.156072021484375,-0.727418065071106,-9.967901229858398,-1.731805443763733
1695713016159093800,2.16609375,-0.6269195079803467,-9.987043380737305,-1.8179470300674438
1695713016169126700,2.176126708984375,-0.5306084156036377,-9.7998046875,-1.852044701576233
1695713016179140600,2.186140625,-0.5210371017456055,-9.4121675491333,-1.9573289155960083
1695713016189171500,2.19617138671875,-0.5407779216766357,-9.168100357055664,-1.94297194480896
1695713016199230500,2.20623046875,-0.4588237404823303,-9.06281566619873,-1.8035900592803955
1695713016209264000,2.21626416015625,-0.3200400173664093,-9.120243072509766,-1.7796618938446045
1695713016219305700,2.2263056640625,-0.20518454909324646,-9.31166934967041,-1.8035900592803955
1695713016229340200,2.236340087890625,-0.243469700217247,-9.460023880004883,-1.9525432586669922
1695713016239339500,2.246339599609375,-0.5407779216766357,-9.493523597717285,-2.2444677352905273
1695713016249370400,2.256370361328125,-0.8327022790908813,-9.613164901733398,-2.6321048736572266
1695713016259399700,2.266399658203125,-1.0145567655563354,-9.704092025756836,-2.6943182945251465
1695713016269430300,2.27643017578125,-0.9188438653945923,-9.512666702270508,-2.445464849472046
1695713016279487200,2.2864873046875,-0.9188438653945923,-9.426525115966797,-2.493321180343628
1695713016289520400,2.296520263671875,-0.7752745151519775,-9.488738059997559,-2.5124638080596924
1695713016299549200,2.306549072265625,-0.5066801905632019,-9.53659439086914,-2.5220351219177246
1695713016309582000,2.31658203125,-0.44446679949760437,-9.680164337158203,-2.7804598808288574
1695713016319633700,2.326633544921875,-0.4301098585128784,-9.517452239990234,-2.6847469806671143
1695713016329668400,2.33666845703125,-0.5647061467170715,-9.364311218261719,-2.7517459392547607
1695713016339665700,2.346665771484375,-0.7130611538887024,-9.024530410766602,-2.517249345779419
1695713016349696500,2.356696533203125,-0.7657032608985901,-8.794221878051758,-2.225325107574463
1695713016359730200,2.366730224609375,-0.9762716293334961,-8.363512992858887,-1.7748762369155884
1695713016369761300,2.37676123046875,-0.9571290612220764,-8.674580574035645,-2.2444677352905273
1695713016379804200,2.38680419921875,-0.6843472719192505,-9.139386177062988,-2.196611166000366
1695713016389836500,2.39683642578125,-0.5306084156036377,-9.464810371398926,-2.68953275680542
1695713016399860000,2.40685986328125,-0.47796630859375,-9.80937671661377,-2.953341245651245
1695713016409891600,2.4168916015625,-0.6604190468788147,-9.546165466308594,-2.737389087677002
1695713016419920000,2.426919921875,-0.7417750358581543,-9.56052303314209,-2.847458839416504
1695713016429951000,2.436950927734375,-1.0145567655563354,-9.345169067382812,-2.4119651317596436
1695713016440007400,2.44700732421875,-1.4213366508483887,-8.59322452545166,-1.607378602027893
1695713016450041000,2.457041015625,-1.5026925802230835,-7.9280195236206055,-1.4973087310791016
1695713016460074200,2.46707421875,-1.4117653369903564,-8.497511863708496,-2.3306093215942383
1695713016470108000,2.47710791015625,-1.454836130142212,-9.958329200744629,-3.235694408416748
1695713016480119800,2.487119873046875,-1.454836130142212,-10.89153003692627,-3.2548370361328125
1695713016490151200,2.497151123046875,-1.3782658576965332,-10.867602348327637,-2.8139593601226807
1695713016500206300,2.507206298828125,-1.4452649354934692,-9.795019149780273,-2.00518536567688
1695713016510240300,2.517240234375,-1.4835500717163086,-9.058030128479004,-2.115255117416382
1695713016520276000,2.52727587890625,-1.2394821643829346,-10.039685249328613,-3.0251259803771973
1695713016530310000,2.537309814453125,-1.0671988725662231,-10.479965209960938,-2.2683959007263184
1695713016540320300,2.5473203125,-0.7752745151519775,-9.924830436706543,-1.5308083295822144
1695713016550352000,2.557351806640625,-0.7034898400306702,-9.373882293701172,-1.7509479522705078
1695713016560391000,2.567390869140625,-0.9523434042930603,-9.192028045654297,-1.5355939865112305
1695713016570423000,2.577423095703125,-1.2059825658798218,-9.043673515319824,-1.7078771591186523
1695713016580471800,2.587471923828125,-1.0815558433532715,-9.651450157165527,-2.517249345779419
1695713016590505700,2.597505615234375,-1.100698471069336,-9.31166934967041,-1.9956140518188477
1695713016600506600,2.607506591796875,-1.2203395366668701,-8.755936622619629,-2.1583259105682373
1695713016610537200,2.617537109375,-1.397408366203308,-8.25822925567627,-2.4646072387695312
1695713016620580600,2.62758056640625,-1.6564314365386963,-7.645068168640137,-2.5603201389312744
1695713016630612500,2.637612548828125,-1.594218134880066,-7.362715244293213,-2.675175666809082
1695713016640655400,2.6476552734375,-1.2346965074539185,-7.726424217224121,-2.699103832244873
1695713016650688500,2.6576884765625,-0.7704889178276062,-8.741579055786133,-2.5363919734954834
1695713016660696300,2.6676962890625,-0.7465606927871704,-9.886545181274414,-2.517249345779419
1695713016670726700,2.6777265625,-0.7178468108177185,-10.609177589416504,-2.4502503871917725
1695713016680792000,2.6877919921875,-0.49232324957847595,-10.829317092895508,-2.3545374870300293
1695713016690826000,2.697825927734375,-0.1333998590707779,-10.594820022583008,-2.2540390491485596
1695713016700850000,2.707849853515625,-0.0568295381963253,-10.164112091064453,-2.1056840419769287
1695713016710882800,2.7178828125,-0.1094716340303421,-9.742377281188965,-2.0003998279571533
1695713016720920800,2.7279208984375,-0.2147558331489563,-9.455238342285156,-1.8855443000793457
1695713016730954500,2.73795458984375,-0.35832518339157104,-9.244669914245605,-1.828116536140442
1695713016740960300,2.747960205078125,-0.4061816334724426,-9.21117115020752,-1.7700905799865723
1695713016750991000,2.7579912109375,-0.31046873331069946,-9.244669914245605,-1.7174484729766846
1695713016761045800,2.768045654296875,-0.16689938306808472,-9.259027481079102,-1.76051926612854
1695713016771079000,2.778078857421875,0.014955141581594944,-9.230313301086426,-1.8376877307891846
1695713016781092900,2.7880927734375,0.17766708135604858,-9.259027481079102,-1.919043779373169
1695713016791124000,2.7981240234375,0.388235479593277,-9.33559799194336,-1.94297194480896
1695713016801151000,2.80815087890625,0.4695914387702942,-9.45045280456543,-2.0195422172546387
1695713016811181800,2.818181884765625,0.32123643159866333,-9.570094108581543,-2.1296122074127197
1695713016821233700,2.828233642578125,0.17766708135604858,-9.622735977172852,-2.100898265838623
1695713016831266600,2.8382666015625,0.06759724020957947,-9.737591743469238,-2.0003998279571533
1695713016841310700,2.848310791015625,0.17766708135604858,-9.732806205749512,-1.8179470300674438
1695713016851345000,2.858344970703125,0.3643072545528412,-9.589237213134766,-1.5930216312408447
1695713016861374500,2.86837451171875,0.46480581164360046,-9.426525115966797,-1.4446666240692139
1695713016871408000,2.878408203125,0.4983053207397461,-9.43609619140625,-1.3920245170593262
1695713016881415200,2.888415283203125,0.5030909776687622,-9.589237213134766,-1.3872389793395996
1695713016891446500,2.898446533203125,0.5419743061065674,-9.680164337158203,-1.3824533224105835
1695713016901483800,2.90848388671875,0.6711867451667786,-9.641879081726074,-1.44945228099823
1695713016911515600,2.918515625,0.6472585201263428,-9.608379364013672,-1.6504493951797485
1695713016921558800,2.928558837890625,0.537188708782196,-9.570094108581543,-1.8083757162094116
1695713016931591700,2.938591796875,0.40737804770469666,-9.479166984558105,-1.9334007501602173
1695713016941613600,2.948613525390625,0.32123643159866333,-9.340383529663086,-1.9812572002410889
1695713016951645200,2.958645263671875,0.29730820655822754,-9.259027481079102,-2.043470621109009
1695713016961677600,2.968677490234375,0.373878538608551,-9.31166934967041,-2.1583259105682373
1695713016971709400,2.97870947265625,0.48394837975502014,-9.474381446838379,-2.273181438446045
1695713016981766100,2.98876611328125,0.6520441770553589,-9.704092025756836,-2.335394859313965
1695713016991800600,2.998800537109375,0.8721838593482971,-9.866804122924805,-2.3641088008880615
1695713017001817000,3.008817138671875,1.0013962984085083,-9.963115692138672,-2.3258235454559326
1695713017011849500,3.018849365234375,1.1545369625091553,-9.78544807434082,-2.249253273010254
1695713017021895000,3.02889501953125,1.073180913925171,-9.689735412597656,-2.091326951980591
1695713017031928800,3.0389287109375,1.077966570854187,-9.493523597717285,-1.9334007501602173
1695713017041938400,3.0489384765625,1.1066805124282837,-9.426525115966797,-1.784447431564331
1695713017051969800,3.0589697265625,1.2502498626708984,-9.512666702270508,-1.6600207090377808
1695713017061996500,3.06899658203125,1.293320655822754,-9.641879081726074,-1.5451651811599731
1695713017072027400,3.07902734375,1.3794622421264648,-9.747162818908691,-1.454237937927246
1695713017082066000,3.08906591796875,1.4081761837005615,-9.69930648803711,-1.358525037765503
1695713017092097500,3.09909765625,1.4656038284301758,-9.45045280456543,-1.3441680669784546
1695713017102140200,3.10914013671875,1.3603196144104004,-9.292527198791504,-1.363310694694519
1695713017112172800,3.1191728515625,1.3076776266098022,-9.110671997070312,-1.4733805656433105
1695713017122202000,3.1292021484375,1.384247899055481,-9.014959335327148,-1.5882359743118286
1695713017132234500,3.139234375,1.456032633781433,-8.909674644470215,-1.6504493951797485
1695713017142266400,3.149266357421875,1.700698733329773,-8.93838882446289,-1.7653049230575562
1695713017152298800,3.159298828125,1.8634105920791626,-9.08674430847168,-1.856830358505249
1695713017162333700,3.169333740234375,2.131406784057617,-9.163313865661621,-1.9094724655151367
1695713017172366300,3.179366455078125,2.279761791229248,-9.330811500549316,-1.9716858863830566
1695713017182386200,3.18938623046875,2.3324038982391357,-9.364311218261719,-2.00518536567688
1695713017192417500,3.19941748046875,2.3946173191070557,-9.364311218261719,-1.9669002294540405
1695713017202475500,3.2094755859375,2.4089741706848145,-9.378668785095215,-1.8472590446472168
1695713017212509400,3.219509521484375,2.3946173191070557,-9.292527198791504,-1.731805443763733
1695713017222523000,3.22952294921875,2.3563320636749268,-9.235098838806152,-1.602592945098877
1695713017232554800,3.2395546875,2.3706889152526855,-9.268598556518555,-1.5930216312408447
1695713017242578400,3.249578369140625,2.241476535797119,-9.546165466308594,-1.5930216312408447
1695713017252609300,3.259609375,2.073979139328003,-9.775876998901367,-1.688734531402588
1695713017262693000,3.269693115234375,1.906481385231018,-9.934401512145996,-1.7509479522705078
1695713017272729900,3.279729736328125,1.6576279401779175,-9.886545181274414,-1.8903298377990723
1695713017282730200,3.289730224609375,1.317248821258545,-9.775876998901367,-1.9669002294540405
1695713017292763400,3.299763427734375,1.0636097192764282,-9.488738059997559,-2.172683000564575
1695713017302800100,3.309800048828125,0.714257538318634,-9.330811500549316,-2.5220351219177246
1695713017312833800,3.319833740234375,0.37866419553756714,-9.31166934967041,-2.9389843940734863
1695713017322854700,3.329854736328125,-0.004187439568340778,-9.474381446838379,-3.235694408416748
1695713017332887000,3.339886962890625,-0.32961133122444153,-9.766305923461914,-3.039483070373535
1695713017342906600,3.34990673828125,-0.4013960063457489,-10.020543098449707,-2.526820659637451
1695713017352937700,3.359937744140625,-0.3487538993358612,-10.087542533874512,-1.94297194480896
1695713017363121000,3.370120849609375,-0.17168502509593964,-10.087542533874512,-1.3968101739883423
1695713017373151000,3.38015087890625,0.048454657196998596,-10.010972023010254,-0.8847461938858032
1695713017383181800,3.390181884765625,0.1537388563156128,-9.90568733215332,-0.6113662123680115
1695713017393222400,3.400222412109375,0.11545369029045105,-9.82373332977295,-0.6065805554389954
1695713017403248600,3.41024853515625,0.06759724020957947,-9.704092025756836,-0.8895317912101746
1695713017413279700,3.42027978515625,0.05802594870328903,-9.469595909118652,-1.2532408237457275
1695713017423345200,3.43034521484375,-0.24825534224510193,-9.287740707397461,-1.693520188331604
1695713017433348900,3.440348876953125,-0.7800601720809937,-9.21117115020752,-2.0003998279571533
1695713017443380000,3.4503798828125,-1.6803597211837769,-9.45045280456543,-2.3258235454559326
1695713017453419300,3.460419189453125,-2.5082762241363525,-10.006186485290527,-2.7038896083831787
1695713017463449900,3.470449951171875,-3.0975089073181152,-10.771889686584473,-2.7900311946868896
1695713017473477400,3.480477294921875,-4.323232173919678,-11.796615600585938,-2.9246275424957275
1695713017483509200,3.49050927734375,-6.243472576141357,-12.936197280883789,-2.7038896083831787
1695713017493544000,3.5005439453125,-6.799205780029297,-13.927424430847168,-2.076970100402832
1695713017503578400,3.510578369140625,-4.596014022827148,-14.191232681274414,-2.00518536567688
1695713017513613000,3.520613037109375,-0.6747759580612183,-13.458431243896484,-2.3258235454559326
1695713017523647500,3.5306474609375,2.4329023361206055,-11.624332427978516,-2.3880369663238525
1695713017533682200,3.54068212890625,3.625126361846924,-10.494321823120117,-2.4406790733337402
1695713017543716600,3.550716552734375,1.6863417625427246,-10.04447078704834,-2.5220351219177246
1695713017553751300,3.560751220703125,-1.5601203441619873,-9.896116256713867,-2.612962245941162
1695713017563785700,3.57078564453125,-3.442075490951538,-9.617950439453125,-2.775674343109131
1695713017573817600,3.580817626953125,-3.5569307804107666,-9.20159912109375,-2.967698335647583
1695713017583810000,3.59081005859375,-2.9491539001464844,-8.617152214050293,-3.1686954498291016
1695713017593842000,3.600842041015625,-2.4364917278289795,-8.186444282531738,-3.479762315750122
1695713017603873800,3.610873779296875,-2.1206390857696533,-7.88494873046875,-3.906282901763916
1695713017613939700,3.620939697265625,-2.331207513809204,-7.3914289474487305,-4.322634220123291
1695713017623974400,3.630974365234375,-2.6668007373809814,-6.716054916381836,-4.231706619262695
1695713017634006300,3.64100634765625,-3.016152858734131,-5.979065418243408,-4.131208419799805
1695713017644004900,3.6510048828125,-3.2410783767700195,-5.418546676635742,-3.8913278579711914
1695713017654046700,3.661046630859375,-3.0592236518859863,-5.088337421417236,-3.747758388519287
1695713017664078600,3.67107861328125,-2.7433712482452393,-4.983053207397461,-3.7956149578094482
1695713017674153000,3.681153076171875,-2.5848467350006104,-5.198407173156738,-3.776472330093384
1695713017684146700,3.691146728515625,-2.2019951343536377,-4.911268711090088,-3.9493536949157715
1695713017694178600,3.701178466796875,-2.211566209793091,-4.815555572509766,-4.045066833496094
1695713017704218000,3.711218017578125,-2.221137523651123,-4.575675010681152,-4.155136585235596
1695713017714250800,3.721250732421875,-2.5465614795684814,-4.661816596984863,-4.150351047515869
1695713017724279000,3.731279052734375,-3.025724172592163,-4.997410297393799,-3.9110686779022217
1695713017734292700,3.741292724609375,-3.528217077255249,-5.313262462615967,-3.661616802215576
1695713017744306700,3.751306640625,-3.9355950355529785,-5.528616905212402,-3.5706896781921387
1695713017754320400,3.7613203125,-3.906881093978882,-5.725426197052002,-3.5132617950439453
1695713017764334300,3.771334228515625,-3.8255252838134766,-5.705685615539551,-3.690330743789673
1695713017774348000,3.78134814453125,-4.007379531860352,-5.821139335632324,-4.207778453826904
1695713017784361700,3.79136181640625,-4.055236339569092,-5.888138294219971,-4.246063709259033
1695713017794375700,3.801375732421875,-4.3758745193481445,-5.763711452484131,-4.169493675231934
1695713017804389600,3.8113896484375,-5.0225348472595215,-5.720640659332275,-4.145565032958984
1695713017814403300,3.8214033203125,-5.706881999969482,-5.86421012878418,-4.408775806427002
1695713017824431600,3.831431640625,-6.276971817016602,-6.376274108886719,-4.969294548034668
1695713017834460000,3.8414599609375,-6.559325218200684,-7.176074981689453,-5.816353797912598
1695713017844489200,3.8514892578125,-7.019345283508301,-8.057231903076172,-6.563512325286865
1695713017854523400,3.8615234375,-7.607979774475098,-8.665008544921875,-6.860222339630127
1695713017864557600,3.8715576171875,-8.254639625549316,-8.789435386657715,-6.697510719299316
1695713017874592000,3.881592041015625,-8.350353240966797,-8.569295883178711,-6.185446739196777
1695713017884626400,3.89162646484375,-8.426922798156738,-8.176873207092285,-5.994020938873291
1695713017894660600,3.90166064453125,-8.273782730102539,-7.8179497718811035,-6.008377552032471
1695713017904695000,3.911695068359375,-8.039285659790039,-7.482356548309326,-6.070590972900391
1695713017914729200,3.921729248046875,-7.698906898498535,-7.16650390625,-5.955137252807617
1695713017924763600,3.931763671875,-7.05763053894043,-6.845865726470947,-5.581857204437256
1695713017934797800,3.9417978515625,-6.04247522354126,-6.424130439758301,-5.031507968902588
1695713017944832300,3.951832275390625,-5.290530681610107,-6.017350673675537,-4.643272399902344
1695713017954862000,3.961862060546875,-4.922036170959473,-6.342774391174316,-5.275575637817383
1695713017964895200,3.971895263671875,-3.2315070629119873,-7.635497093200684,-6.8171515464782715
1695713017974928600,3.9819287109375,-1.459621787071228,-9.33559799194336,-8.335397720336914
1695713017984961800,3.9919619140625,-2.9252257347106934,-11.150553703308105,-9.283554077148438
1695713017994995200,4.0019951171875,-6.15254545211792,-12.414562225341797,-8.072187423706055
1695713018005028400,4.0120283203125,-6.296114444732666,-12.53420352935791,-4.633700847625732
1695713018015061800,4.022061767578125,-4.0695929527282715,-11.854043006896973,-1.5690934658050537
1695713018025095000,4.032094970703125,-2.2067806720733643,-11.241480827331543,-0.841675341129303
1695713018035128000,4.042128173828125,-0.7992027401924133,-10.499107360839844,-1.8131613731384277
1695713018045161500,4.052161376953125,0.24945175647735596,-9.263813018798828,-3.178266763687134
1695713018055192000,4.062192138671875,1.8681962490081787,-7.8658061027526855,-3.7046875953674316
1695713018065226200,4.072226318359375,3.084348440170288,-6.32363224029541,-3.9158542156219482
1695713018075260400,4.082260498046875,3.184846878051758,-5.227120876312256,-4.150351047515869
1695713018085294600,4.092294677734375,2.1122641563415527,-5.073980331420898,-3.9397823810577393
1695713018095328800,4.102328857421875,-0.14775680005550385,-6.103492259979248,-3.2452657222747803
1695713018105363000,4.112363037109375,-1.306481122970581,-7.625925540924072,-2.5124638080596924
1695713018115397000,4.122397216796875,-0.5162515044212341,-9.259027481079102,-0.966102123260498
1695713018125431300,4.132431396484375,1.2789636850357056,-10.456036567687988,-0.013160524889826775
1695713018135465500,4.142465576171875,2.691925525665283,-10.954341888427734,-0.18065811693668365
1695713018145499600,4.152499755859375,2.8354947566986084,-10.62831974029541,-0.6496513485908508
1695713018155530500,4.162530517578125,2.0691933631896973,-10.302896499633789,-1.3010972738265991
1695713018165562600,4.172562744140625,0.9583254456520081,-10.121041297912598,-2.043470621109009
1695713018175594800,4.1825947265625,0.6664010882377625,-9.780662536621094,-1.9956140518188477
1695713018185627000,4.192626953125,0.7956135272979736,-8.837292671203613,-2.124826431274414
1695713018195659300,4.2026591796875,1.1736794710159302,-7.961519241333008,-2.076970100402832
1695713018205691400,4.21269140625,1.7772690057754517,-7.611568927764893,-1.7940187454223633
1695713018215723500,4.2227236328125,2.294118642807007,-7.851449489593506,-1.3058829307556152
1695713018225755600,4.232755615234375,2.7876384258270264,-8.741579055786133,-1.0091729164123535
1695713018235787800,4.242787841796875,2.7110681533813477,-9.828518867492676,-0.4103690981864929
1695713018245820000,4.25281982421875,2.466402053833008,-10.72403335571289,0.14476576447486877
1695713018255855000,4.262855224609375,2.3850460052490234,-10.479965209960938,0.15912270545959473
1695713018265909500,4.272909423828125,1.3268201351165771,-10.04447078704834,0.37507495284080505
1695713018275964200,4.282964111328125,-0.38225340843200684,-10.144969940185547,0.5282155871391296
1695713018286018600,4.2930185546875,-1.28255295753479,-9.589237213134766,-0.36729827523231506
1695713018296073200,4.3030732421875,-1.4931213855743408,-8.765507698059082,-1.3298112154006958
1695713018306127600,4.313127685546875,-1.6037893295288086,-8.21994400024414,-1.9046868085861206
1695713018316182300,4.323182373046875,-0.9284151792526245,-7.7216386795043945,-2.0817556381225586
1695713018326236700,4.333236572265625,0.19680966436862946,-7.252645492553711,-2.0099709033966064
1695713018336291000,4.343291015625,1.3746765851974487,-7.032505512237549,-1.7365909814834595
1695713018346322400,4.353322509765625,2.3802602291107178,-6.984649181365967,-1.540379524230957
1695713018356338200,4.363338134765625,2.912065267562866,-7.161718368530273,-1.430309772491455
1695713018366353700,4.373353759765625,2.9551360607147217,-7.606783390045166,-1.6408780813217163
1695713018376369200,4.383369140625,2.38983154296875,-8.880961418151855,-1.7509479522705078
1695713018386384600,4.393384521484375,1.073180913925171,-10.235897064208984,-1.8616160154342651
1695713018396400400,4.403400390625,-0.6173482537269592,-11.236695289611816,-1.7174484729766846
1695713018406416000,4.413415771484375,-2.2307088375091553,-11.686545372009277,-0.9852447509765625
1695713018416431400,4.423431396484375,-3.5090744495391846,-11.858829498291016,-0.003589233849197626
1695713018426446800,4.43344677734375,-4.0695929527282715,-11.791830062866211,0.6574280261993408
1695713018436462600,4.443462646484375,-3.662813186645508,-11.868400573730469,0.9014959335327148
1695713018446478000,4.45347802734375,-2.489133834838867,-11.949756622314453,0.9158528447151184
1695713018456509700,4.463509765625,-0.9284151792526245,-11.974282264709473,0.9684949517250061
1695713018466543600,4.473543701171875,0.4743770956993103,-11.791830062866211,1.179063320159912
1695713018476577500,4.48357763671875,1.5134602785110474,-11.901900291442871,1.5337992906570435
1695713018486611500,4.493611572265625,1.7916259765625,-12.826128005981445,1.7395820617675781
1695713018496645400,4.503645263671875,1.384247899055481,-14.008780479431152,1.2652050256729126
1695713018506679300,4.51367919921875,0.8195417523384094,-15.019149780273438,0.3320041298866272
1695713018516713200,4.523713134765625,0.1824527233839035,-16.140186309814453,-0.534795880317688
1695713018526747100,4.5337470703125,-1.057627558708191,-15.440884590148926,-1.028315544128418
1695713018536781000,4.543781005859375,-2.757728099822998,-14.3060884475708,-0.38644084334373474
1695713018546815000,4.55381494140625,-3.4277184009552,-13.735998153686523,0.6239284873008728
1695713018556846800,4.563846923828125,-3.5377883911132812,-12.79741382598877,0.35114672780036926
1695713018566879500,4.57387939453125,-2.4460630416870117,-11.935399055480957,-0.39122650027275085
1695713018576912100,4.583912109375,-0.7417750358581543,-11.739188194274902,-1.6360924243927002
1695713018586944800,4.59394482421875,1.6193426847457886,-12.046067237854004,-3.0825538635253906
1695713018596977400,4.603977294921875,3.342773199081421,-12.529417991638184,-4.31306266784668
1695713018607010000,4.614010009765625,3.93679141998291,-13.936995506286621,-5.42871618270874
1695713018617042700,4.624042724609375,3.9846479892730713,-14.698511123657227,-6.300302028656006
1695713018627075300,4.634075439453125,3.7501513957977295,-14.58365535736084,-6.922435760498047
1695713018637108000,4.64410791015625,4.219144344329834,-13.922638893127441,-6.654439926147461
1695713018647140600,4.654140625,6.024528980255127,-12.787842750549316,-6.142375946044922
1695713018657173200,4.66417333984375,6.153741836547852,-11.619546890258789,-5.921638011932373
1695713018667204900,4.674204833984375,4.951946258544922,-10.824531555175781,-5.342574596405029
1695713018677236000,4.684236083984375,1.3363914489746094,-10.460822105407715,-4.662415027618408
1695713018687267000,4.69426708984375,-2.963510751724243,-10.690533638000488,-3.4271202087402344
1695713018697298000,4.7042978515625,-3.2745778560638428,-10.939985275268555,-1.94297194480896
1695713018707329000,4.7143291015625,-0.9762716293334961,-10.460822105407715,-0.10887342691421509
1695713018717360000,4.724360107421875,1.5038890838623047,-9.766305923461914,1.4572290182113647
1695713018727391200,4.73439111328125,3.855435371398926,-9.019744873046875,2.03629207611084
1695713018737422000,4.744422119140625,4.37228536605835,-8.46879768371582,1.6390835046768188
1695713018747453200,4.754453125,3.630510091781616,-7.573283672332764,0.8871390223503113
1695713018757484300,4.764484375,2.7732813358306885,-5.523830890655518,0.26979073882102966
1695713018767515400,4.774515380859375,2.365903377532959,-4.140181541442871,0.09690931439399719
1695713018777551600,4.784551513671875,1.7102699279785156,-2.809173822402954,-0.381655216217041
1695713018787615200,4.794615234375,1.3124631643295288,-2.215155601501465,-0.7070791125297546
1695713018797678800,4.804678955078125,0.40259242057800293,-1.8179470300674438,-1.2915260791778564
1695713018807742500,4.814742431640625,0.2111666053533554,-2.3539392948150635,-1.516451358795166
1695713018817806000,4.82480615234375,0.5180460810661316,-3.029313564300537,-1.3728820085525513
1695713018827869700,4.83486962890625,0.7238288521766663,-3.5222349166870117,-1.7078771591186523
1695713018837902000,4.844902099609375,0.7190431952476501,-3.7716867923736572,-2.1296122074127197
1695713018847918800,4.8549189453125,0.5132604837417603,-3.7094733715057373,-2.746960401535034
1695713018857935600,4.864935546875,0.27337998151779175,-3.6370904445648193,-3.3026933670043945
1695713018867952400,4.874952392578125,0.13459627330303192,-3.762115478515625,-3.7094733715057373
1695713018877969000,4.884968994140625,-0.5886343717575073,-4.087539196014404,-3.786043643951416
1695713018887985700,4.894985595703125,-1.3830515146255493,-4.355535507202148,-3.565903902053833
1695713018898002400,4.90500244140625,-2.4029922485351562,-4.637888431549072,-3.039483070373535
1695713018908019200,4.915019287109375,-3.772883176803589,-4.8299126625061035,-2.612962245941162
1695713018918036000,4.925035888671875,-5.142175674438477,-4.935196876525879,-2.8624141216278076
1695713018928052700,4.935052734375,-6.770491600036621,-5.227120876312256,-3.589832067489624
1695713018938084900,4.9450849609375,-10.873584747314453,-6.371488571166992,-5.232504844665527
1695713018948117000,4.955116943359375,-15.958930969238281,-8.900103569030762,-9.187840461730957
1695713018958148900,4.96514892578125,-14.278571128845215,-12.56291675567627,-12.54437255859375
1695713018968181000,4.975180908203125,-16.174882888793945,-19.319650650024414,-13.344173431396484
1695713018978213000,4.985213134765625,-16.964513778686523,-25.24248504638672,-13.171292304992676
1695713018988245000,4.995244873046875,-10.76830005645752,-24.586851119995117,-9.81954574584961
1695713018998277000,5.005277099609375,-6.818347930908203,-17.88275909423828,-6.687939167022705
1695713019008309000,5.01530908203125,-5.496313571929932,-11.298908233642578,-3.800400495529175
1695713019018341000,5.025341064453125,-4.979464054107666,-5.361119270324707,-1.3680963516235352
1695713019028373000,5.035373046875,-4.960321426391602,-0.5006981492042542,0.22133609652519226
1695713019038405000,5.045405029296875,-1.7665013074874878,1.8167506456375122,1.0067801475524902
1695713019048437200,5.055437255859375,3.146561861038208,0.8733802437782288,1.155135154724121
1695713019058468400,5.06546826171875,5.880959987640381,-3.077169895172119,0.5665007829666138
1695713019068499500,5.07549951171875,6.536593437194824,-6.318846225738525,-0.05623133108019829
1695713019078530600,5.085530517578125,4.195216178894043,-9.847661972045898,0.06340979784727097
1695713019088561700,5.095561767578125,-1.7425731420516968,-14.511871337890625,-2.392822742462158
1695713019098592800,5.1055927734375,-7.4500532150268555,-19.43929100036621,-7.942376613616943
1695713019108624000,5.115623779296875,-4.026522159576416,-21.01915168762207,-11.309078216552734
1695713019118655000,5.125655029296875,8.791828155517578,-19.99921226501465,-7.736593723297119
1695713019128686000,5.13568603515625,9.065208435058594,-17.499908447265625,-4.738985061645508
1695713019138717400,5.145717529296875,5.325226783752441,-12.337991714477539,-3.6711881160736084
1695713019148748300,5.155748291015625,1.8251254558563232,-5.629115104675293,-3.7286159992218018
1695713019158781000,5.165781005859375,-0.33439695835113525,-2.6368906497955322,-3.978067636489868
1695713019168814600,5.175814697265625,-0.1333998590707779,-2.871387243270874,-3.613760471343994
1695713019178848500,5.1858486328125,1.5619150400161743,-4.743771076202393,-2.249253273010254
1695713019188882400,5.19588232421875,3.108276605606079,-6.6969122886657715,-0.784247636795044
1695713019198916000,5.205916015625,3.7405800819396973,-8.602795600891113,0.8344969153404236
1695713019208950000,5.215949951171875,3.122633457183838,-10.671390533447266,1.1072787046432495
1695713019218983700,5.225983642578125,1.552343726158142,-12.170494079589844,0.058624155819416046
1695713019229017600,5.236017578125,0.6616154313087463,-12.79741382598877,-0.137587308883667
1695713019239051300,5.24605126953125,1.0636097192764282,-14.08116340637207,0.6191428303718567
1695713019249085200,5.256085205078125,2.547757863998413,-13.219148635864258,1.2077772617340088
1695713019259119000,5.266119140625,4.731806755065918,-10.226325988769531,1.6630117893218994
1695713019269155300,5.2761552734375,5.009374141693115,-7.726424217224121,1.3710874319076538
1695713019279214000,5.286214111328125,3.7645082473754883,-6.869793891906738,0.6239284873008728
1695713019289273000,5.296273193359375,2.5334010124206543,-6.754340171813965,-0.14715859293937683
1695713019299331800,5.306331787109375,-0.03768695518374443,-7.142575740814209,-1.2149556875228882
1695713019309390600,5.316390625,-3.0544381141662598,-7.152146816253662,-2.737389087677002
1695713019319449300,5.326449462890625,-4.29451847076416,-6.850651264190674,-3.9254255294799805
1695713019329508000,5.336508056640625,-3.576073408126831,-6.471987247467041,-4.0833516120910645
1695713019339540200,5.346540283203125,-2.6668007373809814,-6.711269378662109,-3.3984062671661377
1695713019349556500,5.356556396484375,-0.5258227586746216,-7.018148899078369,-2.306680917739868
1695713019359572700,5.36657275390625,1.6911274194717407,-7.247859954833984,-1.4829518795013428
1695713019369588700,5.376588623046875,3.1657042503356934,-7.448856830596924,-1.0378868579864502
1695713019379605000,5.38660498046875,4.204787731170654,-7.501499176025391,-0.784247636795044
1695713019389621200,5.396621337890625,4.381856441497803,-7.8658061027526855,-0.6448656916618347
1695713019399637200,5.40663720703125,3.476771354675293,-8.60758113861084,-0.778863787651062
1695713019409653500,5.416653564453125,1.7676976919174194,-9.814162254333496,-1.0666006803512573
1695713019419669800,5.426669677734375,-0.49232324957847595,-10.963912963867188,-1.205384373664856
1695713019429686000,5.43668603515625,-2.589632272720337,-11.863615036010742,-0.908674418926239
1695713019439702000,5.446701904296875,-3.868596076965332,-12.270992279052734,-0.3433700501918793
1695713019449734100,5.456734130859375,-4.031308174133301,-12.404991149902344,0.4325026869773865
1695713019459766300,5.466766357421875,-3.394218921661377,-12.696915626525879,1.1694921255111694
1695713019469798400,5.47679833984375,-2.02492618560791,-12.68734359741211,1.4141582250595093
1695713019479830500,5.48683056640625,-0.6939185857772827,-12.309277534484863,1.4189438819885254
1695713019489862700,5.496862548828125,0.3930211067199707,-11.562119483947754,1.1024930477142334
1695713019499894800,5.506894775390625,0.9583254456520081,-11.150553703308105,1.0929217338562012
1695713019509927000,5.516927001953125,0.8243274092674255,-11.68175983428955,1.3040883541107178
1695713019519959000,5.526958984375,-0.16689938306808472,-12.67298698425293,1.0785647630691528
1695713019529991200,5.5369912109375,-1.800000786781311,-13.688141822814941,0.3655036687850952
1695713019540023000,5.54702294921875,-2.9730820655822754,-14.665011405944824,-0.2189432680606842
1695713019550055400,5.557055419921875,-2.211566209793091,-15.192030906677246,-0.5826523303985596
1695713019560088800,5.5670888671875,-1.277767300605774,-14.248661041259766,-0.8321040868759155
1695713019570122200,5.577122314453125,-2.724228620529175,-13.5302152633667,-0.745364248752594
1695713019580155600,5.58715576171875,-3.844667673110962,-12.668201446533203,-0.8225327730178833
1695713019590188800,5.597188720703125,-1.8478572368621826,-11.710474014282227,-1.0761719942092896
1695713019600222200,5.60722216796875,1.0827522277832031,-11.653046607971191,-1.1431710720062256
1695713019610255600,5.617255615234375,3.012563705444336,-12.529417991638184,-1.033101201057434
1695713019620289000,5.6272890625,3.826721668243408,-13.956137657165527,-1.4207384586334229
1695713019630322200,5.637322265625,3.865006685256958,-15.335599899291992,-2.8187451362609863
1695713019640355600,5.64735546875,3.8315072059631348,-16.0582332611084,-4.04985237121582
1695713019650396200,5.657396240234375,4.0803608894348145,-16.077375411987305,-4.5236310958862305
1695713019660562000,5.66756201171875,5.224728107452393,-15.64666748046875,-4.5714874267578125
1695713019670602800,5.677602783203125,6.819544315338135,-14.645869255065918,-4.791627407073975
1695713019680631800,5.6876318359375,6.335596084594727,-13.463216781616211,-5.098506927490234
1695713019690660900,5.697660888671875,3.1800613403320312,-12.419347763061523,-5.112864017486572
1695713019700523300,5.707523193359375,-1.5122638940811157,-12.443276405334473,-4.700700283050537
1695713019710545400,5.71754541015625,-3.7776687145233154,-12.113066673278809,-3.7908291816711426
1695713019720603000,5.727602783203125,-1.6420745849609375,-11.054841041564941,-2.4406790733337402
1695713019730628600,5.737628662109375,0.9343972206115723,-9.900901794433594,-0.49651068449020386
1695713019740680000,5.747679931640625,2.4185454845428467,-8.871390342712402,0.7818548083305359
1695713019750708200,5.757708251953125,3.826721668243408,-8.124231338500977,1.4859428405761719
1695713019760744000,5.767743896484375,3.7118661403656006,-7.491927623748779,1.337587833404541
1695713019770773000,5.77777294921875,3.7118661403656006,-5.912066459655762,0.8249256014823914
1695713019780799700,5.7877998046875,3.13220477104187,-4.4751763343811035,0.5282155871391296
1695713019790828800,5.797828857421875,2.523829698562622,-3.211168050765991,0.4085744619369507
1695713019800873700,5.807873779296875,2.169692039489746,-2.310868501663208,0.26979073882102966
1695713019810904300,5.817904296875,1.7533408403396606,-1.9040886163711548,-0.013160524889826775
1695713019820908000,5.827907958984375,1.3076776266098022,-2.018944025039673,-0.3002992272377014
1695713019830935800,5.837935791015625,1.384247899055481,-2.4257240295410156,-0.6448656916618347
1695713019840990500,5.847990478515625,1.724626898765564,-3.105883836746216,-1.1766705513000488
1695713019851020800,5.858020751953125,1.6145570278167725,-3.2446675300598145,-1.784447431564331
1695713019861067000,5.86806689453125,1.2885349988937378,-3.129812002182007,-2.7326035499572754
1695713019871099100,5.87809912109375,0.9966106414794922,-3.2159535884857178,-3.4989049434661865
1695713019881131300,5.88813134765625,0.6951149702072144,-3.321237802505493,-4.059423446655273
1695713019891307800,5.898307861328125,0.2829512655735016,-3.3643085956573486,-4.394418716430664
1695713019901354200,5.908354248046875,-0.46839502453804016,-3.5222349166870117,-4.5475592613220215
1695713019911386400,5.918386474609375,-1.6372889280319214,-3.666402578353882,-4.552345275878906
1695713019921408300,5.928408203125,-3.6335012912750244,-3.872185230255127,-4.303491592407227
1695713019931440400,5.9384404296875,-5.6925249099731445,-4.360321044921875,-3.6472599506378174
1695713019941450500,5.948450439453125,-7.833503246307373,-5.207978248596191,-3.2165517807006836
1695713019951509000,5.958509033203125,-10.237093925476074,-7.003791809082031,-4.097708702087402
1695713019961541000,5.968541015625,-13.804193496704102,-9.68494987487793,-7.966304779052734
1695713019971555000,5.97855517578125,-12.832109451293945,-12.361920356750488,-12.687942504882812
1695713019981614000,5.988614013671875,-12.559328079223633,-17.154743194580078,-14.560325622558594
1695713019991646200,5.998646240234375,-13.847264289855957,-21.94338035583496,-14.914463996887207
1695713020001678300,6.00867822265625,-12.248260498046875,-22.451255798339844,-13.080365180969238
1695713020011709000,6.018708984375,-9.8871431350708,-17.499908447265625,-8.373682975769043
1695713020021727700,6.028727783203125,-7.368697166442871,-11.935399055480957,-2.7900311946868896
1695713020031746600,6.03874658203125,-6.583253383636475,-7.190432071685791,1.1982059478759766
1695713020041765400,6.048765380859375,-6.425326824188232,-3.3690943717956543,2.77866530418396
1695713020051796200,6.058796142578125,-3.830310821533203,-2.3443679809570312,2.2372891902923584
1695713020061829600,6.06882958984375,-2.5465614795684814,-4.844269275665283,0.16869398951530457
1695713020071860500,6.078860595703125,1.9830517768859863,-8.062017440795898,-0.08973085135221481
1695713020081744000,6.088743896484375,6.656234264373779,-10.61396312713623,0.25004997849464417
1695713020091944000,6.09894384765625,7.69531774520874,-12.40977668762207,-1.028315544128418
1695713020101973200,6.10897314453125,5.325226783752441,-13.793426513671875,-3.723830223083496
1695713020111993000,6.1189931640625,-0.6125625967979431,-14.92822265625,-6.501298904418945
1695713020122044700,6.129044677734375,-2.4221346378326416,-15.101103782653809,-8.397610664367676
1695713020132073000,6.139072998046875,5.157729148864746,-13.702498435974121,-7.889734268188477
1695713020142092500,6.149092529296875,7.336394309997559,-11.95454216003418,-6.764509677886963
1695713020152141800,6.159141845703125,5.478367328643799,-8.775078773498535,-5.758925914764404
1695713020162202400,6.169202392578125,2.7254250049591064,-5.346762180328369,-4.988437175750732
1695713020172222200,6.17922216796875,1.0205388069152832,-4.322035789489746,-4.073780536651611
1695713020182250500,6.18925048828125,0.8961120843887329,-5.093122959136963,-2.958127021789551
1695713020192300000,6.199300048828125,1.5667005777359009,-7.008577346801758,-1.4207384586334229
1695713020202320000,6.20931982421875,1.9016958475112915,-9.345169067382812,-0.3481557071208954
1695713020212339500,6.21933935546875,1.8203397989273071,-11.428120613098145,0.10169496387243271
1695713020222358800,6.22935888671875,1.6432709693908691,-12.744771957397461,0.3607180118560791
1695713020232376000,6.2393759765625,1.1353943347930908,-13.357932090759277,0.12083754688501358
1695713020242393600,6.2493935546875,1.0013962984085083,-13.630714416503906,0.5521438121795654
1695713020252411100,6.2594111328125,2.231905221939087,-12.385848045349121,1.5385849475860596
1695713020262428700,6.2694287109375,3.7357943058013916,-9.426525115966797,1.2891331911087036
1695713020272446000,6.279446044921875,3.0077781677246094,-7.396214962005615,0.9014959335327148
1695713020282463500,6.28946337890625,2.1170499324798584,-6.357131481170654,0.5138586759567261
1695713020292481000,6.29948095703125,1.164108157157898,-5.787639617919922,-0.22372891008853912
1695713020302498600,6.30949853515625,-0.5599204897880554,-6.103492259979248,-1.0713863372802734
1695713020312516000,6.31951611328125,-2.6428725719451904,-6.774080753326416,-2.139183521270752
1695713020322535400,6.329535400390625,-3.5952160358428955,-7.18086051940918,-2.958127021789551
1695713020332554500,6.339554443359375,-3.308077335357666,-7.128218650817871,-3.2452657222747803
1695713020342576000,6.349576171875,-2.6428725719451904,-7.357929706573486,-2.8911280632019043
1695713020352609000,6.359609130859375,-1.6564314365386963,-7.57806921005249,-2.3018953800201416
1695713020362642000,6.369641845703125,0.024526432156562805,-7.439285755157471,-1.8951154947280884
1695713020372674600,6.379674560546875,1.8873388767242432,-7.348358154296875,-1.583450436592102
1695713020382707500,6.38970751953125,3.2374889850616455,-7.491927623748779,-1.4111671447753906
1695713020392740400,6.399740234375,3.903291940689087,-8.076375007629395,-1.277169108390808
1695713020402773200,6.409773193359375,3.6059837341308594,-9.110671997070312,-0.9900303483009338
1695713020412806100,6.41980615234375,2.5525436401367188,-10.37946605682373,-0.9038887619972229
1695713020422838800,6.4298388671875,0.589830756187439,-11.418549537658691,-0.8608179688453674
1695713020432871700,6.43987158203125,-1.6325032711029053,-12.232707977294922,-0.38644084334373474
1695713020442904600,6.449904541015625,-3.3128628730773926,-12.495918273925781,0.31764721870422363
1695713020452928800,6.4599287109375,-3.8877387046813965,-12.433704376220703,0.9924231767654419
1695713020462966000,6.469966064453125,-2.9491539001464844,-12.615559577941895,1.4572290182113647
1695713020473003300,6.480003173828125,-1.1581261157989502,-12.840484619140625,1.4572290182113647
1695713020483040500,6.49004052734375,0.23988047242164612,-12.462418556213379,0.6861419081687927
1695713020493077500,6.500077392578125,0.8817551732063293,-11.327622413635254,-0.41994038224220276
1695713020503114800,6.51011474609375,0.7812566161155701,-10.585248947143555,-0.784247636795044
1695713020513152000,6.520152099609375,0.34995031356811523,-10.939985275268555,-0.3433700501918793
1695713020523189000,6.53018896484375,-0.7992027401924133,-11.925827980041504,-0.44386860728263855
1695713020533226200,6.540226318359375,-2.0967109203338623,-13.013365745544434,-0.9421738982200623
1695713020543263500,6.550263427734375,-3.1645078659057617,-13.83649730682373,-1.4350954294204712
1695713020553289700,6.560289794921875,-2.700300455093384,-14.880365371704102,-1.1766705513000488
1695713020563324400,6.570324462890625,-1.9052850008010864,-14.684154510498047,-0.21415762603282928
1695713020573359000,6.580359130859375,-2.6524438858032227,-13.592429161071777,0.9589236974716187
1695713020583394000,6.59039404296875,-2.8773691654205322,-12.127423286437988,1.648654818534851
1695713020593428700,6.6004287109375,-0.8805587291717529,-10.925628662109375,1.7587246894836426
1695713020603463400,6.61046337890625,1.4368900060653687,-10.594820022583008,0.8871390223503113
1695713020613498000,6.620498046875,2.5046870708465576,-11.389835357666016,-0.50129634141922
1695713020623533000,6.630532958984375,3.1992039680480957,-12.304491996765137,-1.784447431564331
1695713020633567700,6.640567626953125,3.266202926635742,-13.692927360534668,-3.0442686080932617
1695713020643602400,6.6506025390625,3.0077781677246094,-14.784652709960938,-4.059423446655273
1695713020653629400,6.66062939453125,2.5525436401367188,-15.292529106140137,-4.284348964691162
1695713020663660800,6.670660888671875,2.744567632675171,-15.407384872436523,-4.269991874694824
1695713020673692000,6.68069189453125,5.052444934844971,-14.80379581451416,-4.36091947555542
1695713020683723000,6.690722900390625,6.244668960571289,-13.927424430847168,-4.231706619262695
1695713020693754000,6.700754150390625,4.094717979431152,-13.257433891296387,-4.11206579208374
1695713020703785200,6.71078515625,0.6137589812278748,-12.763914108276367,-3.7190446853637695
1695713020713816300,6.72081640625,-2.8965117931365967,-12.711272239685059,-3.197409152984619
1695713020723847400,6.730847412109375,-2.685943365097046,-12.180065155029297,-2.392822742462158
1695713020733878800,6.740878662109375,-0.6269195079803467,-11.557332992553711,-1.1048858165740967
1695713020743910000,6.750909912109375,1.9639091491699219,-10.666604995727539,0.1543370634317398
1695713020753941500,6.76094140625,3.046063184738159,-9.92961597442627,1.2029916048049927
1695713020763994000,6.770994140625,2.644068956375122,-8.827720642089844,1.31365966796875
1695713020774046700,6.781046630859375,2.538186550140381,-7.070790767669678,0.6143572330474854
1695713020784099300,6.791099365234375,3.390629768371582,-5.385047435760498,0.17347964644432068
1695713020794152200,6.801152099609375,3.1034910678863525,-4.058825492858887,-0.13280165195465088
1695713020804204800,6.811204833984375,2.4329023361206055,-3.1585259437561035,-0.28594231605529785
1695713020814257400,6.82125732421875,1.973480463027954,-2.699103832244873,-0.4295116662979126
1695713020824310000,6.83131005859375,1.7676976919174194,-2.5501506328582764,-0.534795880317688
1695713020834362600,6.841362548828125,1.4991034269332886,-2.6081767082214355,-0.7022934556007385
1695713020844391400,6.851391357421875,1.5469598770141602,-2.9862427711486816,-0.8464609980583191
1695713020854407200,6.8614072265625,1.72941255569458,-3.2925238609313965,-1.2628121376037598
1695713020864422700,6.871422607421875,1.7916259765625,-3.335594654083252,-1.8807586431503296
1695713020874438400,6.8814384765625,1.6815561056137085,-3.1585259437561035,-2.6608188152313232
1695713020884454100,6.8914541015625,1.3746765851974487,-2.857030153274536,-3.3074791431427
1695713020894470000,6.901469970703125,0.8434699773788452,-2.7278177738189697,-3.8195431232452393
1695713020904485400,6.9114853515625,0.2111666053533554,-2.857030153274536,-4.222135543823242
1695713020914501000,6.921501220703125,-0.5742774605751038,-3.1106693744659424,-4.408775806427002
1695713020924516900,6.931516845703125,-1.4931213855743408,-3.4408788681030273,-4.3657050132751465
1695713020934532600,6.94153271484375,-2.6668007373809814,-4.106681823730469,-3.9972102642059326
1695713020944561400,6.9515615234375,-3.930809497833252,-5.02133846282959,-3.5754752159118652
1695713020954590700,6.9615908203125,-6.444469451904297,-6.160920143127441,-3.4366915225982666
1695713020964620300,6.971620361328125,-11.3718900680542,-8.334799766540527,-4.537988185882568
1695713020974649900,6.98164990234375,-18.406190872192383,-11.643474578857422,-7.516454219818115
1695713020984679400,6.991679443359375,-16.232311248779297,-15.215959548950195,-10.356136322021484
1695713020994708700,7.001708740234375,-15.034703254699707,-20.9521541595459,-11.145768165588379
1695713021004738300,7.01173828125,-13.378271102905273,-23.624338150024414,-11.634501457214355
1695713021014767900,7.021767822265625,-9.523433685302734,-20.17149543762207,-10.279565811157227
1695713021024797200,7.031797119140625,-6.68853759765625,-14.976078987121582,-7.124031066894531
1695713021034826800,7.04182666015625,-5.577669620513916,-10.537392616271973,-3.881756544113159
1695713021044856300,7.051856201171875,-5.472385406494141,-6.989434719085693,-2.076970100402832
1695713021054890800,7.061890869140625,-4.759324073791504,-4.729413986206055,-2.5459632873535156
1695713021064962000,7.071962158203125,-5.429314613342285,-4.968696117401123,-4.77248477935791
1695713021075033000,7.082033203125,-5.793622016906738,-7.080362319946289,-5.510072231292725
1695713021085104000,7.092104248046875,0.7860422134399414,-10.034899711608887,-2.87198543548584
1695713021095175200,7.102175048828125,6.2159552574157715,-12.835699081420898,0.6382854580879211
1695713021105209900,7.1122099609375,7.95434045791626,-13.563714981079102,1.6917256116867065
1695713021115259600,7.122259765625,8.495118141174316,-12.529417991638184,1.9405791759490967
1695713021125294300,7.13229443359375,5.756533145904541,-10.695319175720215,0.7483552694320679
1695713021135318000,7.142318115234375,0.9631111025810242,-9.29731273651123,-1.6217355728149414
1695713021145352400,7.1523525390625,-0.30568310618400574,-8.885746955871582,-4.054637908935547
1695713021155387100,7.16238720703125,2.217548370361328,-8.459226608276367,-6.041877269744873
1695713021165403600,7.172403564453125,3.9798622131347656,-7.6498541831970215,-6.39601469039917
1695713021175438000,7.18243798828125,4.022933006286621,-7.2335028648376465,-5.663212776184082
1695713021185472500,7.192472412109375,2.998206853866577,-7.731209754943848,-4.993222713470459
1695713021195492400,7.202492431640625,1.6528422832489014,-8.943174362182617,-3.7908291816711426
1695713021205526800,7.21252685546875,0.7286145091056824,-10.604392051696777,-2.0099709033966064
1695713021215410200,7.22241015625,0.37866419553756714,-11.662617683410645,-0.9852447509765625
1695713021225432300,7.232432373046875,0.1010967567563057,-11.906685829162598,-0.7310073375701904
1695713021235463000,7.242462890625,0.17288143932819366,-11.820544242858887,-0.2955136001110077
1695713021245486000,7.252486083984375,0.38344982266426086,-12.031710624694824,0.21655045449733734
1695713021255526400,7.2625263671875,1.058824062347412,-11.863615036010742,0.47557350993156433
1695713021265551000,7.272551025390625,2.241476535797119,-10.570892333984375,0.8584251403808594
1695713021275626500,7.28262646484375,2.7637102603912354,-8.483154296875,0.2548356056213379
1695713021285656300,7.29265625,2.586043119430542,-7.314858913421631,0.08733802288770676
1695713021295656200,7.30265625,2.011765718460083,-6.486343860626221,-0.24287149310112
1695713021305683000,7.312682861328125,0.9296116232872009,-6.108277797698975,-0.6400800347328186
1695713021315883000,7.322883056640625,-0.5838487148284912,-6.352345943450928,-1.3968101739883423
1695713021325909800,7.33290966796875,-2.695514678955078,-6.7932233810424805,-2.359323024749756
1695713021335931100,7.34293115234375,-3.3032915592193604,-6.836294174194336,-3.101696252822876
1695713021345982700,7.352982666015625,-2.565704107284546,-7.008577346801758,-3.2931220531463623
1695713021356009700,7.363009765625,-1.8047864437103271,-7.276573657989502,-3.139981508255005
1695713021366048300,7.37304833984375,-1.3112667798995972,-7.51585578918457,-2.6943182945251465
1695713021376079600,7.38307958984375,-0.3248256742954254,-7.472784996032715,-2.4406790733337402
1695713021386106400,7.3931064453125,1.1353943347930908,-7.463213920593262,-2.2301106452941895
1695713021396155600,7.40315576171875,2.255833625793457,-7.793423175811768,-1.9764715433120728
1695713021406179300,7.413179443359375,2.466402053833008,-8.392227172851562,-1.7174484729766846
1695713021416206300,7.423206298828125,2.121835470199585,-9.244669914245605,-1.4781662225723267
1695713021426233000,7.433233154296875,1.4847464561462402,-10.302896499633789,-1.2819547653198242
1695713021436261400,7.443261474609375,0.5611169338226318,-11.217552185058594,-1.0474581718444824
1695713021446300200,7.453300048828125,-0.6460621356964111,-11.56690502166748,-0.7214360237121582
1695713021456339000,7.4633388671875,-2.111067771911621,-11.49512004852295,-0.12323036789894104
1695713021466377700,7.473377685546875,-2.9826533794403076,-11.322836875915527,0.719641387462616
1695713021476406000,7.483406005859375,-2.724228620529175,-11.509476661682129,1.4476577043533325
1695713021486418000,7.49341796875,-1.6372889280319214,-11.95454216003418,1.7395820617675781
1695713021496446200,7.5034462890625,-0.25304099917411804,-11.91625690460205,1.7778671979904175
1695713021506495000,7.513494873046875,0.7573283910751343,-11.485548973083496,1.6342978477478027
1695713021516536600,7.52353662109375,1.3411771059036255,-11.528619766235352,1.6055840253829956
1695713021526564900,7.53356494140625,0.7334001660346985,-12.476775169372559,1.730010747909546
1695713021536586800,7.543586669921875,-0.5647061467170715,-13.635499954223633,1.1264212131500244
1695713021546660000,7.55366015625,-1.6372889280319214,-14.20559024810791,0.18783657252788544
1695713021556688400,7.5636884765625,-2.8390841484069824,-14.607583999633789,-0.9421738982200623
1695713021566718500,7.573718505859375,-3.6047873497009277,-14.799010276794434,-1.7940187454223633
1695713021576734500,7.583734375,-4.146163463592529,-14.43051528930664,-1.1335997581481934
1695713021586762800,7.5937626953125,-4.749752998352051,-13.654642105102539,-0.013160524889826775
1695713021596813600,7.6038134765625,-3.686741590499878,-12.385848045349121,0.3320041298866272
1695713021606857200,7.613857177734375,-1.7425731420516968,-11.452049255371094,-0.44386860728263855
1695713021616885200,7.62388525390625,0.32602208852767944,-11.265409469604492,-1.583450436592102
1695713021626913500,7.63391357421875,2.035693883895874,-11.897113800048828,-2.493321180343628
1695713021636942000,7.643942138671875,3.290131092071533,-12.749557495117188,-3.1543383598327637
1695713021646974700,7.653974609375,3.610769271850586,-13.994422912597656,-4.2987060546875
1695713021657007000,7.664007080078125,3.366701364517212,-15.000006675720215,-5.55314302444458
1695713021667039700,7.674039794921875,2.65842604637146,-15.292529106140137,-6.362515449523926
1695713021677072100,7.684072021484375,2.586043119430542,-15.215959548950195,-6.597012042999268
1695713021687104800,7.694104736328125,4.664209365844727,-14.550156593322754,-6.692724704742432
1695713021697137200,7.70413720703125,5.387440204620361,-13.118650436401367,-5.892923831939697
1695713021707166000,7.714166015625,3.342773199081421,-11.839686393737793,-5.160720348358154
1695713021717179100,7.72417919921875,0.9487541913986206,-10.978270530700684,-4.581058979034424
1695713021727192600,7.734192626953125,-2.3407788276672363,-10.5421781539917,-3.5754752159118652
1695713021737117400,7.744117431640625,-3.7393836975097656,-10.436894416809082,-2.3162522315979004
1695713021747306500,7.754306396484375,-2.0823538303375244,-9.627521514892578,-0.7645068168640137
1695713021757339400,7.76433935546875,0.8291130661964417,-9.31166934967041,1.0977073907852173
1695713021767358500,7.7743583984375,2.523829698562622,-9.168100357055664,1.9070796966552734
1695713021777367600,7.784367431640625,2.5812573432922363,-8.626724243164062,1.6295121908187866
1695713021787425500,7.794425537109375,2.3802602291107178,-7.520641803741455,1.0307083129882812
1695713021797444900,7.80444482421875,1.9304096698760986,-6.026922225952148,0.4133601188659668
1695713021807482600,7.814482666015625,1.7581263780593872,-4.686343193054199,-0.17108681797981262
1695713021817529000,7.824529052734375,1.7437695264816284,-3.6227335929870605,-0.7166503667831421
1695713021827548400,7.83454833984375,1.5810575485229492,-3.091526746749878,-1.2580264806747437
1695713021837584600,7.844584716796875,1.1784651279449463,-2.895315408706665,-1.6408780813217163
1695713021847623700,7.854623779296875,1.1258230209350586,-2.9479575157165527,-1.8616160154342651
1695713021857642800,7.864642822265625,1.23589289188385,-3.0963125228881836,-2.00518536567688
1695713021867662000,7.874662109375,1.456032633781433,-3.483949661254883,-2.163111686706543
1695713021877683500,7.884683349609375,1.0875378847122192,-3.6424741744995117,-2.589034080505371
1695713021887719400,7.894719482421875,0.5030909776687622,-3.5365917682647705,-3.226123094558716
1695713021897755400,7.90475537109375,0.014955141581594944,-3.2207393646240234,-3.8147575855255127
1695713021907791000,7.914791015625,-0.243469700217247,-3.10109806060791,-4.2556352615356445
1695713021917827000,7.9248271484375,-0.5694918036460876,-3.201596736907959,-4.514060020446777
1695713021927863000,7.934863037109375,-0.8374879360198975,-3.460021495819092,-4.4997029304504395
1695713021937899000,7.94489892578125,-1.2394821643829346,-3.8147575855255127,-4.155136585235596
1695713021947920400,7.95492041015625,-2.2785654067993164,-4.121038913726807,-3.5611183643341064
1695713021957925400,7.96492529296875,-3.954737663269043,-4.513461589813232,-2.982055187225342
1695713021967821600,7.974821533203125,-6.506682872772217,-5.241477966308594,-2.7517459392547607
1695713021977830000,7.984829833984375,-9.954740524291992,-6.865008354187012,-3.393620729446411
1695713021987903200,7.9949033203125,-14.790635108947754,-9.579665184020996,-5.586642742156982
1695713021997918200,8.004918212890624,-17.0267276763916,-13.544572830200195,-8.206185340881348
1695713022007959000,8.014958984375,-13.933405876159668,-17.98804473876953,-10.101899147033691
1695713022018151700,8.025151611328125,-13.177274703979492,-22.35494613647461,-10.949556350708008
1695713022028197400,8.035197265625,-11.185249328613281,-22.168304443359375,-9.613762855529785
1695713022038215000,8.04521484375,-8.402995109558105,-17.308483123779297,-6.960721015930176
1695713022048234500,8.055234375,-6.09033203125,-11.873186111450195,-4.217350006103516
1695713022058296000,8.065296142578125,-6.008975982666016,-7.310073375701904,-1.919043779373169
1695713022068319700,8.07531982421875,-5.913262844085693,-4.183252334594727,-1.4638092517852783
1695713022078337300,8.085337158203124,-3.686741590499878,-3.3020951747894287,-2.8283164501190186
1695713022088391400,8.095391357421875,-3.0113673210144043,-5.045266628265381,-5.194219589233398
1695713022098423000,8.105423095703125,1.475175142288208,-7.396214962005615,-4.925625324249268
1695713022108438300,8.115438232421875,6.053243160247803,-9.220742225646973,-3.9397823810577393
1695713022118455800,8.125455810546875,6.694519519805908,-11.054841041564941,-4.135993957519531
1695713022128473300,8.135473388671874,5.48793888092041,-12.878769874572754,-3.9014973640441895
1695713022138492000,8.145491943359374,0.48873403668403625,-14.296517372131348,-3.8147575855255127
1695713022148515000,8.15551513671875,-1.545763373374939,-14.827723503112793,-4.059423446655273
1695713022158538200,8.165538330078125,3.668795347213745,-13.47757339477539,-3.446262836456299
1695713022168561200,8.17556103515625,7.154539585113525,-11.59561824798584,-2.7804598808288574
1695713022178584300,8.185584228515625,6.632306098937988,-9.939187049865723,-2.541177749633789
1695713022188607500,8.195607421875,4.228715896606445,-7.899305820465088,-2.982055187225342
1695713022198630700,8.205630615234375,1.8251254558563232,-6.46241569519043,-3.8913278579711914
1695713022208653800,8.21565380859375,0.5276173949241638,-6.869793891906738,-3.5132617950439453
1695713022218677000,8.225677001953125,0.19202402234077454,-8.339585304260254,-2.4837498664855957
1695713022228700200,8.2357001953125,0.747757077217102,-9.886545181274414,-1.516451358795166
1695713022238749200,8.245749267578125,1.2502498626708984,-10.680961608886719,-1.2819547653198242
1695713022248798200,8.255798095703126,1.0109676122665405,-10.580463409423828,-1.2293126583099365
1695713022258847500,8.265847412109375,0.9774680733680725,-10.192826271057129,-0.4247260093688965
1695713022268896500,8.275896484375,1.4321043491363525,-9.6466646194458,0.015553346835076809
1695713022278945500,8.285945556640625,1.6002001762390137,-9.847661972045898,0.1495514214038849
1695713022288994600,8.29599462890625,1.4895321130752563,-9.163313865661621,0.6239284873008728
1695713022299043600,8.306043701171875,1.4799607992172241,-7.875377655029297,0.35114672780036926
1695713022309092600,8.316092529296874,1.7629120349884033,-7.18086051940918,0.5138586759567261
1695713022319142000,8.326141845703125,1.4991034269332886,-7.204789161682129,0.34636107087135315
1695713022329191000,8.33619091796875,0.3643072545528412,-7.707281589508057,-0.12801600992679596
1695713022339212800,8.346212890625,-1.5314065217971802,-8.420941352844238,-0.9613165259361267
1695713022349226200,8.356226318359376,-2.9587252140045166,-8.861818313598633,-1.5020943880081177
1695713022359239700,8.36623974609375,-2.977867841720581,-8.952746391296387,-1.8179470300674438
1695713022369252900,8.3762529296875,-2.5848467350006104,-8.569295883178711,-1.8664016723632812
1695713022379266300,8.386266357421874,-2.111067771911621,-8.325227737426758,-1.784447431564331
1695713022389279500,8.396279541015625,-1.2921242713928223,-8.066802978515625,-1.6504493951797485
1695713022399293000,8.40629296875,-0.3439682424068451,-7.880163192749023,-1.9621145725250244
1695713022409306000,8.41630615234375,0.48394837975502014,-7.9040913581848145,-2.344966173171997
1695713022419319600,8.426319580078125,1.3076776266098022,-8.21994400024414,-2.3545374870300293
1695713022429333000,8.4363330078125,1.8490537405014038,-8.74636459350586,-2.038684844970703
1695713022439346200,8.44634619140625,2.0309081077575684,-9.393025398254395,-1.363310694694519
1695713022449370600,8.45637060546875,1.662413477897644,-10.164112091064453,-0.7890332937240601
1695713022459406300,8.46640625,0.900897741317749,-10.743175506591797,-0.4773681163787842
1695713022469441800,8.47644189453125,0.024526432156562805,-10.98305606842041,-0.24287149310112
1695713022479477200,8.486477294921874,-0.6747759580612183,-10.781460762023926,0.020338991656899452
1695713022489513000,8.496512939453124,-0.9427721500396729,-10.714461326599121,0.5808576941490173
1695713022499548400,8.50654833984375,-0.6125625967979431,-10.905887603759766,1.2029916048049927
1695713022509584000,8.516583984375,-0.004187439568340778,-11.308480262756348,1.6199408769607544
1695713022519619600,8.52661962890625,0.49351966381073,-11.547761917114258,1.5194423198699951
1695713022529655000,8.536655029296876,0.6041877269744873,-11.648261070251465,1.0115658044815063
1695713022539690500,8.5466904296875,0.6711867451667786,-11.801401138305664,0.666999340057373
1695713022549726200,8.556726318359376,0.5802595019340515,-12.467204093933105,0.7722834944725037
1695713022559752200,8.566752197265625,-0.17647066712379456,-13.118650436401367,0.22612173855304718
1695713022569785900,8.576785888671875,-1.4021940231323242,-13.525429725646973,-0.8273184299468994
1695713022579819300,8.5868193359375,-2.915654420852661,-13.707284927368164,-1.7940187454223633
1695713022589853000,8.59685302734375,-3.7298123836517334,-13.683356285095215,-2.675175666809082
1695713022599886300,8.60688623046875,-2.647658348083496,-13.056436538696289,-3.250051259994507
1695713022609919700,8.616919677734375,-1.9818553924560547,-12.663415908813477,-2.3880369663238525
1695713022619953400,8.626953369140624,-3.1453654766082764,-12.730414390563965,-0.9421738982200623
1695713022629986800,8.63698681640625,-3.2410783767700195,-12.189637184143066,-0.47258245944976807
1695713022640020500,8.6470205078125,-0.8470591902732849,-11.112268447875977,-0.875174880027771
1695713022650054000,8.657053955078124,1.5469598770141602,-11.002198219299316,-1.2197413444519043
1695713022660087300,8.66708740234375,2.8211379051208496,-11.849257469177246,-1.7126628160476685
1695713022670114600,8.677114501953126,3.2853455543518066,-13.008580207824707,-2.225325107574463
1695713022680146200,8.687146240234375,3.352344512939453,-14.186447143554688,-3.163909673690796
1695713022690177800,8.697177734375,3.404986619949341,-14.732010841369629,-4.346562385559082
1695713022700209400,8.70720947265625,3.390629768371582,-14.94257926940918,-4.8538408279418945
1695713022710241000,8.717240966796876,4.611567497253418,-14.91865062713623,-4.95493745803833
1695713022720272600,8.727272705078125,6.61794900894165,-14.215161323547363,-4.638486862182617
1695713022730304300,8.73730419921875,5.330012321472168,-13.142578125,-4.485345840454102
1695713022740335900,8.7473359375,2.667997360229492,-12.208779335021973,-4.135993957519531
1695713022750367500,8.757367431640626,-0.8231309652328491,-11.925827980041504,-4.179064750671387
1695713022760399000,8.767399169921875,-3.073580741882324,-11.901900291442871,-3.6233317852020264
1695713022770430700,8.7774306640625,-2.2067806720733643,-11.169695854187012,-2.857030153274536
1695713022780463900,8.7874638671875,0.388235479593277,-10.52782154083252,-1.4350954294204712
1695713022790531800,8.79753173828125,2.0309081077575684,-9.637093544006348,-0.22372891008853912
1695713022800599600,8.807599609375,2.6488547325134277,-8.813364028930664,0.355932354927063
1695713022810667500,8.81766748046875,2.8833513259887695,-7.616354465484619,0.4468596279621124
1695713022820735200,8.8277353515625,3.208775281906128,-6.290132522583008,-0.02751746028661728
1695713022830803200,8.83780322265625,2.7349963188171387,-5.112265586853027,-0.3481557071208954
1695713022840832800,8.847832763671875,2.131406784057617,-4.183252334594727,-0.3529413342475891
1695713022850848300,8.85784814453125,1.8203397989273071,-3.493520975112915,-0.5252245664596558
1695713022860864000,8.867864013671875,1.231107234954834,-3.043670415878296,-0.7070791125297546
1695713022870879700,8.877879638671875,0.9774680733680725,-2.9144580364227295,-0.7022934556007385
1695713022880895500,8.8878955078125,0.8961120843887329,-3.0101709365844727,-0.8129615187644958
1695713022890911200,8.8979111328125,1.23589289188385,-2.967100143432617,-1.0426725149154663
1695713022900926700,8.9079267578125,1.5134602785110474,-3.005385160446167,-1.5499508380889893
1695713022910942500,8.9179423828125,1.470389485359192,-2.9383862018585205,-2.225325107574463
1695713022920958200,8.927958251953125,1.29810631275177,-2.8761727809906006,-2.919841766357422
1695713022930974000,8.937973876953125,0.9918249845504761,-2.8187451362609863,-3.3888349533081055
1695713022940989400,8.947989501953124,0.6472585201263428,-2.9001009464263916,-3.652045488357544
1695713022951019500,8.95801953125,0.12502498924732208,-3.139383316040039,-3.714258909225464
1695713022961051400,8.968051513671876,-0.5838487148284912,-3.4648072719573975,-3.5467612743377686
1695713022971083000,8.9780830078125,-2.0105693340301514,-3.7429728507995605,-3.3409786224365234
1695713022981115000,8.988114990234376,-3.9930226802825928,-4.154538154602051,-2.943770170211792
1695713022991146800,8.998146728515625,-5.827121257781982,-4.9399824142456055,-2.550748825073242
1695713023001178400,9.008178466796876,-8.896514892578125,-6.13699197769165,-3.1208388805389404
1695713023011210200,9.018210205078125,-14.307284355163574,-8.492725372314453,-5.481358528137207
1695713023021241900,9.028241943359374,-18.14238166809082,-12.237493515014648,-9.436694145202637
1695713023031273700,9.038273681640625,-14.589637756347656,-16.747962951660156,-12.534801483154297
1695713023041305600,9.0483056640625,-14.924633026123047,-22.570898056030273,-14.085948944091797
1695713023051337200,9.058337158203125,-13.454841613769531,-24.11247444152832,-12.831511497497559
1695713023061368000,9.0683681640625,-9.959526062011719,-19.31007957458496,-8.517251968383789
1695713023071401700,9.078401611328125,-7.000202655792236,-13.58764362335205,-3.8673996925354004
1695713023081435600,9.088435546875,-5.601597785949707,-8.684151649475098,-0.7986045479774475
1695713023091469600,9.098469482421875,-5.017749309539795,-5.270191669464111,0.3367897868156433
1695713023101503500,9.10850341796875,-3.7298123836517334,-3.982254981994629,-0.6640082597732544
1695713023111537400,9.118537353515626,-4.855037212371826,-5.131408214569092,-2.445464849472046
1695713023121571300,9.1285712890625,-5.438885688781738,-7.827520847320557,-2.148754835128784
1695713023131605200,9.138605224609375,0.4408775866031647,-11.322836875915527,0.3032902777194977
1695713023141639200,9.14863916015625,7.317251682281494,-14.105091094970703,1.0785647630691528
1695713023151673000,9.158673095703126,6.977470874786377,-14.56929874420166,-0.6305087804794312
1695713023161704200,9.1687041015625,2.6632115840911865,-13.783854484558105,-2.0578274726867676
1695713023171738000,9.178738037109374,1.7724833488464355,-11.700902938842773,-3.7525441646575928
1695713023181771800,9.188771728515626,2.461616277694702,-9.440881729125977,-5.620141983032227
1695713023191805700,9.1988056640625,3.716651678085327,-7.630711555480957,-6.970292568206787
1695713023201839600,9.208839599609375,4.070789337158203,-5.662614822387695,-7.34895658493042
1695713023211873300,9.218873291015624,3.3571300506591797,-4.034897327423096,-6.774080753326416
1695713023221907200,9.2289072265625,1.9543378353118896,-3.5844483375549316,-5.744568824768066
1695713023231940900,9.23894091796875,1.0348957777023315,-4.460819721221924,-4.212564468383789
1695713023241974800,9.248974853515625,1.1928220987319946,-6.965506553649902,-2.2396819591522217
1695713023252008400,9.259008544921874,1.3938192129135132,-10.374680519104004,-0.15194423496723175
1695713023262042400,9.26904248046875,0.9152546525001526,-12.830913543701172,0.96370929479599
1695713023272077000,9.2790771484375,0.5515456199645996,-13.592429161071777,0.3655036687850952
1695713023282131500,9.28913134765625,0.33080771565437317,-13.458431243896484,-0.2907279431819916
1695713023292185600,9.299185546875,0.7046862840652466,-13.12822151184082,0.0011964113218709826
1695713023302239700,9.30923974609375,1.4991034269332886,-13.156935691833496,0.31764721870422363
1695713023312294100,9.319294189453124,2.7493531703948975,-12.136994361877441,0.5856433510780334
1695713023322348300,9.329348388671875,4.611567497253418,-9.728020668029785,0.50907301902771
1695713023332402400,9.33940234375,3.9942193031311035,-7.9519476890563965,0.19262222945690155
1695713023342433800,9.349433837890626,2.7876384258270264,-7.204789161682129,0.07776673883199692
1695713023352450000,9.359449951171875,2.0787646770477295,-6.692126750946045,-0.31465616822242737
1695713023362466600,9.369466552734375,0.9056833982467651,-6.510272026062012,-1.0474581718444824
1695713023372482800,9.37948291015625,-1.5601203441619873,-6.850651264190674,-1.9142581224441528
1695713023382499000,9.3894990234375,-3.7872400283813477,-7.2335028648376465,-2.455035924911499
1695713023392515600,9.399515625,-3.9116668701171875,-7.16650390625,-3.077768087387085
1695713023402531800,9.40953173828125,-2.8630123138427734,-6.999006271362305,-3.551547050476074
1695713023412548000,9.419548095703124,-2.039283037185669,-7.161718368530273,-3.3888349533081055
1695713023422564600,9.429564697265626,-0.9810572862625122,-7.3675007820129395,-2.8187451362609863
1695713023432580900,9.439580810546875,0.8003991842269897,-7.405786037445068,-2.469393014907837
1695713023442620000,9.449619873046874,2.4472594261169434,-7.338787078857422,-2.273181438446045
1695713023452714000,9.4597138671875,3.1513473987579346,-7.57806921005249,-2.1439690589904785
1695713023462808000,9.46980810546875,3.0269205570220947,-8.210372924804688,-2.076970100402832
1695713023472846800,9.479846923828125,2.3371894359588623,-9.330811500549316,-2.0721843242645264
1695713023482884900,9.489884765625,1.1018948554992676,-10.633105278015137,-1.923829436302185
1695713023492924400,9.49992431640625,-0.7369893789291382,-11.643474578857422,-1.3824533224105835
1695713023502966800,9.509966796875,-2.513062000274658,-12.065210342407227,-0.6448656916618347
1695713023513006000,9.520006103515625,-3.686741590499878,-12.084352493286133,0.3415754437446594
1695713023523009300,9.53000927734375,-3.6771702766418457,-12.28534984588623,1.423729419708252
1695713023532912400,9.539912353515625,-2.6811578273773193,-12.462418556213379,1.8448662757873535
1695713023542938000,9.549938232421875,-1.34476637840271,-12.357133865356445,1.8735800981521606
1695713023552946200,9.5599462890625,-0.23389841616153717,-11.925827980041504,1.801795482635498
1695713023562970000,9.56997021484375,0.5994020700454712,-11.940184593200684,1.8065811395645142
1695713023573035800,9.580035888671874,0.40737804770469666,-12.653843879699707,1.7922241687774658
1695713023583063800,9.590063720703125,-0.4253242313861847,-13.635499954223633,0.906281590461731
1695713023593082000,9.60008203125,-1.5170495510101318,-14.449657440185547,-0.3577269911766052
1695713023603109000,9.610109130859374,-2.5848467350006104,-15.282958030700684,-1.7700905799865723
1695713023613134300,9.62013427734375,-2.93001127243042,-14.799010276794434,-2.416750907897949
1695713023623161300,9.630161376953126,-3.6771702766418457,-13.444073677062988,-1.4781662225723267
1695713023633223400,9.640223388671876,-4.663012981414795,-12.56291675567627,-0.17587246000766754
1695713023643253800,9.650253662109375,-3.102294445037842,-11.7056884765625,0.4085744619369507
1695713023653270300,9.660270263671874,-0.4013960063457489,-11.308480262756348,0.24526432156562805
1695713023663299300,9.67029931640625,1.7198412418365479,-11.7056884765625,-0.6065805554389954
1695713023673346600,9.6803466796875,3.0317063331604004,-12.53420352935791,-1.7461622953414917
1695713023683544000,9.6905439453125,3.4959139823913574,-13.286148071289062,-3.063411235809326
1695713023693581600,9.70058154296875,3.6783666610717773,-14.296517372131348,-4.590630054473877
1695713023703612400,9.7106123046875,3.2757742404937744,-14.765510559082031,-5.653641700744629
1695713023713638100,9.72063818359375,2.888136863708496,-15.004792213439941,-6.099305152893066
1695713023723655000,9.730655029296875,3.6400814056396484,-14.70808219909668,-6.228517532348633
1695713023733685800,9.740685791015625,5.7517476081848145,-13.98963737487793,-6.056233882904053
1695713023743744300,9.750744140625,5.277370452880859,-13.099507331848145,-5.897709846496582
1695713023753766700,9.7607666015625,2.888136863708496,-12.232707977294922,-5.481358528137207
1695713023763797800,9.7707978515625,-0.1333998590707779,-11.552547454833984,-4.920839786529541
1695713023773809200,9.78080908203125,-2.8773691654205322,-11.428120613098145,-3.738187074661255
1695713023783873800,9.790873779296875,-2.6763720512390137,-10.73838996887207,-2.541177749633789
1695713023793904000,9.800904052734374,-0.44446679949760437,-9.948758125305176,-0.5682953596115112
1695713023803932200,9.81093212890625,1.4991034269332886,-9.321240425109863,0.9302098155021667
1695713023813960200,9.820960205078125,2.9168508052825928,-8.617152214050293,1.4524433612823486
1695713023823988000,9.830988037109375,3.3332018852233887,-7.41535758972168,1.2077772617340088
1695713023834016000,9.84101611328125,3.084348440170288,-5.955137252807617,0.4612165689468384
1695713023844046300,9.85104638671875,2.5525436401367188,-4.777270317077637,-0.13280165195465088
1695713023854076700,9.86107666015625,2.121835470199585,-3.690330743789673,-0.30987054109573364
1695713023864111400,9.871111328125,1.9304096698760986,-2.8905298709869385,-0.5682953596115112
1695713023873979000,9.880978759765625,1.6145570278167725,-2.492722988128662,-0.9996016621589661
1695713023883992600,9.89099267578125,1.1497513055801392,-2.4496521949768066,-1.3728820085525513
1695713023894192600,9.901192626953126,1.0396814346313477,-2.6943182945251465,-1.4829518795013428
1695713023904206300,9.911206298828125,1.3124631643295288,-3.129812002182007,-1.5308083295822144
1695713023914304800,9.9213046875,1.3698909282684326,-3.4743785858154297,-1.8424733877182007
1695713023924317700,9.931317626953126,1.0444670915603638,-3.5748770236968994,-2.335394859313965
1695713023934331600,9.94133154296875,0.6137589812278748,-3.383451223373413,-2.8767709732055664
1695713023944408300,9.951408203125,0.2829512655735016,-3.2350962162017822,-3.3074791431427
1695713023954418700,9.961418701171874,-0.1860419660806656,-3.359523057937622,-3.589832067489624
1695713023964432600,9.9714326171875,-0.6604190468788147,-3.603590965270996,-3.8195431232452393
1695713023974487600,9.981487548828126,-1.430907964706421,-3.958326816558838,-3.738187074661255
1695713023984523300,9.991523193359376,-2.9491539001464844,-4.3411784172058105,-3.5946178436279297
1695713023994537000,10.001536865234375,-4.639084815979004,-4.796412944793701,-3.40797758102417
1695713024004550700,10.011550537109375,-6.659823417663574,-5.547759532928467,-3.211766242980957
1695713024014568400,10.021568359375,-9.609575271606445,-7.200003147125244,-3.8865420818328857
1695713024024616700,10.03161669921875,-14.924633026123047,-9.948758125305176,-6.850651264190674
1695713024034665000,10.0416650390625,-15.485151290893555,-12.974482536315918,-10.85862922668457
1695713024044713200,10.051713134765626,-12.209976196289062,-16.929819107055664,-13.233505249023438
1695713024054761500,10.061761474609375,-12.482757568359375,-21.291934967041016,-13.099507331848145
1695713024064779300,10.071779296875,-11.57288646697998,-21.43610191345215,-10.451848983764648
1695713024074773200,10.081773193359375,-8.795417785644531,-16.9058895111084,-6.190232276916504
1695713024084791000,10.091791015625,-6.296114444732666,-11.734402656555176,-2.7086751461029053
1695713024094865700,10.10186572265625,-5.803193092346191,-7.156932353973389,-0.9182456731796265
1695713024104904000,10.111904052734374,-5.357530117034912,-4.073182582855225,-0.8703892230987549
1695713024114921500,10.12192138671875,-4.026522159576416,-3.5988051891326904,-2.6225335597991943
1695713024124981500,10.1319814453125,-5.285745143890381,-5.873781204223633,-4.514060020446777
1695713024135035000,10.142034912109375,-6.10468864440918,-8.871390342712402,-3.738187074661255
1695713024145052700,10.152052734375,0.37866419553756714,-12.31406307220459,-1.1670992374420166
1695713024155063800,10.162063720703125,6.718447685241699,-14.67936897277832,-0.2763710021972656
1695713024165106700,10.172106689453125,6.920042991638184,-14.535799026489258,-1.3776676654815674
1695713024175124500,10.18212451171875,5.368297576904297,-12.615559577941895,-2.4023938179016113
1695713024185157600,10.19215771484375,3.232703447341919,-10.345967292785645,-3.9349968433380127
1695713024195184400,10.202184326171874,2.0165512561798096,-9.148957252502441,-5.400002479553223
1695713024205202200,10.2122021484375,3.572484254837036,-8.416155815124512,-6.128018856048584
1695713024215220000,10.222219970703126,4.214358806610107,-7.066005229949951,-6.161518096923828
1695713024225237800,10.23223779296875,3.6059837341308594,-5.730212211608887,-5.246861934661865
1695713024235258000,10.242258056640624,1.9304096698760986,-5.251049518585205,-4.308277130126953
1695713024245334800,10.252334716796875,1.4368900060653687,-5.979065418243408,-3.053839921951294
1695713024255377700,10.262377685546875,1.3794622421264648,-8.200801849365234,-1.5547364950180054
1695713024265438700,10.272438720703125,1.2215359210968018,-10.829317092895508,-0.15194423496723175
1695713024275456300,10.282456298828125,0.8386843204498291,-12.567702293395996,0.3415754437446594
1695713024285492000,10.292491943359375,0.7812566161155701,-12.902697563171387,-0.07537391036748886
1695713024295523600,10.302523681640626,0.747757077217102,-12.706486701965332,-0.1423729509115219
1695713024305541400,10.312541259765625,1.168893814086914,-12.400205612182617,0.16869398951530457
1695713024315570700,10.32257080078125,2.107478618621826,-12.457633018493652,0.6047859191894531
1695713024325612800,10.33261279296875,3.635295867919922,-10.451251029968262,0.45643091201782227
1695713024335635500,10.342635498046874,3.452843189239502,-8.253443717956543,0.1256231814622879
1695713024345653200,10.3526533203125,2.3563320636749268,-7.2430739402771,0.21176479756832123
1695713024355671000,10.362671142578124,2.231905221939087,-6.783652305603027,0.1495514214038849
1695713024365688600,10.3726884765625,1.2263215780258179,-6.759724140167236,-0.5252245664596558
1695713024375705000,10.382705078125,-1.2442678213119507,-7.037291526794434,-1.5738791227340698
1695713024385721600,10.3927216796875,-3.260220766067505,-7.544569969177246,-2.2923240661621094
1695713024395738000,10.402738037109375,-3.5090744495391846,-7.319644451141357,-2.857030153274536
1695713024405754600,10.412754638671874,-2.8390841484069824,-6.946363925933838,-3.087339401245117
1695713024415771100,10.422771240234376,-2.14935302734375,-7.066005229949951,-2.746960401535034
1695713024425787600,10.43278759765625,-1.0145567655563354,-7.200003147125244,-2.431107759475708
1695713024435804200,10.44280419921875,0.6137589812278748,-7.214360237121582,-2.3162522315979004
1695713024445820700,10.452820556640624,2.217548370361328,-7.190432071685791,-2.3162522315979004
1695713024455837200,10.462837158203126,3.084348440170288,-7.286144733428955,-2.5220351219177246
1695713024465853700,10.472853759765625,3.0795626640319824,-7.937591075897217,-2.68953275680542
1695713024475874600,10.48287451171875,2.4472594261169434,-9.010173797607422,-2.7661030292510986
1695713024485912000,10.492912109375,1.3555340766906738,-10.216754913330078,-2.4885356426239014
1695713024495949300,10.50294921875,-0.36311084032058716,-11.169695854187012,-1.7222341299057007
1695713024505986600,10.512986572265625,-1.929213285446167,-11.696117401123047,-0.5970092415809631
1695713024516023800,10.52302392578125,-2.8390841484069824,-11.993425369262695,0.7914260625839233
1695713024526061300,10.533061279296875,-2.662015199661255,-12.093923568725586,1.8975083827972412
1695713024536098600,10.5430986328125,-1.7425731420516968,-12.390633583068848,2.3958137035369873
1695713024546135800,10.5531357421875,-0.8470591902732849,-12.481560707092285,2.337787628173828
1695713024556173300,10.56317333984375,-0.32961133122444153,-12.194422721862793,1.8687944412231445
1695713024566210600,10.57321044921875,-0.372682124376297,-11.80618667602539,1.4811571836471558
1695713024576233200,10.583233154296876,-0.41575294733047485,-12.122637748718262,1.3232308626174927
1695713024586263300,10.59326318359375,-0.8901300430297852,-13.219148635864258,0.5282155871391296
1695713024596293600,10.603293701171875,-1.3543375730514526,-14.511871337890625,-0.4534398913383484
1695713024606324000,10.613323974609376,-1.4069796800613403,-15.637096405029297,-1.583450436592102
1695713024616354000,10.62335400390625,-1.4691931009292603,-15.680167198181152,-2.2444677352905273
1695713024626384400,10.63338427734375,-2.211566209793091,-14.263017654418945,-2.124826431274414
1695713024636414500,10.64341455078125,-2.9252257347106934,-13.348361015319824,-0.8177471160888672
1695713024646444800,10.65344482421875,-2.8582265377044678,-13.133007049560547,-0.05144568532705307
1695713024656475000,10.663474853515625,-0.6891329288482666,-12.151351928710938,-0.02273181453347206
1695713024666505200,10.673505126953126,0.7716853022575378,-11.696117401123047,-0.7405785918235779
1695713024676531000,10.683531005859376,1.882553219795227,-12.055638313293457,-1.674377679824829
1695713024686570800,10.69357080078125,2.715853691101074,-12.735199928283691,-2.8139593601226807
1695713024696610300,10.7036103515625,3.3714871406555176,-13.209577560424805,-4.169493675231934
1695713024706650000,10.713650146484374,3.0317063331604004,-13.635499954223633,-5.333003520965576
1695713024716689700,10.723689697265625,2.4233310222625732,-13.917853355407715,-5.6344990730285645
1695713024726729500,10.7337294921875,2.5094728469848633,-14.148161888122559,-5.5962138175964355
1695713024736769300,10.743769287109375,5.339583873748779,-13.592429161071777,-5.519643783569336
1695713024746808800,10.753808837890626,6.010172367095947,-12.79741382598877,-4.858626365661621
1695713024756848600,10.7638486328125,4.856233596801758,-12.022139549255371,-4.25084924697876
1695713024766888200,10.77388818359375,1.3411771059036255,-11.633903503417969,-3.7286159992218018
1695713024776920300,10.78392041015625,-2.4987051486968994,-11.676974296569824,-2.943770170211792
1695713024786985700,10.79398583984375,-2.719442844390869,-11.499905586242676,-1.7270197868347168
1695713024797051400,10.804051513671874,-0.8614161610603333,-11.26062297821045,-0.24287149310112
1695713024807116800,10.81411669921875,1.609771490097046,-10.767104148864746,0.8919246196746826
1695713024817182500,10.824182373046876,2.8354947566986084,-9.953543663024902,1.3423734903335571
1695713024827247900,10.834247802734374,3.2853455543518066,-8.588438987731934,1.241276741027832
1695713024837276400,10.8442763671875,3.1178479194641113,-6.687341213226318,0.7483552694320679
1695713024847290600,10.85429052734375,2.5286152362823486,-4.863411903381348,0.0729810893535614
1695713024857304800,10.864304931640625,2.0883359909057617,-3.5605201721191406,-0.28594231605529785
1695713024867319000,10.874319091796876,1.7389838695526123,-2.4496521949768066,-0.6065805554389954
1695713024877333200,10.884333251953125,1.456032633781433,-1.932802438735962,-0.745364248752594
1695713024887347500,10.894347412109376,1.054038405418396,-1.9854445457458496,-0.7501499056816101
1695713024897362000,10.90436181640625,1.2454642057418823,-2.2342982292175293,-0.7549355626106262
1695713024907376000,10.914376220703126,1.6432709693908691,-2.578864574432373,-1.0043872594833374
1695713024917390300,10.924390380859375,1.9256240129470825,-3.067598581314087,-1.5690934658050537
1695713024927404500,10.934404541015626,1.8394824266433716,-3.627519130706787,-2.4358935356140137
1695713024937433900,10.944433837890625,1.1353943347930908,-4.025325775146484,-3.2213375568389893
1695713024947467300,10.95446728515625,0.3978067636489868,-4.149752616882324,-3.8195431232452393
1695713024957500700,10.964500732421875,-0.6364908218383789,-4.188037872314453,-4.36091947555542
1695713024967533800,10.974533935546875,-1.5122638940811157,-4.345963954925537,-4.638486862182617
1695713024977567200,10.984567138671874,-2.1541385650634766,-4.551746845245361,-4.624129772186279
1695713024987600600,10.9946005859375,-2.944368362426758,-4.551746845245361,-4.399204254150391
1695713024997634000,11.004634033203125,-4.064807415008545,-4.594817638397217,-3.7812578678131104
1695713025007667200,11.014667236328124,-5.132604598999023,-5.064409255981445,-3.0011978149414062
1695713025017700600,11.02470068359375,-6.511468410491943,-6.017350673675537,-3.092125177383423
1695713025027734000,11.034734130859375,-9.872786521911621,-7.424928665161133,-4.624129772186279
1695713025037766400,11.044766357421874,-14.800206184387207,-9.21117115020752,-7.8418779373168945
1695713025047813600,11.054813720703125,-15.556936264038086,-12.376276969909668,-9.833903312683105
1695713025057860900,11.06486083984375,-16.447664260864258,-18.333208084106445,-10.671989440917969
1695713025067908000,11.074908203125,-15.293725967407227,-23.32224464416504,-10.179067611694336
1695713025077955000,11.084955078125,-10.586445808410645,-22.168304443359375,-7.018148899078369
1695713025088002300,11.095002197265625,-6.847062110900879,-15.943377494812012,-3.881756544113159
1695713025098049500,11.105049560546876,-5.371886730194092,-10.283753395080566,-1.4733805656433105
1695713025108096800,11.1150966796875,-4.002593994140625,-5.845067501068115,-1.3010972738265991
1695713025118144000,11.12514404296875,-2.383849620819092,-4.188037872314453,-2.9868409633636475
1695713025128191200,11.135191162109376,-2.5848467350006104,-5.078765869140625,-4.456632137298584
1695713025138223600,11.1452236328125,-2.8965117931365967,-7.424928665161133,-3.6233317852020264
1695713025148240000,11.155239990234374,1.211964726448059,-10.451251029968262,-1.0713863372802734
1695713025158327300,11.165327392578124,5.3347978591918945,-12.950553894042969,0.3128615617752075
1695713025168365300,11.175365234375,4.6163530349731445,-13.539787292480469,-1.1479566097259521
1695713025178403300,11.1854033203125,1.6719847917556763,-12.744771957397461,-3.259622573852539
1695713025188219100,11.19521923828125,-0.243469700217247,-11.035697937011719,-5.514857769012451
1695713025198238500,11.205238525390625,0.0005982056609354913,-9.345169067382812,-7.468597888946533
1695713025208279300,11.215279296875,2.5812573432922363,-8.13380241394043,-7.851449489593506
1695713025218301000,11.225301025390625,3.7645082473754883,-6.682555675506592,-7.325028419494629
1695713025228375800,11.235375732421875,3.108276605606079,-5.413761138916016,-5.701498031616211
1695713025238402600,11.245402587890625,1.0492527484893799,-4.935196876525879,-3.809971809387207
1695713025248441600,11.255441650390624,0.2877369225025177,-5.710471153259277,-1.5643078088760376
1695713025258469600,11.2654697265625,0.7046862840652466,-7.856235027313232,0.5856433510780334
1695713025268502000,11.275501953125,0.7381857633590698,-10.575677871704102,1.5290136337280273
1695713025278530600,11.285530517578126,0.32123643159866333,-12.16092300415039,1.088136076927185
1695713025288539600,11.29553955078125,-0.17647066712379456,-12.806984901428223,-0.008374879136681557
1695713025298566400,11.30556640625,-0.23389841616153717,-12.964911460876465,-0.7740781307220459
1695713025308598800,11.315598876953125,0.5180460810661316,-13.180863380432129,-0.36729827523231506
1695713025318625800,11.325625732421875,1.9543378353118896,-13.257433891296387,-0.0849452018737793
1695713025328697900,11.33569775390625,3.25663161277771,-11.49512004852295,0.04426721855998039
1695713025338867000,11.345866943359376,4.377070903778076,-8.545368194580078,-0.5060819983482361
1695713025348891600,11.3558916015625,3.7836508750915527,-6.951149940490723,-0.7938188910484314
1695713025358923300,11.36592333984375,2.7397818565368652,-6.476772785186768,-1.095314621925354
1695713025368977200,11.37597705078125,1.3746765851974487,-6.132206439971924,-1.5690934658050537
1695713025379021600,11.386021484375,-0.9810572862625122,-6.19920539855957,-2.3641088008880615
1695713025389053400,11.396053466796875,-3.2410783767700195,-6.764509677886963,-3.0490541458129883
1695713025399052500,11.406052490234375,-3.8973097801208496,-7.018148899078369,-3.690330743789673
1695713025409097000,11.416096923828125,-2.9347970485687256,-6.7692952156066895,-3.9397823810577393
1695713025419128600,11.426128662109376,-1.7138592004776,-6.620342254638672,-3.7334015369415283
1695713025429148200,11.436148193359376,-0.9619147181510925,-6.706483840942383,-3.2404799461364746
1695713025439201000,11.446200927734376,-0.16689938306808472,-6.845865726470947,-2.68953275680542
1695713025449229300,11.456229248046874,1.2023934125900269,-6.8410797119140625,-2.3976082801818848
1695713025459245000,11.4662451171875,2.620140790939331,-7.156932353973389,-2.0482561588287354
1695713025469260800,11.4762607421875,3.1178479194641113,-7.731209754943848,-1.8664016723632812
1695713025479276500,11.486276611328124,2.9838497638702393,-8.588438987731934,-1.7461622953414917
1695713025489292300,11.496292236328125,2.303689956665039,-9.579665184020996,-1.3872389793395996
1695713025499308000,11.50630810546875,1.0827522277832031,-10.508678436279297,-0.745364248752594
1695713025509323800,11.51632373046875,-0.24825534224510193,-11.251051902770996,0.039481572806835175
1695713025519339300,11.52633935546875,-1.521835207939148,-11.979068756103516,0.9254241585731506
1695713025529355000,11.53635498046875,-2.3120648860931396,-12.720843315124512,1.8305093050003052
1695713025539370800,11.546370849609374,-2.819941520690918,-13.386646270751953,2.534597396850586
1695713025549386500,11.556386474609376,-2.9970104694366455,-13.60200023651123,2.6733810901641846
1695713025559416000,11.566416015625,-2.733799934387207,-13.11386489868164,2.3186452388763428
1695713025569450000,11.576449951171876,-2.379063844680786,-12.677772521972656,1.887937068939209
1695713025579484200,11.586484130859375,-2.12542462348938,-12.835699081420898,1.7060825824737549
1695713025589518000,11.59651806640625,-2.1589243412017822,-13.415360450744629,0.7674978375434875
1695713025599552300,11.60655224609375,-3.102294445037842,-13.721641540527344,-0.966102123260498
1695713025609586400,11.61658642578125,-3.7633118629455566,-14.406586647033691,-2.5076780319213867
1695713025619620400,11.626620361328126,-3.135794162750244,-15.196816444396973,-3.36969256401062
1695713025629654500,11.636654541015625,-2.407777786254883,-14.712868690490723,-2.7900311946868896
1695713025639688400,11.6466884765625,-3.6047873497009277,-13.688141822814941,-1.0091729164123535
1695713025649722600,11.65672265625,-2.4029922485351562,-12.294920921325684,0.45164528489112854
1695713025659756800,11.6667568359375,1.3363914489746094,-11.485548973083496,1.337587833404541
1695713025669786600,11.67678662109375,3.3092737197875977,-11.696117401123047,1.2891331911087036
1695713025679818500,11.686818603515626,3.476771354675293,-11.882757186889648,0.6813562512397766
1695713025689850600,11.6968505859375,3.122633457183838,-12.242279052734375,-0.6017948985099792
1695713025699882800,11.7068828125,2.7349963188171387,-12.787842750549316,-2.062613010406494
1695713025709914600,11.71691455078125,2.002194404602051,-13.563714981079102,-2.958127021789551
1695713025719946800,11.72694677734375,1.571486234664917,-14.296517372131348,-3.5850465297698975
1695713025729978600,11.736978515625,2.730210542678833,-14.617155075073242,-4.202992916107178
1695713025740010800,11.7470107421875,5.315655708312988,-14.48315715789795,-4.4135613441467285
1695713025750042600,11.757042724609375,4.7796630859375,-14.042878150939941,-4.36091947555542
1695713025760074800,11.76707470703125,2.179263114929199,-13.721641540527344,-4.021138668060303
1695713025770106600,11.777106689453126,-1.7138592004776,-13.707284927368164,-3.8530426025390625
1695713025780141800,11.787141845703125,-3.2267212867736816,-13.47757339477539,-3.930211305618286
1695713025790207200,11.797207275390624,-2.1684954166412354,-13.089936256408691,-3.2309088706970215
1695713025800272600,11.807272705078125,0.13459627330303192,-11.504691123962402,-2.201396942138672
1695713025810338000,11.817338134765626,1.8394824266433716,-10.14018440246582,-1.3154542446136475
1695713025820403500,11.827403564453125,2.107478618621826,-8.789435386657715,-0.875174880027771
1695713025830468900,11.83746875,1.9830517768859863,-7.2095746994018555,-0.711864709854126
1695713025840499700,11.847499755859374,2.0548365116119385,-5.337191104888916,-0.8799605369567871
1695713025850513400,11.857513427734375,1.7581263780593872,-3.8913278579711914,-0.9756734371185303
1695713025860527000,11.867527099609376,1.2454642057418823,-2.857030153274536,-1.114457130432129
1695713025870540800,11.877540771484375,0.9726824164390564,-2.2677977085113525,-1.2197413444519043
1695713025880554500,11.887554443359376,1.054038405418396,-2.152942180633545,-1.1288141012191772
1695713025890568200,11.897568115234375,1.3603196144104004,-2.0476579666137695,-1.028315544128418
1695713025900582000,11.907581787109375,1.8251254558563232,-2.105085611343384,-1.0235298871994019
1695713025910595600,11.917595703125,2.0213370323181152,-2.521436929702759,-1.1335997581481934
1695713025920609300,11.927609375,2.145763635635376,-2.9288148880004883,-1.3058829307556152
1695713025930623000,11.937623046875,2.1649062633514404,-3.2350962162017822,-1.669592022895813
1695713025940636700,11.94763671875,2.0069799423217773,-3.297309637069702,-2.115255117416382
1695713025950667800,11.957667724609376,1.5810575485229492,-3.16331148147583,-2.5220351219177246
1695713025960701400,11.967701416015625,0.8817551732063293,-2.9383862018585205,-2.8283164501190186
1695713025970734800,11.97773486328125,-0.1908276081085205,-2.9288148880004883,-3.0586254596710205
1695713025980768300,11.987768310546874,-1.5361921787261963,-3.1489546298980713,-3.197409152984619
1695713025990801700,11.9978017578125,-2.9730820655822754,-3.579662561416626,-3.1208388805389404
1695713026000835300,12.00783544921875,-4.716253280639648,-4.398606300354004,-2.9102704524993896
1695713026010868700,12.01786865234375,-6.449255466461182,-5.633901119232178,-3.0442686080932617
1695713026020902100,12.027902099609374,-9.954740524291992,-7.372286796569824,-4.054637908935547
1695713026030935600,12.037935546875,-16.72044563293457,-10.087542533874512,-6.965506553649902
1695713026040969200,12.04796923828125,-17.635103225708008,-13.697712898254395,-10.394421577453613
1695713026051002600,12.058002685546874,-15.810575485229492,-19.568504333496094,-11.835498809814453
1695713026061034800,12.06803466796875,-15.600007057189941,-24.394826889038086,-11.524432182312012
1695713026071071000,12.078071044921876,-10.103095054626465,-22.115663528442383,-8.120043754577637
1695713026081107200,12.088107177734376,-6.726822853088379,-16.575679779052734,-5.888138294219971
1695713026091143700,12.098143798828126,-5.941977024078369,-11.361122131347656,-4.059423446655273
1695713026101180000,12.108179931640626,-5.0225348472595215,-6.242276191711426,-2.076970100402832
1695713026111216000,12.118216064453126,-4.562514781951904,-2.6703901290893555,-1.119242787361145
1695713026121252600,12.128252685546874,-3.5712878704071045,-0.9559326171875,-2.6081767082214355
1695713026131288800,12.138288818359374,-2.0584256649017334,-1.9710876941680908,-5.222933769226074
1695713026141325000,12.148324951171874,1.2502498626708984,-5.73978328704834,-5.620141983032227
1695713026151361500,12.158361572265624,3.5820555686950684,-8.803792953491211,-4.490131855010986
1695713026161397800,12.168397705078124,2.9551360607147217,-12.065210342407227,-2.9629125595092773
1695713026171429600,12.1784296875,2.2271196842193604,-15.091532707214355,-2.4406790733337402
1695713026181459700,12.188459716796874,0.9774680733680725,-16.929819107055664,-2.287538528442383
1695713026191489500,12.198489501953125,-1.3160524368286133,-16.26461410522461,-4.260420799255371
1695713026201519600,12.20851953125,2.5094728469848633,-13.98963737487793,-5.2181477546691895
1695713026211549700,12.2185498046875,5.430510997772217,-11.68175983428955,-4.743771076202393
1695713026221579800,12.228579833984375,4.870590686798096,-9.431310653686523,-4.346562385559082
1695713026231609900,12.23860986328125,3.3379876613616943,-6.495915412902832,-4.202992916107178
1695713026241640000,12.248639892578124,3.0269205570220947,-4.863411903381348,-3.7094733715057373
1695713026251669800,12.258669677734375,2.5914268493652344,-5.0117669105529785,-3.3170504570007324
1695713026261699800,12.268699951171875,2.179263114929199,-6.615556240081787,-2.478964328765869
1695713026271736000,12.278736083984375,1.6480566263198853,-9.07717227935791,-1.0043872594833374
1695713026281793000,12.28879296875,1.1736794710159302,-11.385049819946289,-0.10887342691421509
1695713026291850000,12.29885009765625,1.0444670915603638,-12.67298698425293,-0.1663011759519577
1695713026301906700,12.30890673828125,0.9343972206115723,-12.806984901428223,-0.47258245944976807
1695713026311963600,12.318963623046875,0.43609192967414856,-12.371491432189941,-0.7597211599349976
1695713026322020600,12.3290205078125,0.6855437159538269,-12.022139549255371,-0.6640082597732544
1695713026332077600,12.33907763671875,1.8586249351501465,-11.24626636505127,-0.3577269911766052
1695713026342109700,12.349109619140625,3.022135019302368,-9.378668785095215,-0.5635097622871399
1695713026352127000,12.359126953125,3.108276605606079,-7.601997375488281,-0.7022934556007385
1695713026362144300,12.369144287109375,2.073979139328003,-7.066005229949951,-0.6783652305603027
1695713026372161500,12.37916162109375,1.29810631275177,-6.807580471038818,-1.114457130432129
1695713026382178800,12.3891787109375,0.4408775866031647,-6.711269378662109,-1.5595221519470215
1695713026392196400,12.3991962890625,-1.3830515146255493,-7.372286796569824,-2.043470621109009
1695713026402213600,12.409213623046876,-3.2937204837799072,-7.846663475036621,-2.785245656967163
1695713026412231000,12.41923095703125,-3.456432342529297,-7.846663475036621,-2.675175666809082
1695713026422248200,12.429248291015625,-2.589632272720337,-7.798209190368652,-2.1200408935546875
1695713026432265500,12.439265380859375,-1.4165509939193726,-7.9040913581848145,-1.7270197868347168
1695713026442282800,12.44928271484375,-0.4492524564266205,-8.02373218536377,-1.4350954294204712
1695713026452315100,12.459315185546876,0.5659025311470032,-8.105088233947754,-1.1479566097259521
1695713026462348800,12.469348876953125,2.083550214767456,-7.937591075897217,-1.0666006803512573
1695713026472382200,12.47938232421875,3.428914785385132,-7.477570533752441,-1.2005987167358398
1695713026482415600,12.48941552734375,3.7357943058013916,-7.573283672332764,-1.3058829307556152
1695713026492449300,12.49944921875,3.1513473987579346,-7.94716215133667,-1.6360924243927002
1695713026502482700,12.509482666015625,1.973480463027954,-8.617152214050293,-2.062613010406494
1695713026512516400,12.519516357421875,0.27337998151779175,-9.349954605102539,-2.3641088008880615
1695713026522549800,12.5295498046875,-1.5750755071640015,-10.154541015625,-1.5355939865112305
1695713026532583400,12.53958349609375,-3.150151014328003,-10.642677307128906,-0.16151553392410278
1695713026542616800,12.549616943359375,-3.432504177093506,-11.102697372436523,1.2508480548858643
1695713026552649000,12.55964892578125,-2.4508485794067383,-11.820544242858887,2.1655044555664062
1695713026562680300,12.569680419921875,-1.129412293434143,-12.56291675567627,2.3958137035369873
1695713026572711400,12.57971142578125,-0.11425728350877762,-12.749557495117188,2.1655044555664062
1695713026582742500,12.589742431640625,0.4456632137298584,-12.52463150024414,1.911865234375
1695713026592774000,12.59977392578125,0.24945175647735596,-12.917055130004883,1.8544375896453857
1695713026602805000,12.609804931640625,-0.5838487148284912,-13.664214134216309,1.212562918663025
1695713026612836000,12.619836181640625,-1.8191434144973755,-13.668999671936035,-0.1950150430202484
1695713026622867500,12.629867431640625,-3.370290756225586,-13.367504119873047,-1.3489537239074707
1695713026632898600,12.639898681640625,-4.600799560546875,-13.721641540527344,-2.3880369663238525
1695713026642929700,12.6499296875,-4.012165546417236,-14.44487190246582,-2.9341988563537598
1695713026652961800,12.6599619140625,-3.5234313011169434,-14.334802627563477,-2.2444677352905273
1695713026662992400,12.669992431640624,-4.4620161056518555,-13.87478256225586,-0.5874379873275757
1695713026673023000,12.68002294921875,-3.7298123836517334,-12.625130653381348,0.5952146053314209
1695713026683053800,12.6900537109375,-1.0863415002822876,-11.475976943969727,0.6095715761184692
1695713026693084400,12.70008447265625,0.5659025311470032,-11.341979026794434,-0.09451649338006973
1695713026703115000,12.710114990234375,1.6959130764007568,-11.911471366882324,-0.8703892230987549
1695713026713145600,12.7201455078125,3.242274761199951,-12.414562225341797,-1.540379524230957
1695713026723176400,12.730176513671875,3.8075790405273438,-13.482358932495117,-2.675175666809082
1695713026733207000,12.74020703125,3.5437703132629395,-14.521442413330078,-3.8530426025390625
1695713026743237600,12.750237548828125,3.1992039680480957,-15.009578704833984,-4.092923164367676
1695713026753274000,12.760274169921875,3.390629768371582,-15.244672775268555,-3.690330743789673
1695713026763330800,12.770330810546875,3.8075790405273438,-14.578869819641113,-3.494119167327881
1695713026773387500,12.780387451171874,4.314857482910156,-13.563714981079102,-3.446262836456299
1695713026783444200,12.7904443359375,3.6059837341308594,-12.582059860229492,-2.943770170211792
1695713026793501200,12.800501220703126,1.1353943347930908,-12.031710624694824,-2.699103832244873
1695713026803558000,12.810557861328125,-1.8335003852844238,-11.59561824798584,-2.555534601211548
1695713026813614600,12.820614501953125,-1.7808582782745361,-11.112268447875977,-2.2779672145843506
1695713026823671300,12.83067138671875,-0.10468599200248718,-10.436894416809082,-1.6360924243927002
1695713026833728000,12.84072802734375,1.5278172492980957,-9.598808288574219,-0.6927221417427063
1695713026843760000,12.850760009765626,2.7732813358306885,-9.072386741638184,0.03469592705368996
1695713026853776000,12.86077587890625,2.730210542678833,-8.10987377166748,0.0011964113218709826
1695713026863791400,12.870791259765625,2.2749760150909424,-6.975078105926514,-0.4821537733078003
1695713026873807000,12.88080712890625,2.193620204925537,-5.710471153259277,-0.9708877801895142
1695713026883822800,12.89082275390625,2.1170499324798584,-4.561318397521973,-1.3010972738265991
1695713026893838300,12.90083837890625,1.8969101905822754,-3.738187074661255,-1.5595221519470215
1695713026903854000,12.91085400390625,1.7198412418365479,-3.105883836746216,-1.828116536140442
1695713026913869800,12.920869873046875,1.1306086778640747,-2.933600664138794,-2.076970100402832
1695713026923885600,12.930885498046875,0.5419743061065674,-2.9144580364227295,-2.1678972244262695
1695713026933901000,12.940901123046874,0.43609192967414856,-3.0388846397399902,-2.0482561588287354
1695713026943916800,12.950916748046875,0.656829833984375,-3.2925238609313965,-2.1535403728485107
1695713026953949000,12.960948974609375,0.7956135272979736,-3.5748770236968994,-2.50289249420166
