time,seconds_elapsed,z,y,x
1695712462023400700,0.256400634765625,1.6944513320922852,0.3184185028076172,0.9984862804412842
1695712462042504700,0.275504638671875,2.0870957374572754,0.22684907913208008,1.2435519695281982
1695712462061578200,0.294578125,1.6488094329833984,0.06499767303466797,1.3147377967834473
1695712462080712700,0.313712646484375,1.159409999847412,-0.1303553581237793,1.1216548681259155
1695712462099755500,0.332755615234375,0.8911709785461426,-0.10410833358764648,1.0675486326217651
1695712462118859500,0.351859619140625,0.5412888526916504,0.09012794494628906,1.1270751953125
1695712462137933000,0.37093310546875,0.10076427459716797,0.42730188369750977,1.188242793083191
1695712462157037000,0.390037109375,0.2066059112548828,0.9333925247192383,1.1978116035461426
1695712462176110600,0.409110595703125,0.6383180618286133,1.0346341133117676,1.1700708866119385
1695712462195214600,0.428214599609375,1.142763614654541,0.6751847267150879,1.1311607360839844
1695712462214288100,0.4472880859375,1.2595314979553223,0.2334003448486328,1.155057430267334
1695712462233392000,0.46639208984375,0.6738533973693848,0.1665177345275879,1.1097331047058105
1695712462252465700,0.485465576171875,0.06439876556396484,0.6665134429931641,0.9211276769638062
1695712462271569700,0.504569580078125,-0.35595035552978516,1.2133393287658691,0.7165887355804443
1695712462290704100,0.5237041015625,0.1477375030517578,1.4461421966552734,0.7080718278884888
1695712462309777700,0.542777587890625,1.3243370056152344,1.203056812286377,0.7951445579528809
1695712462328881700,0.561881591796875,1.623488426208496,0.7105860710144043,0.28280866146087646
1695712462347955200,0.580955078125,1.0107488632202148,0.21312427520751953,-0.2722541093826294
1695712462367059200,0.60005908203125,0.47165489196777344,-0.015184879302978516,-0.28141534328460693
1695712462386132500,0.619132568359375,-0.2025127410888672,0.3711709976196289,-0.2156277894973755
1695712462405236500,0.638236572265625,-1.0790691375732422,0.9338579177856445,-0.07829391956329346
1695712462424310000,0.65731005859375,-0.4463930130004883,1.184147834777832,0.17951476573944092
1695712462443414000,0.6764140625,0.8343114852905273,0.7968006134033203,0.4403676986694336
1695712462462487600,0.695487548828125,0.5053873062133789,1.0065836906433105,-0.1863498091697693
1695712462481591600,0.714591552734375,-0.36658382415771484,1.524153709411621,-0.7752025723457336
1695712462500665000,0.7336650390625,-0.9733438491821289,1.5836262702941895,-0.754647970199585
1695712462519769000,0.75276904296875,-1.2072277069091797,1.1480979919433594,-0.6029472947120667
1695712462538842600,0.771842529296875,0.8469934463500977,-0.3695039749145508,-0.05945345759391785
1695712462557946600,0.790946533203125,-8.547056198120117,-4.666055679321289,-3.109447956085205
1695712462577050600,0.810050537109375,-0.8628139495849609,-3.793374538421631,-2.709355592727661
1695712462596154600,0.829154541015625,1.3881750106811523,-2.0019659996032715,-1.0873830318450928
1695712462615228200,0.848228271484375,-0.7413644790649414,-1.3888001441955566,-0.3861106038093567
1695712462634332200,0.867332275390625,-3.163167953491211,-0.31154680252075195,-0.3133430480957031
1695712462653405400,0.886405517578125,-0.22577381134033203,1.685953140258789,1.0150742530822754
1695712462672509400,0.905509521484375,-0.25532054901123047,1.4294986724853516,0.9974945783615112
1695712462691583000,0.9245830078125,-0.6476688385009766,0.4760775566101074,0.5260718464851379
1695712462710687000,0.94368701171875,1.4099464416503906,-0.14891314506530762,0.5477743148803711
1695712462729791000,0.962791015625,2.314443588256836,-0.9170000553131104,-1.0457862615585327
1695712462748864500,0.981864501953125,0.965418815612793,-0.720097541809082,-1.0652291774749756
1695712462767968500,1.000968505859375,0.8983001708984375,-0.2739255428314209,-1.2307840585708618
1695712462787042000,1.0200419921875,0.707514762878418,-0.0540318489074707,-0.803510308265686
1695712462806146000,1.03914599609375,0.8811454772949219,0.5021333694458008,0.26458752155303955
1695712462825219600,1.058219482421875,0.4109935760498047,-0.32094311714172363,0.18418669700622559
1695712462844323600,1.077323486328125,-0.07056713104248047,-0.4312324523925781,-0.014368414878845215
1695712462863427600,1.096427490234375,0.1967782974243164,-0.09130120277404785,-0.38168931007385254
1695712462882531600,1.115531494140625,0.5283384323120117,-0.04056358337402344,-0.5976376533508301
1695712462901605000,1.134605224609375,0.3001241683959961,-0.06808590888977051,-0.7871248722076416
1695712462920709000,1.153709228515625,-0.6332368850708008,-0.4366428852081299,-0.837631344795227
1695712462939782400,1.172782470703125,-0.7300662994384766,-0.11458873748779297,-0.6569210886955261
1695712462958886400,1.191886474609375,0.052051544189453125,-0.1938495635986328,-0.6364431381225586
1695712462977960000,1.2109599609375,-0.13467025756835938,-0.14954757690429688,-0.6130765080451965
1695712462997049000,1.230049072265625,-0.9250154495239258,-0.3469376564025879,-0.7071125507354736
1695712463016122600,1.24912255859375,-0.8417797088623047,-0.6147055625915527,-0.9033603668212891
1695712463035226600,1.2682265625,-0.6346120834350586,-0.6515383720397949,-1.082628607749939
1695712463054300200,1.287300048828125,-0.2929840087890625,-0.567725658416748,-1.1001646518707275
1695712463073404200,1.306404052734375,-0.7087116241455078,-0.4290790557861328,-0.9596774578094482
1695712463092477400,1.3254775390625,-1.2596435546875,-0.4756159782409668,-0.10326993465423584
1695712463111581400,1.34458154296875,-1.4090652465820312,-0.30094146728515625,0.8027026653289795
1695712463130685400,1.363685546875,-1.1224098205566406,-0.14362478256225586,1.5316071510314941
1695712463149789400,1.38278955078125,-0.2694835662841797,-0.2520737648010254,1.8358697891235352
1695712463168893400,1.4018935546875,0.110260009765625,-0.5900270938873291,1.9184935092926025
1695712463187967000,1.420967041015625,0.6101608276367188,-0.6727306842803955,2.835468053817749
1695712463207071000,1.440071044921875,0.661163330078125,-0.5435867309570312,3.0947556495666504
1695712463226144500,1.45914453125,1.4694862365722656,-0.9104530811309814,2.595874309539795
1695712463245248500,1.47824853515625,2.8145322799682617,-0.685614824295044,2.670295476913452
1695712463264322000,1.497322021484375,3.5935325622558594,-0.01665043830871582,4.161314010620117
1695712463283426000,1.516426025390625,1.7332420349121094,1.0236990451812744,2.297755718231201
1695712463302499600,1.53549951171875,3.5711183547973633,2.9651312828063965,1.927372694015503
1695712463321603600,1.554603515625,4.707104682922363,2.074371099472046,0.9575748443603516
1695712463340677000,1.573677001953125,6.669214248657227,1.1107707023620605,2.2148056030273438
1695712463359781000,1.592781005859375,-3.357499122619629,0.7966630458831787,-0.506868839263916
1695712463378854400,1.6118544921875,-0.7720184326171875,3.8430745601654053,-1.845571517944336
1695712463397958400,1.63095849609375,4.9261627197265625,1.4439150094985962,-0.813713550567627
1695712463417032000,1.650031982421875,6.291954040527344,4.154158592224121,-3.72072172164917
1695712463436166400,1.66916650390625,2.0407629013061523,1.9105722904205322,-2.6759114265441895
1695712463455240000,1.688239990234375,1.448519229888916,2.2719521522521973,-0.9309225082397461
1695712463474344000,1.707343994140625,0.49665021896362305,1.915442943572998,-0.30307579040527344
1695712463493417500,1.72641748046875,-1.0485291481018066,2.437864065170288,1.4948186874389648
1695712463512521500,1.745521484375,-2.8414149284362793,2.589769124984741,1.589663028717041
1695712463531595000,1.764594970703125,-2.0818395614624023,1.69211745262146,1.373183250427246
1695712463550699000,1.783698974609375,-1.621056079864502,1.6613984107971191,-0.09590530395507812
1695712463569803000,1.802802978515625,-2.091209888458252,0.534105658531189,-0.35861873626708984
1695712463588876500,1.82187646484375,-1.7877483367919922,-0.8043948411941528,0.194366455078125
1695712463607980500,1.84098046875,-1.2374799251556396,-1.126197099685669,0.3326435089111328
1695712463627054000,1.86005419921875,-0.7483234405517578,-1.570671558380127,0.4271059036254883
1695712463646158000,1.879157958984375,-0.2846720218658447,-1.29108726978302,0.7217521667480469
1695712463665231400,1.8982314453125,0.4383997917175293,-0.7140098810195923,2.200376510620117
1695712463684335400,1.91733544921875,0.40228474140167236,-2.1076018810272217,3.3504629135131836
1695712463703409000,1.936408935546875,0.351958692073822,-1.031799077987671,4.133715629577637
1695712463722543400,1.95554345703125,-0.2466130256652832,0.7779347896575928,6.399710655212402
1695712463741617000,1.974616943359375,-0.010928928852081299,1.689648151397705,9.087068557739258
1695712463760721000,1.993720947265625,-0.500952959060669,2.2068734169006348,9.189176559448242
1695712463779794400,2.01279443359375,-0.1330593228340149,-5.312265396118164,4.458951950073242
1695712463798990000,2.031989990234375,8.555399894714355,-4.4597859382629395,7.508053779602051
1695712463818216200,2.05121630859375,5.994361877441406,4.365208625793457,-1.4512577056884766
1695712463837442000,2.070442138671875,1.1238784790039062,4.628235816955566,-6.377023696899414
1695712463856698600,2.08969873046875,-0.5996599197387695,2.9954257011413574,0.3563833236694336
1695712463875192300,2.1081923828125,-6.971187591552734,4.33666467666626,2.5332088470458984
1695712463894296300,2.12729638671875,-1.358974575996399,2.562649965286255,1.951894760131836
1695712463913431000,2.14643115234375,-0.037327587604522705,-1.1941494941711426,2.7562646865844727
1695712463932504300,2.16550439453125,0.5533369779586792,-3.098184585571289,1.3507614135742188
1695712463951608300,2.1846083984375,-0.4624965190887451,1.6453754901885986,1.032822608947754
1695712463970712300,2.20371240234375,-1.8941963911056519,2.442614793777466,-4.033389091491699
1695712463989785900,2.222785888671875,3.4661056995391846,2.061657428741455,-3.1245079040527344
1695712464008920300,2.24192041015625,0.046326618641614914,-3.6767938137054443,-3.3975019454956055
1695712464027993900,2.260993896484375,0.11985655128955841,-2.201622486114502,-5.155170440673828
1695712464047097900,2.280097900390625,-1.6558163166046143,-2.348691701889038,-3.8800621032714844
1695712464066171400,2.29917138671875,-3.0041041374206543,-4.239104747772217,-2.1280288696289062
1695712464085275400,2.318275390625,0.6276755332946777,-5.842668056488037,-4.376314163208008
1695712464104349000,2.337348876953125,1.0203857421875,-4.737399101257324,-3.2847824096679688
1695712464123453000,2.356452880859375,0.16173064708709717,-2.7196638584136963,-5.065716743469238
1695712464142526500,2.3755263671875,0.8016546964645386,-2.164341449737549,-3.0433921813964844
1695712464161630500,2.39463037109375,-0.060313880443573,-2.8939998149871826,-0.6583271026611328
1695712464180703700,2.413703857421875,1.4101855754852295,-3.5503756999969482,0.5925998687744141
1695712464199838500,2.43283837890625,0.5316934585571289,-2.7275540828704834,-1.1069164276123047
1695712464218881300,2.45188134765625,-1.760549783706665,-1.7918248176574707,-2.0673017501831055
1695712464237985300,2.4709853515625,1.1831223964691162,-3.5725064277648926,0.9702930450439453
1695712464257058800,2.490058837890625,2.5777735710144043,-1.7857928276062012,1.273432731628418
1695712464276162800,2.509162841796875,1.4349682331085205,-0.4839611053466797,1.145310401916504
1695712464295266800,2.528266845703125,-3.865431547164917,-1.3583078384399414,2.181187629699707
1695712464314370800,2.547370849609375,-3.705749988555908,-0.01818990707397461,5.886781692504883
1695712464333444400,2.5664443359375,0.1151677817106247,5.0277276039123535,3.2758302688598633
1695712464352548400,2.58554833984375,-0.053376272320747375,4.030049800872803,1.1389222145080566
1695712464371622000,2.604621826171875,0.13030125200748444,2.5478105545043945,-1.7782788276672363
1695712464390726000,2.623725830078125,0.9437019228935242,1.8537678718566895,-3.6123132705688477
1695712464409830000,2.642829833984375,-0.3772747814655304,1.291311264038086,-3.1333937644958496
1695712464428903400,2.6619033203125,-1.7587554454803467,3.2243285179138184,-2.683110237121582
1695712464448007400,2.68100732421875,1.7785301208496094,6.204934120178223,-0.5576014518737793
1695712464467080700,2.700080810546875,6.186276912689209,10.707856178283691,0.2563481330871582
1695712464486184700,2.719184814453125,-2.363880157470703,8.255390167236328,1.6591625213623047
1695712464505258200,2.73825830078125,-6.481042385101318,-0.5390949249267578,-0.4761180877685547
1695712464524362200,2.7573623046875,-7.75637674331665,-5.968499183654785,-2.675631046295166
1695712464543435800,2.776435791015625,4.156041145324707,-5.629761219024658,-3.90268611907959
1695712464562539800,2.795539794921875,3.5885939598083496,-3.8811817169189453,-4.289018630981445
1695712464581643800,2.814643798828125,-0.08982062339782715,-2.3754377365112305,-2.920492649078369
1695712464600747800,2.833747802734375,-0.6278190612792969,-1.3414740562438965,-1.727952003479004
1695712464619821300,2.8528212890625,0.8810272216796875,-0.9265456199645996,-2.3540477752685547
1695712464638925300,2.87192529296875,0.6849323511123657,-1.1266303062438965,-3.83073091506958
1695712464657998800,2.890998779296875,-0.10054564476013184,-1.28706693649292,-3.6830124855041504
1695712464677102800,2.910102783203125,-0.3005537986755371,-1.7405056953430176,-2.792904853820801
1695712464696176400,2.92917626953125,-0.49769139289855957,-1.064380168914795,-2.277810573577881
1695712464715280400,2.9482802734375,0.3741021156311035,-2.1618032455444336,-3.153334617614746
1695712464734353700,2.967353759765625,0.77134108543396,-6.822281360626221,-0.48449277877807617
1695712464753457700,2.986457763671875,0.7579289674758911,-3.3992300033569336,2.5990257263183594
1695712464772531200,3.00553125,0.8276462554931641,-1.4308719635009766,3.8160362243652344
1695712464791635200,3.02463525390625,8.235221862792969,-0.1580801010131836,4.820919036865234
1695712464810739200,3.0437392578125,2.038303852081299,-0.8387508392333984,-2.277040958404541
1695712464829812700,3.062812744140625,-8.095459938049316,-1.9248790740966797,-4.275407791137695
1695712464848916700,3.081916748046875,4.230391502380371,-2.7199201583862305,2.0641775131225586
1695712464868020700,3.101020751953125,0.14416289329528809,-1.7410078048706055,0.34604549407958984
1695712464887124700,3.120124755859375,-4.632198333740234,-0.7574796676635742,-3.998239278793335
1695712464906198300,3.1391982421875,6.129268169403076,-1.4525489807128906,-7.443496227264404
1695712464925302300,3.15830224609375,-1.4732530117034912,-6.4344635009765625,-3.4984970092773438
1695712464944375800,3.177375732421875,-14.020383834838867,13.537732124328613,-1.6959627866744995
1695712464963510300,3.19651025390625,-8.526538848876953,16.353269577026367,-4.401613235473633
1695712464982553300,3.21555322265625,-0.743319034576416,3.954623222351074,1.9922215938568115
1695712465001657300,3.2346572265625,-9.600423812866211,4.847966194152832,-1.8850274085998535
1695712465020730600,3.253730712890625,-4.440483093261719,5.7839202880859375,-3.5220224857330322
1695712465039834600,3.272834716796875,3.0818514823913574,4.258858680725098,-2.079965353012085
1695712465058908200,3.291908203125,6.972659587860107,-0.18358993530273438,1.1861017942428589
1695712465078012200,3.31101220703125,3.0321269035339355,-2.428921699523926,-0.2919117510318756
1695712465097085700,3.330085693359375,-4.390985012054443,-4.278319358825684,-1.33444082736969
1695712465116189700,3.349189697265625,-4.239185810089111,-4.05677604675293,0.2242635041475296
1695712465135263200,3.36826318359375,-0.5846278667449951,-1.411879539489746,2.467273712158203
1695712465154397700,3.387397705078125,2.3515625,1.4981327056884766,0.8268529176712036
1695712465173471200,3.40647119140625,1.2411401271820068,-0.6214084625244141,0.17649954557418823
1695712465192575200,3.4255751953125,-0.5404933094978333,-1.5541305541992188,-0.11681248247623444
1695712465211648800,3.444648681640625,-0.0000934600830078125,-0.8396568298339844,-0.13854694366455078
1695712465230752800,3.463752685546875,1.5627179145812988,-0.23009967803955078,0.10363879799842834
1695712465249856800,3.482856689453125,1.5634196996688843,0.15970325469970703,0.07269001007080078
1695712465268930300,3.501930419921875,1.2866008281707764,0.3344392776489258,0.02719932794570923
1695712465288034300,3.521034423828125,2.1234793663024902,0.913914680480957,0.4970476031303406
1695712465307107600,3.540107666015625,1.9865367412567139,1.7310857772827148,0.5306071639060974
1695712465326211600,3.559211669921875,1.4395350217819214,1.6457405090332031,0.5457433462142944
1695712465345285000,3.57828515625,1.7397775650024414,1.4360065460205078,1.2495416402816772
1695712465364389000,3.59738916015625,2.9644317626953125,1.842193603515625,1.4197113513946533
1695712465383462700,3.616462646484375,3.499117374420166,2.4840803146362305,2.0190491676330566
1695712465402566700,3.635566650390625,2.0412392616271973,3.8807411193847656,3.5219297409057617
1695712465421640200,3.65464013671875,-0.759854793548584,4.595273971557617,4.350244045257568
1695712465440774700,3.673774658203125,-2.094282865524292,3.45291805267334,3.430176258087158
1695712465459848200,3.69284814453125,-1.350138783454895,1.294656753540039,0.32712507247924805
1695712465478952200,3.7119521484375,-0.8996185064315796,0.5108728408813477,-2.6633386611938477
1695712465498025700,3.731025634765625,-0.539746880531311,1.9186134338378906,-3.881409168243408
1695712465517129700,3.750129638671875,0.23280394077301025,3.916912078857422,-3.195220470428467
1695712465536203000,3.769203125,1.8972495794296265,5.351348876953125,-1.6281650066375732
1695712465555307000,3.78830712890625,0.8942000865936279,4.060548782348633,0.0804014801979065
1695712465574380500,3.807380615234375,-5.568778038024902,3.184978485107422,0.06917619705200195
1695712465593484500,3.826484619140625,-9.175996780395508,3.111281394958496,-0.9818950295448303
1695712465612558000,3.84555810546875,-6.508889198303223,-0.5747232437133789,-0.9744374752044678
1695712465631662000,3.864662109375,-2.6321613788604736,-2.618621826171875,-0.24763065576553345
1695712465650735600,3.883735595703125,-0.8254992961883545,-2.9302167892456055,-0.1641562581062317
1695712465669839600,3.902839599609375,-2.367044448852539,-2.87178897857666,-0.7266780734062195
1695712465688943600,3.921943603515625,-4.061295986175537,-2.5451717376708984,-1.398644208908081
1695712465708017200,3.94101708984375,-3.5552096366882324,-2.858335494995117,-1.2988630533218384
1695712465727182000,3.96018212890625,-3.4954872131347656,-4.088260650634766,-1.1698369979858398
1695712465746225200,3.97922509765625,-3.358375072479248,-5.094890594482422,-1.1171278953552246
1695712465765329200,3.9983291015625,-2.863003730773926,-5.537845611572266,-1.1301467418670654
1695712465784402700,4.017402587890625,-1.7817363739013672,-5.726072311401367,-1.162235140800476
1695712465803506700,4.036506591796875,-0.2404956817626953,-5.646048545837402,-0.7806311249732971
1695712465822580000,4.055580078125,0.29814863204956055,-4.038485527038574,-0.3574836850166321
1695712465841684000,4.07468408203125,1.782029628753662,-1.1290616989135742,-0.896442174911499
1695712465860757500,4.093757568359375,2.5387136936187744,3.420379638671875,-0.9403654932975769
1695712465879861500,4.112861572265625,2.5020880699157715,9.84251594543457,-1.0742329359054565
1695712465898935000,4.13193505859375,9.464597702026367,11.969815254211426,-1.593495488166809
1695712465918039000,4.1510390625,5.036369323730469,1.0427799224853516,-1.1319241523742676
1695712465937112600,4.170112548828125,-1.2890708446502686,-8.995830535888672,-1.89707612991333
1695712465956216600,4.189216552734375,0.27277636528015137,-5.206194877624512,-1.9333407878875732
1695712465975290000,4.2082900390625,1.5037353038787842,8.193764686584473,-1.7701499462127686
1695712465994394000,4.22739404296875,-9.730446815490723,14.951977729797363,-2.7641379833221436
1695712466013498000,4.246498046875,-4.922758102416992,0.46593189239501953,-0.2370780110359192
1695712466032602000,4.26560205078125,-5.960751533508301,-12.968374252319336,1.3800653219223022
1695712466051675600,4.284675537109375,-3.2338991165161133,-9.480886459350586,-2.6033899784088135
1695712466070779600,4.303779541015625,0.4452672004699707,5.240252494812012,0.13813191652297974
1695712466089883600,4.322883544921875,-1.4412312507629395,11.919060707092285,3.4472193717956543
1695712466108957000,4.34195703125,-4.895566940307617,4.637982368469238,1.4499987363815308
1695712466128061000,4.36106103515625,-2.2140252590179443,-1.6876592636108398,-1.63917875289917
1695712466147134500,4.380134521484375,-1.588687539100647,-3.6221446990966797,-1.315123438835144
1695712466166238500,4.399238525390625,-2.821023464202881,-1.8935461044311523,-0.043554097414016724
1695712466185312000,4.41831201171875,-1.7881988286972046,-0.4019756317138672,-0.6608142852783203
1695712466204416000,4.437416015625,0.11771076917648315,-0.9142484664916992,-0.9789441823959351
1695712466223489500,4.456489501953125,-0.006307870149612427,-1.936751365661621,-0.15261274576187134
1695712466242593500,4.475593505859375,-1.9143035411834717,-1.3369922637939453,-0.37476229667663574
1695712466261667000,4.4946669921875,-1.3800941705703735,-1.1841907501220703,-0.45228344202041626
1695712466280771000,4.51377099609375,0.5644770860671997,-1.6106653213500977,0.40854358673095703
1695712466299875000,4.532875,1.0968337059020996,-1.5369415283203125,0.9252604842185974
1695712466318979000,4.55197900390625,0.6957103610038757,-1.1501760482788086,1.0389270782470703
1695712466338052600,4.571052490234375,0.6961353421211243,-0.5215864181518555,1.0183525085449219
1695712466357156600,4.590156494140625,1.183103322982788,-0.2379446029663086,1.0173728466033936
1695712466376230000,4.60922998046875,0.7280101776123047,0.13257217407226562,0.8776372671127319
1695712466395334000,4.628333984375,0.37819862365722656,0.6917514801025391,0.6355055570602417
1695712466414407400,4.647407470703125,0.6288173198699951,0.9186487197875977,1.1919257640838623
1695712466433511400,4.666511474609375,1.2872447967529297,1.3149480819702148,1.8765554428100586
1695712466452585000,4.6855849609375,3.060609817504883,2.3260536193847656,1.5185092687606812
1695712466471689000,4.70468896484375,3.553986072540283,3.083224296569824,1.3350882530212402
1695712466490793000,4.72379296875,1.2061567306518555,4.058123588562012,1.702544093132019
1695712466509866500,4.742866455078125,-0.18723726272583008,3.9492359161376953,2.3715767860412598
1695712466528970500,4.761970458984375,-1.3427026271820068,2.6835193634033203,2.048309803009033
1695712466548044000,4.7810439453125,-0.9208097457885742,0.05852985382080078,-1.1605408191680908
1695712466567148000,4.80014794921875,-0.2751559913158417,-1.0912408828735352,-4.799501895904541
1695712466586252000,4.819251953125,-0.5124650001525879,1.4260883331298828,-6.190478324890137
1695712466605356000,4.83835595703125,1.3468232154846191,4.780922889709473,-3.8531675338745117
1695712466624429600,4.8574296875,2.965348243713379,4.979318618774414,-1.1078914403915405
1695712466643533600,4.876533447265625,0.4897034168243408,3.3932533264160156,-0.33824431896209717
1695712466662606800,4.89560693359375,-4.946181297302246,2.417268753051758,-0.12362122535705566
1695712466681710800,4.9147109375,-13.209935188293457,2.260676383972168,-1.7452229261398315
1695712466700784400,4.933784423828125,-7.346965789794922,0.2572803497314453,-0.7026727199554443
1695712466719888400,4.952888427734375,-0.8309659957885742,-2.094696044921875,-0.18539929389953613
1695712466738962000,4.9719619140625,0.7320365905761719,-2.3536453247070312,0.03370010852813721
1695712466758066000,4.99106591796875,-0.8114290237426758,-2.2652769088745117,-0.5117537975311279
1695712466777139500,5.010139404296875,-2.28871488571167,-2.019923210144043,-1.2073743343353271
1695712466796243500,5.029243408203125,-3.358001232147217,-2.109738349914551,-1.6492007970809937
1695712466815317000,5.04831689453125,-4.319151401519775,-3.3060922622680664,-1.1375041007995605
1695712466834421000,5.0674208984375,-3.4948225021362305,-4.308967590332031,-0.5757443904876709
1695712466853494300,5.086494384765625,-1.7050957679748535,-4.963506698608398,-0.2853109836578369
1695712466872629000,5.10562890625,-0.26816320419311523,-5.0719099044799805,-0.2237396240234375
1695712466891733000,5.12473291015625,-0.16731691360473633,-4.452970504760742,-0.4122272729873657
1695712466910806500,5.143806640625,-0.5577137470245361,-3.4411182403564453,-0.2697714567184448
1695712466929910500,5.16291064453125,0.0961916446685791,-1.2361907958984375,0.07083094120025635
1695712466948983800,5.18198388671875,2.074648141860962,1.8875446319580078,0.39747393131256104
1695712466968087800,5.201087890625,2.216571569442749,5.466183662414551,0.21318387985229492
1695712466987161300,5.220161376953125,3.0181000232696533,7.190217971801758,-0.9436954259872437
1695712467006265300,5.239265380859375,6.301102638244629,5.171998023986816,-2.870516777038574
1695712467025339000,5.2583388671875,5.556258678436279,-0.5525283813476562,-4.848652362823486
1695712467044443000,5.27744287109375,1.3559176921844482,-6.667597770690918,-3.9269323348999023
1695712467063516400,5.296516357421875,-0.8599998950958252,-7.452920913696289,-2.0362613201141357
1695712467082651000,5.31565087890625,-0.41533613204956055,-1.4585609436035156,-1.5155993700027466
1695712467101694000,5.33469384765625,3.5666284561157227,9.805791854858398,-1.2496616840362549
1695712467120798000,5.3537978515625,-1.9338717460632324,15.636743545532227,-1.5838369131088257
1695712467139902000,5.37290185546875,-4.766178131103516,2.9019851684570312,-2.4063429832458496
1695712467159006000,5.392005859375,-4.124279022216797,-11.821972846984863,1.8090983629226685
1695712467178079200,5.411079345703125,-10.250061988830566,-12.589290618896484,-1.2835261821746826
1695712467197183200,5.430183349609375,-2.840271472930908,-1.813669204711914,0.4933408498764038
1695712467216256800,5.4492568359375,-0.3783535957336426,8.240925788879395,4.388458251953125
1695712467235360800,5.46836083984375,-3.2666640281677246,8.912899017333984,2.4333343505859375
1695712467254434300,5.487434326171875,-3.7465107440948486,1.150115966796875,-1.9575365781784058
1695712467273538300,5.506538330078125,-0.012314677238464355,-3.393869400024414,-2.7955245971679688
1695712467292611800,5.52561181640625,0.6135447025299072,-3.3737335205078125,-0.9038389921188354
1695712467311715800,5.5447158203125,-1.3315308094024658,-0.9641733169555664,0.8327887058258057
1695712467330819800,5.56381982421875,-2.146908760070801,0.22928142547607422,1.1726188659667969
1695712467349893400,5.582893310546875,-0.8853660225868225,-1.5139141082763672,1.289034366607666
1695712467368997400,5.601997314453125,-0.8410346508026123,-1.792496681213379,0.609998881816864
1695712467388071000,5.62107080078125,-0.7845195531845093,-0.6548290252685547,0.22646987438201904
1695712467407175000,5.6401748046875,0.21427926421165466,-0.5101518630981445,0.45412421226501465
1695712467426279000,5.65927880859375,1.2825665473937988,-0.9509983062744141,0.9755801558494568
1695712467445383000,5.6783828125,1.2455012798309326,-0.9090595245361328,1.1158475875854492
1695712467464456200,5.697456298828125,1.4560015201568604,-0.7469310760498047,1.0245596170425415
1695712467483560200,5.716560302734375,1.6856769323349,-0.5384988784790039,0.735247015953064
1695712467502633700,5.7356337890625,1.6414821147918701,-0.2546224594116211,0.573698878288269
1695712467521737700,5.75473779296875,1.8965530395507812,0.2639484405517578,0.3386772871017456
1695712467540811300,5.773811279296875,2.3398122787475586,1.077789306640625,0.2693958282470703
1695712467559915300,5.792915283203125,1.3483688831329346,1.4336318969726562,0.586575984954834
1695712467578988800,5.81198876953125,0.751618504524231,1.2736682891845703,1.742240071296692
1695712467598092800,5.8310927734375,1.5604645013809204,2.335198402404785,2.0528383255004883
1695712467617166300,5.850166259765625,2.3136446475982666,4.96126651763916,1.848231554031372
1695712467636270300,5.869270263671875,2.187807321548462,6.408522605895996,2.5161848068237305
1695712467655343900,5.88834375,0.3309919834136963,5.323312759399414,3.115415096282959
1695712467674448000,5.90744775390625,-1.156807780265808,3.154050827026367,1.4363936185836792
1695712467693521200,5.926521240234375,-0.13672572374343872,-0.24286842346191406,-1.201368808746338
1695712467712656000,5.94565576171875,-0.23814451694488525,0.05800342559814453,-2.9167590141296387
1695712467731729200,5.964729248046875,-0.7751997709274292,2.2716293334960938,-2.810565948486328
1695712467750833200,5.983833251953125,-1.9746990203857422,3.4471330642700195,-2.6958935260772705
1695712467769937200,6.002937255859375,-0.7901749610900879,3.3931360244750977,-2.3536336421966553
1695712467789010700,6.0220107421875,-0.009809374809265137,2.364116668701172,-2.003584146499634
1695712467808114700,6.04111474609375,-0.23905539512634277,2.911203384399414,-1.392393946647644
1695712467827188200,6.060188232421875,-5.3574676513671875,2.7098045349121094,-0.6058889627456665
1695712467846322700,6.07932275390625,-6.0269622802734375,0.45833683013916016,1.3018505573272705
1695712467865365800,6.09836572265625,-3.164262533187866,-1.0637569427490234,1.2004832029342651
1695712467884469800,6.1174697265625,-2.9457645416259766,-1.9683380126953125,0.2328941822052002
1695712467903543300,6.136543212890625,-3.2573323249816895,-2.4072866439819336,-0.5009961128234863
1695712467922647300,6.155647216796875,-3.976346492767334,-2.552347183227539,-1.0949465036392212
1695712467941720800,6.174720947265625,-5.04236364364624,-3.6732301712036133,-0.7621074914932251
1695712467960824800,6.193824951171875,-4.417347431182861,-5.089766502380371,-0.19093191623687744
1695712467979898000,6.212898193359375,-3.1394686698913574,-6.034911155700684,0.21597766876220703
1695712467999002000,6.232002197265625,-2.047318458557129,-6.243793487548828,0.3588087558746338
1695712468018106000,6.251106201171875,-1.3553051948547363,-5.7105817794799805,0.1327512264251709
1695712468037210000,6.270210205078125,-0.6484775543212891,-4.783185005187988,-0.06685841083526611
1695712468056283600,6.28928369140625,0.4663660526275635,-3.163482666015625,0.026122689247131348
1695712468075387600,6.3083876953125,2.314605712890625,-0.2539253234863281,-0.510322093963623
1695712468094461200,6.327461181640625,4.606650352478027,6.5631818771362305,-0.7107428312301636
1695712468113565200,6.346565185546875,5.223489761352539,13.999631881713867,-2.7701776027679443
1695712468132638700,6.365638671875,10.167206764221191,10.687090873718262,-6.13492488861084
1695712468151742700,6.38474267578125,2.5801215171813965,-2.9133825302124023,-5.185070991516113
1695712468170846700,6.4038466796875,-1.5410220623016357,-9.688109397888184,-3.8943934440612793
1695712468189920300,6.422920166015625,-2.05116605758667,-2.2349853515625,-2.8693439960479736
1695712468209024300,6.442024169921875,0.35353875160217285,8.080946922302246,-0.40278470516204834
1695712468228097500,6.46109765625,-6.078124046325684,4.509532928466797,1.8284666538238525
1695712468247201800,6.480201904296875,-2.535982847213745,-2.0150747299194336,3.312990665435791
1695712468266275000,6.499275146484375,-7.249927520751953,-5.512677192687988,3.021933078765869
1695712468285379000,6.518379150390625,-2.8337347507476807,0.722111701965332,1.83591890335083
1695712468304483000,6.537483154296875,-3.1538727283477783,5.455753326416016,1.5827289819717407
1695712468323587000,6.556587158203125,-4.351579666137695,4.163318634033203,1.1263744831085205
1695712468342660600,6.57566064453125,-0.9981212615966797,-0.34079647064208984,-1.122651219367981
1695712468361764600,6.5947646484375,1.192873239517212,-2.341547966003418,-3.027738094329834
1695712468380838100,6.613838134765625,0.12848377227783203,-2.088494300842285,-1.3645027875900269
1695712468399942100,6.632942138671875,-2.5237464904785156,-0.6034145355224609,1.107223629951477
1695712468419015700,6.652015625,-4.588652610778809,0.1309986114501953,1.6958627700805664
1695712468438119700,6.67111962890625,-2.6586432456970215,-1.2871780395507812,1.363176941871643
1695712468457193200,6.690193115234375,0.19328945875167847,-2.6415023803710938,1.1472631692886353
1695712468476297200,6.709297119140625,-0.2609438896179199,-1.9272842407226562,0.9319791793823242
1695712468495370500,6.72837060546875,-0.8895218968391418,-0.7353649139404297,0.7395690679550171
1695712468514474500,6.747474609375,0.10722598433494568,-0.856013298034668,0.716936469078064
1695712468533548000,6.766548095703125,1.1749060153961182,-1.1335763931274414,0.3388352394104004
1695712468552652000,6.785652099609375,1.7823688983917236,-1.235422134399414,0.15597772598266602
1695712468571756000,6.804756103515625,2.064650058746338,-0.8184185028076172,0.0021941661834716797
1695712468590860000,6.823860107421875,2.3715388774871826,-0.09935283660888672,-0.0901947021484375
1695712468609994800,6.842994873046875,2.65181827545166,0.23869609832763672,0.4094301462173462
1695712468629037600,6.86203759765625,1.3088539838790894,1.286881446838379,1.3162720203399658
1695712468648141600,6.8811416015625,0.06591463088989258,1.7273693084716797,2.7847933769226074
1695712468667215000,6.900215087890625,1.1284050941467285,2.092127799987793,3.538275957107544
1695712468686319000,6.919319091796875,2.509385585784912,3.6281890869140625,2.426807403564453
1695712468705392600,6.938392578125,2.8955469131469727,4.763406753540039,2.2334156036376953
1695712468724496600,6.95749658203125,2.1977429389953613,4.517572402954102,2.844392776489258
1695712468743570200,6.976570068359375,-0.3338472843170166,4.579756736755371,2.583786964416504
1695712468762674200,6.995674072265625,-1.431761384010315,2.090338706970215,0.17539966106414795
1695712468781747500,7.01474755859375,-0.5536739826202393,-0.4804220199584961,-3.137209892272949
1695712468800851500,7.0338515625,-0.6146606206893921,1.9776077270507812,-5.159342288970947
1695712468819925000,7.052925048828125,-0.5703992247581482,3.8402833938598633,-4.381453990936279
1695712468839029000,7.072029052734375,-0.47625792026519775,4.582345962524414,-2.6497011184692383
1695712468858133000,7.091133056640625,0.29784440994262695,3.9956207275390625,-1.4214437007904053
1695712468877237000,7.110237060546875,-1.781691074371338,3.3742876052856445,-0.9816716909408569
1695712468896310500,7.129310546875,-6.490317344665527,3.681720733642578,-0.8629621267318726
1695712468915414500,7.14841455078125,-2.7333414554595947,1.755544662475586,1.4848930835723877
1695712468934488000,7.167488037109375,-5.9594831466674805,-3.06760311126709,0.6585348844528198
1695712468953592000,7.186592041015625,-4.992312431335449,-2.195713996887207,-0.13767731189727783
1695712468972665600,7.20566552734375,-2.0823440551757812,-1.8760900497436523,-0.026387333869934082
1695712468991769600,7.22476953125,-2.1539525985717773,-2.628281593322754,-0.40602588653564453
1695712469010873600,7.24387353515625,-3.8999452590942383,-3.37060546875,-0.8558586835861206
1695712469029947100,7.262947021484375,-5.232716083526611,-4.686975479125977,-0.5616470575332642
1695712469049051100,7.282051025390625,-3.773496627807617,-5.613583564758301,-0.03743302822113037
1695712469068124400,7.30112451171875,-2.238046169281006,-6.0684099197387695,0.3474094867706299
1695712469087228400,7.320228515625,-1.372894287109375,-5.878754615783691,0.18391132354736328
1695712469106302000,7.339302001953125,-1.4583892822265625,-5.258746147155762,-0.24701344966888428
1695712469125406000,7.358406005859375,-1.1068599224090576,-3.922842025756836,-0.37107276916503906
1695712469144510000,7.377510009765625,0.4315762519836426,-1.3280439376831055,-0.6955951452255249
1695712469163614000,7.396614013671875,4.241849899291992,3.56927490234375,-0.16835129261016846
1695712469182687500,7.4156875,6.7649383544921875,11.6151704788208,0.2781555652618408
1695712469201791500,7.43479150390625,7.640544891357422,13.404102325439453,-4.508912086486816
1695712469220865000,7.453864990234375,7.3799638748168945,2.5664920806884766,-7.600879669189453
1695712469239969000,7.472968994140625,0.9754719734191895,-10.296479225158691,-4.30957555770874
1695712469259042600,7.49204248046875,-4.738945960998535,-9.868760108947754,-4.094537734985352
1695712469278146600,7.511146484375,-3.325143814086914,0.6723356246948242,-3.3758938312530518
1695712469297220000,7.53022021484375,-0.09433722496032715,11.879138946533203,-0.5875570774078369
1695712469316324000,7.549323974609375,-3.156111001968384,8.347482681274414,2.0046777725219727
1695712469335397400,7.5683974609375,0.3800501823425293,-1.1633472442626953,5.672430992126465
1695712469354501400,7.58750146484375,-8.571266174316406,-6.5912580490112305,2.918519973754883
1695712469373575000,7.606574951171875,-4.352853298187256,-0.772059440612793,1.0815627574920654
1695712469392679000,7.625678955078125,-3.328066349029541,4.030154228210449,1.0178701877593994
1695712469411783000,7.644782958984375,-2.307461977005005,3.3408098220825195,1.1046994924545288
1695712469430887000,7.663886962890625,-0.8518627882003784,-0.1103363037109375,-0.905511736869812
1695712469449991000,7.682990966796875,-0.041149020195007324,-1.3448820114135742,-3.3535749912261963
1695712469469064400,7.702064453125,-0.11892199516296387,-1.5096683502197266,-1.582846999168396
1695712469488168400,7.72116845703125,-2.121208429336548,-1.1066398620605469,0.8760102987289429
1695712469507242000,7.740241943359375,-3.824733257293701,-0.9698104858398438,1.607055902481079
1695712469526346000,7.759345947265625,-1.9715646505355835,-1.4537591934204102,1.2516483068466187
1695712469545419500,7.77841943359375,-0.23065419495105743,-2.119159698486328,1.0802377462387085
1695712469564523500,7.7975234375,-0.3568612039089203,-1.545201301574707,0.5094046592712402
1695712469583597000,7.81659716796875,-0.783706545829773,-1.180222511291504,0.4019870162010193
1695712469602701000,7.835701171875,-0.13687294721603394,-1.544438362121582,0.7433797121047974
1695712469621774300,7.8547744140625,1.1556025743484497,-1.1187410354614258,1.0062552690505981
1695712469640878300,7.87387841796875,2.317046642303467,-0.634246826171875,1.073207974433899
1695712469659951900,7.892951904296875,2.1803858280181885,-0.2669563293457031,0.5880918502807617
1695712469679056000,7.912055908203125,1.940163254737854,-0.09205818176269531,0.027195096015930176
1695712469698129400,7.93112939453125,3.047734260559082,0.3735513687133789,0.28099584579467773
1695712469717264000,7.950263916015625,2.3452367782592773,1.602656364440918,1.0482327938079834
1695712469736337400,7.96933740234375,0.6934282779693604,2.296982765197754,2.1546883583068848
1695712469755441400,7.98844140625,1.509550929069519,2.5328941345214844,2.6869325637817383
1695712469774515000,8.007514892578126,2.3688879013061523,3.4816341400146484,1.881837010383606
1695712469793619000,8.026618896484376,2.2774462699890137,4.6268463134765625,2.214812755584717
1695712469812723000,8.045722900390626,1.4816007614135742,5.070954322814941,2.9693989753723145
1695712469831796500,8.06479638671875,-0.341599702835083,4.161070823669434,3.222252130508423
1695712469850900500,8.083900390625,-1.165932297706604,1.1199445724487305,1.3946006298065186
1695712469869973800,8.102973876953126,-0.47458475828170776,-0.5967769622802734,-1.5733933448791504
1695712469889077800,8.122077880859376,-0.5194255113601685,2.402965545654297,-3.7019271850585938
1695712469908151300,8.1411513671875,-0.6573988795280457,4.636665344238281,-3.5783958435058594
1695712469927255300,8.16025537109375,-0.5996195077896118,5.147518157958984,-2.3537373542785645
1695712469946328800,8.179328857421876,0.4896860122680664,3.587148666381836,-0.9587550163269043
1695712469965463300,8.19846337890625,-1.7053327560424805,2.9644651412963867,-0.47736215591430664
1695712469984506400,8.21750634765625,-6.233238697052002,3.5288429260253906,-0.48430943489074707
1695712470003610400,8.2366103515625,-5.785782337188721,0.4837636947631836,1.0031993389129639
1695712470022714400,8.25571435546875,-3.2138302326202393,-1.6265010833740234,1.561220645904541
1695712470041818400,8.274818359375,-2.2139248847961426,-2.2695865631103516,0.8616185188293457
1695712470060892000,8.293891845703126,-3.0329670906066895,-2.670903205871582,-0.16359448432922363
1695712470079996000,8.312995849609376,-4.024145603179932,-2.733919143676758,-0.9978828430175781
1695712470099069400,8.3320693359375,-4.917379379272461,-3.2748003005981445,-1.0978922843933105
1695712470118173400,8.35117333984375,-4.890310287475586,-4.548862457275391,-0.5277538299560547
1695712470137246700,8.370246826171876,-4.471623420715332,-5.569257736206055,0.1449260711669922
1695712470156350700,8.389350830078126,-2.264153480529785,-6.073945999145508,0.5034334659576416
1695712470175424300,8.40842431640625,-0.8961620330810547,-5.565273284912109,0.09819722175598145
1695712470194528300,8.4275283203125,-0.23842477798461914,-4.702132225036621,-0.4655001163482666
1695712470213632300,8.44663232421875,0.3912484645843506,-3.4281539916992188,-0.5850772857666016
1695712470232705800,8.465705810546876,1.882749080657959,-1.239790916442871,-0.8126535415649414
1695712470251809800,8.484809814453126,4.064892768859863,3.281187057495117,-1.1252126693725586
1695712470270883300,8.50388330078125,4.002473831176758,9.68007755279541,-1.5694804191589355
1695712470289987300,8.5229873046875,6.101039886474609,11.96927261352539,-3.02659273147583
1695712470309091300,8.54209130859375,7.535015106201172,3.472503662109375,-3.6471996307373047
1695712470328195300,8.5611953125,1.599501609802246,-7.870752334594727,-3.0339548587799072
1695712470347268900,8.580268798828126,-1.536900520324707,-8.22043514251709,-2.803288221359253
1695712470366372900,8.599372802734376,1.6321887969970703,2.159884452819824,-2.538553237915039
1695712470385446400,8.6184462890625,0.2133018970489502,12.056153297424316,-1.1413545608520508
1695712470404550400,8.63755029296875,-10.394247055053711,5.239009857177734,0.5987193584442139
1695712470423623700,8.656623779296876,-3.3415439128875732,-5.7862138748168945,2.894869089126587
1695712470442727700,8.675727783203126,-5.598105430603027,-8.728988647460938,1.4938678741455078
1695712470461801200,8.69480126953125,-1.0257558822631836,0.7549915313720703,0.8064277172088623
1695712470480905200,8.7139052734375,-2.4056310653686523,7.504054069519043,1.7013269662857056
1695712470499978800,8.732978759765626,-3.7399868965148926,4.783571243286133,1.4764896631240845
1695712470519082800,8.752082763671876,-2.6690616607666016,-1.145528793334961,-1.3972082138061523
1695712470538156300,8.77115625,-0.8814569711685181,-3.1152305603027344,-2.225306987762451
1695712470557260300,8.79026025390625,-1.0900628566741943,-1.482351303100586,-0.06969022750854492
1695712470576364300,8.8093642578125,-1.747455358505249,0.45314884185791016,0.8309670090675354
1695712470595468300,8.82846826171875,-2.3050315380096436,-0.13367748260498047,0.8091216087341309
1695712470614541800,8.847541748046876,-0.9187748432159424,-1.7491168975830078,0.6554373502731323
1695712470633645800,8.866645751953126,-0.8808157444000244,-1.9556760787963867,0.24299395084381104
1695712470652749800,8.885749755859376,-0.7336345314979553,-1.1797199249267578,-0.28407782316207886
1695712470671823400,8.9048232421875,0.1334526538848877,-1.2295265197753906,0.07282775640487671
1695712470690927400,8.92392724609375,1.023932695388794,-1.7542486190795898,0.9092500805854797
1695712470710000600,8.943000732421876,1.2421389818191528,-1.481557846069336,1.3418711423873901
1695712470729135400,8.96213525390625,1.6372265815734863,-0.6194000244140625,1.8540600538253784
1695712470748178200,8.98117822265625,1.6955028772354126,-0.5901947021484375,1.996885895729065
1695712470767282200,9.0002822265625,1.6390111446380615,-0.5294713973999023,1.583881139755249
1695712470786355700,9.019355712890626,2.0841097831726074,0.6727313995361328,0.9597930908203125
1695712470805459700,9.038459716796876,2.278303861618042,1.5862512588500977,0.6995836496353149
1695712470824533200,9.057533203125,1.8190507888793945,1.3473844528198242,1.998496651649475
1695712470843637200,9.07663720703125,1.7054327726364136,2.130507469177246,2.716604232788086
1695712470862741200,9.0957412109375,2.728811740875244,3.46976375579834,2.329683780670166
1695712470881845200,9.11484521484375,2.7028491497039795,4.611201286315918,2.210176944732666
1695712470900918800,9.133918701171876,0.7193888425827026,5.131540298461914,2.0063600540161133
1695712470920022800,9.153022705078126,-1.4518659114837646,3.785219192504883,2.176109790802002
1695712470939096300,9.172096435546875,-1.7551155090332031,0.9267339706420898,0.509318470954895
1695712470958200300,9.191200439453125,-0.5556943416595459,0.039816856384277344,-3.0886106491088867
1695712470977273600,9.210273681640626,-0.03148344159126282,2.617849349975586,-5.617022514343262
1695712470996377600,9.229377685546876,0.3243986964225769,4.704155921936035,-5.2277421951293945
1695712471015451100,9.248451171875,0.36935484409332275,4.803319931030273,-3.0509071350097656
1695712471034555100,9.26755517578125,0.48936641216278076,3.5179319381713867,-1.5181891918182373
1695712471053659100,9.2866591796875,-3.170344829559326,3.4849300384521484,-1.166024088859558
1695712471072732700,9.305732666015626,-8.284643173217773,3.5933732986450195,-0.8115166425704956
1695712471091836700,9.324836669921876,-6.665605545043945,-0.3496570587158203,0.8262062072753906
1695712471110910200,9.34391015625,-2.538811206817627,-2.309019088745117,1.3245922327041626
1695712471130014200,9.36301416015625,-1.014824390411377,-2.8183326721191406,0.8904061317443848
1695712471149118200,9.3821181640625,-2.269162654876709,-3.034285545349121,-0.28398966789245605
1695712471168222200,9.40122216796875,-3.201120376586914,-3.6547298431396484,-0.946318507194519
1695712471187295700,9.420295654296876,-4.339749336242676,-4.486004829406738,-0.6758711338043213
1695712471206399700,9.439399658203126,-4.112762928009033,-5.235877990722656,-0.19892168045043945
1695712471225473000,9.45847314453125,-2.6999435424804688,-5.574093818664551,0.36245715618133545
1695712471244577300,9.477577392578125,-1.598958969116211,-5.7296552658081055,0.5304266214370728
1695712471263650600,9.496650634765626,-1.2244129180908203,-5.511686325073242,-0.20015835762023926
1695712471282754600,9.515754638671876,-0.842130184173584,-5.013598442077637,-0.6814097166061401
1695712471301828000,9.534828125,0.1945176124572754,-3.784025192260742,-0.6115716695785522
1695712471320932000,9.55393212890625,1.9532804489135742,-0.9229011535644531,-0.7483854293823242
1695712471340005600,9.573005615234376,4.586126327514648,5.415544509887695,-0.09236001968383789
1695712471359109600,9.592109619140626,5.783660888671875,13.671239852905273,-0.6575210094451904
1695712471378183200,9.61118310546875,8.781417846679688,12.953839302062988,-4.897780418395996
1695712471397287200,9.630287109375,4.649300575256348,-0.9787673950195312,-5.226423263549805
1695712471416360700,9.649360595703126,-0.10247206687927246,-12.938706398010254,-2.627105712890625
1695712471435495200,9.6684951171875,-3.030493974685669,-12.293471336364746,-2.5210747718811035
1695712471454599200,9.68759912109375,-3.175976276397705,-1.4016590118408203,-2.3504323959350586
1695712471473672700,9.706672607421876,2.278085231781006,15.723084449768066,-1.53717041015625
1695712471492807200,9.72580712890625,-9.652802467346191,17.089710235595703,-0.6746257543563843
1695712471511850000,9.74485009765625,2.5009970664978027,0.19547080993652344,5.486968517303467
1695712471530954000,9.7639541015625,-9.677242279052734,-11.963661193847656,2.970125436782837
1695712471550027500,9.783027587890626,-5.930533409118652,-7.253848075866699,-2.312943696975708
1695712471569131500,9.802131591796876,-0.6010003089904785,3.4184112548828125,-0.30740225315093994
1695712471588205000,9.821205078125,0.8334403038024902,6.509365081787109,3.083099365234375
1695712471607309000,9.84030908203125,-2.5399012565612793,2.9531478881835938,0.6927508115768433
1695712471626382600,9.859382568359376,-2.8797340393066406,-0.20658206939697266,-2.297813653945923
1695712471645486600,9.878486572265626,-1.2932169437408447,-2.037156105041504,0.15359175205230713
1695712471664560000,9.89756005859375,-0.870293140411377,-1.915633201599121,1.8932018280029297
1695712471683664100,9.9166640625,-1.2131626605987549,-1.428135871887207,1.174359917640686
1695712471702737700,9.935737548828126,-0.8342676162719727,-1.9412612915039062,0.39261394739151
1695712471721841700,9.954841552734376,-0.8193614482879639,-2.1751012802124023,0.08180731534957886
1695712471740945700,9.973945556640626,-0.7120777368545532,-1.446359634399414,0.0775485634803772
1695712471760049700,9.993049560546876,0.07419896125793457,-1.1395683288574219,0.45209091901779175
1695712471779123000,10.012123046875,1.3300151824951172,-1.1584787368774414,0.653627872467041
1695712471798227000,10.03122705078125,1.6309714317321777,-1.101731300354004,0.741981029510498
1695712471817300500,10.050300537109376,1.8625763654708862,-0.8188972473144531,0.7835742235183716
1695712471836404500,10.069404541015626,2.3344688415527344,-0.4227018356323242,0.6945610046386719
1695712471855478000,10.08847802734375,2.511423349380493,-0.0109405517578125,0.9398483037948608
1695712471874582000,10.10758203125,2.2818708419799805,0.940007209777832,1.5533249378204346
1695712471893686000,10.12668603515625,0.9038828611373901,2.1702356338500977,1.8845150470733643
1695712471912759600,10.145759521484376,0.7769255638122559,2.245785713195801,2.738976001739502
1695712471931863600,10.164863525390626,2.4349350929260254,3.081955909729004,1.8820104598999023
1695712471950937000,10.18393701171875,3.8284239768981934,3.2699155807495117,0.885582447052002
1695712471970041000,10.203041015625,3.1873364448547363,2.7110986709594727,1.4067869186401367
1695712471989114600,10.222114501953126,1.0382024049758911,3.598543167114258,2.1933696269989014
1695712472008218600,10.241218505859376,-1.877896785736084,3.4656553268432617,2.928246259689331
1695712472027322600,10.260322509765626,-2.0273597240448,1.551589012145996,0.9480642080307007
1695712472046426600,10.279426513671876,-1.3083007335662842,1.2617406845092773,-2.5499374866485596
1695712472065500000,10.2985,-0.5862574577331543,2.852996826171875,-5.487099647521973
1695712472084604000,10.31760400390625,-0.7169053554534912,3.820138931274414,-5.674517631530762
1695712472103677400,10.336677490234376,1.2581771612167358,4.241297721862793,-2.804725170135498
1695712472122781400,10.355781494140626,2.4826035499572754,3.716862678527832,-0.7667782306671143
1695712472141855000,10.37485498046875,-2.1511600017547607,3.8949928283691406,-0.6764929294586182
1695712472160959000,10.393958984375,-7.476191520690918,3.5115718841552734,-0.7776280641555786
1695712472180032500,10.413032470703126,-6.896815299987793,-0.5580806732177734,1.1600004434585571
1695712472199136500,10.432136474609376,-3.331176996231079,-2.5916500091552734,1.2581313848495483
1695712472218210000,10.4512099609375,-2.4476945400238037,-2.8999109268188477,0.24971389770507812
1695712472237314000,10.47031396484375,-2.9180169105529785,-3.169398307800293,-0.6125115156173706
1695712472256387600,10.4893876953125,-3.2812094688415527,-3.84354305267334,-0.7340700626373291
1695712472275491600,10.50849169921875,-4.0638651847839355,-4.560129165649414,-0.17615830898284912
1695712472294595600,10.527595703125,-3.539790153503418,-4.96961784362793,0.13479793071746826
1695712472313699600,10.546699462890626,-2.931817054748535,-5.392400741577148,0.33563828468322754
1695712472332803600,10.565803466796876,-1.91127347946167,-5.7344560623168945,0.2208782434463501
1695712472351876900,10.584876953125,-0.9434165954589844,-5.423022270202637,-0.6392809152603149
1695712472370980900,10.60398095703125,-0.11093425750732422,-4.713858604431152,-0.684443473815918
1695712472390054400,10.623054443359376,0.7367990016937256,-3.0479726791381836,-0.2989104986190796
1695712472409158400,10.642158447265626,3.0215799808502197,1.5313434600830078,-0.49484169483184814
1695712472428232000,10.66123193359375,5.704047679901123,10.769577980041504,-0.8801393508911133
1695712472447336000,10.6803359375,6.967124938964844,14.442167282104492,-5.417834281921387
1695712472466409500,10.699409423828126,9.051298141479492,4.83493709564209,-7.361957550048828
1695712472485513500,10.718513427734376,2.4123127460479736,-8.940637588500977,-3.314340353012085
1695712472504587000,10.7375869140625,-4.06741189956665,-10.965563774108887,-2.9000730514526367
1695712472523691000,10.75669091796875,-4.207861423492432,-1.6234254837036133,-2.7784159183502197
1695712472542764300,10.775764404296876,3.6419484615325928,11.431982040405273,-0.4228394031524658
1695712472561868300,10.794868408203126,-6.613243103027344,11.242330551147461,0.992340087890625
1695712472580972500,10.81397265625,-0.6415901184082031,-0.09522342681884766,4.7671356201171875
1695712472600076500,10.83307666015625,-7.074082374572754,-6.91651725769043,1.9659005403518677
1695712472619149800,10.85214990234375,-2.2688217163085938,-2.961801528930664,0.5485520362854004
1695712472638253800,10.87125390625,-2.346763849258423,3.100844383239746,1.770595908164978
1695712472657327400,10.890327392578126,-3.6522879600524902,3.5511388778686523,2.8887336254119873
1695712472676431400,10.909431396484376,-2.6665656566619873,0.964350700378418,0.9171932935714722
1695712472695505000,10.9285048828125,-0.7567934989929199,-0.6274175643920898,-3.0053019523620605
1695712472714609000,10.94760888671875,0.04763662815093994,-1.3779287338256836,-2.3601651191711426
1695712472733713000,10.966712890625,-1.5121313333511353,-1.6068544387817383,0.47223448753356934
1695712472752786400,10.985786376953126,-3.0569498538970947,-1.0372076034545898,1.5231373310089111
1695712472771890400,11.004890380859376,-2.023789167404175,-1.2691221237182617,0.9785313010215759
1695712472790964000,11.0239638671875,-0.4020879864692688,-1.9989213943481445,0.6887401938438416
1695712472810068000,11.04306787109375,-0.09299623966217041,-1.6438331604003906,0.48707449436187744
1695712472829141200,11.062141357421876,-0.20497626066207886,-1.093672752380371,0.7839521765708923
1695712472848276000,11.08127587890625,0.20822882652282715,-1.0468931198120117,0.89848792552948
1695712472867349200,11.100349365234376,0.9025466442108154,-1.0628461837768555,0.9733792543411255
1695712472886453200,11.119453369140626,1.3464816808700562,-0.938563346862793,1.0028843879699707
1695712472905526800,11.13852685546875,1.9479838609695435,-0.5036945343017578,0.7031395435333252
1695712472924630800,11.157630859375,2.49562406539917,-0.10276603698730469,0.4891303777694702
1695712472943704300,11.176704345703126,2.8549818992614746,0.3974742889404297,0.880865216255188
1695712472962808300,11.195808349609376,2.003629207611084,1.5007505416870117,1.0560318231582642
1695712472981881900,11.2148818359375,1.0957157611846924,1.6968650817871094,1.4992955923080444
1695712473000977400,11.233977294921875,2.0468525886535645,1.7384033203125,2.2063698768615723
1695712473020051000,11.253051025390626,3.0296263694763184,2.8337926864624023,1.649704098701477
1695712473039155000,11.272155029296876,3.1157467365264893,3.529491424560547,1.5651124715805054
1695712473058228500,11.291228515625,1.7954140901565552,4.4638166427612305,2.331261157989502
1695712473077332500,11.31033251953125,-0.319161057472229,4.489150047302246,3.361574649810791
1695712473096405800,11.32940576171875,-1.9019944667816162,3.236330986022949,2.9664459228515625
1695712473115509800,11.348509765625,-1.5687549114227295,1.0995550155639648,0.35939812660217285
1695712473134583300,11.367583251953125,-0.8823898434638977,1.9531316757202148,-3.2065258026123047
1695712473153718000,11.386718017578126,-0.5265891551971436,3.6320533752441406,-4.851160049438477
1695712473172822000,11.405822021484376,-0.9634174108505249,4.3907880783081055,-4.142131328582764
1695712473191895300,11.424895263671875,0.6852400302886963,3.469043731689453,-1.4667208194732666
1695712473210999300,11.443999267578125,0.33007264137268066,2.8114471435546875,0.01602792739868164
1695712473230072800,11.46307275390625,-4.643085479736328,3.4410324096679688,-0.2898597717285156
1695712473249176800,11.4821767578125,-6.73750114440918,1.5713834762573242,0.18322062492370605
1695712473268250400,11.50125048828125,-4.9633588790893555,-1.3346633911132812,1.3898569345474243
1695712473287354400,11.520354248046875,-2.532325029373169,-2.3719749450683594,1.3257983922958374
1695712473306428000,11.539427978515626,-2.5934126377105713,-2.781383514404297,0.891716480255127
1695712473325532000,11.558531982421876,-3.589385986328125,-2.925638198852539,-0.021564483642578125
1695712473344605400,11.57760546875,-4.125943183898926,-3.3065404891967773,-0.6253560781478882
1695712473363709400,11.59670947265625,-4.461740493774414,-4.158149719238281,-0.5213053226470947
1695712473382782700,11.61578271484375,-3.7881813049316406,-5.188994407653809,-0.10929453372955322
1695712473401886700,11.63488671875,-2.585841655731201,-5.762767791748047,0.2149602174758911
1695712473420960300,11.653960205078125,-1.5153484344482422,-5.680658340454102,0.15124189853668213
1695712473440094700,11.6730947265625,-0.8339505195617676,-4.979702949523926,-0.25078749656677246
1695712473459168300,11.692168212890625,-0.2753937244415283,-3.872633934020996,-0.20922458171844482
1695712473478272300,11.711272216796875,1.199918508529663,-1.779789924621582,-0.25023961067199707
1695712473497345800,11.730345703125,4.407657623291016,2.8845558166503906,-0.42755424976348877
1695712473516449800,11.74944970703125,5.139491081237793,10.097041130065918,-0.5213834047317505
1695712473535523300,11.7685234375,6.6091108322143555,12.225802421569824,-2.8692150115966797
1695712473554627300,11.78762744140625,8.216584205627441,4.114924430847168,-5.187495231628418
1695712473573731300,11.8067314453125,0.9009532928466797,-7.710756301879883,-3.894573450088501
1695712473592804900,11.825804931640626,-2.094434976577759,-10.284597396850586,-3.2174482345581055
1695712473611939300,11.844939208984375,-1.5638656616210938,-2.514645576477051,-1.9721060991287231
1695712473630982400,11.863982421875,4.178549766540527,11.068965911865234,-1.1739065647125244
1695712473650086400,11.88308642578125,-7.731838226318359,12.269428253173828,0.015345931053161621
1695712473669159700,11.90215966796875,-1.9586148262023926,0.15254878997802734,2.2630574703216553
1695712473688263700,11.921263671875,-5.988804817199707,-9.84943675994873,3.1200528144836426
1695712473707337200,11.940337158203125,-4.626435279846191,-6.500265121459961,0.23140382766723633
1695712473726471700,11.9594716796875,-1.1740081310272217,3.5938148498535156,1.2539398670196533
1695712473745545200,11.978545166015625,-2.139021158218384,6.25123405456543,2.301339626312256
1695712473764649200,11.997649169921875,-2.968075752258301,2.570744514465332,0.351460337638855
1695712473783722800,12.01672265625,-2.4300661087036133,-1.01617431640625,-2.9313812255859375
1695712473802826800,12.03582666015625,-0.5498079061508179,-2.176177978515625,-1.5074272155761719
1695712473821900300,12.054900390625,-0.05487269163131714,-1.3195991516113281,0.7262771725654602
1695712473841004300,12.07400439453125,-1.5097157955169678,-0.47484874725341797,0.9991075992584229
1695712473860077800,12.093077880859376,-1.7108498811721802,-1.20245361328125,0.7645590901374817
1695712473879181800,12.112181884765626,-0.59490567445755,-1.9355802536010742,0.5927062630653381
1695712473898255400,12.13125537109375,-0.9503738880157471,-1.4184913635253906,0.28051817417144775
1695712473917359400,12.150359375,-0.4146885573863983,-0.8370800018310547,0.3073524832725525
1695712473936432600,12.1694326171875,0.8997737765312195,-1.2775163650512695,0.5859702229499817
1695712473955536600,12.18853662109375,1.213637113571167,-1.5703277587890625,0.8491649031639099
1695712473974640600,12.207640625,0.808230996131897,-1.2361011505126953,0.9354491829872131
1695712473993714200,12.226714111328125,1.4774866104125977,-0.46054649353027344,0.866016149520874
1695712474012848600,12.2458486328125,2.292327880859375,0.17017650604248047,0.8245652914047241
1695712474031922200,12.264922119140625,2.7736382484436035,0.42281055450439453,0.8721572160720825
1695712474051026200,12.284026123046875,2.6569857597351074,1.0891990661621094,0.8797869682312012
1695712474070099700,12.303099609375,1.8827253580093384,1.7542362213134766,1.3280951976776123
1695712474089203700,12.32220361328125,2.3830790519714355,2.070084571838379,2.3295016288757324
1695712474108277200,12.34127734375,3.0096967220306396,3.0132150650024414,2.2921509742736816
1695712474127381200,12.36038134765625,2.8785786628723145,3.581488609313965,2.136420249938965
1695712474146454800,12.379454833984376,2.221264362335205,4.290706634521484,2.551730155944824
1695712474165558800,12.398558837890626,0.5223665237426758,4.148688316345215,2.7500433921813965
1695712474184632300,12.41763232421875,-1.643632411956787,3.4674129486083984,2.5202207565307617
1695712474203736300,12.436736328125,-1.7867681980133057,1.3102407455444336,0.05485963821411133
1695712474222809600,12.4558095703125,-1.3616122007369995,1.0804882049560547,-3.2150447368621826
1695712474241913600,12.47491357421875,-0.6319122910499573,3.0243301391601562,-5.063255786895752
1695712474260987100,12.493987060546875,-1.131277322769165,4.219350814819336,-5.293927192687988
1695712474280091100,12.513091064453125,0.4462709426879883,3.7164297103881836,-2.9054617881774902
1695712474299195100,12.532195068359375,1.7206041812896729,2.760828971862793,-1.0772064924240112
1695712474318299100,12.551299072265625,-2.73323655128479,3.4094886779785156,-0.9141074419021606
1695712474337372700,12.57037255859375,-7.066640853881836,2.938197135925293,-0.3869924545288086
1695712474356476700,12.5894765625,-6.055848121643066,-0.6970291137695312,1.545614242553711
1695712474375611100,12.608611083984375,-2.7672576904296875,-2.2043991088867188,1.7274638414382935
1695712474394654200,12.627654296875,-2.0070719718933105,-2.675595283508301,0.9686926603317261
1695712474413758200,12.64675830078125,-3.187990665435791,-2.9098453521728516,-0.09003663063049316
1695712474432831700,12.665831787109376,-3.8060998916625977,-3.1431732177734375,-0.6655323505401611
1695712474451935700,12.684935791015626,-4.234558582305908,-3.6116533279418945,-0.8167151212692261
1695712474471009000,12.704009033203125,-4.16180419921875,-4.5327301025390625,-0.6570229530334473
1695712474490082600,12.72308251953125,-3.174943447113037,-5.448902130126953,-0.21487009525299072
1695712474509186600,12.7421865234375,-2.11863374710083,-5.927829742431641,0.15001916885375977
1695712474528290600,12.76129052734375,-1.3309540748596191,-5.682727813720703,-0.06006920337677002
1695712474547364000,12.780364013671875,-0.4903535842895508,-5.005621910095215,-0.31700563430786133
1695712474566468000,12.799468017578125,0.7249605655670166,-3.723897933959961,-0.2614579200744629
1695712474585572000,12.818572021484375,2.785649061203003,-0.9374275207519531,-0.36144304275512695
1695712474604676000,12.837676025390625,6.1946210861206055,6.691295623779297,0.14301848411560059
1695712474623749600,12.85674951171875,6.260830879211426,14.683947563171387,-2.0788354873657227
1695712474642853600,12.875853515625,9.708085060119629,11.734304428100586,-6.350579738616943
1695712474661927200,12.89492724609375,2.802313804626465,-3.22760009765625,-4.540422439575195
1695712474681031200,12.91403125,-1.5135626792907715,-13.017335891723633,-2.5427417755126953
1695712474700104700,12.933104736328126,-3.406289577484131,-8.692618370056152,-2.627108097076416
1695712474719208700,12.952208740234376,2.457693338394165,4.039162635803223,-1.7387442588806152
1695712474738282000,12.971281982421875,-1.5762066841125488,14.614477157592773,0.17183268070220947
1695712474757386000,12.990385986328125,-6.5292510986328125,9.15762710571289,1.0142430067062378
1695712474776459500,13.00945947265625,-4.429049968719482,-5.545208930969238,3.969224214553833
1695712474795563500,13.0285634765625,-6.462854385375977,-8.175004005432129,-0.34315991401672363
1695712474814667500,13.04766748046875,-1.2950098514556885,-0.9296436309814453,-1.1944841146469116
1695712474833741000,13.066740966796875,-0.5299856662750244,4.5258378982543945,1.6002023220062256
1695712474852845000,13.085844970703125,-1.5264918804168701,3.316883087158203,2.157097816467285
1695712474871949000,13.104948974609375,-2.665432929992676,0.7453851699829102,-1.4745879173278809
1695712474891053000,13.124052978515625,-2.047898530960083,-0.943507194519043,-2.197800636291504
1695712474910126600,13.143126708984376,-0.9507113695144653,-2.045771598815918,0.7001278400421143
1695712474929230600,13.162230712890626,-1.8101781606674194,-1.9113941192626953,1.6528754234313965
1695712474948304100,13.18130419921875,-1.9027881622314453,-1.4813232421875,0.7152453064918518
1695712474967408000,13.200408203125,-0.8362922072410583,-2.058138847351074,0.08143508434295654
1695712474986481700,13.219481689453126,-0.4337611794471741,-2.139309883117676,0.09055644273757935
1695712475005585700,13.238585693359376,-0.16948169469833374,-1.0728645324707031,0.14260053634643555
1695712475024659000,13.257658935546875,0.19788938760757446,-0.9910907745361328,0.5055285096168518
1695712475043763000,13.276762939453125,1.1360266208648682,-1.3260765075683594,0.9159509539604187
1695712475062836500,13.29583642578125,1.7737412452697754,-1.081904411315918,1.2065696716308594
1695712475081940500,13.3149404296875,2.190342903137207,-0.38485240936279297,1.259030818939209
1695712475101014000,13.334013916015625,2.1578025817871094,0.22917556762695312,1.0132540464401245
1695712475120118000,13.353117919921875,2.098273754119873,0.08660316467285156,1.0676945447921753
1695712475139191600,13.372191650390626,2.2129344940185547,1.2811431884765625,1.1763828992843628
1695712475158326000,13.391325927734375,1.2923595905303955,2.073702812194824,1.3815710544586182
1695712475177399600,13.410399658203126,1.4806108474731445,2.2033004760742188,2.0981054306030273
1695712475196503600,13.429503662109376,3.1067733764648438,3.0685720443725586,1.4312677383422852
1695712475215607600,13.448607666015626,3.830695629119873,3.13864803314209,0.9883633852005005
1695712475234681000,13.46768115234375,2.1246514320373535,2.961374282836914,1.9170479774475098
1695712475253785000,13.48678515625,0.3295198678970337,4.027846336364746,2.892336845397949
1695712475272858600,13.505858642578126,-1.622029185295105,3.4608898162841797,3.17348575592041
1695712475291962600,13.524962646484376,-1.2908655405044556,1.3002691268920898,1.1140687465667725
1695712475311036000,13.544035888671875,-0.6093470454216003,1.0467329025268555,-2.6086177825927734
1695712475330140000,13.563139892578125,-0.37399739027023315,3.277218818664551,-5.2166290283203125
1695712475349213400,13.58221337890625,-1.3477237224578857,4.674367904663086,-5.0961761474609375
1695712475368317400,13.6013173828125,-0.32870543003082275,4.074131011962891,-2.233450412750244
1695712475387391000,13.620390869140625,0.10587894916534424,3.3740453720092773,-0.1802835464477539
1695712475406495000,13.639494873046875,-3.4492413997650146,3.7907304763793945,0.056638121604919434
1695712475425568500,13.658568603515626,-6.089813709259033,2.6060104370117188,-0.3826216459274292
1695712475444703000,13.677702880859375,-5.051395416259766,-0.6474542617797852,0.67745041847229
1695712475463776500,13.696776611328126,-2.1961123943328857,-2.227884292602539,0.9798582792282104
1695712475482880500,13.715880615234376,-2.041147470474243,-2.9341840744018555,0.7830010652542114
1695712475501954000,13.7349541015625,-3.068920135498047,-3.3880462646484375,0.23688971996307373
1695712475521058000,13.75405810546875,-3.8998847007751465,-3.846141815185547,-0.22641539573669434
1695712475540131600,13.773131591796876,-4.11325740814209,-4.282930374145508,-0.3363149166107178
1695712475559235600,13.792235595703126,-3.8305068016052246,-4.726112365722656,-0.27626168727874756
1695712475578308900,13.811308837890625,-3.1901845932006836,-5.240962028503418,-0.09538471698760986
1695712475597412900,13.830412841796875,-2.079542636871338,-5.5603132247924805,-0.043024539947509766
1695712475616516900,13.849516845703125,-1.2592134475708008,-5.19211483001709,-0.34850966930389404
1695712475635590400,13.86859033203125,-0.639291524887085,-4.645174980163574,-0.45166945457458496
1695712475654694400,13.8876943359375,0.8516583442687988,-3.0502986907958984,-0.4612387418746948
1695712475673768000,13.906767822265625,3.5338141918182373,0.26250267028808594,-0.6160671710968018
1695712475692872000,13.925871826171875,7.044140338897705,7.310258865356445,0.2927941083908081
1695712475711945500,13.944945556640626,6.112980842590332,12.612030982971191,-1.7212178707122803
1695712475731080000,13.964079833984375,9.53270435333252,9.520657539367676,-5.39985466003418
1695712475750153500,13.983153564453126,2.1851651668548584,-3.3969039916992188,-4.267545223236084
1695712475769257500,14.002257568359376,-1.7318243980407715,-11.67126178741455,-2.923811912536621
1695712475788331000,14.0213310546875,-2.6287989616394043,-6.794342994689941,-2.674996852874756
1695712475807435000,14.04043505859375,2.1346545219421387,5.944649696350098,-2.4355311393737793
1695712475826508500,14.059508544921876,-2.940857172012329,14.286158561706543,-0.4524291753768921
1695712475845612500,14.078612548828126,-4.815337181091309,5.968835830688477,1.1127928495407104
1695712475864685800,14.097685791015625,-2.326923131942749,-7.140694618225098,4.881786346435547
1695712475883789800,14.116789794921875,-7.757636070251465,-9.020773887634277,1.0287777185440063
1695712475902863400,14.13586328125,-2.5976271629333496,0.16680240631103516,-0.039049386978149414
1695712475921967400,14.15496728515625,-1.273742914199829,6.5693254470825195,2.019619941711426
1695712475941041000,14.174041015625,-1.4887521266937256,4.632080078125,2.0549497604370117
1695712475960145000,14.193144775390625,-1.9055023193359375,0.21611309051513672,-1.4713064432144165
1695712475979218400,14.212218505859376,-1.1658939123153687,-2.118793487548828,-2.4107065200805664
1695712475998322400,14.231322509765626,-0.46920502185821533,-2.344538688659668,0.05339151620864868
1695712476017426400,14.250426513671876,-2.014147996902466,-1.2449836730957031,1.1994175910949707
1695712476036530400,14.269530517578126,-2.404197931289673,-0.8443012237548828,0.7836011052131653
1695712476055634400,14.288634521484376,-0.8969247341156006,-1.6567983627319336,0.5570954084396362
1695712476074708000,14.3077080078125,-0.641698956489563,-2.000274658203125,0.5572893023490906
1695712476093812000,14.32681201171875,-0.9848006367683411,-1.170156478881836,0.2045903205871582
1695712476112885200,14.34588525390625,-0.2618412375450134,-1.2317047119140625,0.3476310968399048
1695712476131989200,14.3649892578125,1.0434436798095703,-1.6681938171386719,0.6077013611793518
1695712476151062800,14.384062744140625,1.6540634632110596,-1.2055673599243164,0.8444510102272034
1695712476170166800,14.403166748046875,1.9520785808563232,-0.6539230346679688,1.1404211521148682
1695712476189240300,14.422240234375,2.2304015159606934,0.08246421813964844,1.2199856042861938
1695712476208344300,14.44134423828125,2.454063892364502,0.3016977310180664,1.1363924741744995
1695712476227417900,14.46041796875,2.363826274871826,0.9316253662109375,1.0254772901535034
1695712476246521900,14.47952197265625,1.3107966184616089,1.721405029296875,1.1055988073349
1695712476265595400,14.498595458984376,1.6296502351760864,1.757080078125,2.1108345985412598
1695712476284699400,14.517699462890626,2.6794610023498535,2.6690874099731445,2.213435411453247
1695712476303803400,14.536803466796876,3.3916327953338623,3.694333076477051,1.7078955173492432
1695712476322907400,14.555907470703126,2.4007506370544434,3.977158546447754,1.8979887962341309
1695712476341981000,14.57498095703125,1.2839655876159668,4.364214897155762,2.279834747314453
1695712476361085000,14.5940849609375,-1.2389883995056152,4.072473526000977,2.6877336502075195
1695712476380158200,14.613158203125,-1.6468909978866577,1.8019275665283203,0.7864316701889038
1695712476399262200,14.63226220703125,-0.9162783622741699,0.755671501159668,-2.3620762825012207
1695712476418335700,14.651335693359375,-0.5234819650650024,2.491459846496582,-4.607817649841309
1695712476437439700,14.670439697265625,-1.3782310485839844,3.533021926879883,-4.858511924743652
1695712476456543700,14.689543701171875,-0.8818871974945068,3.31451416015625,-3.2958011627197266
1695712476475617300,14.7086171875,0.9085204601287842,2.2086400985717773,-1.4699599742889404
1695712476494751700,14.727751708984375,-1.7675082683563232,2.630626678466797,-1.0633440017700195
1695712476513794800,14.746794921875,-5.320608615875244,2.968881607055664,-0.9473170042037964
1695712476532898800,14.76589892578125,-5.95231819152832,0.09895515441894531,0.8769201040267944
1695712476551972400,14.784972412109376,-3.229299545288086,-2.1054134368896484,1.6195367574691772
1695712476571076400,14.804076416015626,-1.7124674320220947,-2.7160940170288086,1.1833317279815674
1695712476590180400,14.823180419921876,-2.565875291824341,-2.875885009765625,0.05491054058074951
1695712476609284400,14.842284423828126,-3.6338839530944824,-2.871002197265625,-0.810004472732544
1695712476628358000,14.86135791015625,-4.03092098236084,-3.2579355239868164,-1.0108144283294678
1695712476647462000,14.8804619140625,-3.767749309539795,-4.030841827392578,-0.5838195085525513
1695712476666535200,14.89953515625,-2.8051257133483887,-5.127551078796387,0.12196457386016846
1695712476685639200,14.91863916015625,-1.6576042175292969,-5.736299514770508,0.45353055000305176
1695712476704712700,14.937712646484375,-0.7018909454345703,-5.688717842102051,0.22331595420837402
1695712476723816700,14.956816650390625,-0.05823230743408203,-4.984738349914551,-0.15518558025360107
1695712476742890200,14.97589013671875,0.7343058586120605,-3.904118537902832,-0.00566554069519043
1695712476761994200,14.994994140625,2.474607229232788,-1.5994577407836914,-0.05515396595001221
1695712476781067800,15.01406787109375,5.222262382507324,4.076562881469727,-0.3774911165237427
1695712476800171800,15.033171875,5.192267894744873,11.459117889404297,-1.2323106527328491
1695712476819245300,15.052245361328126,8.28936767578125,12.497557640075684,-4.071048736572266
1695712476838349300,15.071349365234376,5.879148960113525,2.3789358139038086,-5.010804176330566
1695712476857422800,15.0904228515625,-0.10684752464294434,-9.14776611328125,-3.3033111095428467
1695712476876557300,15.109557373046876,-1.6115305423736572,-8.282281875610352,-3.145076036453247
1695712476895661300,15.128661376953126,-0.02338862419128418,2.341289520263672,-3.043943405151367
1695712476914734800,15.14773486328125,-1.1965768337249756,11.14140796661377,-0.5954196453094482
1695712476933838800,15.1668388671875,-8.133550643920898,4.544670104980469,1.7657506465911865
1695712476952912100,15.185912109375,-2.2360715866088867,-4.216935157775879,5.066999912261963
1695712476972016000,15.20501611328125,-5.943140506744385,-6.164092063903809,3.0621042251586914
1695712476991089700,15.224089599609375,-2.192094326019287,2.1638879776000977,1.6106390953063965
1695712477010193700,15.243193603515625,-2.6968116760253906,5.9798994064331055,1.274855613708496
1695712477029267200,15.26226708984375,-2.0181081295013428,3.3829174041748047,0.5581247806549072
1695712477048371200,15.28137109375,0.011723518371582031,-0.9705810546875,-2.226053476333618
1695712477067444700,15.30044482421875,0.244384765625,-2.4512224197387695,-3.028871774673462
1695712477086548700,15.319548828125,-1.1264572143554688,-1.9499664306640625,-0.11938619613647461
1695712477105622300,15.338622314453126,-2.7063989639282227,-0.6727638244628906,1.9239965677261353
1695712477124726300,15.357726318359376,-3.2166972160339355,-0.2956228256225586,1.6416900157928467
1695712477143799600,15.376799560546875,-1.3604683876037598,-1.8384513854980469,0.752922534942627
1695712477162934300,15.395934326171876,-0.25879794359207153,-2.7657127380371094,0.24265289306640625
1695712477182007800,15.4150078125,-0.3334156572818756,-1.8209428787231445,0.0831032395362854
1695712477201111800,15.43411181640625,-0.4467030167579651,-1.0873899459838867,-0.009923160076141357
1695712477220185000,15.45318505859375,0.4684807062149048,-1.4512147903442383,0.1800931692123413
1695712477239289000,15.4722890625,1.4727602005004883,-1.6949396133422852,0.4134492874145508
1695712477258362600,15.491362548828125,1.6541160345077515,-1.3556156158447266,0.4569857120513916
1695712477277466600,15.510466552734375,1.9306046962738037,-0.32622432708740234,0.6824442148208618
1695712477296570600,15.529570556640625,2.5275211334228516,0.6777410507202148,1.1807892322540283
1695712477315644200,15.54864404296875,1.8557957410812378,1.4177284240722656,1.5501766204833984
1695712477334717700,15.5677177734375,0.7464386224746704,1.8926420211791992,2.1360931396484375
1695712477353821700,15.58682177734375,1.0720653533935547,1.8960447311401367,3.3665482997894287
1695712477372925700,15.60592578125,2.2274792194366455,2.814889907836914,2.850886821746826
1695712477391999200,15.624999267578126,3.6218717098236084,3.314727783203125,1.7512058019638062
1695712477411103200,15.644103271484376,2.8038995265960693,2.811272621154785,2.144979476928711
1695712477430176500,15.663176513671875,1.743484616279602,3.815052032470703,2.93086576461792
1695712477449311200,15.682311279296876,-0.24369466304779053,4.348639488220215,3.505338668823242
1695712477468384500,15.701384521484375,-1.5926496982574463,2.4960708618164062,1.8950518369674683
1695712477487488800,15.72048876953125,-0.9995209574699402,-0.3700428009033203,-2.152017116546631
1695712477506562000,15.73956201171875,-1.0813716650009155,0.6415224075317383,-5.403540134429932
1695712477525666000,15.758666015625,-0.9710057973861694,3.2055673599243164,-5.334226608276367
1695712477544739600,15.777739501953125,0.16378211975097656,4.36685848236084,-2.689610481262207
1695712477563843600,15.796843505859375,1.7793989181518555,3.9925718307495117,-0.4114798307418823
1695712477582917000,15.815917236328126,-0.01962137222290039,3.7896652221679688,-0.03855621814727783
1695712477602021000,15.835021240234376,-5.758258819580078,3.6676368713378906,-0.398700475692749
1695712477621094700,15.8540947265625,-7.8471550941467285,1.6789484024047852,-0.22812414169311523
1695712477640198700,15.87319873046875,-4.226652145385742,-1.6084508895874023,0.9804810285568237
1695712477659272200,15.892272216796876,-0.8287067413330078,-2.2185630798339844,0.773917555809021
1695712477678376200,15.911376220703126,-0.8407247066497803,-2.5879621505737305,0.2994213104248047
1695712477697449500,15.930449462890625,-2.1749186515808105,-2.9851865768432617,-0.3118312358856201
1695712477716553500,15.949553466796875,-3.630979537963867,-3.2202939987182617,-0.6993916034698486
1695712477735688200,15.968688232421876,-4.6427435874938965,-3.8972349166870117,-0.4702317714691162
1695712477754761500,15.987761474609375,-4.428657531738281,-4.895092010498047,-0.020346879959106445
1695712477773865500,16.006865478515625,-2.903374195098877,-5.673699378967285,0.32370924949645996
1695712477792939000,16.02593896484375,-1.1897482872009277,-5.68074893951416,0.1362457275390625
1695712477812043000,16.04504296875,-0.43683958053588867,-5.057061195373535,-0.41400647163391113
1695712477831116500,16.064116455078125,-0.02159261703491211,-4.426787376403809,-0.5475034713745117
1695712477850220500,16.083220458984375,1.0132617950439453,-2.9624576568603516,-0.5657213926315308
1695712477869294000,16.102294189453126,3.1600074768066406,0.048572540283203125,-0.5507313013076782
1695712477888398000,16.121398193359376,5.858335018157959,6.8381452560424805,0.25057458877563477
1695712477907471600,16.1404716796875,5.561553478240967,11.827101707458496,-1.6913281679153442
1695712477926575600,16.15957568359375,9.030731201171875,9.386045455932617,-5.36398983001709
1695712477945649200,16.178649169921876,4.7936811447143555,-2.0122671127319336,-4.457790851593018
1695712477964753200,16.197753173828126,-1.241598129272461,-8.349420547485352,-3.906480312347412
1695712477983826400,16.216826416015625,-3.169433355331421,-2.5396175384521484,-4.276262283325195
1695712478002930400,16.235930419921875,1.7355577945709229,6.766251564025879,-2.5645413398742676
1695712478022034400,16.255034423828125,-4.660523891448975,5.540151596069336,1.3419395685195923
1695712478041138400,16.274138427734375,-3.413393259048462,-1.2463130950927734,4.102839469909668
1695712478060212000,16.2932119140625,-6.192252159118652,-4.190336227416992,3.729480504989624
1695712478079316000,16.31231591796875,-3.2854163646698,0.3395576477050781,2.4141182899475098
1695712478098389500,16.331389404296875,-3.2466845512390137,4.509725570678711,1.6191151142120361
1695712478117493500,16.350493408203125,-3.9273247718811035,3.9338645935058594,1.2290966510772705
1695712478136597500,16.369597412109375,-1.384718656539917,0.02401447296142578,0.07612073421478271
1695712478155671000,16.388671142578126,0.6890963315963745,-2.213939666748047,-2.2223339080810547
1695712478174775000,16.407775146484376,0.9143664836883545,-2.2837514877319336,-2.1611123085021973
1695712478193848600,16.4268486328125,-1.2765693664550781,-1.5175065994262695,0.4582713842391968
1695712478212952600,16.44595263671875,-3.216402292251587,-0.4657554626464844,1.8646869659423828
1695712478232026000,16.465026123046876,-2.9160614013671875,-0.8113288879394531,1.6939311027526855
1695712478251130000,16.484130126953126,-0.9240355491638184,-2.1298065185546875,1.0870580673217773
1695712478270203400,16.503203369140625,0.08454396575689316,-2.1370973587036133,0.4396930932998657
1695712478289307400,16.522307373046875,0.29697760939598083,-1.2808914184570312,0.23086130619049072
1695712478308411400,16.541411376953125,0.13080573081970215,-1.2635536193847656,0.5582886338233948
1695712478327515400,16.560515380859375,0.7305231690406799,-1.5512609481811523,0.76400226354599
1695712478346589000,16.5795888671875,1.812121868133545,-1.149312973022461,1.0599604845046997
1695712478365693000,16.59869287109375,2.805710792541504,-0.37827396392822266,1.1841208934783936
1695712478384766500,16.617766357421875,2.363405227661133,0.28766345977783203,1.2029467821121216
1695712478403870500,16.636870361328125,1.9495716094970703,0.6513910293579102,1.0654325485229492
1695712478422944000,16.655944091796876,1.938349962234497,1.1218595504760742,0.8267707824707031
1695712478442048000,16.675048095703126,0.8380506038665771,1.6558904647827148,1.4998652935028076
1695712478461121500,16.69412158203125,1.1732871532440186,2.0969181060791016,2.494688034057617
1695712478480225500,16.7132255859375,3.127563953399658,3.3740711212158203,1.6686828136444092
1695712478499299000,16.732299072265626,4.162651062011719,3.4417829513549805,1.3415274620056152
1695712478518403000,16.751403076171876,2.2161922454833984,3.38043212890625,2.230825185775757
1695712478537507000,16.770507080078126,0.28419363498687744,4.292746543884277,3.354651689529419
1695712478556580400,16.789580322265625,-1.7862145900726318,4.248456001281738,3.9049956798553467
1695712478575684400,16.808684326171875,-1.5244383811950684,1.7298288345336914,1.4287420511245728
1695712478594788400,16.827788330078125,-0.9471516609191895,0.49895381927490234,-2.8836817741394043
1695712478613892400,16.846892333984375,-0.7857245802879333,2.2908573150634766,-5.113242149353027
1695712478632966000,16.8659658203125,-1.1921727657318115,3.9478588104248047,-4.491809844970703
1695712478652070000,16.88506982421875,0.03862190246582031,4.093531608581543,-1.9646246433258057
1695712478671143400,16.904143310546875,1.2631126642227173,3.287090301513672,-0.12159550189971924
1695712478690247400,16.923247314453125,-2.2177867889404297,3.6580724716186523,-0.07795453071594238
1695712478709321000,16.942321044921876,-7.148470401763916,3.246609687805176,-0.496209979057312
1695712478728425000,16.961425048828126,-6.268304824829102,-0.14028263092041016,1.0275052785873413
1695712478747498500,16.98049853515625,-3.0650014877319336,-2.519908905029297,1.744102120399475
1695712478766602500,16.9996025390625,-1.6300592422485352,-2.9709033966064453,0.9484144449234009
1695712478785675800,17.01867578125,-2.438769817352295,-2.9835376739501953,-0.1580289602279663
1695712478804779800,17.03777978515625,-3.3885998725891113,-3.2000598907470703,-0.8061395883560181
1695712478823853300,17.056853271484375,-4.153536319732666,-3.7792320251464844,-0.8894153833389282
1695712478842957300,17.075957275390625,-4.6582350730896,-4.394647598266602,-0.5598752498626709
1695712478862030800,17.09503076171875,-4.185142517089844,-5.216619491577148,-0.09928512573242188
1695712478881165300,17.114165283203125,-2.462405204772949,-5.556814193725586,0.005887746810913086
1695712478900238800,17.13323876953125,-1.0222454071044922,-5.331195831298828,-0.12496113777160645
1695712478919342800,17.1523427734375,0.04842352867126465,-4.378727912902832,-0.37819361686706543
1695712478938416400,17.17141650390625,1.0061113834381104,-2.7086868286132812,-0.38038718700408936
1695712478957520400,17.190520263671875,3.4448556900024414,0.7761859893798828,-0.49654483795166016
1695712478976624400,17.209624267578125,7.462057113647461,6.781440734863281,-0.08340561389923096
1695712478995698000,17.228697998046876,5.118329048156738,8.806453704833984,-0.9586514234542847
1695712479014802000,17.247802001953126,6.699472427368164,6.001958847045898,-2.368466377258301
1695712479033875500,17.26687548828125,5.283747673034668,-0.6267404556274414,-2.147393226623535
1695712479052979500,17.2859794921875,-0.3556380271911621,-7.453878402709961,-2.01094913482666
1695712479072052700,17.305052734375,-1.79368257522583,-7.720154762268066,-2.7979626655578613
1695712479091156700,17.32415673828125,0.15597176551818848,-0.6078605651855469,-2.846830368041992
1695712479110230300,17.343230224609375,6.671385765075684,11.2942476272583,-3.1972155570983887
1695712479129334300,17.362334228515625,-8.247636795043945,12.131261825561523,-2.2275757789611816
1695712479148407800,17.38140771484375,-3.2761056423187256,0.33573150634765625,2.1672306060791016
1695712479167542300,17.400542236328125,-6.280056476593018,-9.60992431640625,3.383936643600464
1695712479186615800,17.41961572265625,-3.7891063690185547,-7.432879447937012,0.6263049840927124
1695712479205719800,17.4387197265625,-0.5818266868591309,2.6241302490234375,2.0931155681610107
1695712479224793300,17.45779345703125,-2.871560573577881,7.244983673095703,2.632147789001465
1695712479243897300,17.4768974609375,-3.3050765991210938,4.07099723815918,1.062330961227417
1695712479262971000,17.495970947265626,-1.3809698820114136,-0.9049234390258789,-2.462881326675415
1695712479282075000,17.515074951171876,0.5671442747116089,-3.2250165939331055,-2.1651570796966553
1695712479301148400,17.5341484375,-0.21917033195495605,-3.1397838592529297,0.41710978746414185
1695712479320252400,17.55325244140625,-1.7277743816375732,-1.1956148147583008,1.4848430156707764
1695712479339325700,17.57232568359375,-1.695797085762024,-0.21219158172607422,1.3339298963546753
1695712479358429700,17.5914296875,-0.4823601245880127,-1.30767822265625,1.2855019569396973
1695712479377564400,17.610564453125,-0.23825350403785706,-1.4335269927978516,0.783257246017456
1695712479396607200,17.629607177734375,0.2774241864681244,-1.0336761474609375,0.697212278842926
1695712479415711200,17.648711181640625,0.9486249089241028,-1.403843879699707,0.7326242923736572
1695712479434784800,17.66778466796875,0.8750402927398682,-1.619948387145996,0.7836747169494629
1695712479453919200,17.686919189453125,0.7661248445510864,-1.4221763610839844,0.8072100281715393
1695712479472992800,17.70599267578125,1.2036089897155762,-0.7204580307006836,0.8190042972564697
1695712479492096800,17.7250966796875,2.716834545135498,0.5380010604858398,0.5257070064544678
1695712479511170300,17.74417041015625,3.33853816986084,0.873896598815918,0.4605135917663574
1695712479530274300,17.7632744140625,2.377732753753662,1.4288768768310547,0.6601816415786743
1695712479549347800,17.782347900390626,1.2620642185211182,2.147075653076172,0.7437869310379028
1695712479568451800,17.801451904296876,2.116591691970825,2.2042388916015625,1.469016671180725
1695712479587525400,17.820525390625,3.0631027221679688,2.9037866592407227,1.259650468826294
1695712479606629400,17.83962939453125,3.5312769412994385,3.030773162841797,1.326398253440857
1695712479625702700,17.85870263671875,2.562164306640625,3.002823829650879,2.739431381225586
1695712479644806700,17.877806640625,0.9620429277420044,4.703213691711426,3.907627582550049
1695712479663880200,17.896880126953125,-1.4227899312973022,4.4483137130737305,4.126906394958496
1695712479682984200,17.915984130859375,-2.0389156341552734,2.548233985900879,2.4703259468078613
1695712479702057700,17.9350576171875,-1.946786880493164,1.3230562210083008,-1.341941475868225
1695712479721161700,17.95416162109375,-1.577620506286621,2.302661895751953,-3.978652000427246
1695712479740265700,17.973265625,-2.80741286277771,3.521847724914551,-4.492203712463379
1695712479759369700,17.99236962890625,-0.8529195785522461,3.6536083221435547,-2.245098829269409
1695712479778443300,18.011443359375,1.655216932296753,2.5577125549316406,0.025841712951660156
1695712479797547300,18.03054736328125,0.03924131393432617,3.338960647583008,0.17834126949310303
1695712479816651300,18.0496513671875,-4.2689104080200195,3.505702018737793,-0.6962779760360718
1695712479835724800,18.068724853515626,-5.664669990539551,0.8831243515014648,0.8602979183197021
1695712479854828800,18.087828857421876,-3.860128164291382,-1.482870101928711,1.9572376012802124
1695712479873902300,18.10690234375,-3.3604865074157715,-2.232128143310547,1.7339470386505127
1695712479893006300,18.12600634765625,-3.969813346862793,-2.7034711837768555,0.7652087211608887
1695712479912079600,18.14507958984375,-3.7953696250915527,-3.6687536239624023,0.1557149887084961
1695712479931183600,18.16418359375,-3.6942343711853027,-4.592929840087891,-0.1140294075012207
1695712479950257200,18.183257080078125,-3.3719987869262695,-5.443921089172363,-0.006460666656494141
1695712479969361200,18.202361083984375,-3.0169410705566406,-5.885457992553711,0.11294794082641602
1695712479988434700,18.2214345703125,-2.2373318672180176,-6.188778877258301,0.20292425155639648
1695712480007538700,18.24053857421875,-0.7911734580993652,-5.839016914367676,0.050217628479003906
1695712480026642700,18.259642578125,0.21451735496520996,-4.816625595092773,0.2220914363861084
1695712480045746700,18.27874658203125,1.5782136917114258,-2.8508567810058594,0.4836817979812622
1695712480064820200,18.2978203125,3.949089288711548,1.3267107009887695,0.07906436920166016
1695712480083924200,18.31692431640625,4.801135063171387,8.296908378601074,-0.1698366403579712
1695712480102997800,18.335997802734376,4.935295581817627,11.816556930541992,-2.081480026245117
1695712480122101800,18.355101806640626,9.872182846069336,6.577322959899902,-3.713395595550537
1695712480141175000,18.374175048828125,2.5523877143859863,-5.420621871948242,-2.9690301418304443
1695712480160279300,18.393279296875,-1.8286018371582031,-11.598489761352539,-1.9653407335281372
1695712480179352600,18.4123525390625,-1.625566005706787,-5.122964859008789,-1.1920039653778076
1695712480198456600,18.43145654296875,6.8892669677734375,11.175207138061523,-0.4967219829559326
1695712480217560600,18.450560546875,-9.078506469726562,16.43539810180664,-0.37075626850128174
1695712480236634000,18.469634033203125,-6.459255218505859,2.4268951416015625,1.3565677404403687
1695712480255738000,18.488738037109375,-5.998291015625,-11.610306739807129,2.1617302894592285
1695712480274811600,18.507811767578126,-2.4966931343078613,-9.243559837341309,-1.0136780738830566
1695712480293915600,18.52691552734375,0.8034780025482178,3.5771427154541016,0.8096107244491577
1695712480313019600,18.54601953125,-1.983245611190796,8.436209678649902,4.128782272338867
1695712480332123600,18.56512353515625,-4.731621265411377,4.3441267013549805,1.8517805337905884
1695712480351197200,18.584197265625,-3.3825268745422363,-0.1002206802368164,-2.5814929008483887
1695712480370301200,18.60330126953125,-0.7050325870513916,-2.7380189895629883,-1.1307884454727173
1695712480389374700,18.622374755859376,0.11509865522384644,-2.5153703689575195,1.0465121269226074
1695712480408478700,18.641478759765626,-1.185884714126587,-0.8278169631958008,0.7299220561981201
1695712480427552000,18.660552001953125,-1.5283701419830322,-0.8653964996337891,-0.04435884952545166
1695712480446656000,18.679656005859375,-0.608503520488739,-2.5422163009643555,0.42407095432281494
1695712480465729500,18.6987294921875,-0.5567485094070435,-2.527634620666504,0.6147119998931885
1695712480484833500,18.71783349609375,-0.7808719873428345,-1.182565689086914,0.8999173641204834
1695712480503907000,18.736906982421875,0.1994016170501709,-1.011688232421875,1.1174211502075195
1695712480523011000,18.756010986328125,1.4190938472747803,-1.4702682495117188,1.1378642320632935
1695712480542084600,18.775084716796876,1.7047581672668457,-1.319589614868164,1.0502431392669678
1695712480561188600,18.794188720703126,2.3924264907836914,-0.39423084259033203,0.7165558338165283
1695712480580262100,18.81326220703125,3.4243268966674805,0.5870819091796875,0.5710916519165039
1695712480599396600,18.832396728515626,3.4043798446655273,0.7082052230834961,1.35866117477417
1695712480618500600,18.85150048828125,1.9095159769058228,1.3837251663208008,2.314448833465576
1695712480637574100,18.87057421875,1.0411980152130127,2.0023956298828125,3.4976730346679688
1695712480656678100,18.88967822265625,1.8338254690170288,2.8377904891967773,3.495006561279297
1695712480675751700,18.908751708984376,3.4246740341186523,3.883890151977539,2.0928196907043457
1695712480694855700,18.927855712890626,3.5436618328094482,3.2077789306640625,1.7743072509765625
1695712480713929000,18.946928955078125,1.8435606956481934,3.4335241317749023,1.9097696542739868
1695712480733033000,18.966032958984375,-0.8542696237564087,3.4019784927368164,2.8874192237854004
1695712480752106500,18.9851064453125,-1.987830400466919,2.5408706665039062,1.9030816555023193
1695712480771210500,19.00421044921875,-1.0241755247116089,1.2515459060668945,-1.1311626434326172
1695712480790284000,19.023283935546875,-0.17362993955612183,2.4695005416870117,-4.363872051239014
1695712480809388000,19.042387939453125,-0.4388865530490875,3.8426904678344727,-5.693850517272949
1695712480828461600,19.061461669921876,-1.0931694507598877,4.674955368041992,-4.518880844116211
1695712480847565600,19.080565673828126,0.7771093845367432,3.785409927368164,-1.756308674812317
1695712480866639000,19.09963916015625,-0.5544748306274414,3.4862518310546875,-0.3384300470352173
1695712480885773600,19.118773681640626,-5.273646354675293,3.806534767150879,-0.2668743133544922
1695712480904847000,19.13784716796875,-5.864340782165527,1.0292415618896484,0.9548027515411377
1695712480923951000,19.156951171875,-3.390843629837036,-1.4352188110351562,1.68584406375885
1695712480943024600,19.176024658203126,-2.1468751430511475,-2.543642997741699,1.3068238496780396
1695712480962128600,19.195128662109376,-2.3404743671417236,-3.120401382446289,0.4314122200012207
1695712480981202000,19.214201904296875,-3.548837184906006,-3.449054718017578,-0.3628997802734375
1695712481000306000,19.233305908203125,-4.385658264160156,-4.1326751708984375,-0.528340220451355
1695712481019379500,19.25237939453125,-4.746819019317627,-4.708695411682129,-0.32882440090179443
1695712481038483500,19.2714833984375,-3.7767443656921387,-5.4030609130859375,-0.11853981018066406
1695712481057587500,19.29058740234375,-2.5134549140930176,-5.963301658630371,-0.06129419803619385
1695712481076661000,19.309660888671875,-1.1169977188110352,-6.070223808288574,-0.16633951663970947
1695712481095765000,19.328764892578125,-0.3013131618499756,-5.261713981628418,-0.39229393005371094
1695712481114838500,19.347838623046876,0.4102597236633301,-3.4601011276245117,-0.11084985733032227
1695712481133942500,19.366942626953126,2.4636800289154053,-0.9446001052856445,0.08735001087188721
1695712481153016000,19.38601611328125,6.820788860321045,5.826117515563965,0.656684160232544
1695712481172150500,19.405150634765626,6.475857734680176,12.34986686706543,-1.745931625366211
1695712481191224000,19.42422412109375,11.88845157623291,10.142091751098633,-6.445178985595703
1695712481210328000,19.443328125,1.6864991188049316,-2.969393730163574,-5.071227073669434
1695712481229401600,19.462401611328126,-4.238304138183594,-10.56677532196045,-3.52239990234375
1695712481248505600,19.481505615234376,-3.5386078357696533,-4.930570602416992,-2.759777545928955
1695712481267579000,19.500578857421875,2.9007344245910645,9.40432071685791,-2.1252875328063965
1695712481286683000,19.519682861328125,-3.587411642074585,13.93917179107666,0.6397809982299805
1695712481305756400,19.53875634765625,1.300102710723877,1.8214902877807617,6.040978908538818
1695712481324860400,19.5578603515625,-9.371463775634766,-8.40184211730957,3.251192331314087
1695712481343934000,19.576933837890625,-4.727323532104492,-5.893277168273926,0.35719239711761475
1695712481363038000,19.596037841796875,-1.5644612312316895,3.285839080810547,0.47163641452789307
1695712481382111500,19.615111572265626,-3.3348019123077393,5.323447227478027,1.7082301378250122
1695712481401215500,19.634215576171876,-2.1924962997436523,2.654707908630371,1.3815354108810425
1695712481420319500,19.653319580078126,0.6978390216827393,0.09580039978027344,-1.8722838163375854
1695712481439393000,19.67239306640625,2.2410898208618164,-1.8572931289672852,-2.314462900161743
1695712481458527500,19.691527587890626,-0.6605690717697144,-3.0148353576660156,0.2005295753479004
1695712481477601000,19.71060107421875,-3.422593593597412,-2.6121091842651367,1.918744683265686
1695712481496705000,19.729705078125,-3.347862482070923,-1.0357799530029297,1.6508395671844482
1695712481515778600,19.748778564453126,-0.44606658816337585,-1.6177749633789062,1.2598530054092407
1695712481534882600,19.767882568359376,0.027892954647541046,-2.275714874267578,1.1531397104263306
1695712481553955800,19.786955810546875,-0.3114500045776367,-0.5839691162109375,0.14387845993041992
1695712481573059800,19.806059814453125,-0.5854388475418091,-0.7212696075439453,1.1279888153076172
1695712481592133400,19.82513330078125,0.2776045799255371,-0.46143054962158203,-0.021332263946533203
1695712481611237400,19.8442373046875,1.36838960647583,-2.148214340209961,0.4779081344604492
1695712481630311000,19.863310791015625,2.0652029514312744,-1.252690315246582,1.3524069786071777
1695712481649415000,19.882414794921875,2.216268301010132,0.5674800872802734,0.2676222324371338
1695712481668488400,19.901488525390626,1.6306781768798828,0.6774911880493164,0.7914514541625977
1695712481687592400,19.920592529296876,1.740028738975525,1.114767074584961,1.5820567607879639
1695712481706666000,19.939666015625,0.0907599925994873,1.2808828353881836,2.60455322265625
1695712481725770000,19.95877001953125,0.6626092195510864,1.3004703521728516,3.109334945678711
1695712481744874000,19.9778740234375,2.7979283332824707,2.2046661376953125,2.486219882965088
1695712481763978000,19.99697802734375,4.561017036437988,3.7817773818969727,1.084017038345337
1695712481783051300,20.01605126953125,3.3983688354492188,2.8225879669189453,1.3702048063278198
1695712481802155300,20.0351552734375,1.4254262447357178,2.7462940216064453,2.0117545127868652
1695712481821228800,20.054228759765625,-0.22212481498718262,4.702374458312988,2.9359259605407715
1695712481840332800,20.073332763671875,-0.8770343065261841,4.447504997253418,2.3701531887054443
1695712481859406300,20.09240625,-0.9709361791610718,0.5808124542236328,-0.15223026275634766
1695712481878510300,20.11151025390625,-1.144923448562622,-0.5721817016601562,-4.065336227416992
1695712481897614300,20.1306142578125,-0.8241778612136841,1.3231210708618164,-5.266170501708984
1695712481916688000,20.14968798828125,-0.6820852160453796,3.386538505554199,-3.0664432048797607
1695712481935791900,20.1687919921875,1.6174713373184204,4.4689226150512695,-0.3960477113723755
1695712481954865400,20.187865478515626,2.117793560028076,3.979769706726074,0.5100430250167847
1695712481973969400,20.206969482421876,-2.9212706089019775,3.467024803161621,-0.02907872200012207
1695712481993043000,20.22604296875,-6.8332014083862305,2.5746498107910156,-0.3984522819519043
1695712482012147000,20.24514697265625,-6.1611127853393555,-0.4729747772216797,0.8533209562301636
1695712482031251000,20.2642509765625,-2.7142860889434814,-2.1219730377197266,1.2159510850906372
1695712482050355000,20.28335498046875,-1.3002352714538574,-2.846773147583008,0.517469048500061
1695712482069428200,20.30242822265625,-2.365288257598877,-3.2369890213012695,-0.3631742000579834
1695712482088532200,20.3215322265625,-3.6686155796051025,-3.5006542205810547,-1.2147984504699707
1695712482107605800,20.340605712890625,-4.104120254516602,-3.780055046081543,-1.2277733087539673
1695712482126709800,20.359709716796875,-3.476071357727051,-4.320878982543945,-0.5248364210128784
1695712482145783300,20.378783203125,-2.2300775051116943,-5.222476959228516,0.32343220710754395
1695712482164887300,20.39788720703125,-1.2888400554656982,-5.811572074890137,0.8061912059783936
1695712482183960800,20.4169609375,-0.28008008003234863,-5.375851631164551,0.8751147985458374
1695712482203064800,20.43606494140625,0.554006814956665,-3.245211601257324,-0.3431217670440674
1695712482222138400,20.455138427734376,1.6180739402770996,-1.1406126022338867,-0.6487476825714111
1695712482241242400,20.474242431640626,3.339700937271118,2.1813154220581055,-0.7800467014312744
1695712482260316000,20.49331591796875,6.308764457702637,7.8408660888671875,-0.11304545402526855
1695712482279420000,20.512419921875,5.942551136016846,9.225685119628906,-1.302176833152771
1695712482298524000,20.53152392578125,6.984150409698486,2.565420150756836,-2.6236791610717773
1695712482317628000,20.5506279296875,1.5298097133636475,-9.14561653137207,-1.4959304332733154
1695712482336732000,20.56973193359375,-0.10979175567626953,-5.68168830871582,-4.1355156898498535
1695712482355805200,20.58880517578125,-1.0082364082336426,-1.9265403747558594,-2.8300747871398926
1695712482374909200,20.6079091796875,0.0063495635986328125,4.173173904418945,-2.932436227798462
1695712482393982700,20.626982666015625,6.209807872772217,10.696739196777344,-0.07729196548461914
1695712482413086700,20.646086669921875,-5.632016181945801,0.8844013214111328,1.2921714782714844
1695712482432160300,20.66516015625,-3.363657236099243,0.2517824172973633,1.1801512241363525
1695712482451264300,20.68426416015625,-10.179471015930176,-5.000692367553711,1.5981018543243408
1695712482470337800,20.703337890625,-5.258296012878418,-0.16881656646728516,-0.8508191108703613
1695712482489441800,20.72244189453125,0.2442021369934082,6.067864418029785,4.0292816162109375
1695712482508515300,20.741515380859376,-0.04607653617858887,6.083818435668945,2.771003246307373
1695712482527619300,20.760619384765626,0.3242039680480957,3.2877445220947266,-1.046587586402893
1695712482546692900,20.77969287109375,0.4481452703475952,2.659256935119629,-2.6740031242370605
1695712482565796900,20.798796875,-0.7417267560958862,3.4204254150390625,-1.5147889852523804
1695712482584870100,20.8178701171875,-1.316864013671875,3.5300283432006836,-0.27658289670944214
1695712482604004900,20.8370048828125,-2.2487378120422363,0.6224842071533203,-0.672654926776886
1695712482623078100,20.856078125,-1.881540060043335,0.10452651977539062,-0.29224854707717896
1695712482642182100,20.87518212890625,1.6724059581756592,-0.2695798873901367,-0.5013060569763184
1695712482661255700,20.894255615234375,1.2328224182128906,-0.2775306701660156,0.18509024381637573
1695712482680359700,20.913359619140625,0.09377913177013397,0.3670978546142578,0.8038963079452515
1695712482699463700,20.932463623046875,-0.21667048335075378,0.0712881088256836,1.063265323638916
1695712482718537200,20.951537109375,-1.6733636856079102,-3.3828086853027344,0.5266971588134766
1695712482737641200,20.97064111328125,2.1893506050109863,-9.773971557617188,-1.7400422096252441
1695712482756714800,20.98971484375,0.16397887468338013,-4.630152702331543,-2.2320663928985596
1695712482775818800,21.00881884765625,2.9542417526245117,3.7370033264160156,3.8040201663970947
1695712482794892300,21.027892333984376,8.909008979797363,5.902238845825195,3.555433511734009
1695712482813996300,21.046996337890626,-0.3525766134262085,6.587002754211426,0.9473313689231873
1695712482833069800,21.06606982421875,-0.3885972499847412,-1.1153602600097656,0.02114546298980713
1695712482852173800,21.085173828125,2.354787826538086,-1.2207794189453125,0.3613312244415283
1695712482871247000,21.1042470703125,-1.8516958951950073,-0.08122444152832031,2.9071688652038574
1695712482890381800,21.1233818359375,1.505314588546753,2.1178855895996094,3.0494256019592285
1695712482909455000,21.142455078125,-0.8357398509979248,-0.3995208740234375,1.849282145500183
1695712482928559000,21.16155908203125,0.7258169651031494,2.4300479888916016,0.9804456233978271
1695712482947632600,21.180632568359375,-1.5547819137573242,5.77613639831543,3.1920554637908936
1695712482966736600,21.199736572265625,0.5683765411376953,7.333139419555664,0.3375242352485657
1695712482985810200,21.21881005859375,0.8815655708312988,7.568843841552734,-0.2255169004201889
1695712483004925000,21.237925048828124,-0.3520946502685547,5.675449371337891,-1.2672626972198486
1695712483023998500,21.25699853515625,12.104506492614746,5.7383623123168945,-0.4987577199935913
1695712483043102500,21.2761025390625,-2.484066963195801,2.427305221557617,-2.9571423530578613
1695712483062176000,21.295176025390624,-12.839712142944336,-0.3359088897705078,-1.2434700727462769
1695712483081280000,21.314280029296874,-5.2105207443237305,-0.603607177734375,0.04162025451660156
1695712483100384000,21.333384033203124,5.216423988342285,-1.5192489624023438,-0.6731560826301575
1695712483119457500,21.35245751953125,3.2038536071777344,-2.195751190185547,-1.0063308477401733
1695712483138561500,21.3715615234375,0.7639541625976562,-2.1042609214782715,-1.7781741619110107
1695712483157635000,21.390635009765624,2.1412081718444824,-2.4099669456481934,-4.058260917663574
1695712483176769500,21.40976953125,6.28264045715332,-2.8983259201049805,-7.8867387771606445
1695712483195873500,21.42887353515625,4.622201919555664,-3.8057961463928223,-6.974004745483398
1695712483215099600,21.448099609375,2.9949283599853516,-4.40187931060791,-5.615440368652344
1695712483234325800,21.46732568359375,-0.3377695083618164,-4.679593563079834,-3.706867218017578
1695712483253551900,21.4865517578125,-1.7504229545593262,-4.827126979827881,-3.733574628829956
1695712483272381200,21.505381103515624,-1.7698020935058594,-3.342684268951416,-3.923999309539795
1695712483291241000,21.524240966796874,-0.8758859634399414,-2.220973491668701,-3.064246416091919
1695712483310375400,21.54337548828125,1.2888593673706055,-1.1688885688781738,-2.520504951477051
1695712483329479400,21.5624794921875,3.4530601501464844,-0.6560490131378174,-2.644777297973633
1695712483348553000,21.581552978515624,5.323108673095703,-0.5706415176391602,-2.8583874702453613
1695712483367657000,21.600656982421874,3.846278190612793,-0.40429461002349854,-2.0029029846191406
1695712483386730500,21.61973046875,2.3592166900634766,0.019745349884033203,-0.49100637435913086
1695712483405834500,21.63883447265625,0.15697669982910156,0.6337358951568604,-0.5154581069946289
1695712483424908000,21.657907958984374,-2.784212112426758,1.379152774810791,-0.5255732536315918
1695712483444012000,21.677011962890624,-1.4605064392089844,-0.37777942419052124,-1.491943359375
1695712483463116000,21.696115966796874,0.7961311340332031,0.6835163831710815,-3.2857511043548584
1695712483482220000,21.715219970703124,1.3386468887329102,0.19746160507202148,-3.1381356716156006
1695712483501293600,21.73429345703125,-0.3949708938598633,-0.22757816314697266,-2.162667989730835
1695712483520397600,21.7533974609375,-3.432283401489258,-0.8641867637634277,-0.2694981098175049
1695712483539501600,21.77250146484375,-4.690356254577637,-1.1821093559265137,0.6114403009414673
1695712483558574800,21.791574951171874,-2.91152286529541,-0.7469789981842041,-0.11931812763214111
1695712483577678800,21.810678955078124,-1.446676254272461,0.2991933822631836,-1.0448224544525146
1695712483596752400,21.82975244140625,-0.4108400344848633,1.2594130039215088,-1.7224328517913818
1695712483615856400,21.8488564453125,-0.32753658294677734,0.5381307601928711,-1.2588539123535156
1695712483634930000,21.867929931640624,-0.6732711791992188,-0.32541394233703613,-0.6132066249847412
1695712483654034000,21.887033935546874,-1.2066526412963867,-0.4838578701019287,-0.6191811561584473
1695712483673107500,21.906107421875,-0.5524272918701172,-0.02801990509033203,-1.1641136407852173
1695712483692211500,21.92521142578125,-0.5745401382446289,0.8935370445251465,-1.4087833166122437
1695712483711285000,21.944284912109374,-0.949223518371582,1.2935121059417725,-0.48555171489715576
1695712483730389000,21.963388916015624,-0.044150352478027344,1.088360071182251,0.3997113108634949
1695712483749493000,21.982492919921874,0.6286993026733398,0.6883456707000732,0.7391055822372437
1695712483768597000,22.001596923828124,0.7568702697753906,0.7204587459564209,0.4675646126270294
1695712483787670500,22.02067041015625,-0.44524288177490234,1.14292573928833,0.036949411034584045
1695712483806774500,22.0397744140625,-1.2981176376342773,1.6562576293945312,-0.13923658430576324
1695712483825847800,22.058847900390624,-0.5524568557739258,2.0512778759002686,0.06097058951854706
1695712483844951800,22.077951904296874,0.2306051254272461,1.5610811710357666,0.36393973231315613
1695712483864025300,22.097025390625,0.5922412872314453,0.43032360076904297,0.34979644417762756
1695712483883129300,22.11612939453125,0.6993923187255859,-0.3200099468231201,0.16206297278404236
1695712483902203000,22.135202880859374,-0.08977794647216797,-0.29841089248657227,-0.21917235851287842
1695712483921307000,22.154306884765624,-0.8511066436767578,0.004996776580810547,-0.28688129782676697
1695712483940411000,22.173410888671874,-0.10216331481933594,0.048003435134887695,-0.3539732098579407
1695712483959484400,22.192484375,-0.39980030059814453,-0.4599490165710449,-0.6941695213317871
1695712483978588400,22.21158837890625,-0.7878808975219727,0.13441181182861328,-0.9045604467391968
1695712483997662000,22.230661865234374,-0.4845399856567383,0.5130519866943359,-1.227095603942871
1695712484016766000,22.249765869140624,-0.44092845916748047,0.46953535079956055,-1.2775992155075073
1695712484035870000,22.268869873046874,-0.2508506774902344,0.5754437446594238,-1.1344177722930908
1695712484054974000,22.287973876953124,0.0907602310180664,0.662813663482666,-0.8402464389801025
1695712484074047500,22.307047607421875,0.2156658172607422,0.5956728458404541,-0.8106868863105774
1695712484093151500,22.3261513671875,0.12280750274658203,0.29691100120544434,-0.6804822087287903
1695712484112224800,22.345224853515624,0.1788949966430664,-0.05278587341308594,-0.6466426849365234
1695712484131328800,22.364328857421874,0.46023082733154297,-0.1256701946258545,-0.6911358833312988
1695712484150402300,22.38340234375,0.13178730010986328,0.20285630226135254,-0.8090362548828125
1695712484169506300,22.40250634765625,-0.4276113510131836,0.6203339099884033,-0.9501293301582336
1695712484188579800,22.421579833984374,-0.32578468322753906,0.5919888019561768,-0.9901735186576843
1695712484207683800,22.440683837890624,0.10535526275634766,0.29256224632263184,-0.9850396513938904
1695712484226757400,22.45975732421875,0.3388786315917969,-0.08948516845703125,-0.9653499722480774
1695712484245861400,22.478861328125,0.23856163024902344,-0.3062417507171631,-0.8689331412315369
1695712484264935000,22.497934814453124,0.1799001693725586,-0.1450049877166748,-0.7734759449958801
1695712484284039000,22.517038818359374,-0.06733989715576172,0.14939594268798828,-0.6312628984451294
