time,seconds_elapsed,z,y,x
1695712461963799800,0.1967998046875,-0.758209228515625,0.3509521484375,0.61492919921875
1695712461973321200,0.2063212890625,-0.716094970703125,0.32379150390625,0.505523681640625
1695712461982873300,0.215873291015625,-0.656280517578125,0.38299560546875,0.391998291015625
1695712461992425200,0.22542529296875,-0.59967041015625,0.471649169921875,0.26123046875
1695712462001977300,0.234977294921875,-0.53558349609375,0.546112060546875,0.116119384765625
1695712462011529200,0.244529296875,-0.439300537109375,0.559234619140625,-0.018310546875
1695712462021081300,0.254081298828125,-0.321502685546875,0.488433837890625,-0.12542724609375
1695712462030633200,0.26363330078125,-0.1983642578125,0.32989501953125,-0.186004638671875
1695712462040155000,0.27315478515625,-0.060882568359375,0.112457275390625,-0.17608642578125
1695712462049706800,0.282706787109375,0.074005126953125,-0.0970458984375,-0.1068115234375
1695712462059259000,0.2922587890625,0.17669677734375,-0.261688232421875,-0.0146484375
1695712462068810800,0.301810791015625,0.235595703125,-0.35369873046875,0.066986083984375
1695712462078332400,0.31133251953125,0.2435302734375,-0.38818359375,0.128326416015625
1695712462087884300,0.32088427734375,0.2069091796875,-0.38330078125,0.158233642578125
1695712462097436400,0.3304365234375,0.14617919921875,-0.36590576171875,0.150604248046875
1695712462106988300,0.33998828125,0.072784423828125,-0.3509521484375,0.110015869140625
1695712462116509700,0.349509765625,0.014190673828125,-0.32928466796875,0.041351318359375
1695712462126061800,0.359061767578125,-0.016021728515625,-0.28350830078125,-0.03662109375
1695712462135613700,0.36861376953125,-0.008392333984375,-0.209808349609375,-0.10467529296875
1695712462145165800,0.378165771484375,0.033111572265625,-0.108489990234375,-0.1470947265625
1695712462154717700,0.3877177734375,0.087890625,0.00152587890625,-0.15655517578125
1695712462164239400,0.3972392578125,0.13580322265625,0.093231201171875,-0.1397705078125
1695712462173791200,0.406791259765625,0.17486572265625,0.152435302734375,-0.1080322265625
1695712462183343400,0.41634326171875,0.2081298828125,0.178680419921875,-0.07354736328125
1695712462192895200,0.425895263671875,0.2325439453125,0.160369873046875,-0.0457763671875
1695712462202417000,0.4354169921875,0.24749755859375,0.088043212890625,-0.0360107421875
1695712462211968800,0.44496875,0.2484130859375,-0.01800537109375,-0.05645751953125
1695712462221521000,0.45452099609375,0.23101806640625,-0.115509033203125,-0.1055908203125
1695712462231072800,0.46407275390625,0.20721435546875,-0.169830322265625,-0.181884765625
1695712462240594200,0.47359423828125,0.18768310546875,-0.163116455078125,-0.278472900390625
1695712462250146300,0.483146240234375,0.18035888671875,-0.111846923828125,-0.38604736328125
1695712462259698200,0.4926982421875,0.2008056640625,-0.04486083984375,-0.498046875
1695712462269250300,0.502250244140625,0.264434814453125,0.04058837890625,-0.601348876953125
1695712462278802200,0.51180224609375,0.362091064453125,0.148773193359375,-0.679473876953125
1695712462288354300,0.521354248046875,0.47088623046875,0.236053466796875,-0.714263916015625
1695712462297906200,0.53090625,0.5670166015625,0.26641845703125,-0.691986083984375
1695712462307458300,0.540458251953125,0.639495849609375,0.220489501953125,-0.608673095703125
1695712462316979700,0.549979736328125,0.686798095703125,0.108489990234375,-0.4754638671875
1695712462326531800,0.55953173828125,0.727081298828125,-0.03692626953125,-0.333404541015625
1695712462336083700,0.569083740234375,0.770111083984375,-0.178985595703125,-0.226593017578125
1695712462345635800,0.5786357421875,0.80291748046875,-0.279693603515625,-0.17425537109375
1695712462355157200,0.5881572265625,0.81298828125,-0.32470703125,-0.1715087890625
1695712462364709400,0.59770947265625,0.80169677734375,-0.3271484375,-0.209197998046875
1695712462374261200,0.60726123046875,0.785369873046875,-0.299072265625,-0.279083251953125
1695712462383813400,0.6168134765625,0.797119140625,-0.230560302734375,-0.38482666015625
1695712462393365200,0.626365234375,0.85296630859375,-0.118865966796875,-0.526123046875
1695712462402886700,0.63588671875,0.955810546875,0.03173828125,-0.709381103515625
1695712462412438800,0.645438720703125,1.093597412109375,0.237579345703125,-0.922088623046875
1695712462421990700,0.65499072265625,1.24114990234375,0.42144775390625,-1.109619140625
1695712462431542800,0.664542724609375,1.3275146484375,0.507049560546875,-1.2091064453125
1695712462441064200,0.674064208984375,1.338653564453125,0.451812744140625,-1.24176025390625
1695712462450616300,0.6836162109375,1.31683349609375,0.28717041015625,-1.2408447265625
1695712462460168200,0.693168212890625,1.30828857421875,0.107269287109375,-1.22589111328125
1695712462469720300,0.70272021484375,1.3299560546875,-0.02777099609375,-1.207275390625
1695712462479241700,0.71224169921875,1.378326416015625,-0.121612548828125,-1.19720458984375
1695712462488793600,0.721793701171875,1.437225341796875,-0.174102783203125,-1.19964599609375
1695712462498345700,0.731345703125,1.498260498046875,-0.194244384765625,-1.2005615234375
1695712462507897600,0.740897705078125,1.5625,-0.184478759765625,-1.18499755859375
1695712462517419300,0.750419189453125,1.63238525390625,-0.164031982421875,-1.15753173828125
1695712462526971100,0.75997119140625,1.67327880859375,-0.113983154296875,-1.12335205078125
1695712462536523300,0.769523193359375,1.6357421875,-0.902252197265625,-0.8782958984375
1695712462546075100,0.7790751953125,1.63055419921875,-1.890716552734375,-0.321807861328125
1695712462555596800,0.7885966796875,1.505584716796875,-1.10687255859375,0.453948974609375
1695712462565179100,0.79817919921875,0.86273193359375,0.806732177734375,1.539764404296875
1695712462574731300,0.807731201171875,0.17730712890625,1.307525634765625,2.10968017578125
1695712462584283100,0.817283203125,-0.438079833984375,0.78826904296875,2.13653564453125
1695712462593835300,0.826835205078125,-0.762176513671875,-0.050048828125,1.859893798828125
1695712462603356700,0.836356689453125,-0.729522705078125,-0.806121826171875,1.183319091796875
1695712462612908800,0.84590869140625,-0.5584716796875,-1.642913818359375,0.077056884765625
1695712462622460700,0.855460693359375,-0.273284912109375,-1.215362548828125,-0.659027099609375
1695712462632012800,0.8650126953125,-0.059661865234375,-0.4315185546875,-1.136474609375
1695712462641534200,0.8745341796875,0.2081298828125,0.132293701171875,-1.427154541015625
1695712462651086000,0.884086181640625,0.52459716796875,0.193023681640625,-1.5484619140625
1695712462660638200,0.89363818359375,0.769500732421875,-0.0653076171875,-1.5087890625
1695712462670190000,0.903190185546875,0.826416015625,-0.209808349609375,-1.317291259765625
1695712462679711700,0.912711669921875,0.647735595703125,-0.008544921875,-1.004180908203125
1695712462689263600,0.922263671875,0.333709716796875,0.446929931640625,-0.602264404296875
1695712462698815700,0.931815673828125,0.080108642578125,1.01959228515625,-0.14190673828125
1695712462708367600,0.94136767578125,-0.000152587890625,1.50634765625,0.269775390625
1695712462717889300,0.95088916015625,-0.033721923828125,1.320953369140625,0.34454345703125
1695712462727441200,0.960441162109375,-0.086212158203125,0.808258056640625,0.1812744140625
1695712462736993300,0.9699931640625,-0.067291259765625,0.574493408203125,0.053863525390625
1695712462746545200,0.979545166015625,0.029754638671875,0.594024658203125,-0.0262451171875
1695712462756066600,0.989066650390625,0.19561767578125,0.569000244140625,-0.0927734375
1695712462765618700,0.99861865234375,0.373077392578125,0.468902587890625,-0.15625
1695712462775170600,1.008170654296875,0.4693603515625,0.30609130859375,-0.236358642578125
1695712462784722700,1.01772265625,0.46417236328125,0.191497802734375,-0.342864990234375
1695712462794274600,1.027274658203125,0.317840576171875,0.155792236328125,-0.4412841796875
1695712462803796200,1.036796142578125,-0.063323974609375,0.04669189453125,-0.45166015625
1695712462813348000,1.04634814453125,-0.399932861328125,0.160675048828125,-0.41229248046875
1695712462822900200,1.055900146484375,-0.46142578125,0.187835693359375,-0.404052734375
1695712462832452000,1.0654521484375,-0.408477783203125,0.159454345703125,-0.3955078125
1695712462841973800,1.074973876953125,-0.267486572265625,0.154876708984375,-0.346832275390625
1695712462851556000,1.08455615234375,-0.11688232421875,0.204315185546875,-0.265655517578125
1695712462861108200,1.094108154296875,-0.064239501953125,0.233917236328125,-0.17181396484375
1695712462870660000,1.10366015625,-0.026702880859375,0.239410400390625,-0.03448486328125
1695712462880181800,1.113181640625,-0.039825439453125,0.182952880859375,0.17120361328125
1695712462889733600,1.122733642578125,-0.08270263671875,0.101776123046875,0.387115478515625
1695712462899285800,1.13228564453125,-0.1177978515625,0.048828125,0.599365234375
1695712462908837600,1.141837646484375,-0.13519287109375,0.105438232421875,0.760955810546875
1695712462918359000,1.151359130859375,-0.11627197265625,0.242462158203125,0.811309814453125
1695712462927911200,1.1609111328125,-0.029754638671875,0.3948974609375,0.751495361328125
1695712462937463000,1.170463134765625,0.0921630859375,0.507354736328125,0.655517578125
1695712462947015200,1.18001513671875,0.191650390625,0.561981201171875,0.60272216796875
1695712462956536600,1.18953662109375,0.260772705078125,0.542144775390625,0.6182861328125
1695712462966088700,1.199088623046875,0.301666259765625,0.513458251953125,0.66375732421875
1695712462975640600,1.208640625,0.298004150390625,0.535430908203125,0.675048828125
1695712462985192700,1.218192626953125,0.263519287109375,0.628204345703125,0.60211181640625
1695712462994699300,1.22769921875,0.19866943359375,0.81390380859375,0.462799072265625
1695712463004251100,1.237251220703125,0.1165771484375,1.0430908203125,0.324249267578125
1695712463013803300,1.24680322265625,0.047760009765625,1.212921142578125,0.21759033203125
1695712463023355100,1.256355224609375,0.011749267578125,1.256866455078125,0.140838623046875
1695712463032907300,1.2659072265625,-0.001678466796875,1.248016357421875,0.066986083984375
1695712463042428700,1.2754287109375,0.010223388671875,1.244049072265625,0.024871826171875
1695712463051980800,1.284980712890625,0.031890869140625,1.216278076171875,-0.037841796875
1695712463061532700,1.29453271484375,0.065460205078125,1.202545166015625,-0.0811767578125
1695712463071084800,1.304084716796875,0.10101318359375,1.191558837890625,-0.150146484375
1695712463080606200,1.313606201171875,0.146484375,1.1572265625,-0.300750732421875
1695712463090158300,1.323158447265625,0.179443359375,1.09527587890625,-0.5010986328125
1695712463099710200,1.332710205078125,0.20904541015625,1.0369873046875,-0.677032470703125
1695712463109262300,1.342262451171875,0.283966064453125,0.901031494140625,-0.811767578125
1695712463118783700,1.35178369140625,0.384063720703125,0.75286865234375,-0.85968017578125
1695712463128335600,1.361335693359375,0.46539306640625,0.599212646484375,-0.7989501953125
1695712463137918200,1.370918212890625,0.48858642578125,0.473480224609375,-0.643157958984375
1695712463147470300,1.38047021484375,0.50445556640625,0.35003662109375,-0.40191650390625
1695712463156991700,1.38999169921875,0.51116943359375,0.227813720703125,-0.1202392578125
1695712463166543600,1.399543701171875,0.5181884765625,0.154571533203125,0.099334716796875
1695712463176095700,1.409095703125,0.52001953125,0.118865966796875,0.2032470703125
1695712463185647600,1.418647705078125,0.46905517578125,0.111541748046875,0.21820068359375
1695712463195169300,1.428169189453125,0.336151123046875,0.0946044921875,0.206298828125
1695712463204721200,1.43772119140625,0.20660400390625,0.165863037109375,0.1556396484375
1695712463214273300,1.447273193359375,0.10498046875,0.28411865234375,0.017547607421875
1695712463223825200,1.4568251953125,0.046234130859375,0.40191650390625,-0.14190673828125
1695712463233346600,1.4663466796875,0.029449462890625,0.573272705078125,-0.296478271484375
1695712463242898700,1.475898681640625,0.006561279296875,0.80322265625,-0.39459228515625
1695712463252450800,1.485450927734375,-0.074005126953125,1.08642578125,-0.42388916015625
1695712463262002700,1.495002685546875,-0.2294921875,1.310272216796875,-0.39886474609375
1695712463271524000,1.504524169921875,-0.57037353515625,1.13739013671875,-0.380096435546875
1695712463281076200,1.514076171875,-0.995635986328125,1.39373779296875,-0.41900634765625
1695712463290628000,1.523628173828125,-1.341552734375,1.79107666015625,-0.54656982421875
1695712463300180200,1.53318017578125,-1.749420166015625,1.960906982421875,-0.647125244140625
1695712463309732000,1.542732177734375,-2.2894287109375,1.694793701171875,-0.723419189453125
1695712463319253800,1.552253662109375,-2.61474609375,1.656036376953125,-0.80810546875
1695712463328805600,1.5618056640625,-2.6165771484375,1.7474365234375,-0.9051513671875
1695712463338357800,1.571357666015625,-2.31048583984375,1.693572998046875,-0.938873291015625
1695712463347909600,1.58090966796875,-2.079620361328125,0.228118896484375,-1.300506591796875
1695712463357431000,1.59043115234375,-2.107086181640625,-1.258392333984375,-2.2589111328125
1695712463366983200,1.599983154296875,-1.8853759765625,-0.7769775390625,-2.790374755859375
1695712463376535000,1.60953515625,-1.493072509765625,-0.0128173828125,-3.188934326171875
1695712463386087200,1.619087158203125,-1.18194580078125,0.72845458984375,-3.27117919921875
1695712463395608600,1.628608642578125,-1.129913330078125,1.666412353515625,-2.9888916015625
1695712463405160700,1.63816064453125,-1.56494140625,2.9571533203125,-1.1480712890625
1695712463414712600,1.647712646484375,-1.588134765625,2.84576416015625,0.423736572265625
1695712463424264700,1.6572646484375,-1.30096435546875,3.5638427734375,1.60491943359375
1695712463433847300,1.666847412109375,-1.041412353515625,3.97216796875,2.01080322265625
1695712463443368700,1.67636865234375,-0.97320556640625,4.273681640625,1.804962158203125
1695712463452920600,1.685920654296875,-1.064300537109375,4.441680908203125,1.509246826171875
1695712463462472700,1.69547265625,-1.354827880859375,4.561004638671875,1.190948486328125
1695712463472024600,1.705024658203125,-1.749725341796875,4.67864990234375,0.89080810546875
1695712463481546200,1.714546142578125,-2.136077880859375,4.67315673828125,0.62530517578125
1695712463491098000,1.72409814453125,-2.499847412109375,4.080963134765625,0.650634765625
1695712463500650200,1.733650146484375,-2.802581787109375,3.819122314453125,0.693206787109375
1695712463510202000,1.7432021484375,-2.903289794921875,3.493804931640625,0.454254150390625
1695712463519723500,1.7527236328125,-3.01025390625,2.94525146484375,0.28106689453125
1695712463529275600,1.762275634765625,-3.12652587890625,2.403106689453125,0.331573486328125
1695712463538827500,1.77182763671875,-3.02520751953125,2.082672119140625,0.6494140625
1695712463548379600,1.781379638671875,-2.818450927734375,1.941986083984375,1.126251220703125
1695712463557901000,1.790901123046875,-2.645263671875,2.010955810546875,1.62506103515625
1695712463567453200,1.800453125,-2.588348388671875,2.286834716796875,2.0556640625
1695712463577005000,1.810005126953125,-2.529449462890625,2.598876953125,2.34375
1695712463586557200,1.81955712890625,-2.511138916015625,2.794952392578125,2.44598388671875
1695712463596078600,1.82907861328125,-2.571258544921875,2.91717529296875,2.37060546875
1695712463605630700,1.838630615234375,-2.61505126953125,2.94189453125,2.214508056640625
1695712463615182600,1.8481826171875,-2.647705078125,2.913818359375,2.08892822265625
1695712463624734700,1.857734619140625,-2.6654052734375,2.9498291015625,2.0196533203125
1695712463634256100,1.867256103515625,-2.589263916015625,3.107452392578125,2.03826904296875
1695712463643808000,1.87680810546875,-2.477569580078125,3.385772705078125,2.175750732421875
1695712463653360000,1.886360107421875,-2.3797607421875,3.733367919921875,2.40936279296875
1695712463662912000,1.895912109375,-2.29248046875,4.114532470703125,2.706298828125
1695712463672433700,1.90543359375,-2.24639892578125,4.463043212890625,3.017425537109375
1695712463681985500,1.914985595703125,-2.2802734375,4.776153564453125,3.271636962890625
1695712463691537700,1.92453759765625,-2.31719970703125,5.01068115234375,3.458251953125
1695712463701089500,1.934089599609375,-2.27630615234375,5.05889892578125,3.5223388671875
1695712463710641700,1.9436416015625,-2.151031494140625,4.870758056640625,3.42437744140625
1695712463720193500,1.953193603515625,-1.9879150390625,4.507598876953125,3.212127685546875
1695712463729745700,1.96274560546875,-1.794586181640625,4.0301513671875,2.977142333984375
1695712463739297500,1.972297607421875,-1.56402587890625,3.425140380859375,2.799072265625
1695712463748849700,1.981849609375,-1.28814697265625,2.686920166015625,2.68341064453125
1695712463758371000,1.99137109375,-0.950927734375,1.87744140625,2.599334716796875
1695712463767923200,2.000923095703125,-0.53253173828125,1.3714599609375,2.31048583984375
1695712463777475000,2.01047509765625,-0.1580810546875,1.916046142578125,0.449981689453125
1695712463787027200,2.020027099609375,-0.23284912109375,1.405029296875,-2.114410400390625
1695712463796640300,2.02964013671875,-0.690765380859375,0.132598876953125,-3.117828369140625
1695712463806253000,2.039253173828125,-1.007232666015625,-0.987548828125,-2.409515380859375
1695712463815866000,2.0488662109375,-0.833740234375,-1.679229736328125,-0.86151123046875
1695712463825479200,2.058479248046875,-0.365447998046875,-1.793212890625,0.800018310546875
1695712463835092200,2.06809228515625,0.010223388671875,-0.6512451171875,2.10479736328125
1695712463844705300,2.077705322265625,0.1055908203125,0.3948974609375,3.19366455078125
1695712463854318300,2.087318359375,-0.033721923828125,0.976715087890625,4.059906005859375
1695712463872903700,2.105903564453125,-0.424957275390625,2.20611572265625,3.914794921875
1695712463891946500,2.124946533203125,0.352630615234375,1.948089599609375,2.161712646484375
1695712463901529000,2.134529052734375,0.719146728515625,1.00128173828125,1.860809326171875
1695712463911111700,2.144111572265625,0.946044921875,0.227508544921875,1.634521484375
1695712463920633000,2.153633056640625,0.823974609375,-0.333251953125,1.111602783203125
1695712463930185000,2.16318505859375,0.427093505859375,-0.6500244140625,0.697784423828125
1695712463939737000,2.172737060546875,-0.305633544921875,-0.6890869140625,0.435333251953125
1695712463949289000,2.1822890625,-0.674896240234375,-1.04736328125,0.67962646484375
1695712463958810600,2.191810546875,-0.469970703125,-0.911712646484375,1.01776123046875
1695712463968362500,2.201362548828125,-0.017852783203125,-0.323486328125,1.04400634765625
1695712463977914600,2.21091455078125,0.411529541015625,-0.136260986328125,0.92864990234375
1695712463987466500,2.220466552734375,0.81024169921875,-0.467071533203125,0.9173583984375
1695712463997018600,2.2300185546875,1.165771484375,-1.08001708984375,0.933837890625
1695712464006570500,2.239570556640625,1.2469482421875,-1.250152587890625,0.9259033203125
1695712464016122600,2.24912255859375,1.073760986328125,-0.69610595703125,0.860137939453125
1695712464025674500,2.258674560546875,0.87188720703125,-0.110321044921875,0.9100341796875
1695712464035196200,2.268196044921875,0.762786865234375,0.05889892578125,1.33087158203125
1695712464044748000,2.277748046875,0.710906982421875,0.246429443359375,1.879119873046875
1695712464054300200,2.287300048828125,0.8685302734375,0.253753662109375,2.210540771484375
1695712464063852000,2.29685205078125,1.181640625,-0.3497314453125,2.967071533203125
1695712464073373400,2.30637353515625,1.105804443359375,0.45989990234375,2.3211669921875
1695712464082925600,2.315925537109375,1.035003662109375,0.500640869140625,1.138763427734375
1695712464092477400,2.3254775390625,0.90606689453125,-0.238189697265625,0.467376708984375
1695712464102029600,2.335029541015625,0.647125244140625,-0.778656005859375,0.361480712890625
1695712464111581400,2.34458154296875,0.279388427734375,-0.71136474609375,0.29541015625
1695712464121103000,2.35410302734375,-0.2001953125,-0.24810791015625,0.1654052734375
1695712464130655000,2.363655029296875,-0.706939697265625,-0.0390625,0.21209716796875
1695712464140207000,2.37320703125,-1.076202392578125,0.091552734375,0.393218994140625
1695712464149759000,2.382759033203125,-1.158599853515625,0.32318115234375,0.52642822265625
1695712464159280600,2.39228076171875,-1.079559326171875,0.574188232421875,0.5401611328125
1695712464168832500,2.40183251953125,-1.039276123046875,0.6719970703125,0.449981689453125
1695712464178384600,2.411384521484375,-1.135101318359375,0.507659912109375,0.28778076171875
1695712464187936500,2.4209365234375,-1.396942138671875,0.263824462890625,0.15350341796875
1695712464197458000,2.4304580078125,-1.750335693359375,0.07049560546875,0.1922607421875
1695712464207010000,2.440010009765625,-1.92962646484375,0.113372802734375,0.119781494140625
1695712464216562000,2.44956201171875,-1.96990966796875,0.0909423828125,-0.206756591796875
1695712464226114000,2.459114013671875,-1.93817138671875,0.0604248046875,-0.615081787109375
1695712464235635500,2.468635498046875,-1.907958984375,0.157318115234375,-0.959320068359375
1695712464245187600,2.4781875,-1.97845458984375,-0.126190185546875,-1.14288330078125
1695712464254739500,2.487739501953125,-1.990966796875,-0.7489013671875,-1.429901123046875
1695712464264291600,2.49729150390625,-1.880340576171875,-1.297454833984375,-1.88140869140625
1695712464273813000,2.50681298828125,-1.811676025390625,-1.992034912109375,-2.2833251953125
1695712464283395600,2.5163955078125,-1.68914794921875,-2.241363525390625,-2.57110595703125
1695712464292947500,2.525947509765625,-1.62872314453125,-1.644439697265625,-2.57659912109375
1695712464302499600,2.53549951171875,-1.718597412109375,-0.585479736328125,-1.734771728515625
1695712464312051500,2.545051513671875,-1.57745361328125,1.640167236328125,0.395965576171875
1695712464321573000,2.554572998046875,-2.458343505859375,1.312713623046875,-0.219268798828125
1695712464331125000,2.564125,-2.472076416015625,0.68115234375,-0.7843017578125
1695712464340677000,2.573677001953125,-2.476959228515625,0.3509521484375,-0.51483154296875
1695712464350229000,2.58322900390625,-2.69378662109375,0.115203857421875,-0.48980712890625
1695712464359750400,2.59275048828125,-2.7789306640625,-0.503082275390625,-0.618743896484375
1695712464369302500,2.602302490234375,-2.9754638671875,-0.139923095703125,-0.212554931640625
1695712464378854400,2.6118544921875,-3.554534912109375,-0.161895751953125,-0.670318603515625
1695712464388406500,2.621406494140625,-2.96051025390625,-0.803985595703125,-1.708526611328125
1695712464397928000,2.630927978515625,-2.511138916015625,-1.140594482421875,-2.18170166015625
1695712464407480000,2.64047998046875,-2.074127197265625,-1.494140625,-2.5592041015625
1695712464417032000,2.650031982421875,-1.6107177734375,-1.864471435546875,-3.03619384765625
1695712464426584000,2.659583984375,-1.402740478515625,-1.920318603515625,-3.406982421875
1695712464436105500,2.66910546875,-1.30279541015625,-1.8499755859375,-3.566131591796875
1695712464445657600,2.67865771484375,-1.34429931640625,-1.3739013671875,-3.606109619140625
1695712464455209500,2.68820947265625,-1.54693603515625,-0.923919677734375,-3.06610107421875
1695712464464761600,2.69776171875,-1.2640380859375,-0.913543701171875,-1.83868408203125
1695712464474283000,2.707282958984375,-0.56121826171875,-0.907135009765625,-0.625152587890625
1695712464483835000,2.7168349609375,0.1165771484375,-0.551300048828125,0.118865966796875
1695712464493387000,2.726386962890625,0.619354248046875,0.00946044921875,0.435943603515625
1695712464502939000,2.73593896484375,0.763397216796875,0.626678466796875,0.368194580078125
1695712464512491000,2.745490966796875,0.57373046875,1.190338134765625,0.039215087890625
1695712464522012400,2.755012451171875,0.366058349609375,1.965179443359375,-0.349884033203125
1695712464531564500,2.764564453125,0.22003173828125,2.93121337890625,-0.597076416015625
1695712464541116400,2.774116455078125,0.14007568359375,3.500823974609375,-0.288848876953125
1695712464550668500,2.78366845703125,0.172119140625,3.144989013671875,0.8837890625
1695712464560190000,2.79318994140625,0.1702880859375,2.1966552734375,1.26708984375
1695712464569772500,2.8027724609375,0.032196044921875,1.35986328125,0.63507080078125
1695712464579324400,2.812324462890625,-0.083770751953125,1.283111572265625,0.453948974609375
1695712464588876500,2.82187646484375,-0.15167236328125,1.251678466796875,0.56243896484375
1695712464598398000,2.83139794921875,-0.15350341796875,1.1627197265625,0.6292724609375
1695712464607950000,2.8409501953125,-0.09979248046875,1.0919189453125,0.717620849609375
1695712464617502000,2.850501953125,-0.072784423828125,0.78643798828125,0.713043212890625
1695712464627054000,2.86005419921875,-0.073394775390625,0.475616455078125,0.701751708984375
1695712464636575500,2.869575439453125,-0.064544677734375,0.230865478515625,0.686492919921875
1695712464646127400,2.87912744140625,-0.050201416015625,0.106353759765625,0.6524658203125
1695712464655679500,2.888679443359375,-0.040740966796875,0.105743408203125,0.62774658203125
1695712464665231400,2.8982314453125,-0.048370361328125,0.265655517578125,0.63201904296875
1695712464674753000,2.9077529296875,-0.08453369140625,0.4107666015625,0.63018798828125
1695712464684305000,2.917304931640625,-0.0860595703125,0.7000732421875,0.662841796875
1695712464693857000,2.92685693359375,-0.030059814453125,1.13128662109375,0.727081298828125
1695712464703409000,2.936408935546875,0.007476806640625,1.228179931640625,0.6341552734375
1695712464712961000,2.9459609375,0.2301025390625,1.4801025390625,0.5615234375
1695712464722482400,2.955482421875,0.422210693359375,1.41693115234375,0.560302734375
1695712464732034300,2.965034423828125,0.420074462890625,0.970611572265625,0.325164794921875
1695712464741586400,2.97458642578125,0.378570556640625,0.134735107421875,0.047760009765625
1695712464751138600,2.984138671875,0.312347412109375,-0.461883544921875,-0.211334228515625
1695712464760660000,2.993659912109375,0.11627197265625,-0.33538818359375,-0.4400634765625
1695712464770211800,3.0032119140625,-0.20721435546875,0.39215087890625,-0.615692138671875
1695712464779764000,3.012763916015625,-0.601806640625,1.243743896484375,-0.48248291015625
1695712464789315800,3.02231591796875,-1.092987060546875,1.650543212890625,0.1971435546875
1695712464798837500,3.03183740234375,-1.67022705078125,0.7806396484375,0.17242431640625
1695712464808389400,3.041389404296875,-1.811370849609375,0.81939697265625,-0.206451416015625
1695712464817941500,3.05094140625,-1.398162841796875,2.1307373046875,0.099029541015625
1695712464827493400,3.060493408203125,-1.021270751953125,3.179931640625,-0.45501708984375
1695712464837014800,3.070014892578125,-0.90118408203125,4.72900390625,-1.284332275390625
1695712464846567000,3.07956689453125,-1.22955322265625,5.864715576171875,-1.24359130859375
1695712464856149500,3.0891494140625,-2.2552490234375,3.96636962890625,0.152587890625
1695712464865701400,3.098701416015625,-2.893524169921875,1.86065673828125,0.785675048828125
1695712464875222800,3.108222900390625,-3.3367919921875,0.875396728515625,1.141510009765625
1695712464884775000,3.11777490234375,-3.743896484375,1.153564453125,1.6455078125
1695712464894326800,3.127326904296875,-3.69720458984375,2.642059326171875,1.088714599609375
1695712464903879000,3.13687890625,-3.206329345703125,3.063507080078125,0.689544677734375
1695712464913400300,3.146400390625,-2.767333984375,0.850677490234375,2.174835205078125
1695712464922952400,3.155952392578125,-2.954559326171875,-1.632232666015625,3.574981689453125
1695712464932504300,3.16550439453125,-3.576812744140625,-1.70318603515625,4.061126708984375
1695712464942056400,3.175056396484375,-4.459228515625,1.219940185546875,3.572845458984375
1695712464951608300,3.1846083984375,-4.619903564453125,2.89886474609375,3.578643798828125
1695712464961130000,3.1941298828125,-3.901519775390625,1.701812744140625,3.48175048828125
1695712464970681900,3.203681884765625,-2.788238525390625,-0.210418701171875,2.73712158203125
1695712464980234000,3.21323388671875,-1.95556640625,-2.1099853515625,1.7523193359375
1695712464989785900,3.222785888671875,-1.6900634765625,-2.991485595703125,1.075592041015625
1695712464999307300,3.232307373046875,-1.220703125,-1.8206787109375,0.54443359375
1695712465008859400,3.241859375,-1.014556884765625,0.2899169921875,0.054779052734375
1695712465018411300,3.251411376953125,-0.94696044921875,1.716461181640625,0.030670166015625
1695712465027963400,3.26096337890625,-0.656280517578125,2.369232177734375,0.000762939453125
1695712465037484800,3.27048486328125,-0.300445556640625,1.978302001953125,-0.1666259765625
1695712465047037000,3.280036865234375,0.14129638671875,0.141448974609375,-0.51605224609375
1695712465056588800,3.2895888671875,0.304107666015625,-0.65765380859375,-0.0836181640625
1695712465066141000,3.299140869140625,0.352020263671875,-1.35223388671875,0.760040283203125
1695712465075662300,3.308662353515625,0.416412353515625,-1.900482177734375,1.509552001953125
1695712465085214500,3.31821435546875,0.425872802734375,-1.79168701171875,1.904754638671875
1695712465094766300,3.327766357421875,0.341949462890625,-1.194915771484375,1.911163330078125
1695712465104318500,3.337318359375,0.19989013671875,-0.474700927734375,1.64031982421875
1695712465113839900,3.34683984375,0.032806396484375,-0.00518798828125,1.248779296875
1695712465123391700,3.356391845703125,-0.19256591796875,0.02471923828125,0.839996337890625
1695712465132944000,3.36594384765625,-0.425872802734375,-0.162200927734375,0.50537109375
1695712465142495700,3.375495849609375,-0.5029296875,-0.31341552734375,0.384063720703125
1695712465152078300,3.385078369140625,-0.380096435546875,-0.38421630859375,0.469207763671875
1695712465161599700,3.394599853515625,-0.166015625,-0.41900634765625,0.710601806640625
1695712465171152000,3.40415185546875,-0.043182373046875,-0.41534423828125,0.98968505859375
1695712465180703700,3.413703857421875,-0.061798095703125,-0.404052734375,1.122589111328125
1695712465190255900,3.423255859375,-0.11016845703125,-0.3704833984375,1.107025146484375
1695712465199777300,3.43277734375,-0.17486572265625,-0.29449462890625,1.060028076171875
1695712465209329400,3.442329345703125,-0.24566650390625,-0.208282470703125,1.052703857421875
1695712465218881300,3.45188134765625,-0.300445556640625,-0.121002197265625,1.078033447265625
1695712465228433400,3.461433349609375,-0.338287353515625,-0.118255615234375,1.104888916015625
1695712465237954800,3.470954833984375,-0.362091064453125,-0.210113525390625,1.119537353515625
1695712465247507000,3.4805068359375,-0.378875732421875,-0.30487060546875,1.107330322265625
1695712465257058800,3.490058837890625,-0.404510498046875,-0.33782958984375,1.062164306640625
1695712465266611000,3.49961083984375,-0.45135498046875,-0.29510498046875,0.9814453125
1695712465276132400,3.50913232421875,-0.5047607421875,-0.2490234375,0.866546630859375
1695712465285684200,3.518684326171875,-0.54351806640625,-0.283203125,0.730133056640625
1695712465295236400,3.528236328125,-0.5523681640625,-0.421142578125,0.59478759765625
1695712465304788200,3.537788330078125,-0.52093505859375,-0.580291748046875,0.466156005859375
1695712465314310000,3.547309814453125,-0.45989990234375,-0.67962646484375,0.350799560546875
1695712465323861800,3.55686181640625,-0.414886474609375,-0.6756591796875,0.2508544921875
1695712465333414000,3.566413818359375,-0.428009033203125,-0.6134033203125,0.16357421875
1695712465342965800,3.5759658203125,-0.49163818359375,-0.556793212890625,0.065155029296875
1695712465352518000,3.585517822265625,-0.565185546875,-0.545806884765625,-0.04364013671875
1695712465362039300,3.595039306640625,-0.61492919921875,-0.580596923828125,-0.1470947265625
1695712465371591400,3.60459130859375,-0.61065673828125,-0.61676025390625,-0.225677490234375
1695712465381143300,3.614143310546875,-0.56915283203125,-0.6280517578125,-0.283966064453125
1695712465390695400,3.6236953125,-0.5230712890625,-0.61126708984375,-0.38604736328125
1695712465400216800,3.633216796875,-0.4559326171875,-0.530242919921875,-0.561065673828125
1695712465409768700,3.642768798828125,-0.323638916015625,-0.37994384765625,-0.7977294921875
1695712465419320800,3.65232080078125,-0.146484375,-0.114288330078125,-1.071014404296875
1695712465428872700,3.661872802734375,-0.013885498046875,0.249786376953125,-1.344451904296875
1695712465438424800,3.6714248046875,0.08941650390625,0.648193359375,-1.5972900390625
1695712465447976700,3.680976806640625,0.259246826171875,0.948638916015625,-1.82159423828125
1695712465457528800,3.69052880859375,0.425262451171875,1.06536865234375,-2.059478759765625
1695712465467080700,3.700080810546875,0.45562744140625,1.04644775390625,-2.417144775390625
1695712465476602400,3.709602294921875,0.386505126953125,0.827789306640625,-2.872161865234375
1695712465486154200,3.719154296875,0.354156494140625,0.486297607421875,-3.220062255859375
1695712465495706400,3.728706298828125,0.377655029296875,0.189666748046875,-3.3856201171875
1695712465505258200,3.73825830078125,0.379791259765625,-0.02044677734375,-3.3935546875
1695712465514780000,3.74777978515625,0.335540771484375,-0.127716064453125,-3.2867431640625
1695712465524331800,3.757331787109375,0.278778076171875,-0.174102783203125,-3.112335205078125
1695712465533884000,3.7668837890625,0.2447509765625,-0.33905029296875,-2.9083251953125
1695712465543435800,3.776435791015625,0.235595703125,-0.693359375,-2.69012451171875
1695712465552957200,3.785957275390625,0.23193359375,-1.08245849609375,-2.476959228515625
1695712465562509300,3.79550927734375,0.21087646484375,-1.291656494140625,-2.27020263671875
1695712465572061200,3.805061279296875,0.14923095703125,-0.96282958984375,-2.000274658203125
1695712465581613300,3.81461328125,0.15625,0.06866455078125,-1.687469482421875
1695712465591165200,3.824165283203125,0.332794189453125,1.280059814453125,-1.58966064453125
1695712465600686800,3.833686767578125,0.431365966796875,2.13287353515625,-1.790313720703125
1695712465610238700,3.84323876953125,0.432891845703125,2.4530029296875,-2.21099853515625
1695712465619790800,3.852790771484375,0.398101806640625,2.406158447265625,-2.54913330078125
1695712465629342700,3.8623427734375,0.366058349609375,2.266998291015625,-2.60284423828125
1695712465638864400,3.871864501953125,0.395660400390625,2.044525146484375,-2.447967529296875
1695712465648416300,3.881416259765625,0.4595947265625,1.77703857421875,-2.164764404296875
1695712465657968400,3.890968505859375,0.4803466796875,1.47247314453125,-1.849365234375
1695712465667520300,3.900520263671875,0.5084228515625,1.287078857421875,-1.5777587890625
1695712465677041700,3.910041748046875,0.58197021484375,1.262054443359375,-1.352386474609375
1695712465686593800,3.91959375,0.684661865234375,1.46759033203125,-1.19415283203125
1695712465696145700,3.929145751953125,0.754852294921875,1.706085205078125,-1.095123291015625
1695712465705697800,3.93869775390625,0.81024169921875,1.79931640625,-1.009674072265625
1695712465715249700,3.948249755859375,0.83221435546875,1.7254638671875,-0.86944580078125
1695712465724801800,3.9578017578125,0.81024169921875,1.614532470703125,-0.692901611328125
1695712465734353700,3.967353759765625,0.758819580078125,1.4990234375,-0.51300048828125
1695712465743905800,3.97690576171875,0.698699951171875,1.320953369140625,-0.323944091796875
1695712465753427200,3.98642724609375,0.637969970703125,1.08978271484375,-0.1214599609375
1695712465762979300,3.995979248046875,0.57525634765625,0.829010009765625,0.110931396484375
1695712465772531200,4.00553125,0.51422119140625,0.579681396484375,0.386199951171875
1695712465782083300,4.015083251953125,0.46173095703125,0.361328125,0.693817138671875
1695712465791635200,4.02463525390625,0.414886474609375,0.147857666015625,1.02203369140625
1695712465801156900,4.034156982421875,0.357208251953125,-0.05584716796875,1.3726806640625
1695712465810708700,4.043708740234375,0.309600830078125,-0.122833251953125,1.69677734375
1695712465820260900,4.0532607421875,0.268096923828125,-0.075225830078125,1.95709228515625
1695712465829812700,4.062812744140625,0.21392822265625,-0.003662109375,2.145538330078125
1695712465839334100,4.072334228515625,0.14129638671875,0.037841796875,2.227630615234375
1695712465848886300,4.08188623046875,0.0872802734375,0.013427734375,2.163238525390625
1695712465858438100,4.091438232421875,0.08087158203125,0.106048583984375,1.875152587890625
1695712465867990300,4.100990234375,0.067901611328125,0.40191650390625,1.29791259765625
1695712465877511700,4.11051171875,0.009307861328125,0.901336669921875,0.363616943359375
1695712465887063800,4.120063720703125,-0.044097900390625,1.348724365234375,-0.86883544921875
1695712465896615700,4.12961572265625,0.120849609375,0.7452392578125,-1.657257080078125
1695712465906167800,4.139167724609375,0.5181884765625,-0.74462890625,-1.6119384765625
1695712465915689200,4.148689208984375,0.757293701171875,-1.7529296875,-1.212158203125
1695712465925241300,4.158241455078125,0.708160400390625,-1.667633056640625,-0.8612060546875
1695712465934793200,4.167793212890625,0.51788330078125,-0.878143310546875,-0.602874755859375
1695712465944345300,4.177345458984375,0.336761474609375,0.01190185546875,-0.304718017578125
1695712465953866800,4.18686669921875,0.069122314453125,0.841522216796875,0.21484375
1695712465963418600,4.196418701171875,-0.314788818359375,1.220550537109375,0.93170166015625
1695712465972970800,4.205970703125,-0.714874267578125,0.654296875,1.769866943359375
1695712465982522600,4.215522705078125,-0.94573974609375,-1.331787109375,1.94244384765625
1695712465992074800,4.22507470703125,-0.6146240234375,-3.053131103515625,0.57708740234375
1695712466001626600,4.234626708984375,0.045623779296875,-2.04925537109375,-1.27777099609375
1695712466011178800,4.2441787109375,0.58197021484375,0.413818359375,-1.082916259765625
1695712466020730600,4.253730712890625,0.719757080078125,0.909271240234375,0.576171875
1695712466030282800,4.26328271484375,0.4473876953125,-0.060882568359375,1.6912841796875
1695712466039804200,4.27280419921875,-0.010528564453125,-0.477447509765625,1.66748046875
1695712466049356300,4.282356201171875,-0.55023193359375,0.06866455078125,0.852508544921875
1695712466058908200,4.291908203125,-1.018524169921875,-0.058441162109375,0.675048828125
1695712466068460300,4.301460205078125,-1.18438720703125,-0.783538818359375,1.282958984375
1695712466077981700,4.310981689453125,-0.987091064453125,-1.4129638671875,1.9964599609375
1695712466087533800,4.320533935546875,-0.5279541015625,-2.13958740234375,2.43072509765625
1695712466097085700,4.330085693359375,0.037384033203125,-2.54364013671875,2.276153564453125
1695712466106637800,4.339637939453125,0.458984375,-1.869659423828125,1.6534423828125
1695712466116159200,4.3491591796875,0.628204345703125,-0.7501220703125,1.197967529296875
1695712466125711000,4.358711181640625,0.59112548828125,-0.146026611328125,1.136627197265625
1695712466135263200,4.36826318359375,0.426483154296875,-0.125274658203125,1.32232666015625
1695712466144815000,4.377815185546875,0.255584716796875,-0.34454345703125,1.572113037109375
1695712466154336800,4.387336669921875,0.09490966796875,-0.520172119140625,1.7340087890625
1695712466163888600,4.396888671875,-0.068511962890625,-0.528106689453125,1.74957275390625
1695712466173440800,4.406440673828125,-0.19134521484375,-0.489959716796875,1.6650390625
1695712466182992600,4.41599267578125,-0.22064208984375,-0.3521728515625,1.557769775390625
1695712466192544800,4.425544677734375,-0.17974853515625,-0.183563232421875,1.481475830078125
1695712466202066200,4.435066162109375,-0.11993408203125,-0.191497802734375,1.440887451171875
1695712466211618000,4.4446181640625,-0.09124755859375,-0.38421630859375,1.434478759765625
1695712466221170200,4.454170166015625,-0.130615234375,-0.68206787109375,1.410675048828125
1695712466230722000,4.46372216796875,-0.2056884765625,-0.913543701171875,1.33941650390625
1695712466240243700,4.47324365234375,-0.25421142578125,-0.912017822265625,1.2518310546875
1695712466249795600,4.482795654296875,-0.284576416015625,-0.70526123046875,1.185150146484375
1695712466259347700,4.49234765625,-0.289154052734375,-0.454559326171875,1.150665283203125
1695712466268899600,4.501899658203125,-0.271148681640625,-0.3271484375,1.150360107421875
1695712466278421200,4.511421142578125,-0.274810791015625,-0.343017578125,1.148223876953125
1695712466288003600,4.521003662109375,-0.290985107421875,-0.41717529296875,1.140289306640625
1695712466297555700,4.5305556640625,-0.309906005859375,-0.495758056640625,1.127166748046875
1695712466307107600,4.540107666015625,-0.335845947265625,-0.555877685546875,1.109466552734375
1695712466316629200,4.549629150390625,-0.370635986328125,-0.565338134765625,1.084442138671875
1695712466326181000,4.55918115234375,-0.410003662109375,-0.497283935546875,1.056671142578125
1695712466335733200,4.568733154296875,-0.440521240234375,-0.41015625,1.02691650390625
1695712466345285000,4.57828515625,-0.45928955078125,-0.36041259765625,0.98602294921875
1695712466354806500,4.587806640625,-0.462646484375,-0.36407470703125,0.93048095703125
1695712466364358700,4.597358642578125,-0.45928955078125,-0.41656494140625,0.844573974609375
1695712466373910500,4.60691064453125,-0.4583740234375,-0.472259521484375,0.733489990234375
1695712466383462700,4.616462646484375,-0.4449462890625,-0.476226806640625,0.60577392578125
1695712466393014500,4.6260146484375,-0.410614013671875,-0.445098876953125,0.485076904296875
1695712466402536200,4.6355361328125,-0.374298095703125,-0.37506103515625,0.398712158203125
1695712466412088000,4.645088134765625,-0.357208251953125,-0.2825927734375,0.340423583984375
1695712466421640200,4.65464013671875,-0.366668701171875,-0.227508544921875,0.2923583984375
1695712466431192000,4.664192138671875,-0.412750244140625,-0.222625732421875,0.24566650390625
1695712466440713700,4.673713623046875,-0.482177734375,-0.231475830078125,0.18096923828125
1695712466450265600,4.683265625,-0.52764892578125,-0.255126953125,0.078277587890625
1695712466459817700,4.692817626953125,-0.51025390625,-0.33050537109375,-0.05706787109375
1695712466469369600,4.70236962890625,-0.430145263671875,-0.466156005859375,-0.203094482421875
1695712466478891000,4.71189111328125,-0.303497314453125,-0.562896728515625,-0.344390869140625
1695712466488443100,4.721443115234375,-0.15533447265625,-0.489044189453125,-0.4827880859375
1695712466497995000,4.7309951171875,-0.017547607421875,-0.26214599609375,-0.640411376953125
1695712466507547100,4.740547119140625,0.072784423828125,0.015869140625,-0.82763671875
1695712466517068500,4.750068603515625,0.078125,0.267791748046875,-1.067352294921875
1695712466526620700,4.75962060546875,0.030670166015625,0.480804443359375,-1.375579833984375
1695712466536172500,4.769172607421875,-0.025177001953125,0.6451416015625,-1.729278564453125
1695712466545724700,4.778724609375,-0.028228759765625,0.69244384765625,-2.133026123046875
1695712466555246000,4.78824609375,-0.007476806640625,0.542144775390625,-2.59857177734375
1695712466564798200,4.797798095703125,-0.082855224609375,0.209197998046875,-3.03375244140625
1695712466574380500,4.807380615234375,-0.2496337890625,-0.109100341796875,-3.3209228515625
1695712466583932700,4.8169326171875,-0.345001220703125,-0.2838134765625,-3.443145751953125
1695712466593454000,4.8264541015625,-0.276641845703125,-0.442352294921875,-3.466339111328125
1695712466603006200,4.836006103515625,-0.15625,-0.64453125,-3.36029052734375
1695712466612558000,4.84555810546875,-0.08331298828125,-0.904388427734375,-3.089447021484375
1695712466622110200,4.855110107421875,-0.049591064453125,-1.34307861328125,-2.746124267578125
1695712466631662000,4.864662109375,-0.025177001953125,-1.981658935546875,-2.424163818359375
1695712466641183500,4.87418359375,0.034942626953125,-2.54791259765625,-2.157135009765625
1695712466650735600,4.883735595703125,0.13671875,-2.612762451171875,-1.9073486328125
1695712466660287500,4.89328759765625,0.19989013671875,-2.2076416015625,-1.5667724609375
1695712466669839600,4.902839599609375,0.392913818359375,-2.261505126953125,-0.960235595703125
1695712466679361000,4.912361083984375,0.45623779296875,0.08544921875,-1.443023681640625
1695712466688913200,4.9219130859375,0.54718017578125,1.3623046875,-1.811676025390625
1695712466698465000,4.931465087890625,0.49713134765625,2.676239013671875,-2.115631103515625
1695712466708017200,4.94101708984375,0.424041748046875,2.9681396484375,-2.30743408203125
1695712466717538600,4.95053857421875,0.374298095703125,2.850341796875,-2.365264892578125
1695712466727090700,4.960090576171875,0.370330810546875,2.50518798828125,-2.22869873046875
1695712466736642600,4.969642578125,0.419769287109375,2.031402587890625,-1.9537353515625
1695712466746194700,4.979194580078125,0.48614501953125,1.566009521484375,-1.63055419921875
1695712466755716000,4.988716064453125,0.5499267578125,1.245269775390625,-1.328277587890625
1695712466765268000,4.99826806640625,0.5950927734375,1.058349609375,-1.090545654296875
1695712466774820000,5.007820068359375,0.620880126953125,0.973052978515625,-0.921783447265625
1695712466784372000,5.0173720703125,0.634613037109375,0.962982177734375,-0.79681396484375
1695712466793924000,5.026924072265625,0.657196044921875,0.980682373046875,-0.709381103515625
1695712466803445500,5.036445556640625,0.687103271484375,1.03057861328125,-0.663604736328125
1695712466812997600,5.04599755859375,0.695953369140625,1.124267578125,-0.629425048828125
1695712466822549500,5.055549560546875,0.676727294921875,1.213226318359375,-0.573883056640625
1695712466832101600,5.0651015625,0.652923583984375,1.230926513671875,-0.4681396484375
1695712466841623000,5.074623046875,0.633697509765625,1.14776611328125,-0.304718017578125
1695712466851175200,5.084175048828125,0.60150146484375,0.985260009765625,-0.0799560546875
1695712466860727000,5.09372705078125,0.52154541015625,0.7464599609375,0.198974609375
1695712466870309600,5.1033095703125,0.424652099609375,0.489044189453125,0.51849365234375
1695712466879831000,5.1128310546875,0.370941162109375,0.261993408203125,0.861358642578125
1695712466889383200,5.122383056640625,0.362701416015625,0.09307861328125,1.178741455078125
1695712466898935000,5.13193505859375,0.366363525390625,-0.02227783203125,1.415863037109375
1695712466908487200,5.141487060546875,0.353240966796875,-0.06072998046875,1.564788818359375
1695712466918008600,5.151008544921875,0.330963134765625,0.01251220703125,1.632080078125
1695712466927560400,5.160560546875,0.302276611328125,0.179595947265625,1.605224609375
1695712466937112600,5.170112548828125,0.25726318359375,0.39703369140625,1.461639404296875
1695712466946664400,5.17966455078125,0.19866943359375,0.582122802734375,1.219024658203125
1695712466956186000,5.18918603515625,0.1373291015625,0.73944091796875,0.892333984375
1695712466965738000,5.198738037109375,0.1019287109375,0.941925048828125,0.424041748046875
1695712466975290000,5.2082900390625,0.12237548828125,1.17401123046875,-0.206451416015625
1695712466984842000,5.217842041015625,0.13671875,1.299591064453125,-0.89630126953125
1695712466994363600,5.22736376953125,0.1385498046875,1.203460693359375,-1.437225341796875
1695712467003915500,5.23691552734375,0.146484375,0.829315185546875,-1.645660400390625
1695712467013467600,5.246467529296875,0.1263427734375,0.222625732421875,-1.50146484375
1695712467023019500,5.25601953125,0.0933837890625,-0.3240966796875,-1.13311767578125
1695712467032571600,5.265571533203125,0.0921630859375,-0.432281494140625,-0.703277587890625
1695712467042093000,5.275093017578125,0.0994873046875,-0.184173583984375,-0.321197509765625
1695712467051645000,5.28464501953125,0.058441162109375,0.145721435546875,-0.020599365234375
1695712467061197000,5.294197021484375,0.024871826171875,0.506439208984375,0.2032470703125
1695712467070749000,5.3037490234375,0.044097900390625,0.889129638671875,0.420684814453125
1695712467080270600,5.3132705078125,0.028228759765625,1.225128173828125,0.725860595703125
1695712467089822500,5.322822509765625,-0.036468505859375,1.320037841796875,1.199188232421875
1695712467099374600,5.33237451171875,-0.1171875,0.957794189453125,1.885223388671875
1695712467108926500,5.341926513671875,-0.16693115234375,-0.455474853515625,2.173309326171875
1695712467118448000,5.3514482421875,0.013580322265625,-2.621917724609375,1.32781982421875
1695712467128000000,5.361,0.15869140625,-2.679901123046875,0.056304931640625
1695712467137552100,5.37055224609375,0.433807373046875,-1.157684326171875,-0.558319091796875
1695712467147134500,5.380134521484375,0.740203857421875,-0.423736572265625,0.023040771484375
1695712467156656000,5.38965625,0.738983154296875,-0.894622802734375,1.32537841796875
1695712467166208000,5.3992080078125,0.326080322265625,-1.288299560546875,2.181243896484375
1695712467175760100,5.408760009765625,-0.1837158203125,-0.918731689453125,2.137603759765625
1695712467185312000,5.41831201171875,-0.5633544921875,0.243377685546875,1.562652587890625
1695712467194833400,5.42783349609375,-0.756072998046875,0.79010009765625,1.39251708984375
1695712467204385500,5.437385498046875,-0.805511474609375,0.30792236328125,1.73980712890625
1695712467213937400,5.4469375,-0.775909423828125,-0.76690673828125,2.221221923828125
1695712467223489500,5.456489501953125,-0.58258056640625,-2.030487060546875,2.42767333984375
1695712467233041400,5.46604150390625,-0.106201171875,-2.627716064453125,2.130889892578125
1695712467242563000,5.47556298828125,0.376434326171875,-2.024383544921875,1.5875244140625
1695712467252115000,5.485114990234375,0.647430419921875,-0.886077880859375,1.27288818359375
1695712467261667000,5.4946669921875,0.691986083984375,-0.139312744140625,1.192169189453125
1695712467271219000,5.504218994140625,0.55328369140625,0.08819580078125,1.24847412109375
1695712467280740600,5.51374072265625,0.353546142578125,-0.058135986328125,1.416473388671875
1695712467290292500,5.52329248046875,0.177001953125,-0.3936767578125,1.6387939453125
1695712467299844600,5.5328447265625,0.026092529296875,-0.792694091796875,1.769866943359375
1695712467309396500,5.542396484375,-0.057830810546875,-1.092529296875,1.74713134765625
1695712467318918000,5.55191796875,-0.034332275390625,-1.1236572265625,1.6571044921875
1695712467328470000,5.561469970703125,0.0836181640625,-0.929718017578125,1.562652587890625
1695712467338022000,5.57102197265625,0.18524169921875,-0.74310302734375,1.474761962890625
1695712467347574000,5.580573974609375,0.18524169921875,-0.6805419921875,1.38885498046875
1695712467357095400,5.590095458984375,0.09613037109375,-0.699462890625,1.2933349609375
1695712467366647600,5.5996474609375,-0.021820068359375,-0.73272705078125,1.188507080078125
1695712467376199400,5.609199462890625,-0.11322021484375,-0.6976318359375,1.096038818359375
1695712467385751600,5.61875146484375,-0.1617431640625,-0.580902099609375,1.031494140625
1695712467395273000,5.62827294921875,-0.19500732421875,-0.435943603515625,0.98968505859375
1695712467404824800,5.637824951171875,-0.2130126953125,-0.2880859375,0.975341796875
1695712467414377000,5.647376953125,-0.21240234375,-0.2581787109375,0.95916748046875
1695712467423929000,5.65692919921875,-0.21759033203125,-0.32470703125,0.9576416015625
1695712467433511400,5.666511474609375,-0.22674560546875,-0.39459228515625,0.98876953125
1695712467443033000,5.676033203125,-0.2288818359375,-0.38116455078125,1.043243408203125
1695712467452585000,5.6855849609375,-0.23040771484375,-0.34759521484375,1.089935302734375
1695712467462137000,5.69513720703125,-0.247802734375,-0.335693359375,1.120452880859375
1695712467471689000,5.70468896484375,-0.276641845703125,-0.3302001953125,1.138153076171875
1695712467481210400,5.71421044921875,-0.307159423828125,-0.3363037109375,1.139678955078125
1695712467490762500,5.723762451171875,-0.333709716796875,-0.3497314453125,1.136016845703125
1695712467500314400,5.733314453125,-0.355072021484375,-0.36529541015625,1.116790771484375
1695712467509866500,5.742866455078125,-0.379180908203125,-0.3546142578125,1.062164306640625
1695712467519388000,5.752387939453125,-0.401153564453125,-0.3076171875,0.96160888671875
1695712467528940000,5.76193994140625,-0.419158935546875,-0.29388427734375,0.825958251953125
1695712467538492000,5.771491943359375,-0.408477783203125,-0.38238525390625,0.684356689453125
1695712467548044000,5.7810439453125,-0.375213623046875,-0.515899658203125,0.56121826171875
1695712467557565400,5.7905654296875,-0.336456298828125,-0.568695068359375,0.464935302734375
1695712467567117300,5.800117431640625,-0.330047607421875,-0.514678955078125,0.388641357421875
1695712467576669400,5.80966943359375,-0.391998291015625,-0.432891845703125,0.30548095703125
1695712467586221600,5.8192216796875,-0.50262451171875,-0.38238525390625,0.19561767578125
1695712467595743000,5.828742919921875,-0.59661865234375,-0.3607177734375,0.057525634765625
1695712467605294800,5.838294921875,-0.61370849609375,-0.33050537109375,-0.08819580078125
1695712467614847000,5.847846923828125,-0.51300048828125,-0.264892578125,-0.224761962890625
1695712467624398800,5.85739892578125,-0.328826904296875,-0.179290771484375,-0.343780517578125
1695712467633951000,5.866950927734375,-0.12542724609375,-0.06378173828125,-0.47271728515625
1695712467643472400,5.876472412109375,0.033721923828125,0.091552734375,-0.601043701171875
1695712467653024500,5.8860244140625,0.0994873046875,0.243377685546875,-0.7489013671875
1695712467662576400,5.895576416015625,0.0823974609375,0.44769287109375,-0.977325439453125
1695712467672128500,5.90512841796875,0.068817138671875,0.73333740234375,-1.300201416015625
1695712467681650000,5.91464990234375,0.12664794921875,0.942230224609375,-1.673736572265625
1695712467691201800,5.924201904296875,0.12237548828125,0.952301025390625,-2.111968994140625
1695712467700754000,5.93375390625,0.043182373046875,0.7757568359375,-2.67364501953125
1695712467710305800,5.943305908203125,0.007171630859375,0.4144287109375,-3.193817138671875
1695712467719858000,5.95285791015625,0.08453369140625,-0.060272216796875,-3.480072021484375
1695712467729409800,5.962409912109375,0.21026611328125,-0.539398193359375,-3.470611572265625
1695712467738962000,5.9719619140625,0.311126708984375,-0.854339599609375,-3.27117919921875
1695712467748514000,5.98151416015625,0.353851318359375,-0.808563232421875,-3.04412841796875
1695712467758035500,5.991035400390625,0.323333740234375,-0.461883544921875,-2.9071044921875
1695712467767587300,6.00058740234375,0.2313232421875,-0.186614990234375,-2.89825439453125
1695712467777139500,6.010139404296875,0.061798095703125,-0.137481689453125,-2.9571533203125
1695712467786691300,6.01969140625,-0.1324462890625,-0.213470458984375,-2.98919677734375
1695712467796213000,6.029212890625,-0.270233154296875,-0.289306640625,-2.94891357421875
1695712467805764900,6.038764892578125,-0.279388427734375,-0.580291748046875,-2.6885986328125
1695712467815317000,6.04831689453125,-0.20538330078125,-0.61798095703125,-2.22198486328125
1695712467824868900,6.057868896484375,-0.15228271484375,-0.05706787109375,-2.032623291015625
1695712467834421000,6.0674208984375,-0.123291015625,0.6781005859375,-2.157745361328125
1695712467843942400,6.0769423828125,-0.1019287109375,1.329193115234375,-2.373809814453125
1695712467853494300,6.086494384765625,-0.11474609375,1.4544677734375,-2.462310791015625
1695712467863046400,6.09604638671875,-0.09307861328125,1.253204345703125,-2.479400634765625
1695712467872598300,6.105598388671875,0.000762939453125,1.10076904296875,-2.482757568359375
1695712467882120000,6.115119873046875,0.0872802734375,1.09405517578125,-2.423858642578125
1695712467891671800,6.124671875,0.16571044921875,1.04217529296875,-2.216796875
1695712467901224000,6.134223876953125,0.273284912109375,0.987091064453125,-1.91436767578125
1695712467910775800,6.14377587890625,0.422210693359375,1.05682373046875,-1.6180419921875
1695712467920297500,6.15329736328125,0.58807373046875,1.14471435546875,-1.362762451171875
1695712467929849300,6.162849365234375,0.714263916015625,1.1773681640625,-1.14532470703125
1695712467939401500,6.1724013671875,0.783233642578125,1.290130615234375,-0.970001220703125
1695712467948953300,6.181953369140625,0.795745849609375,1.41571044921875,-0.83953857421875
1695712467958474800,6.191474853515625,0.784759521484375,1.45904541015625,-0.711822509765625
1695712467968027000,6.20102685546875,0.758209228515625,1.4288330078125,-0.559844970703125
1695712467977578800,6.210578857421875,0.709991455078125,1.319427490234375,-0.367889404296875
1695712467987131000,6.220130859375,0.640716552734375,1.153564453125,-0.1275634765625
1695712467996652300,6.22965234375,0.57373046875,0.964813232421875,0.16448974609375
1695712468006235000,6.23923486328125,0.533447265625,0.76934814453125,0.501708984375
1695712468015786800,6.248786865234375,0.5316162109375,0.602569580078125,0.859832763671875
1695712468025339000,6.2583388671875,0.56427001953125,0.488739013671875,1.222991943359375
1695712468034890800,6.267890869140625,0.61614990234375,0.44464111328125,1.597900390625
1695712468044412400,6.277412353515625,0.688018798828125,0.487823486328125,1.95587158203125
1695712468053964300,6.28696435546875,0.767974853515625,0.605926513671875,2.264862060546875
1695712468063516400,6.296516357421875,0.7952880859375,0.760498046875,2.45574951171875
1695712468073068300,6.306068359375,0.734100341796875,0.964508056640625,2.4169921875
1695712468082590000,6.31558984375,0.648651123046875,1.11297607421875,2.04925537109375
1695712468092141800,6.325141845703125,0.57861328125,1.0821533203125,1.33453369140625
1695712468101694000,6.33469384765625,0.469970703125,1.11358642578125,0.24078369140625
1695712468111245800,6.344245849609375,0.284881591796875,1.41143798828125,-1.13861083984375
1695712468120767200,6.353767333984375,0.048065185546875,1.395263671875,-2.115020751953125
1695712468130319400,6.3633193359375,0.023651123046875,0.3106689453125,-2.112579345703125
1695712468139871200,6.372871337890625,0.276641845703125,-0.929107666015625,-1.6375732421875
1695712468149393000,6.382392822265625,0.501708984375,-1.302337646484375,-1.21337890625
1695712468158944800,6.39194482421875,0.421905517578125,-1.0040283203125,-0.943145751953125
1695712468168497000,6.401496826171875,0.20294189453125,-0.450897216796875,-0.78826904296875
1695712468178048800,6.411048828125,-0.019683837890625,0.29144287109375,-0.5169677734375
1695712468187601000,6.420600830078125,-0.422515869140625,1.15753173828125,-0.0372314453125
1695712468197122300,6.430122314453125,-0.83831787109375,1.644134521484375,0.57037353515625
1695712468206674400,6.43967431640625,-0.88134765625,1.02508544921875,0.927734375
1695712468216226300,6.449226318359375,-0.444183349609375,-0.597076416015625,0.741729736328125
1695712468225778400,6.4587783203125,-0.13671875,-1.357421875,0.345611572265625
1695712468235299800,6.4682998046875,0.068206787109375,-0.542144775390625,0.004425048828125
1695712468244851700,6.477851806640625,0.262298583984375,-0.41107177734375,0.5462646484375
1695712468254403800,6.48740380859375,0.315399169921875,-0.907745361328125,1.58935546875
1695712468263955700,6.496955810546875,0.1806640625,-0.932159423828125,2.05657958984375
1695712468273477400,6.506477294921875,-0.1092529296875,-0.3302001953125,1.868133544921875
1695712468283029200,6.516029296875,-0.2142333984375,-0.089569091796875,1.809539794921875
1695712468292611800,6.52561181640625,-0.074310302734375,-0.31829833984375,2.0654296875
1695712468302163700,6.535163818359375,0.13031005859375,-0.6854248046875,2.276763916015625
1695712468311715800,6.5447158203125,0.295562744140625,-0.961456298828125,2.238311767578125
1695712468321237200,6.5542373046875,0.409698486328125,-0.917510986328125,1.95404052734375
1695712468330789400,6.563789306640625,0.4571533203125,-0.547637939453125,1.566925048828125
1695712468340341200,6.57334130859375,0.4547119140625,-0.29388427734375,1.302490234375
1695712468349893400,6.582893310546875,0.433197021484375,-0.38970947265625,1.2579345703125
1695712468359414800,6.592414794921875,0.381011962890625,-0.6005859375,1.405181884765625
1695712468368967000,6.601966796875,0.315093994140625,-0.72235107421875,1.64886474609375
1695712468378518800,6.611518798828125,0.2203369140625,-0.870208740234375,1.915740966796875
1695712468388071000,6.62107080078125,0.1068115234375,-1.075439453125,2.1112060546875
1695712468397592300,6.63059228515625,0.008087158203125,-1.307220458984375,2.130584716796875
1695712468407144200,6.640144287109375,-0.031890869140625,-1.4111328125,2.01416015625
1695712468416696300,6.6496962890625,0.003814697265625,-1.296539306640625,1.832733154296875
1695712468426248200,6.659248291015625,0.070953369140625,-0.9814453125,1.65771484375
1695712468435769900,6.668769775390625,0.1141357421875,-0.604248046875,1.552581787109375
1695712468445321700,6.67832177734375,0.107421875,-0.38055419921875,1.518707275390625
1695712468454873900,6.687873779296875,0.019073486328125,-0.35400390625,1.497955322265625
1695712468464425700,6.69742578125,-0.08941650390625,-0.440521240234375,1.466827392578125
1695712468473977900,6.706977783203125,-0.1788330078125,-0.508880615234375,1.427764892578125
1695712468483499300,6.716499267578125,-0.21331787109375,-0.505218505859375,1.39312744140625
1695712468493051400,6.726051513671875,-0.196533203125,-0.435333251953125,1.37420654296875
1695712468502603300,6.735603271484375,-0.15289306640625,-0.3485107421875,1.35406494140625
1695712468512155400,6.7451552734375,-0.1123046875,-0.2984619140625,1.32965087890625
1695712468521676800,6.7546767578125,-0.09613037109375,-0.29632568359375,1.3275146484375
1695712468531228700,6.764228759765625,-0.1055908203125,-0.303955078125,1.3409423828125
1695712468540780800,6.77378076171875,-0.12939453125,-0.2923583984375,1.3543701171875
1695712468550332700,6.783332763671875,-0.1708984375,-0.3076171875,1.35345458984375
1695712468559854300,6.792854248046875,-0.2313232421875,-0.37109375,1.34185791015625
1695712468569406200,6.80240625,-0.303192138671875,-0.464324951171875,1.31317138671875
1695712468578988800,6.81198876953125,-0.364532470703125,-0.517730712890625,1.2738037109375
1695712468588540700,6.821540771484375,-0.412445068359375,-0.533905029296875,1.224822998046875
1695712468598062300,6.831062255859375,-0.44891357421875,-0.553131103515625,1.138458251953125
1695712468607614200,6.8406142578125,-0.4718017578125,-0.631103515625,0.992431640625
1695712468617166300,6.850166259765625,-0.47882080078125,-0.7537841796875,0.792999267578125
1695712468626718200,6.85971826171875,-0.437164306640625,-0.840301513671875,0.5767822265625
1695712468636240000,6.869239990234375,-0.368499755859375,-0.77728271484375,0.406036376953125
1695712468645791700,6.878791748046875,-0.302886962890625,-0.575103759765625,0.27801513671875
1695712468655343900,6.88834375,-0.288238525390625,-0.399169921875,0.16448974609375
1695712468664895700,6.897895751953125,-0.337677001953125,-0.390625,0.047149658203125
1695712468674448000,6.90744775390625,-0.394439697265625,-0.423736572265625,-0.06622314453125
1695712468683969300,6.91696923828125,-0.406036376953125,-0.32379150390625,-0.1678466796875
1695712468693521200,6.926521240234375,-0.340423583984375,-0.118560791015625,-0.264434814453125
1695712468703073300,6.9360732421875,-0.2178955078125,0.09002685546875,-0.38299560546875
1695712468712625200,6.945625244140625,-0.080413818359375,0.261383056640625,-0.554656982421875
1695712468722146800,6.955146728515625,0.031585693359375,0.37841796875,-0.739593505859375
1695712468731698700,6.96469873046875,0.11474609375,0.41412353515625,-0.922698974609375
1695712468741250800,6.974250732421875,0.12969970703125,0.4217529296875,-1.16180419921875
1695712468750802700,6.983802734375,0.09857177734375,0.583343505859375,-1.4678955078125
1695712468760324400,6.993324462890625,0.10162353515625,0.847320556640625,-1.81854248046875
1695712468769876200,7.002876220703125,0.10101318359375,0.971527099609375,-2.23297119140625
1695712468779428400,7.012428466796875,0.018463134765625,0.825042724609375,-2.722625732421875
1695712468788980200,7.021980224609375,-0.076141357421875,0.478057861328125,-3.176116943359375
1695712468798501600,7.031501708984375,-0.037078857421875,0.0421142578125,-3.489227294921875
1695712468808053800,7.0410537109375,0.10955810546875,-0.40618896484375,-3.585052490234375
1695712468817605600,7.050605712890625,0.24322509765625,-0.75225830078125,-3.458099365234375
1695712468827157800,7.06015771484375,0.309295654296875,-0.864715576171875,-3.201141357421875
1695712468836679200,7.06967919921875,0.291900634765625,-0.7513427734375,-2.95318603515625
1695712468846231300,7.079231201171875,0.216064453125,-0.6671142578125,-2.827911376953125
1695712468855783200,7.088783203125,0.1068115234375,-0.7574462890625,-2.819366455078125
1695712468865365800,7.09836572265625,-0.020904541015625,-0.937042236328125,-2.829742431640625
1695712468874917600,7.107917724609375,-0.0927734375,-1.02691650390625,-2.780609130859375
1695712468884439300,7.117439208984375,-0.1171875,-0.68603515625,-2.5537109375
1695712468893991200,7.1269912109375,-0.086517333984375,0.121307373046875,-2.2332763671875
1695712468903543300,7.136543212890625,0.051116943359375,0.970611572265625,-2.076263427734375
1695712468913095200,7.14609521484375,0.14556884765625,1.38824462890625,-2.18048095703125
1695712468922616800,7.155616943359375,0.434112548828125,-0.257568359375,-1.59515380859375
1695712468932168700,7.165168701171875,0.24658203125,0.78765869140625,-2.232666015625
1695712468941720800,7.174720947265625,0.16143798828125,0.69244384765625,-2.395172119140625
1695712468951272700,7.184272705078125,-0.013580322265625,1.444091796875,-2.529144287109375
1695712468960794000,7.193794189453125,0.003204345703125,1.909027099609375,-2.471160888671875
1695712468970346200,7.20334619140625,0.11810302734375,1.903228759765625,-2.2515869140625
1695712468979898000,7.212898193359375,0.259552001953125,1.599884033203125,-1.9598388671875
1695712468989450200,7.2224501953125,0.419464111328125,1.351776123046875,-1.644744873046875
1695712468998971600,7.2319716796875,0.55938720703125,1.201629638671875,-1.324920654296875
1695712469008523800,7.241523681640625,0.670318603515625,1.16058349609375,-1.030426025390625
1695712469018075600,7.25107568359375,0.734405517578125,1.276397705078125,-0.82366943359375
1695712469027627800,7.260627685546875,0.722198486328125,1.5020751953125,-0.715484619140625
1695712469037149200,7.270149169921875,0.668487548828125,1.642913818359375,-0.637969970703125
1695712469046701000,7.279701171875,0.613555908203125,1.584625244140625,-0.533447265625
1695712469056253200,7.289253173828125,0.5694580078125,1.4068603515625,-0.366363525390625
1695712469065805000,7.29880517578125,0.53497314453125,1.174468994140625,-0.1190185546875
1695712469075326700,7.30832666015625,0.50933837890625,0.915679931640625,0.21209716796875
1695712469084878600,7.317878662109375,0.5047607421875,0.65185546875,0.60272216796875
1695712469094430700,7.3274306640625,0.535888671875,0.4534912109375,1.0137939453125
1695712469103982600,7.336982666015625,0.5889892578125,0.34454345703125,1.408233642578125
1695712469113534700,7.34653466796875,0.645904541015625,0.3216552734375,1.762542724609375
1695712469123056000,7.35605615234375,0.719451904296875,0.4034423828125,2.06878662109375
1695712469132608300,7.365608154296875,0.82061767578125,0.584869384765625,2.3175048828125
1695712469142160100,7.37516015625,0.9234619140625,0.849456787109375,2.43927001953125
1695712469151742700,7.38474267578125,0.95703125,1.233062744140625,2.263031005859375
1695712469161264000,7.39426416015625,0.89202880859375,1.601715087890625,1.63299560546875
1695712469170816300,7.403816162109375,0.774993896484375,1.575775146484375,0.60638427734375
1695712469180368100,7.4133681640625,0.57403564453125,1.546173095703125,-0.54901123046875
1695712469189920300,7.422920166015625,0.23101806640625,1.584320068359375,-1.529541015625
1695712469199441700,7.432441650390625,-0.11505126953125,1.351165771484375,-2.079925537109375
1695712469208993500,7.44199365234375,-0.1397705078125,0.340576171875,-2.044219970703125
1695712469218545700,7.451545654296875,0.20904541015625,-0.800628662109375,-1.644439697265625
1695712469228097500,7.46109765625,0.432281494140625,-1.193695068359375,-1.2115478515625
1695712469237619200,7.470619140625,0.24749755859375,-1.13433837890625,-0.8758544921875
1695712469247171000,7.480171142578125,0.003204345703125,-0.896759033203125,-0.684967041015625
1695712469256723200,7.48972314453125,-0.09765625,-0.3326416015625,-0.42022705078125
1695712469266275000,7.499275146484375,-0.375823974609375,0.81512451171875,0.042572021484375
1695712469275796700,7.508796630859375,-0.83099365234375,1.85211181640625,0.68450927734375
1695712469285348600,7.5183486328125,-1.151580810546875,1.575469970703125,1.204071044921875
1695712469294900700,7.527900634765625,-1.005706787109375,-0.211334228515625,1.110382080078125
1695712469304452600,7.53745263671875,-0.57220458984375,-1.43951416015625,0.501861572265625
1695712469314004700,7.547004638671875,-0.274810791015625,-0.27435302734375,-0.260772705078125
1695712469323526100,7.556526123046875,0.08331298828125,0.40618896484375,-0.295257568359375
1695712469333078000,7.566078125,0.5352783203125,-1.201324462890625,1.111907958984375
1695712469342630100,7.575630126953125,0.766754150390625,-2.233734130859375,2.32208251953125
1695712469352182000,7.58518212890625,0.621490478515625,-1.897430419921875,2.510528564453125
1695712469361703700,7.59470361328125,0.303497314453125,-1.04888916015625,2.0941162109375
1695712469371255600,7.604255615234375,0.14923095703125,-0.526275634765625,1.826629638671875
1695712469380807700,7.6138076171875,0.1593017578125,-0.4168701171875,1.96502685546875
1695712469390359600,7.623359619140625,0.2069091796875,-0.529937744140625,2.197723388671875
1695712469399881200,7.632881103515625,0.224609375,-0.6890869140625,2.246856689453125
1695712469409433000,7.64243310546875,0.2496337890625,-0.74798583984375,2.0428466796875
1695712469418985200,7.651985107421875,0.315093994140625,-0.792388916015625,1.7071533203125
1695712469428537000,7.661537109375,0.316314697265625,-0.883026123046875,1.472625732421875
1695712469438089200,7.671089111328125,0.289764404296875,-0.941619873046875,1.420745849609375
1695712469447641000,7.68064111328125,0.301666259765625,-0.920562744140625,1.517181396484375
1695712469457193200,7.690193115234375,0.312652587890625,-0.836639404296875,1.7071533203125
1695712469466745000,7.6997451171875,0.274810791015625,-0.850982666015625,1.905670166015625
1695712469476266500,7.7092666015625,0.1934814453125,-1.07177734375,2.04498291015625
1695712469485818600,7.718818603515625,0.13397216796875,-1.35772705078125,2.06817626953125
1695712469495370500,7.72837060546875,0.12359619140625,-1.511383056640625,1.95892333984375
1695712469504922600,7.737922607421875,0.1446533203125,-1.434326171875,1.794281005859375
1695712469514474500,7.747474609375,0.16357421875,-1.193084716796875,1.649169921875
1695712469523996200,7.75699609375,0.162353515625,-0.9698486328125,1.561126708984375
1695712469533548000,7.766548095703125,0.1385498046875,-0.833892822265625,1.537628173828125
1695712469543100200,7.77610009765625,0.066986083984375,-0.805816650390625,1.519012451171875
1695712469552652000,7.785652099609375,-0.033416748046875,-0.828094482421875,1.461029052734375
1695712469562173700,7.795173583984375,-0.0872802734375,-0.863189697265625,1.403350830078125
1695712469571725600,7.8047255859375,-0.11199951171875,-0.883331298828125,1.36138916015625
1695712469581277700,7.814277587890625,-0.16082763671875,-0.843658447265625,1.31103515625
1695712469590829600,7.82382958984375,-0.18463134765625,-0.7135009765625,1.28082275390625
1695712469600351000,7.83335107421875,-0.194091796875,-0.575408935546875,1.3018798828125
1695712469609903000,7.842903076171875,-0.20538330078125,-0.462799072265625,1.33636474609375
1695712469619455000,7.852455078125,-0.2203369140625,-0.40283203125,1.3568115234375
1695712469629007000,7.862007080078125,-0.23773193359375,-0.3863525390625,1.380615234375
1695712469638528500,7.871528564453125,-0.26702880859375,-0.42327880859375,1.427459716796875
1695712469648080600,7.88108056640625,-0.307769775390625,-0.522308349609375,1.454925537109375
1695712469657632500,7.890632568359375,-0.339202880859375,-0.61981201171875,1.442108154296875
1695712469667184600,7.9001845703125,-0.377655029296875,-0.64422607421875,1.39739990234375
1695712469676706000,7.9097060546875,-0.438079833984375,-0.575103759765625,1.309814453125
1695712469686258200,7.919258056640625,-0.501708984375,-0.473175048828125,1.171417236328125
1695712469695810000,7.92881005859375,-0.5633544921875,-0.474090576171875,0.9881591796875
1695712469705362200,7.938362060546875,-0.59783935546875,-0.62225341796875,0.782623291015625
1695712469714914000,7.9479140625,-0.5712890625,-0.827178955078125,0.58013916015625
1695712469724466200,7.957466064453125,-0.49041748046875,-0.888519287109375,0.407562255859375
1695712469734018000,7.96701806640625,-0.405731201171875,-0.75042724609375,0.26824951171875
1695712469743570200,7.976570068359375,-0.367889404296875,-0.564727783203125,0.146484375
1695712469753122000,7.9861220703125,-0.384368896484375,-0.495452880859375,0.021820068359375
1695712469762643500,7.9956435546875,-0.419464111328125,-0.553131103515625,-0.11993408203125
1695712469772195600,8.005195556640626,-0.417327880859375,-0.573883056640625,-0.262298583984375
1695712469781747500,8.01474755859375,-0.356292724609375,-0.449676513671875,-0.4022216796875
1695712469791299600,8.024299560546876,-0.268707275390625,-0.26611328125,-0.5517578125
1695712469800821000,8.033821044921876,-0.164794921875,-0.067901611328125,-0.694732666015625
1695712469810373000,8.043373046875,-0.028533935546875,0.167388916015625,-0.8538818359375
1695712469819925000,8.052925048828126,0.08087158203125,0.35675048828125,-1.040496826171875
1695712469829477000,8.06247705078125,0.08941650390625,0.496673583984375,-1.297760009765625
1695712469838998500,8.07199853515625,0.055999755859375,0.706787109375,-1.63665771484375
1695712469848550700,8.081550537109376,0.063323974609375,0.925140380859375,-2.020721435546875
1695712469858102500,8.0911025390625,0.074920654296875,1.00555419921875,-2.425079345703125
1695712469867654700,8.100654541015626,0.041656494140625,0.888214111328125,-2.835845947265625
1695712469877176000,8.110176025390626,0.005340576171875,0.629119873046875,-3.201446533203125
1695712469886728000,8.11972802734375,0.062408447265625,0.262298583984375,-3.442535400390625
1695712469896280000,8.129280029296876,0.1690673828125,-0.169830322265625,-3.480987548828125
1695712469905832000,8.13883203125,0.25177001953125,-0.522918701171875,-3.35235595703125
1695712469915353600,8.148353515625,0.276031494140625,-0.583038330078125,-3.136444091796875
1695712469924905500,8.157905517578126,0.24810791015625,-0.34576416015625,-2.92572021484375
1695712469934457600,8.16745751953125,0.17333984375,-0.133819580078125,-2.804107666015625
1695712469944009500,8.177009521484376,0.058135986328125,-0.171051025390625,-2.784576416015625
1695712469953561600,8.1865615234375,-0.055999755859375,-0.36376953125,-2.795562744140625
1695712469963083000,8.1960830078125,-0.12847900390625,-0.470123291015625,-2.723846435546875
1695712469972635100,8.20563525390625,-0.15655517578125,-0.152130126953125,-2.464447021484375
1695712469982187000,8.21518701171875,-0.081939697265625,0.574798583984375,-2.132415771484375
1695712469991739100,8.2247392578125,0.08758544921875,1.343841552734375,-1.99005126953125
1695712470001260500,8.234260498046876,0.12298583984375,1.76727294921875,-2.146759033203125
1695712470010843100,8.243843017578126,0.033416748046875,1.8756103515625,-2.392120361328125
1695712470020395000,8.25339501953125,-0.022735595703125,1.81488037109375,-2.54150390625
1695712470029947100,8.262947021484376,-0.027618408203125,1.618499755859375,-2.56378173828125
1695712470039468500,8.272468505859376,0.008392333984375,1.40350341796875,-2.464752197265625
1695712470049020400,8.2820205078125,0.089111328125,1.306610107421875,-2.24578857421875
1695712470058572500,8.291572509765626,0.205078125,1.292572021484375,-1.95556640625
1695712470068124400,8.30112451171875,0.342864990234375,1.299591064453125,-1.668853759765625
1695712470077646000,8.31064599609375,0.50628662109375,1.301727294921875,-1.415252685546875
1695712470087198000,8.320197998046876,0.641937255859375,1.327362060546875,-1.2109375
1695712470096750000,8.32975,0.720977783203125,1.38946533203125,-1.056060791015625
1695712470106302000,8.339302001953126,0.759735107421875,1.46148681640625,-0.938873291015625
1695712470115823600,8.34882373046875,0.746917724609375,1.4752197265625,-0.838623046875
1695712470125375500,8.35837548828125,0.711822509765625,1.546478271484375,-0.717315673828125
1695712470134927600,8.367927734375,0.659027099609375,1.610260009765625,-0.597381591796875
1695712470144479500,8.3774794921875,0.59539794921875,1.50390625,-0.46722412109375
1695712470154031600,8.387031494140626,0.52886962890625,1.273956298828125,-0.270538330078125
1695712470163553000,8.396552978515626,0.48736572265625,0.994720458984375,0.019073486328125
1695712470173105000,8.40610498046875,0.49072265625,0.728759765625,0.393829345703125
1695712470182657000,8.415656982421876,0.54962158203125,0.505218505859375,0.806121826171875
1695712470192209000,8.425208984375,0.635223388671875,0.33203125,1.209564208984375
1695712470201730600,8.43473046875,0.717010498046875,0.217132568359375,1.57928466796875
1695712470211282400,8.444282470703126,0.8099365234375,0.184783935546875,1.892242431640625
1695712470220834600,8.45383447265625,0.90850830078125,0.225372314453125,2.121734619140625
1695712470230386400,8.463386474609376,0.975189208984375,0.33721923828125,2.209320068359375
1695712470239907800,8.472907958984376,0.94207763671875,0.531463623046875,2.04803466796875
1695712470249460000,8.4824599609375,0.819091796875,0.71929931640625,1.602783203125
1695712470259012000,8.49201220703125,0.629119873046875,0.819244384765625,0.94970703125
1695712470268564000,8.50156396484375,0.405731201171875,0.966339111328125,0.101470947265625
1695712470278085400,8.51108544921875,0.21881103515625,1.194915771484375,-0.979156494140625
1695712470287637500,8.520637451171876,0.10345458984375,1.264190673828125,-1.8402099609375
1695712470297220000,8.53022021484375,0.1947021484375,0.512542724609375,-2.047882080078125
1695712470306772000,8.53977197265625,0.418243408203125,-0.6719970703125,-1.746063232421875
1695712470316293400,8.54929345703125,0.54779052734375,-1.230926513671875,-1.287384033203125
1695712470325845500,8.558845458984376,0.4437255859375,-1.0919189453125,-0.8929443359375
1695712470335397400,8.5683974609375,0.252685546875,-0.591278076171875,-0.645904541015625
1695712470344949500,8.577949462890626,0.13427734375,0.205841064453125,-0.379791259765625
1695712470354501400,8.58750146484375,-0.080718994140625,1.219940185546875,0.070343017578125
1695712470364023000,8.59702294921875,-0.377349853515625,1.8243408203125,0.68450927734375
1695712470373575000,8.606574951171876,-0.56396484375,1.39984130859375,1.469573974609375
1695712470383127000,8.616126953125,-0.4620361328125,-0.509185791015625,1.7315673828125
1695712470392679000,8.625678955078126,-0.11474609375,-2.47711181640625,0.902099609375
1695712470402200300,8.635200439453126,0.039520263671875,-2.09625244140625,-0.264434814453125
1695712470411752400,8.64475244140625,0.338287353515625,-0.68695068359375,-0.53924560546875
1695712470421304600,8.6543046875,0.5877685546875,-0.195159912109375,0.58624267578125
1695712470430856400,8.6638564453125,0.5517578125,-0.6475830078125,1.784210205078125
1695712470440377900,8.6733779296875,0.290374755859375,-0.928192138671875,2.150421142578125
1695712470449930000,8.682929931640626,-0.026397705078125,-0.69976806640625,1.838531494140625
1695712470459481900,8.69248193359375,-0.18707275390625,-0.71807861328125,1.749267578125
1695712470469034000,8.702033935546876,-0.078887939453125,-1.212615966796875,2.09747314453125
1695712470478555400,8.711555419921876,0.10650634765625,-1.636505126953125,2.44598388671875
1695712470488107500,8.721107421875,0.25146484375,-2.032012939453125,2.494049072265625
1695712470497659400,8.730659423828126,0.417022705078125,-2.11761474609375,2.137298583984375
1695712470507211500,8.74021142578125,0.52978515625,-1.630401611328125,1.6973876953125
1695712470516733000,8.74973291015625,0.496826171875,-1.016845703125,1.495819091796875
1695712470526284800,8.759284912109376,0.391387939453125,-0.71197509765625,1.527557373046875
1695712470535837000,8.7688369140625,0.2557373046875,-0.7177734375,1.65374755859375
1695712470545388800,8.778388916015626,0.10955810546875,-0.789947509765625,1.833953857421875
1695712470554941000,8.78794091796875,-0.010223388671875,-0.938568115234375,1.9866943359375
1695712470564462300,8.79746240234375,-0.062103271484375,-1.226959228515625,2.0208740234375
1695712470574014500,8.807014404296876,-0.043487548828125,-1.49078369140625,1.9610595703125
1695712470583597000,8.81659716796875,0.041961669921875,-1.509857177734375,1.865081787109375
1695712470593149000,8.82614892578125,0.1434326171875,-1.262664794921875,1.775360107421875
1695712470602670300,8.83567041015625,0.17852783203125,-1.0302734375,1.7138671875
1695712470612222500,8.845222412109376,0.140380859375,-0.9967041015625,1.65191650390625
1695712470621774300,8.8547744140625,0.059051513671875,-0.9844970703125,1.614990234375
1695712470631326500,8.864326416015626,-0.046234130859375,-0.955352783203125,1.554412841796875
1695712470640848000,8.873847900390626,-0.1593017578125,-0.926361083984375,1.450958251953125
1695712470650400000,8.88339990234375,-0.2532958984375,-0.842742919921875,1.3446044921875
1695712470659951900,8.892951904296876,-0.293121337890625,-0.75164794921875,1.275634765625
1695712470669504000,8.90250390625,-0.314178466796875,-0.69976806640625,1.24725341796875
1695712470679025400,8.912025390625,-0.322418212890625,-0.69183349609375,1.21734619140625
1695712470688577300,8.921577392578126,-0.326690673828125,-0.7537841796875,1.177215576171875
1695712470698129400,8.93112939453125,-0.343170166015625,-0.797576904296875,1.148834228515625
1695712470707681300,8.940681396484376,-0.376434326171875,-0.76141357421875,1.154632568359375
1695712470717203000,8.950202880859376,-0.401153564453125,-0.6683349609375,1.183929443359375
1695712470726754800,8.9597548828125,-0.414581298828125,-0.6048583984375,1.229248046875
1695712470736307000,8.969306884765626,-0.418548583984375,-0.604095458984375,1.26556396484375
1695712470745858800,8.97885888671875,-0.422210693359375,-0.614013671875,1.26495361328125
1695712470755411000,8.988410888671876,-0.438385009765625,-0.557098388671875,1.204681396484375
1695712470764932400,8.997932373046876,-0.46966552734375,-0.456695556640625,1.072235107421875
1695712470774484500,9.007484375,-0.50323486328125,-0.40374755859375,0.887451171875
1695712470784036400,9.017036376953126,-0.5169677734375,-0.40863037109375,0.713043212890625
1695712470793588500,9.02658837890625,-0.48370361328125,-0.428619384765625,0.577392578125
1695712470803110000,9.03610986328125,-0.412445068359375,-0.455474853515625,0.471038818359375
1695712470812661800,9.045661865234376,-0.349273681640625,-0.458831787109375,0.384979248046875
1695712470822214000,9.0552138671875,-0.334625244140625,-0.448150634765625,0.29327392578125
1695712470831765800,9.064765869140626,-0.369110107421875,-0.469512939453125,0.18585205078125
1695712470841287400,9.074287353515626,-0.425872802734375,-0.525665283203125,0.055694580078125
1695712470850839300,9.08383935546875,-0.47027587890625,-0.547332763671875,-0.09185791015625
1695712470860391400,9.093391357421876,-0.4608154296875,-0.474395751953125,-0.232086181640625
1695712470869973800,9.102973876953126,-0.379180908203125,-0.31036376953125,-0.352020263671875
1695712470879495400,9.112495361328126,-0.242919921875,-0.124053955078125,-0.46356201171875
1695712470889047300,9.12204736328125,-0.051422119140625,0.00152587890625,-0.592803955078125
1695712470898599400,9.131599365234376,0.150146484375,0.093994140625,-0.733795166015625
1695712470908151300,9.1411513671875,0.233154296875,0.244903564453125,-0.933380126953125
1695712470917673000,9.1506728515625,0.18157958984375,0.4461669921875,-1.2420654296875
1695712470927224800,9.160224853515626,0.12359619140625,0.65460205078125,-1.647796630859375
1695712470936777000,9.16977685546875,0.09521484375,0.821990966796875,-2.088470458984375
1695712470946328800,9.179328857421876,0.071563720703125,0.863800048828125,-2.509918212890625
1695712470955881000,9.188880859375,0.046844482421875,0.74859619140625,-2.879486083984375
1695712470965402400,9.19840234375,0.028533935546875,0.523834228515625,-3.173980712890625
1695712470974954200,9.207954345703126,0.057830810546875,0.174713134765625,-3.38165283203125
1695712470984506400,9.21750634765625,0.15045166015625,-0.3143310546875,-3.442535400390625
1695712470994058200,9.227058349609376,0.23284912109375,-0.77239990234375,-3.29864501953125
1695712471003580000,9.236579833984376,0.25115966796875,-0.98358154296875,-2.99560546875
1695712471013131800,9.2461318359375,0.1983642578125,-0.963897705078125,-2.68798828125
1695712471022684000,9.255683837890626,0.10101318359375,-0.953826904296875,-2.522735595703125
1695712471032235800,9.26523583984375,-0.004425048828125,-1.06719970703125,-2.518157958984375
1695712471041757400,9.27475732421875,-0.068511962890625,-1.243743896484375,-2.55889892578125
1695712471051309300,9.284309326171876,-0.076751708984375,-1.167755126953125,-2.466278076171875
1695712471060861400,9.293861328125,-0.024261474609375,-0.580902099609375,-2.1954345703125
1695712471070413300,9.303413330078126,0.15167236328125,0.480499267578125,-1.92901611328125
1695712471079934700,9.312934814453126,0.314483642578125,1.41448974609375,-1.9854736328125
1695712471089486800,9.32248681640625,0.278778076171875,1.954193115234375,-2.255859375
1695712471099038700,9.332038818359376,0.142822265625,2.1044921875,-2.528228759765625
1695712471108590800,9.3415908203125,0.061798095703125,1.954498291015625,-2.69989013671875
1695712471118112300,9.3511123046875,0.0830078125,1.620025634765625,-2.7117919921875
1695712471127664400,9.360664306640626,0.14923095703125,1.268463134765625,-2.55462646484375
1695712471137216300,9.37021630859375,0.23284912109375,1.0382080078125,-2.27447509765625
1695712471146768400,9.379768310546876,0.348663330078125,0.941925048828125,-1.94732666015625
1695712471156320300,9.3893203125,0.487060546875,0.979156494140625,-1.6351318359375
1695712471165872400,9.398872314453126,0.604248046875,1.0479736328125,-1.388702392578125
1695712471175424300,9.40842431640625,0.679168701171875,1.09710693359375,-1.19781494140625
1695712471184976400,9.417976318359376,0.718841552734375,1.197052001953125,-1.031646728515625
1695712471194528300,9.4275283203125,0.696563720703125,1.38580322265625,-0.89935302734375
1695712471204050000,9.4370498046875,0.646514892578125,1.484375,-0.7861328125
1695712471213601800,9.446601806640626,0.5902099609375,1.46209716796875,-0.645904541015625
1695712471223154000,9.45615380859375,0.52734375,1.333465576171875,-0.4547119140625
1695712471232705800,9.465705810546876,0.4705810546875,1.123046875,-0.20172119140625
1695712471242227200,9.475227294921876,0.417633056640625,0.857391357421875,0.116424560546875
1695712471251779300,9.484779296875,0.376434326171875,0.583953857421875,0.474700927734375
1695712471261331200,9.494331298828126,0.369415283203125,0.35858154296875,0.86151123046875
1695712471270883300,9.50388330078125,0.397491455078125,0.196380615234375,1.24725341796875
1695712471280404700,9.51340478515625,0.434722900390625,0.0897216796875,1.6082763671875
1695712471289956900,9.522956787109376,0.47454833984375,0.0518798828125,1.918182373046875
1695712471299508700,9.5325087890625,0.53802490234375,0.0836181640625,2.166595458984375
1695712471309060900,9.542060791015626,0.61431884765625,0.184173583984375,2.32574462890625
1695712471318582300,9.551582275390626,0.654144287109375,0.37872314453125,2.30560302734375
1695712471328134400,9.561134521484375,0.633392333984375,0.709228515625,1.94854736328125
1695712471337686300,9.570686279296876,0.572509765625,1.0577392578125,1.241455078125
1695712471347238400,9.58023828125,0.45806884765625,1.336822509765625,0.330352783203125
1695712471356790300,9.589790283203126,0.290069580078125,1.626739501953125,-0.714569091796875
1695712471366311700,9.599311767578126,0.039520263671875,1.618194580078125,-1.707000732421875
1695712471375863800,9.60886376953125,-0.1239013671875,0.987396240234375,-2.161407470703125
1695712471385415700,9.618415771484376,0.070037841796875,-0.277099609375,-1.98760986328125
1695712471394967800,9.6279677734375,0.398406982421875,-1.150665283203125,-1.55181884765625
1695712471404489200,9.6374892578125,0.435638427734375,-1.213531494140625,-1.085968017578125
1695712471414041300,9.647041259765626,0.18951416015625,-0.885162353515625,-0.709381103515625
1695712471423593200,9.65659326171875,-0.051422119140625,-0.476837158203125,-0.435791015625
1695712471433145300,9.666145263671876,-0.1214599609375,0.04913330078125,-0.09918212890625
1695712471442697200,9.675697265625,-0.2001953125,0.81451416015625,0.431060791015625
1695712471452249300,9.685249267578126,-0.383148193359375,1.654205322265625,1.25457763671875
1695712471461801200,9.69480126953125,-0.60394287109375,1.681060791015625,2.295074462890625
1695712471471353300,9.704353271484376,-0.59722900390625,-0.34027099609375,2.7099609375
1695712471480874800,9.713874755859376,-0.18768310546875,-3.13720703125,1.2744140625
1695712471490427000,9.723427001953125,-0.078887939453125,-2.363433837890625,-0.334625244140625
1695712471499978800,9.732978759765626,0.2008056640625,0.534210205078125,-1.010894775390625
1695712471509531000,9.74253076171875,0.715484619140625,0.537567138671875,0.128936767578125
1695712471519052300,9.75205224609375,1.032562255859375,-1.4361572265625,1.816253662109375
1695712471528604200,9.761604248046876,0.882568359375,-2.04986572265625,2.514190673828125
1695712471538156300,9.77115625,0.350494384765625,-1.475830078125,2.241363525390625
1695712471547708200,9.780708251953126,-0.22186279296875,-0.504608154296875,1.537628173828125
1695712471557229800,9.790229736328126,-0.50628662109375,0.120086669921875,1.361083984375
1695712471566781700,9.79978173828125,-0.5218505859375,0.057373046875,1.7608642578125
1695712471576333800,9.809333740234376,-0.425262451171875,-0.594329833984375,2.207489013671875
1695712471585885700,9.8188857421875,-0.2337646484375,-1.499481201171875,2.30621337890625
1695712471595437800,9.828437744140626,0.012969970703125,-2.05841064453125,2.0947265625
1695712471604959200,9.837959228515626,0.20904541015625,-1.994476318359375,1.772308349609375
1695712471614511400,9.847511474609375,0.354766845703125,-1.547088623046875,1.529083251953125
1695712471624063200,9.857063232421876,0.4718017578125,-0.9588623046875,1.446075439453125
1695712471633615400,9.866615478515625,0.46661376953125,-0.478363037109375,1.514129638671875
1695712471643136800,9.87613671875,0.349273681640625,-0.264892578125,1.6827392578125
1695712471652688600,9.885688720703126,0.2197265625,-0.37689208984375,1.782684326171875
1695712471662240800,9.89524072265625,0.13946533203125,-0.69305419921875,1.74652099609375
1695712471671792600,9.904792724609376,0.13336181640625,-0.951690673828125,1.6766357421875
1695712471681314300,9.914314208984376,0.1605224609375,-0.99761962890625,1.62109375
1695712471690866200,9.9238662109375,0.169677734375,-0.848846435546875,1.59423828125
1695712471700418300,9.933418212890626,0.14068603515625,-0.6732177734375,1.573944091796875
1695712471709970200,9.94297021484375,0.055389404296875,-0.597381591796875,1.510772705078125
1695712471719491600,9.95249169921875,-0.051116943359375,-0.576324462890625,1.385498046875
1695712471729074200,9.96207421875,-0.12176513671875,-0.562896728515625,1.25885009765625
1695712471738626300,9.971626220703126,-0.1580810546875,-0.516815185546875,1.199493408203125
1695712471748178200,9.98117822265625,-0.18280029296875,-0.448455810546875,1.190948486328125
1695712471757699800,9.990699951171875,-0.19134521484375,-0.36346435546875,1.201019287109375
1695712471767251700,10.000251708984376,-0.184326171875,-0.34454345703125,1.198883056640625
1695712471776803800,10.009803955078125,-0.18585205078125,-0.3826904296875,1.199493408203125
1695712471786355700,10.019355712890626,-0.19500732421875,-0.42205810546875,1.213836669921875
1695712471795907800,10.028907958984375,-0.2215576171875,-0.441131591796875,1.246337890625
1695712471805429200,10.03842919921875,-0.25787353515625,-0.422515869140625,1.2945556640625
1695712471814981000,10.047981201171876,-0.300750732421875,-0.39459228515625,1.331787109375
1695712471824533200,10.057533203125,-0.348968505859375,-0.41046142578125,1.33056640625
1695712471834085000,10.067085205078126,-0.399932861328125,-0.452423095703125,1.29302978515625
1695712471843606800,10.076606689453126,-0.44708251953125,-0.445404052734375,1.24053955078125
1695712471853158700,10.08615869140625,-0.48370361328125,-0.40679931640625,1.166839599609375
1695712471862710800,10.095710693359376,-0.51177978515625,-0.4150390625,1.047821044921875
1695712471872262700,10.1052626953125,-0.51116943359375,-0.500946044921875,0.880126953125
1695712471881784000,10.1147841796875,-0.45745849609375,-0.6048583984375,0.681915283203125
1695712471891336200,10.124336181640626,-0.374908447265625,-0.588226318359375,0.503692626953125
1695712471900888000,10.13388818359375,-0.313873291015625,-0.438995361328125,0.364532470703125
1695712471910440200,10.143440185546876,-0.313568115234375,-0.31494140625,0.23834228515625
1695712471919961600,10.152961669921876,-0.354461669921875,-0.3271484375,0.103912353515625
1695712471929513700,10.162513671875,-0.385589599609375,-0.3851318359375,-0.025634765625
1695712471939065600,10.172065673828126,-0.376434326171875,-0.36041259765625,-0.13214111328125
1695712471948617700,10.18161767578125,-0.332794189453125,-0.228118896484375,-0.224151611328125
1695712471958139100,10.19113916015625,-0.289764404296875,-0.04425048828125,-0.336456298828125
1695712471967691300,10.200691162109376,-0.24566650390625,0.0555419921875,-0.50933837890625
1695712471977243100,10.2102431640625,-0.1568603515625,0.0042724609375,-0.75469970703125
1695712471986795300,10.219795166015626,-0.016021728515625,-0.0482177734375,-1.023712158203125
1695712471996347100,10.22934716796875,0.056304931640625,0.06072998046875,-1.285858154296875
1695712472005868500,10.23886865234375,0.062103271484375,0.37628173828125,-1.59637451171875
1695712472015451100,10.248451171875,0.09368896484375,0.73028564453125,-1.949462890625
1695712472025003300,10.258003173828126,0.14678955078125,0.939178466796875,-2.325439453125
1695712472034555100,10.26755517578125,0.15167236328125,1.0003662109375,-2.740020751953125
1695712472044076500,10.27707666015625,0.106201171875,0.839080810546875,-3.165130615234375
1695712472053628700,10.286628662109376,0.11566162109375,0.450439453125,-3.455657958984375
1695712472063180500,10.2961806640625,0.19805908203125,-0.0433349609375,-3.519439697265625
1695712472072732700,10.305732666015626,0.296783447265625,-0.448760986328125,-3.39385986328125
1695712472082254000,10.315254150390626,0.344696044921875,-0.510711669921875,-3.175811767578125
1695712472091806200,10.32480615234375,0.279388427734375,-0.3460693359375,-2.9864501953125
1695712472101358000,10.334358154296876,0.1300048828125,-0.250244140625,-2.90435791015625
1695712472110910200,10.34391015625,-0.051727294921875,-0.4095458984375,-2.888031005859375
1695712472120431600,10.353431640625,-0.22064208984375,-0.801239013671875,-2.855987548828125
1695712472129983700,10.362983642578126,-0.309906005859375,-1.218109130859375,-2.732086181640625
1695712472139535600,10.37253564453125,-0.283050537109375,-1.226654052734375,-2.436065673828125
1695712472149087700,10.382087646484376,-0.174560546875,-0.67901611328125,-2.040252685546875
1695712472158609200,10.391609130859376,0.065155029296875,0.197906494140625,-1.773834228515625
1695712472168161000,10.4011611328125,0.278778076171875,0.949249267578125,-1.81732177734375
1695712472177713200,10.410713134765626,0.259552001953125,1.4569091796875,-2.032928466796875
1695712472187265000,10.42026513671875,0.12237548828125,1.609649658203125,-2.29339599609375
1695712472196817200,10.429817138671876,0.024871826171875,1.48895263671875,-2.462005615234375
1695712472206338600,10.439338623046876,0.015106201171875,1.266021728515625,-2.467193603515625
1695712472215890700,10.448890625,0.076751708984375,1.104736328125,-2.3052978515625
1695712472225442600,10.458442626953126,0.17547607421875,1.02874755859375,-2.057647705078125
1695712472234994700,10.46799462890625,0.302886962890625,0.986175537109375,-1.790008544921875
1695712472244516000,10.47751611328125,0.438690185546875,0.979766845703125,-1.5460205078125
1695712472254068200,10.487068115234376,0.54412841796875,0.982208251953125,-1.338043212890625
1695712472263620000,10.4966201171875,0.628814697265625,1.0498046875,-1.1419677734375
1695712472273172200,10.506172119140626,0.653228759765625,1.210479736328125,-0.970001220703125
1695712472282693600,10.515693603515626,0.631561279296875,1.37939453125,-0.81787109375
1695712472292245500,10.52524560546875,0.6072998046875,1.441650390625,-0.659637451171875
1695712472301828000,10.534828125,0.58624267578125,1.4080810546875,-0.4754638671875
1695712472311380200,10.544380126953126,0.56488037109375,1.340179443359375,-0.254974365234375
1695712472320901600,10.553901611328126,0.53863525390625,1.206512451171875,0.004119873046875
1695712472330453500,10.56345361328125,0.51849365234375,1.0247802734375,0.31524658203125
1695712472340005600,10.573005615234376,0.5145263671875,0.80902099609375,0.67352294921875
1695712472349557500,10.5825576171875,0.55145263671875,0.602264404296875,1.060943603515625
1695712472359079200,10.5920791015625,0.61798095703125,0.43487548828125,1.460418701171875
1695712472368631000,10.601631103515626,0.679473876953125,0.32440185546875,1.850738525390625
1695712472378183200,10.61118310546875,0.733489990234375,0.308837890625,2.190399169921875
1695712472387735000,10.620735107421876,0.761871337890625,0.41595458984375,2.41546630859375
1695712472397256700,10.630256591796876,0.702362060546875,0.67169189453125,2.374267578125
1695712472406808600,10.63980859375,0.523681640625,1.02813720703125,1.909637451171875
1695712472416360700,10.649360595703126,0.350799560546875,1.18194580078125,1.105499267578125
1695712472425912600,10.65891259765625,0.257415771484375,1.242523193359375,0.16448974609375
1695712472435464700,10.668464599609376,0.12847900390625,1.272430419921875,-0.90728759765625
1695712472444986000,10.677986083984376,-0.18035888671875,1.245880126953125,-1.9281005859375
1695712472454538000,10.6875380859375,-0.368194580078125,0.75897216796875,-2.30499267578125
1695712472464090000,10.697090087890626,-0.09002685546875,-0.35980224609375,-1.9677734375
1695712472473642000,10.70664208984375,0.21484375,-1.11175537109375,-1.413726806640625
1695712472483163600,10.71616357421875,0.20416259765625,-1.343994140625,-0.921173095703125
1695712472492715500,10.725715576171876,0.030975341796875,-1.277008056640625,-0.634613037109375
1695712472502267600,10.735267578125,-0.10528564453125,-0.819549560546875,-0.45989990234375
1695712472511819500,10.744819580078126,-0.311431884765625,0.262908935546875,-0.11566162109375
1695712472521341200,10.754341064453126,-0.670318603515625,1.687774658203125,0.457916259765625
1695712472530893000,10.76389306640625,-0.909423828125,2.2607421875,1.0205078125
1695712472540445200,10.773445068359376,-0.850830078125,0.636749267578125,1.2664794921875
1695712472549997000,10.7829970703125,-0.48370361328125,-1.81427001953125,0.9625244140625
1695712472559518500,10.7925185546875,-0.1727294921875,-1.513824462890625,0.328521728515625
1695712472569070600,10.802070556640626,0.10284423828125,-0.098419189453125,-0.14068603515625
1695712472578622500,10.81162255859375,0.44036865234375,-0.7330322265625,0.635986328125
1695712472588205000,10.821205078125,0.685882568359375,-1.82281494140625,1.778106689453125
1695712472597757200,10.830757080078126,0.6011962890625,-1.72149658203125,2.161102294921875
1695712472607278600,10.840278564453126,0.279388427734375,-0.908966064453125,1.928558349609375
1695712472616830500,10.84983056640625,0.052337646484375,-0.3875732421875,1.7437744140625
1695712472626382600,10.859382568359376,0.027313232421875,-0.503997802734375,1.9793701171875
1695712472635934500,10.8689345703125,0.130615234375,-0.908966064453125,2.34039306640625
1695712472645456100,10.8784560546875,0.24993896484375,-1.240386962890625,2.557220458984375
1695712472655008000,10.888008056640626,0.297393798828125,-1.402587890625,2.492523193359375
1695712472664560000,10.89756005859375,0.324249267578125,-1.42852783203125,2.124481201171875
1695712472674112000,10.907112060546876,0.336761474609375,-1.35772705078125,1.69464111328125
1695712472683633700,10.916633544921876,0.291900634765625,-1.186981201171875,1.428985595703125
1695712472693185500,10.926185546875,0.269927978515625,-0.936431884765625,1.3861083984375
1695712472702737700,10.935737548828126,0.303802490234375,-0.72906494140625,1.516571044921875
1695712472712289500,10.94528955078125,0.315399169921875,-0.67291259765625,1.7510986328125
1695712472721811000,10.95481103515625,0.262298583984375,-0.782318115234375,1.93634033203125
1695712472731363000,10.964363037109376,0.17425537109375,-1.0211181640625,1.99462890625
1695712472740915000,10.9739150390625,0.1123046875,-1.268157958984375,1.96319580078125
1695712472750467000,10.983467041015626,0.09552001953125,-1.35101318359375,1.876983642578125
1695712472759988500,10.992988525390626,0.113525390625,-1.266937255859375,1.7584228515625
1695712472769540600,11.00254052734375,0.1263427734375,-1.12548828125,1.6314697265625
1695712472779092500,11.012092529296876,0.09918212890625,-0.9564208984375,1.548309326171875
1695712472788644600,11.02164453125,0.045318603515625,-0.841522216796875,1.495819091796875
1695712472798166000,11.031166015625,-0.042877197265625,-0.790863037109375,1.450042724609375
1695712472807718100,11.04071826171875,-0.111083984375,-0.789642333984375,1.409759521484375
1695712472817270000,11.05027001953125,-0.14556884765625,-0.825042724609375,1.383056640625
1695712472826822100,11.059822265625,-0.164794921875,-0.847015380859375,1.361083984375
1695712472836374000,11.0693740234375,-0.16876220703125,-0.814666748046875,1.33392333984375
1695712472845895400,11.0788955078125,-0.17059326171875,-0.73455810546875,1.30523681640625
1695712472855447600,11.088447509765626,-0.18707275390625,-0.65643310546875,1.2890625
1695712472864999400,11.09799951171875,-0.2130126953125,-0.595245361328125,1.295166015625
1695712472874582000,11.10758203125,-0.242919921875,-0.568389892578125,1.31744384765625
1695712472884103400,11.117103515625,-0.282745361328125,-0.561370849609375,1.3409423828125
1695712472893655600,11.126655517578126,-0.334014892578125,-0.562591552734375,1.35467529296875
1695712472903207400,11.13620751953125,-0.386199951171875,-0.572357177734375,1.34002685546875
1695712472912759600,11.145759521484376,-0.435333251953125,-0.581817626953125,1.30126953125
1695712472922281000,11.155281005859376,-0.482177734375,-0.583038330078125,1.23931884765625
1695712472931833000,11.1648330078125,-0.5120849609375,-0.580902099609375,1.137847900390625
1695712472941385000,11.174385009765626,-0.52825927734375,-0.595245361328125,1.00341796875
1695712472950937000,11.18393701171875,-0.52459716796875,-0.6732177734375,0.829315185546875
1695712472960458500,11.19345849609375,-0.4766845703125,-0.767822265625,0.64605712890625
1695712472970010600,11.2030107421875,-0.398712158203125,-0.7684326171875,0.495758056640625
1695712472979562500,11.2125625,-0.335235595703125,-0.63873291015625,0.387725830078125
1695712472989106200,11.222106201171876,-0.317230224609375,-0.477142333984375,0.29571533203125
1695712472998627600,11.231627685546876,-0.346527099609375,-0.433807373046875,0.19134521484375
1695712473008179500,11.241179443359375,-0.404815673828125,-0.527801513671875,0.064544677734375
1695712473017731600,11.250731689453126,-0.44525146484375,-0.621337890625,-0.07720947265625
1695712473027283500,11.260283447265625,-0.433502197265625,-0.604248046875,-0.226898193359375
1695712473036835600,11.269835693359376,-0.370941162109375,-0.509796142578125,-0.380401611328125
1695712473046357000,11.27935693359375,-0.286407470703125,-0.362548828125,-0.521240234375
1695712473055909000,11.2889091796875,-0.18310546875,-0.195465087890625,-0.668792724609375
1695712473065461000,11.2984609375,-0.040740966796875,-0.04058837890625,-0.8428955078125
1695712473075013000,11.30801318359375,0.047760009765625,0.149688720703125,-1.085662841796875
1695712473084534500,11.317534423828125,0.046234130859375,0.39031982421875,-1.416473388671875
1695712473094086700,11.327086669921876,0.063018798828125,0.64544677734375,-1.8170166015625
1695712473103638500,11.336638427734375,0.14984130859375,0.823822021484375,-2.22442626953125
1695712473113190700,11.346190673828126,0.233154296875,0.882720947265625,-2.5787353515625
1695712473122712000,11.355712158203126,0.2447509765625,0.81939697265625,-2.886505126953125
1695712473132264000,11.365263916015625,0.23284912109375,0.586090087890625,-3.162384033203125
1695712473141816000,11.374816162109376,0.263519287109375,0.151214599609375,-3.34075927734375
1695712473151368000,11.384367919921875,0.301666259765625,-0.35614013671875,-3.36883544921875
1695712473160920000,11.393920166015626,0.325164794921875,-0.6805419921875,-3.26416015625
1695712473170472000,11.403471923828125,0.305023193359375,-0.61004638671875,-3.095855712890625
1695712473180024000,11.413024169921876,0.19683837890625,-0.2850341796875,-2.94586181640625
1695712473189576000,11.422575927734375,0.027008056640625,-0.104217529296875,-2.855377197265625
1695712473199097600,11.43209765625,-0.1483154296875,-0.211944580078125,-2.799224853515625
1695712473208649500,11.4416494140625,-0.25421142578125,-0.472564697265625,-2.730865478515625
1695712473218201600,11.45120166015625,-0.2630615234375,-0.525054931640625,-2.519683837890625
1695712473227753500,11.46075341796875,-0.19439697265625,-0.094146728515625,-2.171478271484375
1695712473237275100,11.470275146484376,-0.048370361328125,0.569000244140625,-1.94000244140625
1695712473246827000,11.479826904296875,0.076751708984375,1.141357421875,-1.9805908203125
1695712473256379100,11.489379150390626,0.077362060546875,1.51336669921875,-2.2064208984375
1695712473265931000,11.498930908203125,-0.001983642578125,1.696624755859375,-2.418975830078125
1695712473275483100,11.508483154296876,-0.032806396484375,1.707000732421875,-2.518768310546875
1695712473285004500,11.518004638671876,-0.003814697265625,1.572723388671875,-2.515106201171875
1695712473294556400,11.527556396484375,0.055389404296875,1.3604736328125,-2.397003173828125
1695712473304108500,11.537108642578126,0.14801025390625,1.225433349609375,-2.159271240234375
1695712473313660400,11.546660400390625,0.268402099609375,1.168212890625,-1.89453125
1695712473323182000,11.55618212890625,0.402679443359375,1.14532470703125,-1.642913818359375
1695712473332734000,11.56573388671875,0.55450439453125,1.17431640625,-1.415863037109375
1695712473342286000,11.5752861328125,0.696868896484375,1.224212646484375,-1.2225341796875
1695712473351838000,11.584837890625,0.774078369140625,1.307220458984375,-1.054229736328125
1695712473361359600,11.594359619140626,0.80902099609375,1.4398193359375,-0.90240478515625
1695712473370911500,11.603911376953125,0.8074951171875,1.552581787109375,-0.7598876953125
1695712473380463600,11.613463623046876,0.780487060546875,1.578521728515625,-0.601959228515625
1695712473390015500,11.623015380859375,0.750274658203125,1.543121337890625,-0.4150390625
1695712473399537000,11.632536865234375,0.720367431640625,1.42791748046875,-0.18157958984375
1695712473409089000,11.642089111328126,0.697479248046875,1.240997314453125,0.102081298828125
1695712473418641000,11.651640869140625,0.685882568359375,1.01470947265625,0.441131591796875
1695712473428193000,11.661193115234376,0.702972412109375,0.7916259765625,0.808258056640625
1695712473437745000,11.670744873046875,0.754852294921875,0.595245361328125,1.179046630859375
1695712473447297000,11.680297119140626,0.81024169921875,0.45196533203125,1.532440185546875
1695712473456849000,11.689848876953125,0.86700439453125,0.40374755859375,1.848297119140625
1695712473466401000,11.699401123046876,0.9326171875,0.4473876953125,2.099609375
1695712473475953000,11.708952880859375,0.978851318359375,0.553131103515625,2.228546142578125
1695712473485474600,11.718474609375,0.94482421875,0.70220947265625,2.10968017578125
1695712473495026400,11.7280263671875,0.82275390625,0.81298828125,1.641845703125
1695712473504578600,11.73757861328125,0.673065185546875,0.841522216796875,0.8978271484375
1695712473514130400,11.74713037109375,0.49468994140625,1.04034423828125,0.062713623046875
1695712473523652000,11.756652099609376,0.292816162109375,1.46881103515625,-0.8905029296875
1695712473533204000,11.766203857421875,0.055084228515625,1.7303466796875,-1.741485595703125
1695712473542756000,11.775756103515626,0.026397705078125,1.02752685546875,-2.001495361328125
1695712473552308000,11.785307861328125,0.2392578125,-0.350341796875,-1.710968017578125
1695712473561829400,11.794829345703125,0.43701171875,-1.1212158203125,-1.23931884765625
1695712473571381500,11.804381591796876,0.388946533203125,-1.068115234375,-0.81878662109375
1695712473580933400,11.813933349609375,0.17303466796875,-0.67108154296875,-0.576324462890625
1695712473590485500,11.823485595703126,0.052642822265625,-0.157318115234375,-0.408935546875
1695712473600007000,11.8330068359375,0.009002685546875,0.579376220703125,-0.1019287109375
1695712473609559000,11.84255908203125,-0.16876220703125,1.461181640625,0.388946533203125
1695712473619111000,11.85211083984375,-0.405426025390625,1.953582763671875,1.117401123046875
1695712473628663000,11.8616630859375,-0.55633544921875,1.203155517578125,1.856231689453125
1695712473638184400,11.871184326171875,-0.393829345703125,-1.254425048828125,1.67572021484375
1695712473647736300,11.880736328125,-0.17333984375,-2.759246826171875,0.54046630859375
1695712473657288400,11.890288330078125,0.010223388671875,-1.402587890625,-0.581512451171875
1695712473666840600,11.899840576171876,0.450439453125,0.09307861328125,-0.561065673828125
1695712473676392400,11.909392333984375,0.733795166015625,-0.386962890625,0.789337158203125
1695712473685913900,11.918913818359375,0.748138427734375,-1.222076416015625,1.95587158203125
1695712473695466000,11.928466064453126,0.49346923828125,-1.149444580078125,2.227935791015625
1695712473705017900,11.938017822265625,0.11871337890625,-0.483245849609375,1.862640380859375
1695712473714570000,11.947570068359376,-0.11810302734375,-0.167083740234375,1.70257568359375
1695712473724121900,11.957121826171875,-0.1544189453125,-0.442352294921875,1.938934326171875
1695712473733674000,11.966674072265626,-0.087738037109375,-1.02874755859375,2.295379638671875
1695712473743225900,11.976225830078125,-0.001678466796875,-1.69708251953125,2.44598388671875
1695712473752778000,11.985778076171876,0.13885498046875,-2.010650634765625,2.209014892578125
1695712473762299400,11.99529931640625,0.306243896484375,-1.74957275390625,1.780242919921875
1695712473771851500,12.0048515625,0.379180908203125,-1.230316162109375,1.502227783203125
1695712473781403400,12.0144033203125,0.416107177734375,-0.7501220703125,1.436920166015625
1695712473790955500,12.02395556640625,0.416107177734375,-0.3851318359375,1.497344970703125
1695712473800477000,12.033476806640625,0.328826904296875,-0.219879150390625,1.64764404296875
1695712473810028800,12.04302880859375,0.19256591796875,-0.430145263671875,1.810760498046875
1695712473819581000,12.052580810546875,0.093994140625,-0.881195068359375,1.880950927734375
1695712473829133000,12.062133056640626,0.074310302734375,-1.288604736328125,1.869659423828125
1695712473838654500,12.071654541015626,0.1312255859375,-1.47003173828125,1.836700439453125
1695712473848206300,12.081206298828125,0.2044677734375,-1.3909912109375,1.797332763671875
1695712473857758500,12.090758544921876,0.23223876953125,-1.148223876953125,1.7413330078125
1695712473867310300,12.100310302734375,0.186767578125,-0.986328125,1.65496826171875
1695712473876862500,12.109862548828126,0.0970458984375,-0.951995849609375,1.550445556640625
1695712473886383900,12.1193837890625,-0.011444091796875,-0.9912109375,1.436614990234375
1695712473895936000,12.12893603515625,-0.12542724609375,-0.953521728515625,1.35162353515625
1695712473905488000,12.13848779296875,-0.179443359375,-0.846099853515625,1.29241943359375
1695712473915040000,12.1480400390625,-0.2001953125,-0.72296142578125,1.26922607421875
1695712473924561400,12.1575615234375,-0.198974609375,-0.648193359375,1.26007080078125
1695712473934113300,12.16711328125,-0.2008056640625,-0.64239501953125,1.25091552734375
1695712473943665400,12.17666552734375,-0.21453857421875,-0.71258544921875,1.2396240234375
1695712473953217300,12.18621728515625,-0.23712158203125,-0.797271728515625,1.246337890625
1695712473962739000,12.195739013671876,-0.26580810546875,-0.839996337890625,1.27044677734375
1695712473972290800,12.205290771484375,-0.301055908203125,-0.800018310546875,1.3140869140625
1695712473981843000,12.214843017578126,-0.337066650390625,-0.70709228515625,1.35711669921875
1695712473991394800,12.224394775390625,-0.366363525390625,-0.64605712890625,1.3763427734375
1695712474000916500,12.23391650390625,-0.385894775390625,-0.64697265625,1.37054443359375
1695712474010498800,12.243498779296875,-0.402069091796875,-0.65887451171875,1.34124755859375
1695712474020051000,12.253051025390626,-0.418853759765625,-0.64971923828125,1.27716064453125
1695712474029602800,12.262602783203125,-0.432586669921875,-0.63262939453125,1.158294677734375
1695712474039124500,12.27212451171875,-0.438690185546875,-0.6842041015625,0.986328125
1695712474048676400,12.28167626953125,-0.432891845703125,-0.784759521484375,0.793609619140625
1695712474058228500,12.291228515625,-0.411529541015625,-0.845489501953125,0.60546875
1695712474067780400,12.3007802734375,-0.383453369140625,-0.820770263671875,0.443267822265625
1695712474077332500,12.31033251953125,-0.355682373046875,-0.7244873046875,0.31982421875
1695712474086854000,12.31985400390625,-0.352020263671875,-0.657958984375,0.22552490234375
1695712474096405800,12.32940576171875,-0.373992919921875,-0.7171630859375,0.125885009765625
1695712474105958000,12.3389580078125,-0.396881103515625,-0.828399658203125,0.012054443359375
1695712474115509800,12.348509765625,-0.394744873046875,-0.833282470703125,-0.1116943359375
1695712474125031400,12.358031494140626,-0.356597900390625,-0.64666748046875,-0.240020751953125
1695712474134583300,12.367583251953125,-0.289154052734375,-0.377197265625,-0.3875732421875
1695712474144135400,12.377135498046876,-0.19378662109375,-0.182647705078125,-0.55419921875
1695712474153687300,12.386687255859375,-0.043487548828125,-0.068817138671875,-0.733184814453125
1695712474163209000,12.396208984375,0.1007080078125,0.0482177734375,-0.938568115234375
1695712474172760800,12.4057607421875,0.137939453125,0.182952880859375,-1.217041015625
1695712474182313000,12.41531298828125,0.15869140625,0.3533935546875,-1.5771484375
1695712474191864800,12.42486474609375,0.260467529296875,0.529327392578125,-1.97296142578125
1695712474201386200,12.43438623046875,0.346221923828125,0.657958984375,-2.359466552734375
1695712474210938400,12.4439384765625,0.323944091796875,0.6768798828125,-2.733612060546875
1695712474220490200,12.453490234375,0.265045166015625,0.550079345703125,-3.080596923828125
1695712474230042400,12.46304248046875,0.282745361328125,0.238800048828125,-3.31390380859375
1695712474239563800,12.472563720703125,0.324554443359375,-0.25421142578125,-3.4027099609375
1695712474249116000,12.482115966796876,0.337982177734375,-0.687255859375,-3.3636474609375
1695712474258667800,12.491667724609375,0.327911376953125,-0.792999267578125,-3.247222900390625
1695712474268220000,12.501219970703126,0.276031494140625,-0.565338134765625,-3.107757568359375
1695712474277771800,12.510771728515625,0.15716552734375,-0.32073974609375,-2.98858642578125
1695712474287293400,12.52029345703125,-0.008087158203125,-0.34576416015625,-2.897491455078125
1695712474296875800,12.529875732421875,-0.17181396484375,-0.6451416015625,-2.831878662109375
1695712474306428000,12.539427978515626,-0.278778076171875,-1.0089111328125,-2.750091552734375
1695712474315979800,12.548979736328125,-0.297393798828125,-0.943756103515625,-2.501678466796875
1695712474325501400,12.55850146484375,-0.19561767578125,-0.36102294921875,-2.165679931640625
1695712474335053300,12.56805322265625,0.014801025390625,0.4571533203125,-1.997222900390625
1695712474344605400,12.57760546875,0.15289306640625,1.112060546875,-2.117767333984375
1695712474354157300,12.5871572265625,0.09735107421875,1.50970458984375,-2.342529296875
1695712474363678700,12.5966787109375,-0.001068115234375,1.638641357421875,-2.529449462890625
1695712474373230800,12.60623095703125,-0.038909912109375,1.534423828125,-2.6214599609375
1695712474382782700,12.61578271484375,-0.023651123046875,1.242523193359375,-2.60650634765625
1695712474392334800,12.6253349609375,0.032806396484375,0.983428955078125,-2.422637939453125
1695712474401856300,12.634856201171875,0.1214599609375,0.872344970703125,-2.135772705078125
1695712474411408400,12.644408447265626,0.23040771484375,0.874786376953125,-1.83990478515625
1695712474420960300,12.653960205078125,0.350189208984375,0.937652587890625,-1.578369140625
1695712474430512400,12.663512451171876,0.46478271484375,1.0107421875,-1.374359130859375
1695712474440033800,12.67303369140625,0.54962158203125,1.063232421875,-1.207275390625
1695712474449586000,12.6825859375,0.594482421875,1.16302490234375,-1.049957275390625
1695712474459137800,12.6921376953125,0.633697509765625,1.308441162109375,-0.89324951171875
1695712474468690000,12.70168994140625,0.650177001953125,1.44073486328125,-0.7373046875
1695712474478211300,12.71121142578125,0.639190673828125,1.44805908203125,-0.576934814453125
1695712474487763200,12.72076318359375,0.618438720703125,1.3653564453125,-0.38818359375
1695712474497315300,12.7303154296875,0.58807373046875,1.221771240234375,-0.157470703125
1695712474506867200,12.7398671875,0.5517578125,1.0205078125,0.127105712890625
1695712474516419300,12.74941943359375,0.5224609375,0.78704833984375,0.459747314453125
1695712474525940700,12.758940673828125,0.517578125,0.571441650390625,0.822906494140625
1695712474535492900,12.768492919921876,0.5438232421875,0.3955078125,1.198577880859375
1695712474545044700,12.778044677734375,0.5810546875,0.265045166015625,1.564788818359375
1695712474554596900,12.787596923828126,0.627593994140625,0.196380615234375,1.898040771484375
1695712474564118300,12.7971181640625,0.691070556640625,0.202178955078125,2.165679931640625
1695712474573670400,12.80667041015625,0.750274658203125,0.29632568359375,2.32086181640625
1695712474583222300,12.81622216796875,0.754241943359375,0.532073974609375,2.245941162109375
1695712474592804900,12.825804931640626,0.685272216796875,0.842437744140625,1.808013916015625
1695712474602326300,12.835326171875,0.58563232421875,1.007080078125,1.03515625
1695712474611878400,12.84487841796875,0.44921875,1.160888671875,0.093231201171875
1695712474621430300,12.85443017578125,0.20050048828125,1.38336181640625,-1.005401611328125
1695712474630982400,12.863982421875,-0.14678955078125,1.309967041015625,-1.816864013671875
1695712474640503800,12.87350390625,-0.2099609375,0.379638671875,-1.97296142578125
1695712474650055700,12.8830556640625,0.162353515625,-0.9735107421875,-1.672821044921875
1695712474659607800,12.89260791015625,0.489501953125,-1.48223876953125,-1.2652587890625
1695712474669159700,12.90215966796875,0.431365966796875,-1.141357421875,-0.91461181640625
1695712474678681300,12.911681396484376,0.185546875,-0.576324462890625,-0.720062255859375
1695712474688233200,12.921233154296875,0.035247802734375,-0.0201416015625,-0.54931640625
1695712474697785300,12.930785400390626,-0.016937255859375,0.80810546875,-0.1287841796875
1695712474707337200,12.940337158203125,-0.19744873046875,1.80694580078125,0.683746337890625
1695712474716889300,12.949889404296876,-0.400543212890625,2.19146728515625,1.64947509765625
1695712474726410800,12.95941064453125,-0.433197021484375,0.485076904296875,2.262725830078125
