time,seconds_elapsed,z,y,x
1696082150013273300,0.0562734375,0.012583732604980469,0.4866812229156494,-0.469733864068985
1696082150023273200,0.066273193359375,0.014418601989746094,0.47853565216064453,-0.457553893327713
1696082150033273300,0.0762734375,0.13894367218017578,0.5208358764648438,-0.48617973923683167
1696082150043273200,0.086273193359375,0.1395864486694336,0.46985864639282227,-0.3327808380126953
1696082150053273300,0.0962734375,0.06258964538574219,0.41931962966918945,-0.26420652866363525
1696082150063273200,0.106273193359375,-0.044236183166503906,0.3919703960418701,-0.2903538644313812
1696082150073273300,0.1162734375,-0.1425457000732422,0.3590831756591797,-0.380582332611084
1696082150083273200,0.126273193359375,-0.2610807418823242,0.3835411071777344,-0.4399351477622986
1696082150093273300,0.1362734375,-0.34487247467041016,0.3753690719604492,-0.41975826025009155
1696082150103273200,0.146273193359375,-0.31297874450683594,0.3485400676727295,-0.4190044403076172
1696082150113273300,0.1562734375,-0.2572784423828125,0.33465051651000977,-0.38500651717185974
1696082150123273200,0.166273193359375,-0.2522592544555664,0.24827790260314941,-0.2767478823661804
1696082150133273300,0.1762734375,-0.2765493392944336,0.2049117088317871,-0.2935013175010681
1696082150143273200,0.186273193359375,-0.35628509521484375,0.21573638916015625,-0.3697222173213959
1696082150153273300,0.1962734375,-0.5315513610839844,0.1516718864440918,-0.28794974088668823
1696082150163273200,0.206273193359375,-0.5747394561767578,0.10079216957092285,-0.24914266169071198
1696082150173273300,0.2162734375,-0.6347560882568359,0.062050819396972656,-0.33370018005371094
1696082150183273200,0.226273193359375,-0.6998128890991211,0.07917118072509766,-0.43686917424201965
1696082150193273300,0.2362734375,-0.6790685653686523,0.12156891822814941,-0.5382450819015503
1696082150203273200,0.246273193359375,-0.6732091903686523,0.1537177562713623,-0.5996016263961792
1696082150213273300,0.2562734375,-0.8306407928466797,0.07966041564941406,-0.5293657779693604
1696082150223273200,0.266273193359375,-0.6734075546264648,-0.18623805046081543,-0.42837199568748474
1696082150233273300,0.2762734375,-0.5949726104736328,-0.26062583923339844,-0.28438130021095276
1696082150243273200,0.286273193359375,-0.5361490249633789,-0.17490649223327637,-0.22778907418251038
1696082150253273300,0.2962734375,-0.47391700744628906,-0.18514728546142578,-0.18943068385124207
1696082150263273200,0.306273193359375,-0.5824356079101562,-0.19655323028564453,-0.08260148763656616
1696082150273273300,0.3162734375,-0.9827842712402344,-0.10940241813659668,-0.474356472492218
1696082150283273200,0.326273193359375,-1.3907928466796875,-0.3637211322784424,-0.617673397064209
1696082150293273300,0.3362734375,-1.2264251708984375,-0.511160135269165,-0.8027359247207642
1696082150303273200,0.346273193359375,-0.892207145690918,-0.502979040145874,-1.0344244241714478
1696082150313273300,0.3562734375,-0.6354188919067383,-0.44648003578186035,-1.209223747253418
1696082150323273200,0.366273193359375,-0.501643180847168,-0.433107852935791,-1.2273778915405273
1696082150333273300,0.3762734375,-0.49824047088623047,-0.4937171936035156,-1.3447439670562744
1696082150343273200,0.386273193359375,-0.7380285263061523,-0.5768969058990479,-1.5639166831970215
1696082150353273300,0.3962734375,-1.1999878883361816,-0.6570417881011963,-1.22053861618042
1696082150363273200,0.406273193359375,-1.4146227836608887,-0.8025383949279785,-0.9867100119590759
1696082150373273300,0.4162734375,-1.5607876777648926,-0.8098158836364746,-1.2224650382995605
1696082150383273200,0.426273193359375,-1.4491596221923828,-0.8956027030944824,-1.5761067867279053
1696082150393273300,0.4362734375,-1.4222121238708496,-0.949540376663208,-1.7441775798797607
1696082150403273200,0.446273193359375,-0.8133678436279297,-0.9670765399932861,-1.9338912963867188
1696082150413273300,0.4562734375,-0.4697446823120117,-1.0292909145355225,-1.5430151224136353
1696082150423273200,0.466273193359375,-0.27359962463378906,-1.2907030582427979,-1.3603652715682983
1696082150433273300,0.4762734375,-0.4084739685058594,-1.433152198791504,-1.2676310539245605
1696082150443273200,0.486273193359375,-0.549860954284668,-1.5483205318450928,-1.1321511268615723
1696082150453273300,0.4962734375,-0.6109457015991211,-1.6001195907592773,-1.1609339714050293
1696082150463273200,0.506273193359375,-0.6846704483032227,-1.5069541931152344,-1.2906854152679443
1696082150473273300,0.5162734375,-0.7527999877929688,-1.4010937213897705,-1.3191089630126953
1696082150483273200,0.526273193359375,-0.7345795631408691,-1.1659352779388428,-1.1122231483459473
1696082150493273300,0.5362734375,-0.6008615493774414,-0.7751729488372803,-0.5806360244750977
1696082150503273200,0.546273193359375,-0.31646251678466797,-0.2289590835571289,-0.08908987045288086
1696082150513273300,0.5562734375,0.21146106719970703,0.34703946113586426,-0.18120479583740234
1696082150523273200,0.566273193359375,0.6012659072875977,0.6731157302856445,-0.7384905815124512
1696082150533273300,0.5762734375,0.7424883842468262,0.736020565032959,-1.3307595252990723
1696082150543273200,0.586273193359375,0.7863607406616211,0.7545247077941895,-1.7473883628845215
1696082150553273300,0.5962734375,0.816624641418457,0.8190326690673828,-1.9695258140563965
1696082150563273200,0.606273193359375,0.7039861679077148,0.7924656867980957,-1.9023427963256836
1696082150573273300,0.6162734375,-1.6471037864685059,1.3353424072265625,-1.8621258735656738
1696082150583273200,0.626273193359375,0.7975683212280273,0.5185894966125488,-0.294527530670166
1696082150593273300,0.6362734375,-0.7725944519042969,-0.22470855712890625,-0.05618143081665039
1696082150603273200,0.646273193359375,1.2859201431274414,-0.8982036113739014,-1.051032543182373
1696082150613273300,0.6562734375,1.06550931930542,-1.0614752769470215,-0.7988309860229492
1696082150623273200,0.666273193359375,1.0219898223876953,-0.7661640644073486,-0.48601484298706055
1696082150633273300,0.6762734375,1.1702008247375488,-1.020204782485962,-0.4513053894042969
1696082150643273200,0.686273193359375,0.9879484176635742,-1.8308488130569458,0.612785816192627
1696082150653273300,0.6962734375,0.6383867263793945,-2.3036012649536133,0.059630393981933594
1696082150663273200,0.706273193359375,-0.024225473403930664,-2.4229483604431152,0.1677541732788086
1696082150673273300,0.7162734375,-1.4822545051574707,-2.976724147796631,-1.5904359817504883
1696082150683273500,0.7262734375,-2.446341037750244,-3.1115190982818604,-3.084256172180176
1696082150693273300,0.7362734375,-3.8472039699554443,-4.326655387878418,-2.7318124771118164
1696082150703273500,0.7462734375,-5.238411903381348,-5.0855817794799805,-2.4722819328308105
1696082150713273300,0.7562734375,-5.779932975769043,-4.986576080322266,-3.184974193572998
1696082150723273500,0.7662734375,-5.3343400955200195,-4.731483459472656,-4.099087238311768
1696082150733273300,0.7762734375,-4.65664005279541,-4.875444412231445,-4.749572277069092
1696082150743273500,0.7862734375,-3.8712220191955566,-5.385734558105469,-5.066707134246826
1696082150753273300,0.7962734375,-2.227855682373047,-5.635927200317383,-4.96314001083374
1696082150763273500,0.8062734375,-0.16542553901672363,-5.415292263031006,-4.234835624694824
1696082150773273300,0.8162734375,2.110319137573242,-5.8598737716674805,-3.505423069000244
1696082150783273000,0.82627294921875,3.555171251296997,-6.316500186920166,-2.63283109664917
1696082150793273000,0.836273193359375,3.8128411769866943,-6.112733364105225,-1.2328028678894043
1696082150803273000,0.84627294921875,3.1071207523345947,-5.205008029937744,-0.34412288665771484
1696082150813273000,0.856273193359375,1.5098342895507812,-4.397025108337402,1.365035057067871
1696082150823273000,0.86627294921875,0.6201469898223877,-3.4720747470855713,3.5092039108276367
1696082150833273000,0.876273193359375,0.07565593719482422,-2.7254738807678223,5.303310394287109
1696082150843273000,0.88627294921875,-0.27479052543640137,-2.218991279602051,6.3795576095581055
1696082150853273000,0.896273193359375,-0.711869478225708,-2.0389060974121094,7.374381065368652
1696082150863273000,0.90627294921875,-1.2856121063232422,-2.234480381011963,8.660825729370117
1696082150873273000,0.916273193359375,-1.534160852432251,-1.9994382858276367,11.077390670776367
1696082150883273000,0.92627294921875,-1.2047913074493408,-1.5481681823730469,14.40719223022461
1696082150893273000,0.936273193359375,-0.2962648868560791,-0.9494805335998535,17.962099075317383
1696082150903273000,0.94627294921875,1.0674424171447754,0.08172607421875,21.36799430847168
1696082150913273000,0.956273193359375,1.803889513015747,0.3614997863769531,23.1949462890625
1696082150923273000,0.96627294921875,1.4934004545211792,0.3428773880004883,21.775867462158203
1696082150933273000,0.976273193359375,0.3031921088695526,0.5118296146392822,18.246734619140625
1696082150943273000,0.98627294921875,-0.5555190443992615,0.9157652854919434,14.853760719299316
1696082150953273000,0.996273193359375,-0.6220639944076538,1.40509033203125,12.276665687561035
1696082150963272700,1.006272705078125,-0.14777064323425293,2.9999313354492188,11.993894577026367
1696082150973272600,1.0162724609375,0.9442866444587708,2.4901204109191895,10.914944648742676
1696082150983272700,1.026272705078125,1.8063991069793701,0.9296209812164307,8.853657722473145
1696082150993272600,1.0362724609375,1.500290036201477,1.238337516784668,8.200984954833984
1696082151003272700,1.046272705078125,0.9731816053390503,1.6177458763122559,7.760107040405273
1696082151013272600,1.0562724609375,0.323541522026062,1.374788761138916,6.305659294128418
1696082151023272700,1.066272705078125,-0.29844045639038086,1.3942866325378418,4.340246200561523
1696082151033272600,1.0762724609375,-0.37575244903564453,1.5055370330810547,2.3409595489501953
1696082151043272700,1.086272705078125,-0.4006540775299072,1.601266622543335,0.5511245727539062
1696082151053272600,1.0962724609375,0.0672757625579834,1.5711016654968262,-1.2616167068481445
1696082151063272400,1.1062724609375,0.43453311920166016,1.4198384284973145,-3.3439979553222656
1696082151073272600,1.1162724609375,0.9245259761810303,1.6447049379348755,-5.305730819702148
1696082151083273000,1.12627294921875,1.384782075881958,1.9445033073425293,-6.81951904296875
1696082151093273000,1.136273193359375,1.9467897415161133,2.286182403564453,-7.9981689453125
1696082151103273000,1.14627294921875,2.5148792266845703,2.3787784576416016,-8.976428031921387
1696082151113272800,1.15627294921875,3.222011089324951,2.556887149810791,-9.848087310791016
1696082151123272400,1.1662724609375,3.859945774078369,2.675910472869873,-10.59653091430664
1696082151133272300,1.176272216796875,4.327427387237549,2.6648387908935547,-11.233072280883789
1696082151143272400,1.1862724609375,4.709120273590088,2.470938205718994,-11.622099876403809
1696082151153272300,1.196272216796875,4.960293769836426,2.1773762702941895,-11.772298812866211
1696082151163272400,1.2062724609375,5.0009026527404785,1.8549039363861084,-12.021350860595703
1696082151173271600,1.216271484375,4.654366493225098,1.6669414043426514,-12.30948543548584
1696082151183271400,1.226271484375,4.169425010681152,1.8366400003433228,-12.276039123535156
1696082151193271600,1.236271484375,3.655930519104004,1.942889928817749,-11.75621223449707
1696082151203271400,1.246271484375,3.1774959564208984,1.7746014595031738,-10.880873680114746
1696082151213271600,1.256271484375,2.8326849937438965,1.3776912689208984,-10.079414367675781
1696082151223272200,1.266272216796875,2.5803186893463135,1.1271352767944336,-9.188612937927246
1696082151233272300,1.276272216796875,2.384206771850586,0.9985949397087097,-8.232364654541016
1696082151243272200,1.286272216796875,1.6869683265686035,0.33514702320098877,-8.297192573547363
1696082151253272300,1.296272216796875,1.249678611755371,0.8210451602935791,-7.304758548736572
1696082151263272400,1.3062724609375,0.9074227809906006,1.7451746463775635,-5.372982978820801
1696082151273272600,1.3162724609375,0.6608405113220215,1.942991018295288,-3.7178306579589844
1696082151283272400,1.3262724609375,0.16353106498718262,1.43416428565979,-1.496047019958496
1696082151293272600,1.3362724609375,-0.5180089473724365,0.4675328731536865,0.9773960113525391
1696082151303272400,1.3462724609375,-0.9424772262573242,-0.6622681617736816,2.975008964538574
1696082151313272600,1.3562724609375,-1.3746726512908936,-1.583512783050537,4.365211486816406
1696082151323272400,1.3662724609375,-2.075753688812256,-1.6983733177185059,5.432154655456543
1696082151333272600,1.3762724609375,-2.788672924041748,-0.7114081382751465,6.605657577514648
1696082151343272400,1.3862724609375,-3.1861796379089355,0.7111084461212158,7.253767013549805
1696082151353272600,1.3962724609375,-3.2717156410217285,1.8720383644104004,6.762850761413574
1696082151363272400,1.4062724609375,-2.7094321250915527,2.1845693588256836,5.623735427856445
1696082151373273000,1.416273193359375,-1.6926956176757812,2.1214494705200195,4.900120735168457
1696082151383273200,1.426273193359375,-0.6040606498718262,1.9043340682983398,4.8440961837768555
1696082151393273000,1.436273193359375,0.2364661693572998,1.6186203956604004,4.746352195739746
1696082151403273200,1.446273193359375,0.1692335605621338,1.3935558795928955,5.12725830078125
1696082151413273300,1.4562734375,-0.41051197052001953,1.306147575378418,5.783391952514648
1696082151423273700,1.466273681640625,-1.5451881885528564,0.8774416446685791,6.929193496704102
1696082151435740000,1.478739990234375,-3.32326078414917,0.27542543411254883,7.225907325744629
1696082151445740000,1.488739990234375,-3.433042287826538,-0.7840795516967773,5.570585250854492
1696082151455740000,1.498739990234375,0.15232419967651367,-2.041293144226074,5.993952751159668
1696082151465740000,1.508739990234375,1.4423534870147705,-0.6558642387390137,2.9808855056762695
1696082151475741000,1.518740966796875,-3.474335193634033,0.39615559577941895,3.1302576065063477
1696082151485740800,1.52874072265625,4.117152690887451,-1.632556676864624,4.723700523376465
1696082151495741000,1.538740966796875,7.761617183685303,-0.794668436050415,5.044610977172852
1696082151505740800,1.54874072265625,6.311185836791992,0.6888349056243896,3.825955390930176
1696082151515741000,1.558740966796875,4.527584075927734,1.2091971635818481,1.9898509979248047
1696082151525740000,1.568739990234375,4.025981903076172,1.699007272720337,0.9770784378051758
1696082151535740000,1.578739990234375,4.759191989898682,2.59619402885437,0.02876567840576172
1696082151545740000,1.588739990234375,4.776350975036621,1.5575789213180542,-0.37897682189941406
1696082151555740000,1.598739990234375,4.200555801391602,4.928060531616211,-0.8665866851806641
1696082151565740000,1.608739990234375,-0.06180071830749512,1.7556824684143066,-2.3762006759643555
1696082151575740000,1.618739990234375,-0.6025557518005371,1.0717685222625732,-0.6382865905761719
1696082151585740000,1.628739990234375,0.12976884841918945,1.7525603771209717,1.026479721069336
1696082151595740000,1.638739990234375,0.9788376092910767,1.259397029876709,1.5275917053222656
1696082151605740000,1.648739990234375,0.8068115711212158,1.442108154296875,0.825129508972168
1696082151615740000,1.658739990234375,0.607738733291626,2.024176597595215,0.5457382202148438
1696082151625739500,1.668739501953125,-0.7219836711883545,1.7053312063217163,-0.0022220611572265625
1696082151635739600,1.67873974609375,-2.241645336151123,0.6239206790924072,-0.758662223815918
1696082151645739500,1.688739501953125,-3.9200544357299805,-0.23196697235107422,-0.1839609146118164
1696082151655739600,1.69873974609375,-5.366060733795166,-0.9318791627883911,-2.1581387519836426
1696082151665739500,1.708739501953125,-4.931656837463379,-2.006758213043213,-4.049168586730957
1696082151675739000,1.71873876953125,-3.618466377258301,-2.5615193843841553,-6.534103870391846
1696082151685738800,1.72873876953125,-3.598768711090088,-1.4047014713287354,-10.629220008850098
1696082151695739000,1.73873876953125,-2.4596095085144043,-1.2043731212615967,-12.207093238830566
1696082151705738800,1.74873876953125,-1.7794140577316284,-2.0740623474121094,-11.210000991821289
1696082151715739000,1.75873876953125,-1.9353629350662231,-4.808567047119141,-9.922466278076172
1696082151725738800,1.76873876953125,-3.7505455017089844,-7.263729572296143,-7.875143527984619
1696082151735739000,1.77873876953125,-3.4826149940490723,-8.034050941467285,-7.439823150634766
1696082151745738800,1.78873876953125,-2.267422676086426,-7.741586685180664,-6.499112129211426
1696082151755739000,1.79873876953125,-1.5820262432098389,-6.0496392250061035,-6.187589168548584
1696082151765738800,1.80873876953125,-1.0994876623153687,-6.294997215270996,-5.640719413757324
1696082151775737900,1.81873779296875,0.4039851427078247,-6.147059917449951,-2.365807056427002
1696082151785738000,1.828738037109375,2.3782012462615967,-4.248279571533203,-0.4005317687988281
1696082151795737900,1.83873779296875,4.1301093101501465,-2.088357925415039,-1.8054771423339844
1696082151805738000,1.848738037109375,8.112421989440918,-3.565833568572998,3.644021987915039
1696082151815737900,1.85873779296875,11.136218070983887,-6.365490436553955,10.380247116088867
1696082151825737700,1.86873779296875,9.103490829467773,-7.674395561218262,13.086597442626953
1696082151835737600,1.878737548828125,10.23731803894043,-10.631348609924316,16.01466178894043
1696082151845737700,1.88873779296875,3.9820327758789062,-7.47011137008667,12.813007354736328
1696082151855737600,1.898737548828125,0.8456554412841797,-4.19223690032959,9.061229705810547
1696082151865737700,1.90873779296875,0.5319470763206482,-2.7944488525390625,5.575254917144775
1696082151875737000,1.918737060546875,-0.46383339166641235,-1.1596879959106445,1.8395543098449707
1696082151885737200,1.9287373046875,-0.6870315074920654,-0.7049646377563477,-0.08285951614379883
1696082151895737000,1.938737060546875,-1.470794677734375,1.0653157234191895,-1.9363179206848145
1696082151905737200,1.9487373046875,-3.9418678283691406,1.5202312469482422,-0.8088884353637695
1696082151915737000,1.958737060546875,-4.503033638000488,2.8291268348693848,-1.379284381866455
1696082151925738000,1.968738037109375,-3.9497745037078857,2.791593074798584,-1.322826862335205
1696082151935738000,1.978738037109375,-2.653491258621216,3.44584321975708,-1.7997596263885498
1696082151945738000,1.988738037109375,-1.4052430391311646,4.020991325378418,-1.9312067031860352
1696082151955738000,1.998738037109375,0.1865071952342987,4.4748759269714355,-0.9688901901245117
1696082151965738000,2.008738037109375,0.7531243562698364,4.684795379638672,-1.4292900562286377
1696082151975738400,2.01873828125,0.9536970853805542,4.672122478485107,-1.9138364791870117
1696082151985738200,2.02873828125,0.5494984984397888,5.017207145690918,-2.532639265060425
1696082151995738400,2.03873828125,0.05146980285644531,5.7381134033203125,-2.8883306980133057
1696082152005738200,2.04873828125,0.13045859336853027,6.12115478515625,-2.5521020889282227
1696082152015738400,2.05873828125,0.906733512878418,6.096152305603027,-1.908422827720642
1696082152025738200,2.06873828125,0.8412454724311829,5.539820671081543,-1.283970832824707
1696082152035738400,2.07873828125,0.8876665830612183,5.436979293823242,-1.2770318984985352
1696082152045738200,2.08873828125,1.3852522373199463,5.396501541137695,-1.3893970251083374
1696082152055738400,2.09873828125,0.9007326364517212,5.563304901123047,-1.4082833528518677
1696082152065738200,2.10873828125,-0.0429384708404541,5.740628242492676,-1.6865403652191162
1696082152075739100,2.1187392578125,-1.5353100299835205,6.142206192016602,-2.1548802852630615
1696082152085739300,2.1287392578125,-2.200094223022461,6.176959037780762,-2.3024606704711914
1696082152095739100,2.1387392578125,-2.5230183601379395,1.3867931365966797,-1.5152493715286255
1696082152105739300,2.1487392578125,-1.2762073278427124,-7.6141557693481445,-2.6019439697265625
1696082152115739100,2.1587392578125,2.181361675262451,-14.679118156433105,-4.506039142608643
1696082152125739500,2.168739501953125,0.3279486894607544,-20.185855865478516,-4.435748100280762
1696082152135739600,2.17873974609375,-1.813178539276123,-24.912002563476562,-2.8062872886657715
1696082152145739500,2.188739501953125,-5.790058135986328,-25.251667022705078,1.0079267024993896
1696082152155739600,2.19873974609375,-3.0106019973754883,-18.068815231323242,4.331634521484375
1696082152165739500,2.208739501953125,0.41633450984954834,-8.581308364868164,2.964728355407715
1696082152175740200,2.218740234375,2.444760322570801,-2.7981252670288086,0.9099082946777344
1696082152185740000,2.228739990234375,3.8183846473693848,0.9376764297485352,-0.45431527495384216
1696082152195740200,2.238740234375,4.49894380569458,3.4816160202026367,-1.077799916267395
1696082152205740000,2.248739990234375,4.801583766937256,4.924143314361572,-1.02212655544281
1696082152215740200,2.258740234375,4.9491987228393555,5.463903903961182,-0.7042471766471863
1696082152225739500,2.268739501953125,4.483837127685547,5.115177154541016,-0.6924266815185547
1696082152235739600,2.27873974609375,3.6312544345855713,4.099408149719238,-0.6209014058113098
1696082152245739500,2.288739501953125,2.313208818435669,2.8073792457580566,-0.36478227376937866
1696082152255739600,2.29873974609375,0.9987872838973999,1.4620389938354492,-0.13387775421142578
1696082152265739500,2.308739501953125,0.3369680643081665,0.3476734161376953,-0.09034484624862671
1696082152275739600,2.31873974609375,-0.15459251403808594,-0.3708820343017578,-0.3042784333229065
1696082152285739500,2.328739501953125,-0.6969962120056152,-0.5896272659301758,-0.28172844648361206
1696082152295739600,2.33873974609375,-1.179409384727478,-0.6640195846557617,-0.34926265478134155
1696082152305739500,2.348739501953125,-1.3248059749603271,-0.6193933486938477,-0.46921592950820923
1696082152315739600,2.35873974609375,-1.2109606266021729,-0.6111631393432617,-0.432268887758255
1696082152325739500,2.368739501953125,-0.9499036073684692,-0.6644220352172852,-0.13169896602630615
1696082152335739600,2.37873974609375,-0.6975786685943604,-0.5813884735107422,0.2417541742324829
1696082152345739500,2.388739501953125,-0.29497718811035156,-0.377227783203125,0.6673206090927124
1696082152355739600,2.39873974609375,0.11174142360687256,-0.09897136688232422,0.9114894866943359
1696082152365739500,2.408739501953125,0.47878968715667725,0.12682151794433594,1.029618263244629
1696082152375739600,2.41873974609375,0.8028324842453003,0.1346273422241211,1.1350951194763184
1696082152385739500,2.428739501953125,1.10361647605896,0.0054836273193359375,1.2400569915771484
1696082152395739600,2.43873974609375,1.1829559803009033,-0.09536266326904297,1.2608871459960938
1696082152405739500,2.448739501953125,1.1084784269332886,0.0144500732421875,1.1095538139343262
1696082152415739600,2.45873974609375,0.9618200659751892,0.17243671417236328,0.8881029486656189
1696082152425739500,2.468739501953125,0.7987594604492188,0.29041004180908203,0.7547995448112488
1696082152435739600,2.47873974609375,0.6380401849746704,0.34210777282714844,0.5423415899276733
1696082152445739500,2.488739501953125,0.5501539707183838,0.2698831558227539,0.1982213258743286
1696082152455739600,2.49873974609375,0.5745506286621094,0.16930770874023438,-0.20251697301864624
1696082152465739500,2.508739501953125,0.6097673177719116,0.1359567642211914,-0.6080675721168518
1696082152475739600,2.51873974609375,0.6477490663528442,0.06442546844482422,-0.8886495232582092
1696082152485739500,2.528739501953125,0.7160875797271729,-0.07886600494384766,-0.988923966884613
1696082152495739600,2.53873974609375,0.7936557531356812,-0.15503311157226562,-0.9768839478492737
1696082152505739500,2.548739501953125,0.8166475296020508,-0.04646873474121094,-0.8382812738418579
1696082152515739600,2.55873974609375,0.7734675407409668,0.09873485565185547,-0.4944286644458771
1696082152525739500,2.568739501953125,0.7199066877365112,0.22807693481445312,-0.15299949049949646
1696082152535739400,2.578739501953125,0.6656756401062012,0.2575035095214844,0.262093186378479
1696082152545739500,2.588739501953125,0.5157066583633423,0.10533714294433594,0.6435776352882385
1696082152555739400,2.598739501953125,0.37216854095458984,-0.15212535858154297,0.9475318789482117
1696082152565739500,2.608739501953125,0.2883843183517456,-0.26418018341064453,1.1321415901184082
1696082152575739400,2.618739501953125,0.19015491008758545,-0.18572616577148438,1.2090253829956055
1696082152585739500,2.628739501953125,0.12126278877258301,-0.06294536590576172,1.1950352191925049
1696082152595739400,2.638739501953125,0.09834766387939453,0.1353282928466797,1.1112196445465088
1696082152605739500,2.648739501953125,0.07632339000701904,0.2801084518432617,0.9929542541503906
1696082152615739400,2.658739501953125,0.03541886806488037,0.3552665710449219,0.8480972051620483
1696082152625739500,2.668739501953125,-0.03511679172515869,0.35866260528564453,0.6821367144584656
1696082152635739400,2.678739501953125,-0.009809136390686035,0.17045211791992188,0.42452630400657654
1696082152645739500,2.688739501953125,0.270963191986084,-0.044472694396972656,0.08464401960372925
1696082152655739400,2.698739501953125,0.47334086894989014,-0.45160484313964844,-0.10171118378639221
1696082152665739500,2.708739501953125,0.9538283944129944,-0.5457344055175781,-0.4070090353488922
1696082152675739400,2.718739501953125,1.4494192600250244,-0.4945096969604492,-0.784941554069519
1696082152685739500,2.728739501953125,1.851738452911377,-0.3244638442993164,-0.8872034549713135
1696082152695739400,2.738739501953125,2.4670286178588867,-0.11004924774169922,-0.5608014464378357
1696082152705739500,2.748739501953125,2.9127347469329834,0.005467414855957031,-0.09080284833908081
1696082152715739600,2.75873974609375,2.951831340789795,-0.02687549591064453,0.5805731415748596
1696082152725739500,2.768739501953125,2.4448084831237793,-0.058516502380371094,1.2326780557632446
1696082152735739600,2.77873974609375,1.6726106405258179,-0.09499073028564453,1.7254838943481445
1696082152745739500,2.788739501953125,0.8565154075622559,-0.2281017303466797,1.8768147230148315
1696082152755739600,2.79873974609375,0.18276751041412354,-0.3640604019165039,1.9388983249664307
1696082152765739500,2.808739501953125,-0.3300982713699341,-0.3639049530029297,1.9542323350906372
1696082152775739400,2.818739501953125,-0.6508833169937134,-0.28653717041015625,1.9510068893432617
1696082152785739500,2.828739501953125,-0.7081280946731567,-0.24050045013427734,1.7796577215194702
1696082152795739400,2.838739501953125,-0.41338860988616943,-0.25420475006103516,1.5527222156524658
1696082152805739500,2.848739501953125,0.07442855834960938,-0.16780757904052734,1.2024333477020264
1696082152815739400,2.858739501953125,0.6357012987136841,-0.0978097915649414,0.7100005745887756
1696082152825739500,2.868739501953125,1.100940227508545,-0.048122406005859375,0.24651718139648438
1696082152835739400,2.878739501953125,1.5826647281646729,-0.14746952056884766,-0.10415157675743103
1696082152845739500,2.888739501953125,1.943044900894165,-0.3283872604370117,-0.3356073200702667
1696082152855739400,2.898739501953125,2.191988706588745,-0.5137338638305664,-0.5105795860290527
1696082152865739500,2.908739501953125,2.268526077270508,-0.6409587860107422,-0.7197651863098145
1696082152875739400,2.918739501953125,2.2127530574798584,-0.6931629180908203,-0.8347357511520386
1696082152885739500,2.928739501953125,2.084580421447754,-0.6225137710571289,-0.889580488204956
1696082152895739400,2.938739501953125,1.9424773454666138,-0.4483642578125,-0.8698451519012451
1696082152905739500,2.948739501953125,1.8734760284423828,-0.2427377700805664,-0.744067907333374
1696082152915739400,2.958739501953125,1.9532710313796997,-0.1042470932006836,-0.4764205515384674
1696082152925739500,2.968739501953125,2.1878726482391357,-0.0763092041015625,-0.1608988642692566
1696082152935739100,2.9787392578125,2.518239974975586,-0.22632694244384766,0.1291452795267105
1696082152945739300,2.9887392578125,2.9306697845458984,-0.43956947326660156,0.4139600098133087
1696082152955739100,2.9987392578125,3.324979305267334,-0.6659088134765625,0.7750378847122192
1696082152965739300,3.0087392578125,3.746272087097168,-0.7281990051269531,1.2114002704620361
1696082152975739400,3.018739501953125,4.106451511383057,-0.748046875,1.764800786972046
1696082152985739300,3.0287392578125,4.346687316894531,-0.8035879135131836,2.440272569656372
1696082152995739400,3.038739501953125,4.354766845703125,-0.8983755111694336,3.070551872253418
1696082153005739300,3.0487392578125,4.0684309005737305,-0.9899606704711914,3.569031238555908
1696082153015739400,3.058739501953125,3.6144421100616455,-1.099405288696289,3.9012653827667236
1696082153025739300,3.0687392578125,3.1756162643432617,-1.2021484375,3.993574619293213
1696082153035739400,3.078739501953125,2.980525493621826,-1.1527032852172852,4.01267147064209
1696082153045739300,3.0887392578125,3.1976561546325684,-1.1442222595214844,3.904750347137451
1696082153055739400,3.098739501953125,3.7245097160339355,-1.4000263214111328,3.682568073272705
1696082153065739300,3.1087392578125,4.334909439086914,-1.9842872619628906,3.556614637374878
1696082153075739400,3.118739501953125,4.860076904296875,-2.442685127258301,3.6087141036987305
1696082153085739300,3.1287392578125,5.19783353805542,-2.452570915222168,3.826927661895752
1696082153095739400,3.138739501953125,5.270856857299805,-2.0676116943359375,4.012589931488037
1696082153105739300,3.1487392578125,5.337937355041504,-1.6051950454711914,4.108499526977539
1696082153115739400,3.158739501953125,5.702009201049805,-1.0989131927490234,3.893280029296875
1696082153125739300,3.1687392578125,6.221457481384277,-0.360504150390625,3.1408936977386475
1696082153135739400,3.178739501953125,6.724311351776123,0.2568349838256836,1.8603370189666748
1696082153145739300,3.1887392578125,6.75748348236084,0.115509033203125,0.5500637292861938
1696082153155739400,3.198739501953125,6.431117057800293,-1.1312923431396484,-0.32863882184028625
1696082153165739300,3.2087392578125,5.344315528869629,-2.8080129623413086,-0.7809323668479919
1696082153175739400,3.218739501953125,2.970468044281006,-4.223176956176758,-0.8166062831878662
1696082153185739300,3.2287392578125,0.2466731071472168,-4.987834930419922,-0.9287281632423401
1696082153195739400,3.238739501953125,-1.9590660333633423,-5.092974662780762,-1.2001726627349854
1696082153205739300,3.2487392578125,-3.3821518421173096,-4.849627494812012,-1.5220509767532349
1696082153215739400,3.258739501953125,-4.382115840911865,-4.309478759765625,-1.525585412979126
1696082153225739300,3.2687392578125,-4.913361072540283,-3.807767868041992,-1.2893447875976562
1696082153235739600,3.27873974609375,-4.685773849487305,-3.5641422271728516,-0.7818591594696045
1696082153245739500,3.288739501953125,-4.046188831329346,-3.4253740310668945,-0.2611618638038635
1696082153255739600,3.29873974609375,-3.529153823852539,-3.258540153503418,0.0876317024230957
1696082153265739500,3.308739501953125,-2.9842615127563477,-2.9387426376342773,0.3704318404197693
1696082153275739600,3.31873974609375,-2.293710231781006,-2.6426963806152344,0.7769166827201843
1696082153285739500,3.328739501953125,-2.285460948944092,-2.3796443939208984,1.2573881149291992
1696082153295739600,3.33873974609375,-1.6614441871643066,-2.104104995727539,1.5450751781463623
1696082153305739500,3.348739501953125,-0.602708637714386,-1.7873926162719727,1.4158154726028442
1696082153315739600,3.35873974609375,-0.2956094741821289,-1.3920154571533203,1.0856900215148926
1696082153325739500,3.368739501953125,-1.0289690494537354,-1.0651435852050781,0.23357689380645752
1696082153335739600,3.37873974609375,-1.1494100093841553,-0.7280101776123047,-0.8395135998725891
1696082153345739500,3.388739501953125,-0.9881023168563843,-0.3484649658203125,-1.6100873947143555
1696082153355739600,3.39873974609375,-1.5928915739059448,0.059815406799316406,-2.080095052719116
1696082153365739500,3.408739501953125,-1.9308395385742188,0.6741085052490234,-2.7179458141326904
1696082153375739600,3.41873974609375,-1.8006782531738281,1.2246522903442383,-3.3889975547790527
1696082153385739500,3.428739501953125,-2.4739279747009277,1.6901564598083496,-3.633237838745117
1696082153395739600,3.43873974609375,-2.895646095275879,2.2213854789733887,-3.9707446098327637
1696082153405739500,3.448739501953125,-2.9086503982543945,2.751542568206787,-4.354940414428711
1696082153415739600,3.45873974609375,-3.051544666290283,3.1351499557495117,-4.758462429046631
1696082153425739500,3.468739501953125,-3.1682677268981934,3.3204236030578613,-4.777019500732422
1696082153435739600,3.47873974609375,-3.2286438941955566,3.407125949859619,-4.780315399169922
1696082153445739500,3.488739501953125,-3.3871116638183594,3.417116641998291,-4.7449469566345215
1696082153455739400,3.498739501953125,-3.4566128253936768,3.3180179595947266,-4.689017295837402
1696082153465739500,3.508739501953125,-3.565572738647461,3.2837181091308594,-4.642932891845703
1696082153475739600,3.51873974609375,-3.6671805381774902,3.340723991394043,-4.798513412475586
1696082153485739500,3.528739501953125,-3.763240337371826,3.5200114250183105,-4.902371406555176
1696082153495739600,3.53873974609375,-3.7780251502990723,3.702554702758789,-4.917104721069336
1696082153505739500,3.548739501953125,-3.6394190788269043,3.9080729484558105,-4.8686723709106445
1696082153515739400,3.558739501953125,-3.2561123371124268,3.9795260429382324,-4.623486518859863
1696082153525739500,3.568739501953125,-2.654505491256714,3.922276496887207,-4.110486030578613
1696082153535739400,3.578739501953125,-1.8120536804199219,3.695526599884033,-3.323659658432007
1696082153545739500,3.588739501953125,-0.8802711963653564,3.4490060806274414,-2.324918270111084
1696082153555739400,3.598739501953125,-0.07457709312438965,3.0256171226501465,-1.0610506534576416
1696082153565739500,3.608739501953125,0.7494094371795654,2.419358253479004,0.5311365127563477
1696082153575739400,3.618739501953125,1.760460376739502,1.5935044288635254,2.0461843013763428
1696082153585739500,3.628739501953125,2.520935297012329,0.6717081069946289,3.6139492988586426
1696082153595739400,3.638739501953125,2.845191240310669,-0.31316280364990234,4.761838436126709
1696082153605739500,3.648739501953125,3.245054006576538,-1.217421531677246,5.681319236755371
1696082153615739400,3.658739501953125,4.169954776763916,-1.7370033264160156,6.325737953186035
1696082153625739500,3.668739501953125,5.415719985961914,-1.8116083145141602,6.475297927856445
1696082153635739400,3.678739501953125,6.299472808837891,-1.9353771209716797,6.643466949462891
1696082153645739500,3.688739501953125,6.311208248138428,-2.2258787155151367,6.392224311828613
1696082153655739400,3.698739501953125,5.798252582550049,-2.8573856353759766,5.5582427978515625
1696082153665739500,3.708739501953125,4.85022497177124,-3.3927602767944336,4.140613555908203
1696082153675739400,3.718739501953125,3.7470195293426514,-2.9017181396484375,2.101574420928955
1696082153685739500,3.728739501953125,2.7567427158355713,-1.321218490600586,0.12043869495391846
1696082153695739400,3.738739501953125,2.0749258995056152,0.8081960678100586,-1.1311454772949219
1696082153705739500,3.748739501953125,1.232548475265503,2.5636019706726074,-2.428279399871826
1696082153715739600,3.75873974609375,1.4050281047821045,2.2451343536376953,-3.4749979972839355
1696082153725739500,3.768739501953125,1.456557273864746,-0.02414703369140625,-4.337697982788086
1696082153735739600,3.77873974609375,1.3742268085479736,-2.5213356018066406,-5.407792091369629
1696082153745739500,3.788739501953125,1.3345422744750977,-4.831406593322754,-5.705767631530762
1696082153755739600,3.79873974609375,2.050541877746582,-6.780984878540039,-4.132150173187256
1696082153765739500,3.808739501953125,1.2703843116760254,-7.79171085357666,-1.1603314876556396
1696082153775739400,3.818739501953125,0.3832681179046631,-6.13693904876709,0.7888734340667725
1696082153785739500,3.828739501953125,-1.1376984119415283,-2.3858957290649414,0.35441088676452637
1696082153795739400,3.838739501953125,-3.3946282863616943,0.71600341796875,-1.27843177318573
1696082153805739500,3.848739501953125,-5.405540466308594,2.9203639030456543,-2.483065366744995
1696082153815739400,3.858739501953125,-7.031425952911377,4.2225871086120605,-3.455324649810791
1696082153825739500,3.868739501953125,-8.486167907714844,4.380181312561035,-4.335409164428711
1696082153835739400,3.878739501953125,-9.125747680664062,3.6608777046203613,-5.185182094573975
1696082153845739500,3.888739501953125,-8.963939666748047,2.645343780517578,-5.569450855255127
1696082153855739400,3.898739501953125,-8.584437370300293,1.1775455474853516,-5.534242630004883
1696082153865739500,3.908739501953125,-8.134903907775879,-0.27306652069091797,-5.342706680297852
1696082153875739400,3.918739501953125,-7.619922637939453,-1.540339469909668,-4.868246078491211
1696082153885739500,3.928739501953125,-7.082631587982178,-2.3845691680908203,-4.285064697265625
1696082153895739400,3.938739501953125,-6.369572639465332,-2.844623565673828,-3.6821072101593018
1696082153905739500,3.948739501953125,-5.150266170501709,-2.747775077819824,-3.027120590209961
1696082153915739400,3.958739501953125,-3.9745988845825195,-2.2511825561523438,-2.1924514770507812
1696082153925739500,3.968739501953125,-2.359300136566162,-1.5165700912475586,-1.3203771114349365
1696082153935739400,3.978739501953125,-0.29026728868484497,-0.9589872360229492,-0.4163604974746704
1696082153945739500,3.988739501953125,1.894011378288269,-0.6271562576293945,0.8841822147369385
1696082153955739600,3.99873974609375,3.7208566665649414,-0.3719320297241211,2.0167150497436523
1696082153965739500,4.008739501953125,4.435715675354004,0.0150146484375,2.6784844398498535
1696082153975739100,4.0187392578125,3.7309036254882812,0.5927028656005859,2.7984275817871094
1696082153985739300,4.0287392578125,2.2656869888305664,1.2569637298583984,2.538548707962036
1696082153995739100,4.0387392578125,0.5138916373252869,1.7393932342529297,2.1787521839141846
1696082154005739300,4.0487392578125,-0.8432022929191589,2.0010781288146973,1.7239294052124023
1696082154015739100,4.0587392578125,-1.626173496246338,1.9713339805603027,1.441158652305603
1696082154025739300,4.0687392578125,-1.9402724504470825,1.679438591003418,1.0129637718200684
1696082154035739100,4.0787392578125,-2.1649038791656494,1.2381486892700195,0.5763804912567139
1696082154045739300,4.0887392578125,-2.1961872577667236,0.7744827270507812,0.4232010245323181
1696082154055739100,4.0987392578125,-1.9915884733200073,0.24773120880126953,0.38188570737838745
1696082154065739300,4.1087392578125,-1.8596603870391846,0.014614105224609375,0.21578285098075867
1696082154075739100,4.1187392578125,-1.3459168672561646,0.10129737854003906,0.319558709859848
1696082154085739300,4.1287392578125,-0.3510415852069855,0.14127254486083984,0.6252887845039368
1696082154095739100,4.1387392578125,0.9409551620483398,0.023993492126464844,0.7044390439987183
1696082154105739300,4.1487392578125,2.5557262897491455,-0.24840068817138672,0.9091326594352722
1696082154115739100,4.1587392578125,3.9095349311828613,-0.5876836776733398,1.2199091911315918
1696082154125739300,4.1687392578125,4.311558246612549,-0.8160972595214844,1.5149439573287964
1696082154135739100,4.1787392578125,3.8841497898101807,-0.6190347671508789,1.6457157135009766
1696082154145739300,4.1887392578125,3.0078556537628174,-0.0841989517211914,1.666521430015564
1696082154155739100,4.1987392578125,1.7380709648132324,0.5581388473510742,1.572263479232788
1696082154165739300,4.2087392578125,0.3830375075340271,0.9186944961547852,1.3038743734359741
1696082154175739000,4.21873876953125,-0.7048982381820679,0.8615150451660156,0.8600279688835144
1696082154185738800,4.22873876953125,-1.105074167251587,0.46189212799072266,0.2637425661087036
1696082154195739000,4.23873876953125,-0.4186077117919922,-0.2989015579223633,-0.22417773306369781
1696082154205738800,4.24873876953125,1.0044397115707397,-1.156754493713379,-0.4933866262435913
1696082154215739000,4.25873876953125,2.891725540161133,-1.8130769729614258,-0.3836604058742523
1696082154225738800,4.26873876953125,4.852513790130615,-2.078622817993164,0.032792121171951294
1696082154235739000,4.27873876953125,6.4770588874816895,-1.954737663269043,0.9119445085525513
1696082154245738800,4.28873876953125,7.000131130218506,-1.6327667236328125,2.06461763381958
1696082154255739000,4.29873876953125,6.099250793457031,-1.2118616104125977,3.052171230316162
1696082154265738800,4.30873876953125,4.455922603607178,-0.9041414260864258,3.641603708267212
1696082154275739100,4.3187392578125,2.7847280502319336,-0.9291362762451172,4.021255970001221
1696082154285739000,4.328739013671875,1.457379698753357,-1.2528181076049805,4.526689052581787
1696082154295739100,4.3387392578125,0.6650263071060181,-1.6795988082885742,5.240211009979248
1696082154305739000,4.348739013671875,0.7517634630203247,-2.0182485580444336,5.985475540161133
1696082154315739100,4.3587392578125,1.4530649185180664,-2.2296972274780273,6.635288715362549
1696082154325739000,4.368739013671875,2.5507047176361084,-2.531583786010742,7.022237777709961
1696082154335739100,4.3787392578125,3.746561288833618,-3.00070858001709,7.014834880828857
1696082154345739000,4.388739013671875,4.666951656341553,-3.300142288208008,6.37825870513916
1696082154355739100,4.3987392578125,5.2911858558654785,-3.4552106857299805,5.419609069824219
1696082154365739000,4.408739013671875,5.531976699829102,-3.5732927322387695,4.596743583679199
1696082154375739100,4.4187392578125,5.373543739318848,-3.715360641479492,4.0164666175842285
1696082154385739000,4.428739013671875,4.871406555175781,-3.8032360076904297,3.462938070297241
1696082154395739100,4.4387392578125,4.108217239379883,-3.448060989379883,2.628793478012085
1696082154405739000,4.448739013671875,3.7475788593292236,-2.825254440307617,1.2063088417053223
1696082154415739100,4.4587392578125,3.7826180458068848,-2.6496572494506836,-0.20765775442123413
1696082154425739000,4.468739013671875,3.0652594566345215,-3.042816162109375,-1.0714952945709229
1696082154435739100,4.4787392578125,1.5461044311523438,-3.5249366760253906,-2.0136325359344482
1696082154445739000,4.488739013671875,0.5021212697029114,-4.644327163696289,-3.2747836112976074
1696082154455739100,4.4987392578125,-1.173043131828308,-5.596990585327148,-4.056219577789307
1696082154465739300,4.5087392578125,-3.5418829917907715,-6.167658805847168,-4.686942100524902
1696082154475739400,4.518739501953125,-5.387292861938477,-5.660651206970215,-5.095219612121582
1696082154485739500,4.528739501953125,-5.811574459075928,-4.363773345947266,-5.173238754272461
1696082154495739400,4.538739501953125,-5.442501544952393,-2.981840133666992,-4.6081976890563965
1696082154505739500,4.548739501953125,-4.807180404663086,-2.009568214416504,-3.2038660049438477
1696082154515739400,4.558739501953125,-2.0462024211883545,-1.2878608703613281,-2.1900315284729004
1696082154525739500,4.568739501953125,-0.562592089176178,-0.9697914123535156,-0.8340612053871155
1696082154535739400,4.578739501953125,0.3289703130722046,-0.78521728515625,-0.04036056995391846
1696082154545739500,4.588739501953125,-0.029808759689331055,-0.46440982818603516,0.1938551664352417
1696082154555739400,4.598739501953125,-0.8940470814704895,-0.057399749755859375,0.4547717571258545
1696082154565739500,4.608739501953125,-1.5660791397094727,0.25126171112060547,0.2264244556427002
1696082154575740000,4.618739990234375,-1.7769099473953247,0.49541664123535156,-0.4552042484283447
1696082154585739800,4.62873974609375,-2.433228015899658,0.8220615386962891,-0.9652016162872314
1696082154595740000,4.638739990234375,-2.9527597427368164,1.2812395095825195,-1.2473015785217285
1696082154605739800,4.64873974609375,-3.156006336212158,1.745224952697754,-1.6045315265655518
1696082154615740000,4.658739990234375,-3.586419105529785,2.1446118354797363,-2.1132912635803223
1696082154625739800,4.66873974609375,-3.7950618267059326,2.414308547973633,-2.6010701656341553
1696082154635740000,4.678739990234375,-3.736379623413086,2.597257137298584,-3.2952961921691895
1696082154645739800,4.68873974609375,-3.597032308578491,2.6704673767089844,-3.947740077972412
1696082154655740000,4.698739990234375,-3.5394153594970703,2.718545436859131,-4.372246742248535
1696082154665739800,4.70873974609375,-3.707549571990967,2.7403125762939453,-4.505759239196777
1696082154675740000,4.718739990234375,-3.882540464401245,2.768620491027832,-4.443236351013184
1696082154685739800,4.72873974609375,-4.108762741088867,2.786174774169922,-4.2365193367004395
1696082154695740000,4.738739990234375,-4.345370769500732,2.7176342010498047,-3.9691665172576904
1696082154705739800,4.74873974609375,-4.756124496459961,2.570920467376709,-3.622103214263916
1696082154715740000,4.758739990234375,-5.031185150146484,2.562180995941162,-3.4728140830993652
1696082154725739800,4.76873974609375,-5.075387001037598,2.7041172981262207,-3.6919426918029785
1696082154735740000,4.778739990234375,-5.14216423034668,2.906219005584717,-4.152843475341797
1696082154745739800,4.78873974609375,-5.131645679473877,3.1570868492126465,-4.559682846069336
1696082154755740000,4.798739990234375,-5.004765033721924,3.4552550315856934,-4.810771465301514
1696082154765739800,4.80873974609375,-4.552485466003418,3.870983600616455,-5.091451168060303
1696082154775740000,4.818739990234375,-3.7761898040771484,4.3449859619140625,-5.344257831573486
1696082154785740000,4.828739990234375,-2.935293197631836,4.747514247894287,-5.370832920074463
1696082154795740000,4.838739990234375,-2.1644608974456787,4.770183563232422,-4.855052947998047
1696082154805740000,4.848739990234375,-1.3678985834121704,4.271510124206543,-3.3234827518463135
1696082154815740000,4.858739990234375,0.05843377113342285,3.314528465270996,-0.8948439359664917
1696082154825740000,4.868739990234375,2.4124605655670166,1.927283763885498,1.9286103248596191
1696082154835740000,4.878739990234375,6.063386917114258,-0.27443599700927734,4.93844747543335
1696082154845740000,4.888739990234375,8.757610321044922,-2.9033851623535156,7.584959030151367
1696082154855740000,4.898739990234375,9.147054672241211,-5.240177154541016,9.642717361450195
1696082154865740000,4.908739990234375,10.335546493530273,-7.520792007446289,10.871969223022461
1696082154875739600,4.91873974609375,11.652242660522461,-9.086212158203125,11.467879295349121
1696082154885739500,4.928739501953125,9.6257963180542,-9.41440200805664,10.7540922164917
1696082154895739600,4.93873974609375,5.8163957595825195,-8.233363151550293,6.720882415771484
1696082154905739500,4.948739501953125,2.8440582752227783,-5.491530418395996,1.9086599349975586
1696082154915739600,4.95873974609375,1.103060245513916,-1.6394424438476562,-0.4377920627593994
1696082154925739500,4.968739501953125,-0.04783153533935547,1.9601893424987793,-2.074205160140991
1696082154935739600,4.97873974609375,-0.22900056838989258,5.216087818145752,-2.8693182468414307
1696082154945739800,4.98873974609375,0.07249808311462402,7.783775329589844,-3.7517175674438477
1696082154955739600,4.99873974609375,0.748450517654419,8.112178802490234,-4.977598190307617
1696082154965739800,5.00873974609375,-1.7061023712158203,4.732402324676514,-5.646298408508301
1696082154975739600,5.01873974609375,-4.779801368713379,-0.19284820556640625,-5.551436901092529
1696082154985739800,5.02873974609375,-5.557433128356934,-4.498321533203125,-5.32322883605957
1696082154995739600,5.03873974609375,-4.6602935791015625,-7.393102645874023,-4.44056510925293
1696082155005739800,5.04873974609375,-1.6063579320907593,-9.453248977661133,-2.1560471057891846
1696082155015739600,5.05873974609375,2.4251856803894043,-10.879894256591797,-0.1416776180267334
1696082155025739800,5.06873974609375,4.323854446411133,-9.250455856323242,0.15784978866577148
1696082155035739600,5.07873974609375,1.9447067975997925,-5.023606300354004,-1.5302573442459106
1696082155045739800,5.08873974609375,-2.3985960483551025,-1.001194953918457,-3.973097801208496
1696082155055739600,5.09873974609375,-5.93074893951416,2.265714645385742,-5.842983245849609
1696082155065739800,5.10873974609375,-8.270374298095703,4.157919883728027,-7.194551467895508
1696082155075739600,5.11873974609375,-9.57995891571045,4.507931232452393,-7.540865421295166
1696082155085739500,5.128739501953125,-9.753151893615723,3.5125365257263184,-6.807749271392822
1696082155095739600,5.13873974609375,-9.24842357635498,1.915146827697754,-6.300239562988281
1696082155105739500,5.148739501953125,-8.59518051147461,0.3365154266357422,-6.532337188720703
1696082155115739600,5.15873974609375,-7.6884307861328125,-0.7859334945678711,-5.805178165435791
1696082155125739500,5.168739501953125,-7.0739641189575195,-1.4904165267944336,-4.419691562652588
1696082155135739600,5.17873974609375,-6.6982645988464355,-1.6935453414916992,-3.039659261703491
1696082155145739500,5.188739501953125,-5.952947616577148,-1.4551868438720703,-2.1756937503814697
1696082155155739600,5.19873974609375,-4.59567928314209,-1.0366477966308594,-1.42662513256073
1696082155165739500,5.208739501953125,-2.600154399871826,-0.7238092422485352,-0.4262239933013916
1696082155175740000,5.218739990234375,0.06505286693572998,-0.5501203536987305,0.7780158519744873
1696082155185740000,5.228739990234375,2.8459348678588867,-0.30777931213378906,2.0176446437835693
1696082155195740000,5.238739990234375,5.013940811157227,0.18119049072265625,2.955367088317871
1696082155205740000,5.248739990234375,5.621379375457764,0.8903837203979492,3.261190414428711
1696082155215740000,5.258739990234375,4.537437915802002,1.4322843551635742,2.8271377086639404
1696082155225740000,5.268739990234375,2.8116750717163086,1.7040739059448242,1.8524012565612793
1696082155235740000,5.278739990234375,1.1855700016021729,1.6729154586791992,0.8845583200454712
1696082155245740000,5.288739990234375,-0.12998470664024353,1.3410987854003906,0.3123425841331482
1696082155255740000,5.298739990234375,-1.242984652519226,0.9540853500366211,-0.033537864685058594
1696082155265740000,5.308739990234375,-2.202084541320801,0.7922821044921875,-0.7191212177276611
1696082155275740000,5.318739990234375,-2.8103787899017334,0.8602085113525391,-0.9337741732597351
1696082155285739800,5.32873974609375,-2.084421157836914,0.5972671508789062,-0.3393644690513611
1696082155295740000,5.338739990234375,-0.4038698673248291,-0.054569244384765625,0.575729250907898
1696082155305739800,5.34873974609375,1.3938809633255005,-0.7799701690673828,1.1248536109924316
1696082155315740000,5.358739990234375,3.1833088397979736,-1.1487531661987305,1.6721137762069702
1696082155325739800,5.36873974609375,4.666173458099365,-0.8665761947631836,2.4987239837646484
1696082155335739400,5.378739501953125,5.055634498596191,-0.24616718292236328,3.59173846244812
1696082155345739500,5.388739501953125,4.406339168548584,0.49402523040771484,4.445804595947266
1696082155355739400,5.398739501953125,2.8914966583251953,0.9223041534423828,4.186058521270752
1696082155365739500,5.408739501953125,1.0848554372787476,1.1617441177368164,2.9638893604278564
1696082155375739400,5.418739501953125,-0.49847733974456787,1.2431488037109375,1.7227002382278442
1696082155385739500,5.428739501953125,-1.6614891290664673,0.9926414489746094,0.7331669926643372
1696082155395739400,5.438739501953125,-2.0122909545898438,0.5256586074829102,-0.21997781097888947
1696082155405739500,5.448739501953125,-1.4175357818603516,0.03662109375,-1.003796935081482
1696082155415739400,5.458739501953125,-0.12891840934753418,-0.54034423828125,-1.4545509815216064
1696082155425739500,5.468739501953125,1.812759518623352,-1.1363983154296875,-1.725757360458374
1696082155435739400,5.478739501953125,4.35775089263916,-1.5750494003295898,-1.7790206670761108
1696082155445739500,5.488739501953125,6.938197135925293,-1.7558774948120117,-1.5745892524719238
1696082155455739400,5.498739501953125,8.320034980773926,-1.791630744934082,-0.6569830775260925
1696082155465739500,5.508739501953125,7.653724193572998,-1.7440452575683594,1.0155787467956543
1696082155475739100,5.5187392578125,5.586672782897949,-1.6499338150024414,2.7784359455108643
1696082155485739000,5.528739013671875,3.204838752746582,-1.659585952758789,4.172392845153809
1696082155495739100,5.5387392578125,1.3566763401031494,-1.7679681777954102,5.365604877471924
1696082155505739000,5.548739013671875,0.2619643211364746,-1.8697900772094727,6.422473907470703
1696082155515739100,5.5587392578125,0.26342344284057617,-2.002894401550293,7.488418102264404
1696082155525739000,5.568739013671875,1.4285385608673096,-2.1559038162231445,8.34023380279541
1696082155535739100,5.5787392578125,3.280971050262451,-2.5146875381469727,8.93702220916748
1696082155545739000,5.588739013671875,5.140610218048096,-3.360078811645508,9.195599555969238
1696082155555739100,5.5987392578125,6.89776611328125,-4.1842451095581055,8.813383102416992
1696082155565739000,5.608739013671875,8.997634887695312,-4.363622665405273,7.266880989074707
1696082155575739100,5.6187392578125,10.345782279968262,-3.9434823989868164,5.238051414489746
1696082155585739000,5.628739013671875,10.771950721740723,-3.2979793548583984,3.4274511337280273
1696082155595739100,5.6387392578125,9.438237190246582,-3.1302595138549805,2.217843532562256
1696082155605739000,5.648739013671875,5.758261680603027,-2.9827585220336914,1.831127643585205
1696082155615739100,5.6587392578125,1.2187732458114624,-3.104275703430176,1.4986673593521118
1696082155625739000,5.668739013671875,-1.9308115243911743,-3.8161067962646484,0.9504599571228027
1696082155635739400,5.678739501953125,-2.8629062175750732,-4.782706260681152,-0.007864154875278473
1696082155645739500,5.688739501953125,-1.9726752042770386,-6.109983444213867,-1.5153247117996216
1696082155655739400,5.698739501953125,-1.7507197856903076,-7.760957717895508,-3.3312184810638428
1696082155665739500,5.708739501953125,-3.3143844604492188,-9.138450622558594,-4.528578758239746
1696082155675739100,5.7187392578125,-6.126115322113037,-9.56599235534668,-5.170073986053467
1696082155685739000,5.728739013671875,-7.718346118927002,-8.435521125793457,-5.440665245056152
1696082155695739100,5.7387392578125,-7.461313724517822,-5.794952392578125,-5.3391218185424805
1696082155705739000,5.748739013671875,-5.3952226638793945,-3.443552017211914,-4.696434497833252
1696082155715739100,5.7587392578125,-2.5727555751800537,-1.7790403366088867,-3.443840503692627
1696082155725739000,5.768739013671875,0.20380687713623047,-0.8788423538208008,-1.8555676937103271
1696082155735739100,5.7787392578125,1.1165910959243774,-0.22245025634765625,-1.2319927215576172
1696082155745739000,5.788739013671875,-0.6550447940826416,0.03774452209472656,-1.0459532737731934
1696082155755739100,5.7987392578125,-2.314640998840332,0.12873077392578125,-1.15040922164917
1696082155765739000,5.808739013671875,-3.0340325832366943,0.4541921615600586,-1.3484748601913452
1696082155775739100,5.8187392578125,-3.6395435333251953,0.9372634887695312,-1.4346295595169067
1696082155785739000,5.828739013671875,-4.065393447875977,1.6294193267822266,-1.5553572177886963
1696082155795739100,5.8387392578125,-4.112168312072754,2.4230570793151855,-1.7303321361541748
1696082155805739000,5.848739013671875,-3.9094834327697754,3.2302613258361816,-1.8186867237091064
1696082155815739100,5.8587392578125,-3.7524118423461914,3.86238431930542,-1.958198070526123
1696082155825739000,5.868739013671875,-3.854628086090088,4.156405448913574,-2.388136386871338
1696082155835739100,5.8787392578125,-4.196039199829102,4.132689952850342,-3.097599744796753
1696082155845739000,5.888739013671875,-4.367708206176758,3.8969812393188477,-3.8741846084594727
1696082155855739100,5.8987392578125,-4.780847549438477,3.4637255668640137,-4.2607502937316895
1696082155865739000,5.908739013671875,-4.956491947174072,3.036123275756836,-4.42178201675415
1696082155875739100,5.9187392578125,-4.718565464019775,2.8052616119384766,-4.5102033615112305
1696082155885739000,5.928739013671875,-4.634838104248047,2.6838769912719727,-4.526071071624756
1696082155895739100,5.9387392578125,-4.72257137298584,2.609650135040283,-4.575440406799316
1696082155905739000,5.948739013671875,-5.089894771575928,2.695453643798828,-4.751072406768799
1696082155915739100,5.9587392578125,-5.498132228851318,2.899458885192871,-5.020918846130371
1696082155925739000,5.968739013671875,-5.919021129608154,3.1565003395080566,-5.382917404174805
1696082155935739100,5.9787392578125,-6.131893157958984,3.422867774963379,-5.769349098205566
1696082155945739000,5.988739013671875,-6.119472980499268,3.778797149658203,-6.226693153381348
1696082155955738600,5.998738525390625,-5.727477073669434,4.195252895355225,-6.6473493576049805
1696082155965738800,6.00873876953125,-5.154614448547363,4.636899471282959,-6.871936798095703
1696082155975739100,6.0187392578125,-4.37835168838501,4.883541107177734,-6.7585906982421875
1696082155985739300,6.0287392578125,-3.355855941772461,4.762692451477051,-6.091542720794678
1696082155995739100,6.0387392578125,-2.2435977458953857,4.088704586029053,-4.440755844116211
1696082156005739300,6.0487392578125,-0.6904087066650391,2.906069755554199,-1.7589294910430908
1696082156015739100,6.0587392578125,2.2546632289886475,1.2557177543640137,1.081052303314209
1696082156025739300,6.0687392578125,8.342389106750488,-1.2880640029907227,4.597075462341309
1696082156035739000,6.07873876953125,12.748929023742676,-4.591896057128906,8.819551467895508
1696082156045738800,6.08873876953125,12.0335693359375,-7.884254455566406,11.956700325012207
1696082156055739000,6.09873876953125,12.250715255737305,-10.24764633178711,12.512605667114258
1696082156065738800,6.10873876953125,11.281832695007324,-10.719124794006348,12.136018753051758
1696082156075739000,6.11873876953125,9.061117172241211,-10.14293098449707,10.792673110961914
1696082156085738800,6.12873876953125,5.9564924240112305,-8.398849487304688,5.791433334350586
1696082156095739000,6.13873876953125,3.238379955291748,-5.280112266540527,0.8142318725585938
1696082156105738800,6.14873876953125,1.5110228061676025,-0.7136993408203125,-1.722738265991211
1696082156115739000,6.15873876953125,1.3120970726013184,3.1594271659851074,-2.7345426082611084
1696082156125738800,6.16873876953125,0.7551126480102539,5.231513500213623,-3.5984766483306885
1696082156135737900,6.17873779296875,0.6936092376708984,4.091620922088623,-4.829549789428711
1696082156145738000,6.188738037109375,0.520897388458252,1.077535629272461,-6.310916900634766
1696082156155737900,6.19873779296875,-1.30669105052948,-2.47125244140625,-6.47246789932251
1696082156165738000,6.208738037109375,-3.453458309173584,-5.8346405029296875,-5.817124366760254
1696082156175737900,6.21873779296875,-2.795039653778076,-8.727697372436523,-3.4363396167755127
1696082156185738000,6.228738037109375,-0.726418137550354,-8.386460304260254,-1.686660885810852
1696082156195737900,6.23873779296875,-2.3773674964904785,-4.680342674255371,-0.8559402227401733
1696082156205738000,6.248738037109375,-4.924503326416016,-1.1516227722167969,-1.228320837020874
1696082156215737900,6.25873779296875,-6.023039817810059,1.7391815185546875,-2.2925913333892822
1696082156225738000,6.268738037109375,-6.853723526000977,3.776357650756836,-3.3072357177734375
1696082156235738000,6.278738037109375,-8.1188325881958,4.424337863922119,-4.080544471740723
1696082156245738000,6.288738037109375,-9.095098495483398,3.4191718101501465,-4.7215070724487305
1696082156255738400,6.29873828125,-9.052403450012207,1.6952133178710938,-4.900354862213135
1696082156265738200,6.30873828125,-8.370189666748047,-0.07096195220947266,-4.539716720581055
1696082156275738400,6.31873828125,-7.440463066101074,-1.7072257995605469,-4.257707118988037
1696082156285738200,6.32873828125,-7.413400650024414,-3.1631479263305664,-4.099257946014404
1696082156295738400,6.33873828125,-7.5287933349609375,-3.881476402282715,-3.6221866607666016
1696082156305738200,6.34873828125,-6.608241081237793,-3.357245445251465,-3.1613454818725586
1696082156315738400,6.35873828125,-4.794651985168457,-2.1802291870117188,-2.3805766105651855
1696082156325738200,6.36873828125,-2.699458122253418,-0.9808168411254883,-1.5398576259613037
1696082156335739000,6.37873876953125,-0.34214073419570923,0.06802940368652344,-0.6440716981887817
1696082156345738800,6.38873876953125,1.874025583267212,0.899083137512207,0.2310727834701538
1696082156355739000,6.39873876953125,3.5958189964294434,1.4568138122558594,0.9962199926376343
1696082156365738800,6.40873876953125,4.367763519287109,1.761749267578125,1.5025488138198853
1696082156375739000,6.41873876953125,3.955441474914551,1.8500761985778809,1.6670515537261963
1696082156385738800,6.42873876953125,2.716935396194458,1.8021306991577148,1.4756138324737549
1696082156395739000,6.43873876953125,1.260568618774414,1.5408458709716797,1.185225248336792
1696082156405738800,6.44873876953125,-0.004117324948310852,1.2644195556640625,0.8159154653549194
1696082156415739000,6.45873876953125,-0.8637251257896423,1.0363664627075195,0.4548702836036682
1696082156425738800,6.46873876953125,-1.2451599836349487,0.9603548049926758,-0.05048567056655884
1696082156435739600,6.47873974609375,-1.562341332435608,0.9815855026245117,-0.3752121925354004
1696082156445739500,6.488739501953125,-1.8793587684631348,1.0381393432617188,-0.25239771604537964
1696082156455739600,6.49873974609375,-1.8882654905319214,1.326472282409668,-0.23147287964820862
1696082156465739800,6.50873974609375,-1.2586296796798706,1.3266878128051758,-0.07391595840454102
1696082156475739600,6.51873974609375,-0.27190229296684265,0.8899812698364258,0.4804578423500061
1696082156485739800,6.52873974609375,0.7014796137809753,0.21947765350341797,0.9268856048583984
1696082156495739600,6.53873974609375,1.7893425226211548,-0.3237342834472656,1.2024390697479248
1696082156505739800,6.54873974609375,2.5513916015625,-0.5363607406616211,1.4803847074508667
1696082156515739600,6.55873974609375,2.8514981269836426,-0.45165061950683594,1.9443963766098022
1696082156525739500,6.568739501953125,2.680182456970215,-0.11449718475341797,2.423621416091919
1696082156535739400,6.578739501953125,2.240147352218628,0.3088531494140625,2.4944169521331787
1696082156545739500,6.588739501953125,1.612670660018921,0.5935478210449219,2.178999423980713
1696082156555739400,6.598739501953125,0.9997170567512512,0.6079921722412109,1.4706437587738037
1696082156565739500,6.608739501953125,0.7690161466598511,0.26714134216308594,0.7699040770530701
1696082156575739600,6.61873974609375,1.0829617977142334,-0.3717832565307617,0.3445526361465454
1696082156585739500,6.628739501953125,2.0038304328918457,-1.113560676574707,0.1537456214427948
1696082156595739600,6.63873974609375,3.3265438079833984,-1.6117334365844727,0.12179085612297058
1696082156605739500,6.648739501953125,4.806089401245117,-1.7992668151855469,0.3576943874359131
1696082156615739600,6.65873974609375,6.013330936431885,-1.6635198593139648,1.0605194568634033
1696082156625739500,6.668739501953125,6.341655254364014,-1.3612194061279297,2.058779716491699
1696082156635739600,6.67873974609375,5.461690902709961,-0.8708591461181641,3.0487048625946045
1696082156645739500,6.688739501953125,3.867971420288086,-0.40239715576171875,3.84236741065979
1696082156655739600,6.69873974609375,2.146958827972412,-0.2485342025756836,4.494225978851318
1696082156665739500,6.708739501953125,0.7929909229278564,-0.4839773178100586,5.317960739135742
1696082156675739600,6.71873974609375,0.07867777347564697,-0.9917316436767578,6.284852027893066
1696082156685739500,6.728739501953125,-0.0782167911529541,-1.5543746948242188,7.333893299102783
1696082156695739600,6.73873974609375,0.6831810474395752,-1.8552913665771484,8.159761428833008
1696082156705739500,6.748739501953125,2.2693839073181152,-1.995330810546875,8.557376861572266
1696082156715739000,6.75873876953125,4.1463189125061035,-2.726215362548828,8.52168083190918
1696082156725738800,6.76873876953125,6.0664567947387695,-3.6679954528808594,7.762489318847656
1696082156735739000,6.77873876953125,7.685461044311523,-3.9427709579467773,6.402407169342041
1696082156745738800,6.78873876953125,8.194107055664062,-3.781632423400879,5.019583225250244
1696082156755738600,6.798738525390625,7.9350972175598145,-3.53732967376709,3.995293617248535
1696082156765738800,6.80873876953125,6.752299785614014,-3.7675323486328125,3.3905463218688965
1696082156775739000,6.81873876953125,4.938680648803711,-3.8845930099487305,2.6390790939331055
1696082156785739000,6.828739013671875,2.210036516189575,-4.281699180603027,1.4730180501937866
1696082156795739000,6.83873876953125,-0.30021023750305176,-5.257288932800293,0.17457681894302368
1696082156805739000,6.848739013671875,-1.6164929866790771,-6.473274230957031,-1.580453634262085
1696082156815739000,6.85873876953125,-1.9074656963348389,-7.987211227416992,-3.2275888919830322
1696082156825739000,6.868739013671875,-2.99326753616333,-8.889005661010742,-5.256839752197266
1696082156835739000,6.87873876953125,-3.92183256149292,-9.615070343017578,-6.483537197113037
1696082156845739000,6.888739013671875,-5.089170455932617,-8.847524642944336,-6.86350679397583
1696082156855739000,6.89873876953125,-5.41715669631958,-6.764634132385254,-6.4124908447265625
1696082156865739000,6.908739013671875,-5.257327079772949,-4.269503593444824,-5.490379333496094
1696082156875739000,6.91873876953125,-4.0326738357543945,-2.4003286361694336,-4.103452682495117
1696082156885738800,6.92873876953125,-0.5667770504951477,-1.3933477401733398,-3.466205596923828
1696082156895739000,6.93873876953125,0.3373972177505493,-0.9474935531616211,-2.00167179107666
1696082156905738800,6.94873876953125,-0.8524845242500305,-0.6957178115844727,-1.2635568380355835
1696082156915739000,6.95873876953125,-1.8951036930084229,-0.2941150665283203,-0.8468565940856934
1696082156925738800,6.96873876953125,-2.3264098167419434,0.1943988800048828,-0.9876441955566406
1696082156935739000,6.97873876953125,-2.915189027786255,0.7085332870483398,-1.1648310422897339
1696082156945738800,6.98873876953125,-3.6428802013397217,1.240290641784668,-1.199600338935852
1696082156955739000,6.99873876953125,-4.313225746154785,1.967505931854248,-1.0201680660247803
1696082156965738800,7.00873876953125,-4.1056108474731445,2.6053552627563477,-1.1126842498779297
1696082156975739000,7.01873876953125,-3.7662458419799805,3.230236053466797,-1.3457200527191162
1696082156985739000,7.028739013671875,-3.7708160877227783,3.453299045562744,-1.6426059007644653
1696082156995739000,7.03873876953125,-3.9242496490478516,3.4370269775390625,-2.135042428970337
1696082157005739000,7.048739013671875,-4.152602672576904,3.3762660026550293,-2.814772844314575
1696082157015739600,7.05873974609375,-4.522821426391602,3.2924089431762695,-3.4598515033721924
1696082157025739800,7.06873974609375,-4.612560272216797,3.147210121154785,-4.017491340637207
1696082157035739600,7.07873974609375,-4.595273971557617,3.0534253120422363,-4.198627471923828
1696082157045739800,7.08873974609375,-4.513786315917969,2.991168975830078,-4.3239665031433105
1696082157055739600,7.09873974609375,-4.459269046783447,2.9583911895751953,-4.472660064697266
1696082157065739800,7.10873974609375,-4.52004337310791,3.0716552734375,-4.815664291381836
1696082157075739600,7.11873974609375,-4.737962245941162,3.3184618949890137,-5.255632400512695
1696082157085739500,7.128739501953125,-5.200982093811035,3.634194850921631,-5.791012763977051
1696082157095739600,7.13873974609375,-5.516302108764648,3.986635208129883,-6.263786315917969
1696082157105739500,7.148739501953125,-5.5694122314453125,4.304473876953125,-6.591625213623047
1696082157115739600,7.15873974609375,-5.380725860595703,4.63166618347168,-6.77172327041626
1696082157125739500,7.168739501953125,-5.000272750854492,4.925555229187012,-6.814720153808594
1696082157135739600,7.17873974609375,-4.4783034324646,5.194196701049805,-6.696116924285889
1696082157145739500,7.188739501953125,-3.747633695602417,5.287817001342773,-6.270571708679199
1696082157155739600,7.19873974609375,-2.8425352573394775,4.859564781188965,-5.248953819274902
1696082157165739500,7.208739501953125,-1.4733997583389282,3.9202370643615723,-3.397648811340332
1696082157175739600,7.21873974609375,0.7214972972869873,2.5630288124084473,-0.8558057546615601
1696082157185739500,7.228739501953125,5.260297775268555,0.3578910827636719,2.1152970790863037
1696082157195739600,7.23873974609375,10.930840492248535,-2.4857616424560547,5.884243011474609
1696082157205739500,7.248739501953125,11.723668098449707,-5.076403617858887,9.330191612243652
1696082157215739600,7.25873974609375,9.694705963134766,-7.421327590942383,11.690729141235352
1696082157225739500,7.268739501953125,9.191508293151855,-9.1740140914917,12.664101600646973
1696082157235739600,7.27873974609375,8.856870651245117,-9.192007064819336,12.488042831420898
1696082157245739500,7.288739501953125,7.165172576904297,-7.441384315490723,9.993379592895508
1696082157255739600,7.29873974609375,4.472130298614502,-4.646339416503906,5.168535232543945
1696082157265739500,7.308739501953125,2.3914716243743896,-1.5382490158081055,1.5027034282684326
1696082157275739400,7.318739501953125,1.4142651557922363,1.5752415657043457,-0.3874852657318115
1696082157285739500,7.328739501953125,0.6283044815063477,4.614792823791504,-1.780838966369629
1696082157295739400,7.338739501953125,0.535696268081665,6.932368278503418,-2.988553047180176
1696082157305739500,7.348739501953125,0.21909618377685547,6.2453718185424805,-4.297094345092773
1696082157315739400,7.358739501953125,-3.4022789001464844,2.0373787879943848,-4.205334186553955
1696082157325739500,7.368739501953125,-6.225222587585449,-3.352206230163574,-3.9564929008483887
1696082157335740200,7.378740234375,-6.767188549041748,-7.701240539550781,-3.648980140686035
1696082157345740300,7.388740234375,-5.240150451660156,-10.431329727172852,-2.403520107269287
1696082157355740200,7.398740234375,-0.012159943580627441,-9.975651741027832,-0.33911681175231934
1696082157365740300,7.408740234375,1.9078625440597534,-8.128466606140137,-0.4711289405822754
1696082157375740200,7.418740234375,-0.9307329654693604,-5.63272762298584,-2.7082948684692383
1696082157385740000,7.428739990234375,-1.6635169982910156,-3.8405094146728516,-4.93623161315918
1696082157395740200,7.438740234375,-2.558899402618408,-1.3827886581420898,-6.899251937866211
1696082157405740000,7.448739990234375,-4.60097599029541,1.0765447616577148,-8.480454444885254
1696082157415740200,7.458740234375,-6.377795219421387,2.39003324508667,-8.997297286987305
1696082157425740000,7.468739990234375,-7.313678741455078,2.7068428993225098,-9.269760131835938
1696082157435740200,7.478740234375,-8.25071907043457,2.2082438468933105,-8.250450134277344
1696082157445740000,7.488739990234375,-8.531830787658691,1.4678220748901367,-7.388337135314941
1696082157455740200,7.498740234375,-8.997722625732422,0.15627765655517578,-5.598270893096924
1696082157465740000,7.508739990234375,-9.212845802307129,-0.7107973098754883,-4.617961883544922
1696082157475740200,7.518740234375,-8.518556594848633,-1.3572330474853516,-3.7182915210723877
1696082157485740000,7.528739990234375,-7.420871257781982,-1.365346908569336,-3.186654567718506
1696082157495740200,7.538740234375,-6.559086799621582,-0.93994140625,-3.227365732192993
1696082157505740000,7.548739990234375,-5.2999982833862305,-0.5018281936645508,-2.7886688709259033
1696082157515740200,7.558740234375,-1.824493646621704,-0.6576871871948242,-1.0213778018951416
1696082157525740000,7.568739990234375,2.154453754425049,-0.781590461730957,0.9342365264892578
1696082157535740200,7.578740234375,5.391729831695557,-0.516057014465332,2.469848155975342
1696082157545740000,7.588739990234375,7.234144687652588,0.14760875701904297,3.1068520545959473
1696082157555740200,7.598740234375,7.3109893798828125,0.8672142028808594,2.9239401817321777
1696082157565740000,7.608739990234375,5.663252830505371,1.2646245956420898,2.2391836643218994
1696082157575740200,7.618740234375,3.2651965618133545,1.6605663299560547,1.0801727771759033
1696082157585740300,7.628740234375,1.0743227005004883,1.6723451614379883,0.36670589447021484
1696082157595740200,7.638740234375,-0.5960431694984436,1.387131690979004,0.13782936334609985
1696082157605740300,7.648740234375,-1.963089942932129,0.943634033203125,0.1387426257133484
1696082157615740200,7.658740234375,-3.057605028152466,0.5451278686523438,0.18139326572418213
1696082157625740300,7.668740234375,-3.968285083770752,0.3827991485595703,0.40327492356300354
1696082157635739400,7.678739501953125,-3.140096664428711,0.6549749374389648,0.5890854001045227
1696082157645739500,7.688739501953125,-1.4159672260284424,0.8052997589111328,1.2508342266082764
1696082157655739400,7.698739501953125,1.2437694072723389,0.45427799224853516,2.374865770339966
1696082157665739500,7.708739501953125,3.6371169090270996,-0.1189422607421875,3.5240960121154785
1696082157675739600,7.71873974609375,4.971263408660889,-0.4949159622192383,4.4173784255981445
1696082157685739500,7.728739501953125,5.174965858459473,-0.4440021514892578,4.793262004852295
1696082157695739600,7.73873974609375,4.209627151489258,0.02217578887939453,4.76956844329834
1696082157705739500,7.748739501953125,2.4317679405212402,0.47959423065185547,4.091355800628662
1696082157715739600,7.75873974609375,0.7473376393318176,0.528472900390625,2.983809232711792
1696082157725739800,7.76873974609375,-0.2683568000793457,0.1786203384399414,1.8014956712722778
1696082157735739600,7.77873974609375,-0.21229326725006104,-0.35718631744384766,0.7025901079177856
1696082157745739800,7.78873974609375,0.9027300477027893,-0.9255390167236328,-0.12538796663284302
1696082157755739600,7.79873974609375,2.654332160949707,-1.3071041107177734,-0.5528087615966797
1696082157765739500,7.808739501953125,4.492372035980225,-1.5104265213012695,-0.49582645297050476
1696082157775739600,7.81873974609375,5.946109294891357,-1.5069665908813477,-0.049304187297821045
1696082157785739500,7.828739501953125,6.218382835388184,-1.063939094543457,0.8319810628890991
1696082157795739600,7.83873974609375,5.347784996032715,-0.5255222320556641,1.8553493022918701
1696082157805739500,7.848739501953125,3.922055721282959,-0.2515907287597656,2.760035753250122
1696082157815739600,7.85873974609375,2.306910753250122,-0.4508810043334961,3.7305996417999268
1696082157825739500,7.868739501953125,0.9336285591125488,-1.0102357864379883,4.849240303039551
1696082157835739600,7.87873974609375,0.2525162696838379,-1.5342683792114258,5.886181354522705
1696082157845739500,7.888739501953125,0.4533878564834595,-1.984297752380371,6.869389533996582
1696082157855739600,7.89873974609375,1.5553866624832153,-1.9341583251953125,7.618017673492432
1696082157865739500,7.908739501953125,3.5242528915405273,-1.6722869873046875,8.006770133972168
1696082157875739400,7.918739501953125,5.25816535949707,-1.9832115173339844,8.306447982788086
1696082157885739500,7.928739501953125,6.648090362548828,-2.937183380126953,8.20566177368164
1696082157895739400,7.938739501953125,7.627260208129883,-3.638040542602539,7.317755222320557
1696082157905739500,7.948739501953125,8.220370292663574,-3.881704330444336,5.997924327850342
1696082157915739400,7.958739501953125,7.921196937561035,-3.81754207611084,4.805015563964844
1696082157925739500,7.968739501953125,6.482693672180176,-3.8300609588623047,3.9817757606506348
1696082157935739400,7.978739501953125,3.5807993412017822,-3.852313995361328,3.4115233421325684
1696082157945739500,7.988739501953125,-0.02013498544692993,-4.1883745193481445,2.65999698638916
1696082157955739400,7.998739501953125,-1.6946570873260498,-5.002452850341797,1.738079309463501
1696082157965739500,8.008739501953125,-2.523149251937866,-6.082683563232422,0.7359938025474548
1696082157975739600,8.01873974609375,-3.8465816974639893,-7.325291633605957,-0.7608963847160339
1696082157985739500,8.028739501953124,-4.9216742515563965,-8.718506813049316,-2.538665771484375
1696082157995739600,8.03873974609375,-5.10812520980835,-9.691884994506836,-3.8898870944976807
1696082158005739500,8.048739501953126,-5.374765872955322,-9.723780632019043,-4.80173397064209
1696082158015739600,8.05873974609375,-5.239457130432129,-8.507309913635254,-5.3913421630859375
1696082158025739500,8.068739501953125,-4.466878414154053,-6.256513595581055,-5.30253267288208
1696082158035739600,8.07873974609375,-1.6091505289077759,-4.400262832641602,-5.389640808105469
1696082158045739500,8.088739501953125,1.2669910192489624,-3.1931352615356445,-4.672464847564697
1696082158055739600,8.09873974609375,1.967466115951538,-2.462261199951172,-3.4781928062438965
1696082158065739500,8.108739501953124,-0.6544135808944702,-1.7938976287841797,-2.751042604446411
1696082158075739600,8.11873974609375,-3.5712056159973145,-1.176797866821289,-3.0052053928375244
1696082158085739500,8.128739501953126,-4.506137371063232,-0.42376232147216797,-2.9626846313476562
1696082158095739600,8.13873974609375,-3.934260368347168,0.37374019622802734,-3.177457571029663
1696082158105739500,8.148739501953125,-3.49037504196167,1.3759651184082031,-3.1441164016723633
1696082158115739600,8.15873974609375,-3.8786299228668213,2.4205121994018555,-2.9076783657073975
1696082158125739500,8.168739501953125,-4.385305404663086,3.396681785583496,-2.63254451751709
1696082158135739100,8.1787392578125,-4.529860496520996,4.1728692054748535,-2.4760468006134033
1696082158145739300,8.1887392578125,-4.538179397583008,4.652493476867676,-2.458461284637451
1696082158155739100,8.1987392578125,-4.246533393859863,4.918972969055176,-2.882838010787964
1696082158165739300,8.2087392578125,-3.8894786834716797,4.794523239135742,-3.414090633392334
1696082158175739100,8.2187392578125,-3.903974771499634,4.446179389953613,-3.9578030109405518
1696082158185739300,8.2287392578125,-4.38071346282959,4.072698593139648,-4.373749732971191
1696082158195739100,8.2387392578125,-5.015280723571777,3.637190341949463,-4.550152778625488
1696082158205739300,8.2487392578125,-5.437258720397949,3.4565701484680176,-4.701969623565674
1696082158215739100,8.2587392578125,-5.551505088806152,3.542769432067871,-5.075640678405762
1696082158225739300,8.2687392578125,-5.679001808166504,3.7325682640075684,-5.710495948791504
1696082158235739100,8.2787392578125,-6.0099992752075195,3.9211201667785645,-6.306710720062256
1696082158245739300,8.2887392578125,-6.340583324432373,4.17726993560791,-6.679786682128906
1696082158255739100,8.2987392578125,-6.369489669799805,4.43637752532959,-6.771481513977051
1696082158265739000,8.308739013671875,-6.049019813537598,4.7216596603393555,-6.877426624298096
1696082158275739100,8.3187392578125,-5.401568412780762,5.056805610656738,-7.0355424880981445
1696082158285739000,8.328739013671875,-4.621504783630371,5.317037582397461,-6.9004130363464355
1696082158295739100,8.3387392578125,-3.862678050994873,5.244215488433838,-6.157314300537109
1696082158305739000,8.348739013671874,-2.6282267570495605,4.5534186363220215,-4.632285118103027
1696082158315739100,8.3587392578125,-0.7720122337341309,3.508327007293701,-2.3931069374084473
1696082158325739000,8.368739013671876,1.9333014488220215,2.114323139190674,0.3625481128692627
1696082158335739100,8.3787392578125,6.6856889724731445,-0.16193103790283203,3.9247899055480957
1696082158345739000,8.388739013671875,10.557531356811523,-3.419632911682129,8.505775451660156
1696082158355739100,8.3987392578125,10.399394989013672,-7.007319450378418,12.868087768554688
1696082158365739000,8.408739013671875,10.468402862548828,-10.550827026367188,15.923187255859375
1696082158375739100,8.4187392578125,10.189888000488281,-12.620050430297852,14.625178337097168
1696082158385739000,8.428739013671875,10.063811302185059,-12.429573059082031,10.400249481201172
1696082158395739100,8.4387392578125,6.126903533935547,-10.186854362487793,4.566628456115723
1696082158405739000,8.448739013671876,2.726184606552124,-6.312361717224121,0.21835947036743164
1696082158415739100,8.4587392578125,1.0653719902038574,-1.4163141250610352,-1.825531005859375
1696082158425739000,8.468739013671875,0.780858039855957,2.965536117553711,-3.5248963832855225
1696082158435739100,8.4787392578125,1.6689660549163818,5.2625837326049805,-5.329432487487793
1696082158445739000,8.488739013671875,2.343158006668091,3.7709197998046875,-6.917879581451416
1696082158455739100,8.4987392578125,1.3654983043670654,-0.1616678237915039,-7.554730415344238
1696082158465739000,8.508739013671875,-1.07333505153656,-4.345821380615234,-7.089719772338867
1696082158475739100,8.5187392578125,-4.230887413024902,-7.040840148925781,-4.8991007804870605
1696082158485739000,8.528739013671874,-6.30320930480957,-8.072015762329102,-1.5335885286331177
1696082158495739100,8.5387392578125,-4.014908313751221,-5.502500534057617,0.2725539207458496
1696082158505739000,8.548739013671875,-1.7728261947631836,-2.257267951965332,-0.28136515617370605
1696082158515739100,8.5587392578125,-1.6721084117889404,0.8985080718994141,-2.857726812362671
1696082158525739000,8.568739013671875,-3.8423681259155273,2.7685651779174805,-4.441466331481934
1696082158535739100,8.5787392578125,-6.181290626525879,2.944495677947998,-5.786177635192871
1696082158545739000,8.588739013671875,-7.555233001708984,2.482280731201172,-6.299408435821533
1696082158555739100,8.5987392578125,-8.325822830200195,1.7867636680603027,-6.200906753540039
1696082158565739000,8.608739013671874,-9.038224220275879,0.8877944946289062,-6.3931660652160645
1696082158575739100,8.6187392578125,-9.447687149047852,-0.34369850158691406,-6.32042121887207
1696082158585739000,8.628739013671876,-9.519980430603027,-1.7660017013549805,-5.863918304443359
1696082158595739100,8.6387392578125,-9.29549503326416,-2.638869285583496,-4.789661407470703
1696082158605739000,8.648739013671875,-8.450536727905273,-2.871328353881836,-3.9412035942077637
1696082158615739100,8.6587392578125,-7.902944087982178,-2.524179458618164,-3.1876072883605957
1696082158625739000,8.668739013671875,-7.233740329742432,-1.6816978454589844,-2.7022266387939453
1696082158635739100,8.6787392578125,-5.612068176269531,-0.9286460876464844,-1.9923462867736816
1696082158645739000,8.688739013671874,-3.2015750408172607,-0.4194374084472656,-0.8464829921722412
1696082158655739100,8.6987392578125,-0.027439117431640625,-0.09959697723388672,0.4736522436141968
1696082158665739000,8.708739013671876,3.183793544769287,0.08436775207519531,1.6734341382980347
1696082158675739100,8.7187392578125,5.615239143371582,0.1961679458618164,2.6266822814941406
1696082158685739000,8.728739013671875,6.60713005065918,0.2890310287475586,3.1693739891052246
1696082158695739100,8.7387392578125,5.534085750579834,0.5345611572265625,2.9871346950531006
1696082158705739000,8.748739013671875,3.2522995471954346,1.0643501281738281,2.232883930206299
1696082158715739100,8.7587392578125,1.0386213064193726,1.6257705688476562,1.0269887447357178
1696082158725739000,8.768739013671874,-0.478726863861084,2.037230968475342,-0.04640227556228638
1696082158735739400,8.778739501953124,-1.3873838186264038,2.03494930267334,-0.6971769332885742
1696082158745739500,8.788739501953126,-2.0731306076049805,1.495438575744629,-1.16978120803833
1696082158755739400,8.798739501953126,-2.3447394371032715,0.9817934036254883,-1.215402603149414
1696082158765739500,8.808739501953125,-3.0738232135772705,0.7670841217041016,-1.4058434963226318
1696082158775739400,8.818739501953125,-3.390692949295044,0.8896255493164062,-1.3563319444656372
1696082158785739500,8.828739501953125,-2.1434686183929443,1.1628036499023438,-0.8483315110206604
1696082158795739400,8.838739501953125,-0.6014915704727173,0.9877481460571289,-0.14010819792747498
1696082158805739500,8.848739501953125,1.7543139457702637,0.24617767333984375,0.7372764945030212
1696082158815739400,8.858739501953124,3.52523136138916,-0.45023632049560547,1.341310977935791
1696082158825739500,8.868739501953126,4.890074729919434,-1.0707035064697266,2.1583869457244873
1696082158835739400,8.878739501953126,4.981098175048828,-0.9920139312744141,2.7001631259918213
1696082158845739500,8.888739501953125,4.035298824310303,-0.3133878707885742,3.3111279010772705
1696082158855739400,8.898739501953125,2.265698194503784,0.47563838958740234,3.5429129600524902
1696082158865739500,8.908739501953125,0.5987001061439514,0.8321914672851562,3.379408121109009
1696082158875739400,8.918739501953125,-0.28745126724243164,0.5091581344604492,2.78776478767395
1696082158885739500,8.928739501953125,0.11387073993682861,-0.1572408676147461,1.899510145187378
1696082158895739400,8.938739501953124,1.723171591758728,-0.6661605834960938,0.986300528049469
1696082158905739500,8.948739501953124,3.781891345977783,-1.066915512084961,0.41933539509773254
1696082158915739400,8.958739501953126,5.546480655670166,-1.4550609588623047,0.3335508108139038
1696082158925739500,8.968739501953126,6.2382121086120605,-1.4618310928344727,0.8444629907608032
1696082158935739400,8.978739501953125,5.57535982131958,-1.1125926971435547,1.683340311050415
1696082158945739500,8.988739501953125,4.07634162902832,-0.7277088165283203,2.658905267715454
1696082158955739400,8.998739501953125,2.2388477325439453,-0.4875926971435547,3.677347183227539
1696082158965739500,9.008739501953125,0.5228581428527832,-0.42101192474365234,4.715399742126465
1696082158975739400,9.018739501953124,-0.6228446960449219,-0.4584016799926758,5.820870876312256
1696082158985739500,9.028739501953124,-0.6600849628448486,-0.5699825286865234,6.90391731262207
1696082158995739400,9.038739501953126,0.4871327877044678,-0.4955415725708008,7.723865985870361
1696082159005739500,9.048739501953126,2.2769131660461426,-0.32439708709716797,7.970401763916016
1696082159015739400,9.058739501953125,4.350356101989746,-0.40843772888183594,7.6974945068359375
1696082159025739500,9.068739501953125,6.2736711502075195,-1.29443359375,6.821020126342773
1696082159035739400,9.078739501953125,7.460935592651367,-3.1599321365356445,5.906636714935303
1696082159045739500,9.088739501953125,8.013927459716797,-4.73021125793457,4.6595048904418945
1696082159055739400,9.098739501953125,8.380038261413574,-5.241544723510742,2.974377155303955
1696082159065739500,9.108739501953124,7.852985382080078,-4.464240074157715,1.565119743347168
1696082159075739400,9.118739501953126,5.359289169311523,-3.842235565185547,1.9909029006958008
1696082159085739500,9.128739501953126,1.5249834060668945,-4.187244415283203,3.6692981719970703
1696082159095739400,9.138739501953125,-2.8648107051849365,-4.9900007247924805,4.775928974151611
1696082159105739500,9.148739501953125,-4.556280136108398,-6.015030860900879,4.119959831237793
1696082159115739400,9.158739501953125,-3.7787272930145264,-6.802150726318359,2.053673505783081
1696082159125739500,9.168739501953125,-3.226508855819702,-8.011122703552246,-0.2537083625793457
1696082159135739400,9.178739501953125,-3.609440565109253,-9.429341316223145,-2.3234825134277344
1696082159145739500,9.188739501953124,-3.5084190368652344,-10.219152450561523,-4.270539283752441
1696082159155739400,9.198739501953124,-3.848510980606079,-9.927456855773926,-5.486387252807617
1696082159165739500,9.208739501953126,-5.114175796508789,-8.5143461227417,-6.064526557922363
1696082159175739400,9.218739501953126,-4.479334354400635,-6.026976585388184,-6.344252109527588
1696082159185739500,9.228739501953125,-1.4056313037872314,-3.944620132446289,-6.248603343963623
1696082159195739400,9.238739501953125,1.8597686290740967,-2.470905303955078,-4.544797897338867
1696082159205739500,9.248739501953125,2.1350841522216797,-1.5719413757324219,-3.4328784942626953
1696082159215739400,9.258739501953125,-0.5918571949005127,-0.8392705917358398,-3.58695912361145
1696082159225739500,9.268739501953124,-2.7416749000549316,-0.3473682403564453,-3.6237359046936035
1696082159235739400,9.278739501953124,-3.1194024085998535,0.2769498825073242,-3.915839910507202
1696082159245739500,9.288739501953126,-3.0644004344940186,1.050729751586914,-3.680325984954834
1696082159255739400,9.298739501953126,-3.320364475250244,1.9780492782592773,-3.4460244178771973
1696082159265739500,9.308739501953125,-3.9971365928649902,2.845494270324707,-3.22640061378479
1696082159275739400,9.318739501953125,-4.853559494018555,3.7172951698303223,-2.854940414428711
1696082159285739500,9.328739501953125,-4.894479751586914,4.249869346618652,-2.6283323764801025
1696082159295739400,9.338739501953125,-4.623847007751465,4.344540596008301,-2.355590581893921
1696082159305739500,9.348739501953125,-4.0838541984558105,4.16270112991333,-2.5807576179504395
1696082159315739400,9.358739501953124,-3.9152095317840576,3.872588634490967,-3.0149688720703125
1696082159325739500,9.368739501953126,-4.10308313369751,3.525369644165039,-3.69124698638916
1696082159335739400,9.378739501953126,-4.648221969604492,3.119969367980957,-4.216477394104004
1696082159345739500,9.388739501953125,-5.169537544250488,2.823007583618164,-4.631772518157959
1696082159355739400,9.398739501953125,-5.496774673461914,2.6002020835876465,-4.750997066497803
1696082159365739500,9.408739501953125,-5.6058855056762695,2.6122989654541016,-4.8372087478637695
1696082159375739400,9.418739501953125,-5.6022114753723145,2.7542972564697266,-5.034673690795898
1696082159385739500,9.428739501953125,-5.66001033782959,3.102247714996338,-5.308078289031982
1696082159395739400,9.438739501953124,-5.803539276123047,3.5332489013671875,-5.618941307067871
1696082159405739500,9.448739501953124,-5.973623275756836,4.1009674072265625,-5.8552398681640625
1696082159415739400,9.458739501953126,-5.896035671234131,4.6748504638671875,-6.160399436950684
1696082159425739500,9.468739501953126,-5.526098251342773,5.182644367218018,-6.469464302062988
1696082159435739400,9.478739501953125,-4.936626434326172,5.69989013671875,-6.700665473937988
1696082159445739500,9.488739501953125,-4.152451515197754,6.0604777336120605,-6.557851791381836
1696082159455739400,9.498739501953125,-2.9531068801879883,5.939493179321289,-5.5694169998168945
1696082159465739500,9.508739501953125,-1.2844736576080322,5.1492919921875,-3.4254112243652344
1696082159475739400,9.518739501953124,0.11968421936035156,3.8573246002197266,-0.3827786445617676
1696082159485739500,9.528739501953124,3.2689096927642822,1.5973010063171387,3.0063483715057373
1696082159495739400,9.538739501953126,8.329472541809082,-1.8890514373779297,7.178813934326172
1696082159505739500,9.548739501953126,8.469830513000488,-1.8101367950439453,7.311176300048828
1696082159515739400,9.558739501953125,9.470118522644043,-9.162715911865234,12.477302551269531
1696082159525739500,9.568739501953125,11.43147087097168,-11.469348907470703,11.61777114868164
1696082159535739400,9.578739501953125,12.715827941894531,-11.608076095581055,9.510703086853027
1696082159545739500,9.588739501953125,10.040189743041992,-9.4476900100708,6.93059778213501
1696082159555739400,9.598739501953125,5.021888256072998,-5.902045249938965,2.6412405967712402
1696082159565739500,9.608739501953124,2.3509714603424072,-1.7505617141723633,-0.7184468507766724
1696082159575739400,9.618739501953126,1.9260075092315674,1.8914074897766113,-2.2566518783569336
1696082159585739500,9.628739501953126,2.2644505500793457,5.225579738616943,-3.6264030933380127
1696082159595739400,9.638739501953125,2.1262471675872803,5.45798397064209,-5.480375289916992
1696082159605739500,9.648739501953125,1.4491057395935059,1.4943270683288574,-6.987459182739258
1696082159615739400,9.658739501953125,-1.7009968757629395,-3.5634450912475586,-7.076482772827148
1696082159625739500,9.668739501953125,-6.439243316650391,-6.796143531799316,-6.158395767211914
1696082159635739400,9.678739501953125,-8.367868423461914,-10.166264533996582,-5.214635372161865
1696082159645739500,9.688739501953124,-5.947762489318848,-13.417036056518555,-3.6157426834106445
1696082159655739400,9.698739501953124,-3.789074420928955,-11.498044967651367,-2.764835834503174
1696082159665739500,9.708739501953126,-2.440711736679077,-5.693772315979004,-1.9181147813796997
1696082159675739400,9.718739501953126,-2.3986504077911377,-0.5564489364624023,-3.260423421859741
1696082159685739500,9.728739501953125,-3.816394567489624,3.3743271827697754,-4.984583854675293
1696082159695739400,9.738739501953125,-5.355497360229492,6.135417461395264,-5.919852256774902
1696082159705739500,9.748739501953125,-7.477611541748047,6.260025978088379,-5.869326591491699
1696082159715739400,9.758739501953125,-8.610458374023438,4.554544925689697,-6.211878776550293
1696082159725739500,9.768739501953124,-8.711145401000977,2.320378303527832,-6.651188850402832
1696082159735739400,9.778739501953124,-8.758222579956055,0.10563373565673828,-6.681706428527832
1696082159745739500,9.788739501953126,-8.412378311157227,-1.8240480422973633,-6.016545295715332
1696082159755739400,9.798739501953126,-7.984257698059082,-3.0434398651123047,-4.460963249206543
1696082159765739500,9.808739501953125,-7.857844352722168,-3.5540056228637695,-2.867720127105713
1696082159775739400,9.818739501953125,-7.499552249908447,-3.4962730407714844,-1.5895133018493652
1696082159785739500,9.828739501953125,-5.760883808135986,-2.8141298294067383,-0.8016806840896606
1696082159795739400,9.838739501953125,-3.0858917236328125,-1.8571491241455078,-0.1781061887741089
1696082159805739500,9.848739501953125,-0.10409224033355713,-0.8215312957763672,0.8007946014404297
1696082159815739400,9.858739501953124,2.8254144191741943,0.32090091705322266,1.7075693607330322
1696082159825739500,9.868739501953126,4.859330654144287,1.2133407592773438,2.3390755653381348
1696082159835739400,9.878739501953126,5.614129543304443,1.7954645156860352,2.5680713653564453
1696082159845739500,9.888739501953125,5.097936153411865,2.052670478820801,2.2733988761901855
1696082159855739400,9.898739501953125,3.5668368339538574,2.1186461448669434,1.5491775274276733
1696082159865739500,9.908739501953125,1.7077332735061646,1.9270124435424805,0.5724876523017883
1696082159875739400,9.918739501953125,0.23052090406417847,1.475783348083496,-0.2665613889694214
1696082159885739500,9.928739501953125,-0.6378918290138245,1.0133838653564453,-0.7762605547904968
1696082159895739400,9.938739501953124,-1.3382151126861572,0.6197881698608398,-0.9788079857826233
1696082159905739500,9.948739501953124,-2.3931615352630615,0.6138286590576172,-1.4200125932693481
1696082159915739400,9.958739501953126,-3.281144380569458,0.8186378479003906,-1.191117525100708
1696082159925739500,9.968739501953126,-2.9638092517852783,1.2250432968139648,-0.740559458732605
1696082159935739400,9.978739501953125,-2.56630802154541,1.5143547058105469,-0.258384108543396
1696082159945739500,9.988739501953125,-1.483095645904541,1.343505859375,0.4761977791786194
1696082159955739400,9.998739501953125,0.5383869409561157,0.5605478286743164,1.1428616046905518
1696082159965739500,10.008739501953125,2.365415334701538,-0.29469966888427734,1.5127217769622803
1696082159975739400,10.018739501953124,3.195190191268921,-0.8706254959106445,1.6254732608795166
1696082159985739500,10.028739501953124,3.011697292327881,-0.8528022766113281,1.8526239395141602
1696082159995739400,10.038739501953126,2.0454392433166504,-0.3762941360473633,2.2847819328308105
1696082160005739500,10.048739501953126,0.8229110240936279,0.16965389251708984,2.49695086479187
1696082160015739400,10.058739501953125,0.23375225067138672,0.46396446228027344,2.265434503555298
1696082160025739500,10.068739501953125,0.8132834434509277,0.37833690643310547,1.8118419647216797
1696082160035739400,10.078739501953125,2.5793323516845703,0.07350921630859375,1.2595744132995605
1696082160045739500,10.088739501953125,4.616684913635254,-0.3487567901611328,0.8319726586341858
1696082160055739400,10.098739501953125,6.0089030265808105,-0.736729621887207,0.820887565612793
1696082160065739500,10.108739501953124,6.068347930908203,-1.0871391296386719,1.3413374423980713
1696082160075739400,10.118739501953126,4.950761318206787,-1.2929315567016602,2.100064754486084
1696082160085739500,10.128739501953126,3.4359145164489746,-1.2535648345947266,2.8603079319000244
1696082160095739400,10.138739501953125,2.0561914443969727,-1.179457664489746,3.591177225112915
1696082160105739500,10.148739501953125,0.8182972073554993,-1.1700019836425781,4.3534159660339355
1696082160115739400,10.158739501953125,-0.027718782424926758,-1.1916255950927734,5.198240756988525
1696082160125739500,10.168739501953125,-0.21815264225006104,-1.1367006301879883,6.01146936416626
1696082160135739400,10.178739501953125,0.3854513168334961,-0.9399538040161133,6.716169357299805
1696082160145739500,10.188739501953124,1.4935437440872192,-0.6113195419311523,7.2028326988220215
1696082160155739400,10.198739501953124,2.9857144355773926,-0.20716094970703125,7.384240627288818
1696082160165739500,10.208739501953126,4.581173896789551,-0.3096761703491211,7.307971000671387
1696082160175739400,10.218739501953126,5.5351409912109375,-1.4472885131835938,7.246351718902588
1696082160185739500,10.228739501953125,5.668575763702393,-3.209723472595215,7.095057964324951
1696082160195739400,10.238739501953125,5.428651809692383,-4.513022422790527,6.479339122772217
1696082160205739500,10.248739501953125,5.675047874450684,-4.925334930419922,5.611977577209473
1696082160215739400,10.258739501953125,6.033730506896973,-4.402468681335449,4.771083354949951
1696082160225739500,10.268739501953124,5.278019905090332,-3.7034778594970703,4.379458904266357
1696082160235739400,10.278739501953124,2.725095748901367,-3.4329357147216797,4.403805255889893
1696082160245739500,10.288739501953126,-0.7290915250778198,-4.00273323059082,4.277256488800049
1696082160255739400,10.298739501953126,-2.5117838382720947,-5.247442245483398,3.1614341735839844
1696082160265739500,10.308739501953125,-2.8197021484375,-6.598214149475098,1.1918174028396606
1696082160275739400,10.318739501953125,-3.0733835697174072,-6.602071762084961,0.9168273210525513
1696082160285739500,10.328739501953125,-3.250110387802124,-9.32553768157959,-3.5549819469451904
1696082160295739400,10.338739501953125,-3.945939540863037,-9.944517135620117,-5.573127269744873
1696082160305739500,10.348739501953125,-5.162449836730957,-9.567986488342285,-6.696292877197266
1696082160315739400,10.358739501953124,-5.976236820220947,-7.837806701660156,-6.8406195640563965
1696082160325739500,10.368739501953126,-5.363524913787842,-5.449886322021484,-6.158490180969238
1696082160335739400,10.378739501953126,-2.2303407192230225,-3.6517410278320312,-5.550429344177246
1696082160345739500,10.388739501953125,2.45875883102417,-2.5453929901123047,-4.398176193237305
1696082160355739400,10.398739501953125,2.9260268211364746,-1.7170686721801758,-3.5817809104919434
1696082160365739500,10.408739501953125,0.003691434860229492,-1.1370792388916016,-3.1528420448303223
1696082160375739400,10.418739501953125,-3.220158576965332,-0.7028827667236328,-3.1212027072906494
1696082160385739500,10.428739501953125,-4.41866397857666,-0.09281730651855469,-2.9127774238586426
1696082160395739400,10.438739501953124,-4.586916923522949,0.7553224563598633,-2.330695152282715
1696082160405739500,10.448739501953124,-4.139547824859619,1.4655957221984863,-1.8361625671386719
1696082160415739400,10.458739501953126,-3.89088773727417,2.26448917388916,-1.4066694974899292
1696082160425739500,10.468739501953126,-4.238517761230469,2.969092845916748,-1.259450078010559
1696082160435739400,10.478739501953125,-4.3057451248168945,3.515061378479004,-1.3979765176773071
1696082160445739500,10.488739501953125,-4.086852073669434,3.9045004844665527,-1.9481559991836548
1696082160455739400,10.498739501953125,-3.8984928131103516,4.066543102264404,-2.7607343196868896
1696082160465739500,10.508739501953125,-4.106953144073486,3.8697662353515625,-3.60691499710083
1696082160475739400,10.518739501953124,-4.561855316162109,3.61846923828125,-4.165359020233154
1696082160485739500,10.528739501953124,-4.778014659881592,3.3651156425476074,-4.714277744293213
1696082160495739400,10.538739501953126,-5.086329460144043,3.1860885620117188,-4.901983737945557
1696082160505739500,10.548739501953126,-5.3861165046691895,2.963320732116699,-4.804754734039307
1696082160515739400,10.558739501953125,-5.329395771026611,2.8627262115478516,-4.738710403442383
1696082160525739500,10.568739501953125,-5.2154011726379395,2.8004775047302246,-4.934452533721924
1696082160535739400,10.578739501953125,-5.398048400878906,2.91489839553833,-5.307868003845215
1696082160545739500,10.588739501953125,-5.6977434158325195,3.093684673309326,-5.741586685180664
1696082160555739400,10.598739501953125,-6.076038837432861,3.3766660690307617,-6.160802841186523
1696082160565739500,10.608739501953124,-6.141247749328613,3.8401570320129395,-6.598917007446289
1696082160575739400,10.618739501953126,-5.809587478637695,4.398777484893799,-6.928005218505859
1696082160585739500,10.628739501953126,-5.248089790344238,4.984328269958496,-7.116764068603516
1696082160595739400,10.638739501953125,-4.647309303283691,5.324776649475098,-6.901561737060547
1696082160605739500,10.648739501953125,-3.7252197265625,5.117255687713623,-5.8603644371032715
1696082160615739400,10.658739501953125,-2.4246249198913574,4.3448076248168945,-4.373931407928467
1696082160625739500,10.668739501953125,-0.8477344512939453,3.2194666862487793,-2.4789600372314453
1696082160635739400,10.678739501953125,1.451643705368042,1.4621796607971191,-0.06680750846862793
1696082160645739500,10.688739501953124,7.173299789428711,-1.1728010177612305,2.868924140930176
1696082160655739400,10.698739501953124,11.85107707977295,-4.063460350036621,6.342805862426758
1696082160665739500,10.708739501953126,11.856230735778809,-6.531379699707031,9.340348243713379
1696082160675739400,10.718739501953126,10.293407440185547,-8.67822551727295,11.708828926086426
1696082160685739500,10.728739501953125,8.851302146911621,-9.85435676574707,12.484224319458008
1696082160695739400,10.738739501953125,7.6518073081970215,-8.83348560333252,11.607129096984863
1696082160705739500,10.748739501953125,5.516836166381836,-6.074393272399902,7.7848100662231445
1696082160715739400,10.758739501953125,3.5117530822753906,-3.13230037689209,3.5021629333496094
1696082160725739500,10.768739501953124,2.3502249717712402,-0.1073160171508789,1.007335901260376
1696082160735739400,10.778739501953124,2.2283501625061035,2.513171672821045,-0.68280029296875
1696082160745739500,10.788739501953126,2.0091712474823,3.541934013366699,-2.316291332244873
1696082160755739400,10.798739501953126,0.14061927795410156,0.8458061218261719,-3.1807146072387695
1696082160765739500,10.808739501953125,-3.237328052520752,-3.552064895629883,-3.202664852142334
1696082160775739400,10.818739501953125,-6.602269172668457,-7.197800636291504,-3.6927106380462646
1696082160785739500,10.828739501953125,-6.196004867553711,-8.944877624511719,-3.7846508026123047
1696082160795739400,10.838739501953125,-1.5327842235565186,-8.474803924560547,-1.5850496292114258
1696082160805739500,10.848739501953125,0.41779184341430664,-5.053073883056641,-0.6562168598175049
1696082160815739400,10.858739501953124,-3.152303695678711,-1.410630226135254,-2.885093927383423
1696082161131098000,11.17409814453125,3.4994442462921143,-1.2319269180297852,1.6963533163070679
1696082161141098000,11.184097900390626,2.977850914001465,-1.0219173431396484,2.152768850326538
1696082161151098000,11.19409814453125,1.8556722402572632,-0.5526771545410156,2.2190780639648438
1696082161161098000,11.204097900390625,0.6367025971412659,-0.27109432220458984,1.845324158668518
1696082161171098000,11.21409814453125,0.19248861074447632,-0.2667970657348633,1.2729785442352295
1696082161181098000,11.224097900390625,0.7485824227333069,-0.34744834899902344,0.7406713366508484
1696082161191098000,11.23409814453125,2.2086615562438965,-0.40458106994628906,0.39740869402885437
1696082161201098000,11.244097900390624,4.0052032470703125,-0.5206880569458008,0.3568226397037506
1696082161211098000,11.25409814453125,5.43455171585083,-0.798335075378418,0.8641752004623413
1696082161221098200,11.26409814453125,5.849165916442871,-1.041640281677246,1.8065190315246582
1696082161231098000,11.27409814453125,5.121445655822754,-0.9990386962890625,2.889768123626709
1696082161241098200,11.28409814453125,3.7363715171813965,-0.6898813247680664,3.8720571994781494
1696082161251098000,11.29409814453125,2.2044122219085693,-0.3737049102783203,4.680663108825684
1696082161261098200,11.30409814453125,0.8100608587265015,-0.2729206085205078,5.540403366088867
1696082161271098000,11.31409814453125,-0.13797950744628906,-0.3964366912841797,6.607207298278809
1696082161281098200,11.32409814453125,-0.3012993335723877,-0.5984611511230469,7.690347671508789
1696082161291098000,11.33409814453125,0.5149627327919006,-0.6536245346069336,8.55444049835205
1696082161301098200,11.34409814453125,2.080845594406128,-0.48056888580322266,8.856879234313965
1696082161311098000,11.35409814453125,3.996384620666504,-0.5633010864257812,8.659324645996094
1696082161321098800,11.3640986328125,5.642373561859131,-1.6288843154907227,8.011438369750977
1696082161331099000,11.374098876953125,6.685160160064697,-2.941143035888672,6.6657915115356445
1696082161341098800,11.3840986328125,7.023869037628174,-3.6293249130249023,5.084291458129883
1696082161351099000,11.394098876953125,6.90144157409668,-3.776108741760254,3.8502118587493896
1696082161361098800,11.4040986328125,6.785903453826904,-3.779367446899414,2.974867343902588
1696082161371099000,11.414098876953124,5.445605278015137,-3.9793262481689453,2.8929686546325684
1696082161381098800,11.4240986328125,2.7855536937713623,-4.570350646972656,3.1411612033843994
1696082161391099000,11.434098876953126,0.0354025661945343,-5.545005798339844,2.8615920543670654
1696082161401098800,11.4440986328125,-1.4572311639785767,-6.407222747802734,1.6796752214431763
1696082161411099000,11.454098876953125,-1.6529695987701416,-7.064827919006348,-0.23599421977996826
1696082161421098800,11.4640986328125,-1.9894933700561523,-7.9978485107421875,-1.9942896366119385
1696082161431099000,11.474098876953125,-2.7260518074035645,-9.123052597045898,-3.7489395141601562
1696082161441098800,11.4840986328125,-3.635993719100952,-10.152656555175781,-5.959193229675293
1696082161451099000,11.494098876953124,-4.521358013153076,-10.036829948425293,-7.574881076812744
1696082161461098800,11.5040986328125,-6.163097858428955,-8.777424812316895,-8.310425758361816
1696082161471099000,11.514098876953126,-4.633124351501465,-6.0367279052734375,-8.704387664794922
1696082161481098800,11.5240986328125,-0.7823551297187805,-3.9038515090942383,-8.179651260375977
1696082161491099000,11.534098876953125,1.6398223638534546,-2.768143653869629,-6.754049301147461
1696082161501098800,11.5440986328125,1.6395447254180908,-2.0431442260742188,-5.272518157958984
1696082161511099000,11.554098876953125,-1.3166682720184326,-1.4051036834716797,-4.7266998291015625
1696082161521098800,11.5640986328125,-4.578351974487305,-0.9893531799316406,-4.389199256896973
1696082161531099000,11.574098876953125,-5.440464019775391,-0.46639251708984375,-3.347078800201416
1696082161541098800,11.5840986328125,-4.730287551879883,0.34461498260498047,-2.492116689682007
1696082161551099000,11.594098876953124,-3.5897045135498047,1.1422624588012695,-1.7106863260269165
1696082161561098800,11.6040986328125,-3.0189337730407715,2.100709915161133,-0.9821810722351074
1696082161571099000,11.614098876953125,-3.225809097290039,3.023580551147461,-0.33832406997680664
1696082161581098800,11.6240986328125,-3.144692897796631,3.784628391265869,-0.3831660747528076
1696082161591099000,11.634098876953125,-3.252833366394043,3.721127986907959,-0.4666569232940674
1696082161601098800,11.6440986328125,-3.524914503097534,4.203983783721924,-1.7507524490356445
1696082161611099000,11.654098876953125,-3.8831613063812256,3.844844341278076,-2.696033477783203
1696082161621098500,11.664098388671874,-4.431136131286621,3.40830135345459,-3.4679219722747803
1696082161631098400,11.674098388671876,-4.806747913360596,2.971762180328369,-3.9802985191345215
1696082161641098500,11.684098388671876,-4.792362689971924,2.5824193954467773,-4.37654972076416
1696082161651098400,11.694098388671875,-4.769681930541992,2.361342430114746,-4.698042869567871
1696082161661098500,11.704098388671875,-4.9596710205078125,2.3047027587890625,-4.973607063293457
1696082161671098400,11.714098388671875,-5.289958953857422,2.3992128372192383,-5.220096111297607
1696082161681098500,11.724098388671875,-5.736847877502441,2.71044921875,-5.416014671325684
1696082161691098400,11.734098388671875,-6.035309314727783,3.060243606567383,-5.594245910644531
1696082161701098500,11.744098388671874,-6.130682468414307,3.515279769897461,-5.766028881072998
1696082161711098400,11.754098388671874,-6.109664440155029,4.065861225128174,-6.009792327880859
1696082161721098500,11.764098388671876,-5.791569709777832,4.630934715270996,-6.262629508972168
1696082161731098400,11.774098388671876,-5.1688313484191895,5.170782566070557,-6.492130756378174
1696082161741098500,11.784098388671875,-4.310975074768066,5.438366413116455,-6.430301666259766
1696082161751098400,11.794098388671875,-3.5931596755981445,5.16048526763916,-5.432694435119629
1696082161761098500,11.804098388671875,-2.425076723098755,4.36197566986084,-3.376413583755493
1696082161771098400,11.814098388671875,-0.5797443389892578,3.2902235984802246,-0.8208141326904297
1696082161781098500,11.824098388671874,1.9823181629180908,1.7371196746826172,2.309147596359253
1696082161791098400,11.834098388671874,6.342844009399414,-1.0052766799926758,7.049524784088135
1696082161801098500,11.844098388671876,9.797540664672852,-3.743061065673828,10.003168106079102
1696082161811098400,11.854098388671876,10.883415222167969,-5.54481315612793,10.188579559326172
1696082161821098500,11.864098388671875,12.472504615783691,-6.836603164672852,9.76858901977539
1696082161831098400,11.874098388671875,13.44848346710205,-8.387328147888184,8.869573593139648
1696082161841098500,11.884098388671875,9.37344741821289,-10.074150085449219,5.853116989135742
1696082161851098400,11.894098388671875,4.657373428344727,-9.935665130615234,1.450235366821289
1696082161861098500,11.904098388671875,1.743732213973999,-6.422919273376465,-2.1106011867523193
1696082161871098400,11.914098388671874,0.47563958168029785,-1.3489484786987305,-3.0628697872161865
1696082161881098500,11.924098388671876,0.19335222244262695,2.9808640480041504,-4.017512798309326
1696082161891098400,11.934098388671876,-0.39493870735168457,4.943493843078613,-6.138437271118164
1696082161901098500,11.944098388671875,-1.532469630241394,3.9456706047058105,-7.431000709533691
1696082161911098400,11.954098388671875,-1.4959653615951538,0.9346365928649902,-8.984536170959473
1696082161921098200,11.96409814453125,-0.6190168857574463,-2.087085723876953,-10.862871170043945
1696082161931098400,11.974098388671875,-1.5223220586776733,-4.901026725769043,-11.764726638793945
1696082161941098200,11.98409814453125,-3.885605573654175,-7.974211692810059,-7.795795440673828
1696082161951098400,11.994098388671874,-4.877645492553711,-8.904294967651367,-2.7714805603027344
1696082161961098200,12.00409814453125,-6.838771820068359,-7.343484878540039,0.41459059715270996
1696082161971098400,12.014098388671876,-6.665327072143555,-4.515732765197754,2.399376153945923
1696082161981098200,12.02409814453125,-5.904806613922119,-1.2481927871704102,2.343841075897217
1696082161991098400,12.034098388671875,-7.222132682800293,1.0966601371765137,0.7844641208648682
1696082162001098200,12.04409814453125,-8.267133712768555,2.4339308738708496,-0.5368261337280273
1696082162011098400,12.054098388671875,-8.61497688293457,2.9671568870544434,-1.3375643491744995
1696082162021098200,12.06409814453125,-9.150137901306152,2.5662689208984375,-1.6800765991210938
1696082162031098400,12.074098388671874,-9.380268096923828,1.1252241134643555,-1.8485703468322754
1696082162041098200,12.08409814453125,-8.709510803222656,-1.0371551513671875,-1.9959100484848022
1696082162051098400,12.094098388671876,-7.553240776062012,-2.985806465148926,-2.086684226989746
1696082162061098200,12.10409814453125,-6.392939567565918,-4.0648088455200195,-2.0583510398864746
1696082162071098400,12.114098388671875,-4.957306861877441,-3.5808000564575195,-2.258298873901367
1696082162081098200,12.12409814453125,-3.561472177505493,-2.005939483642578,-2.315682888031006
1696082162091098400,12.134098388671875,-2.266788959503174,-0.47489452362060547,-2.165634870529175
1696082162101098200,12.14409814453125,-1.0758609771728516,0.9159660339355469,-1.9950577020645142
1696082162111098400,12.154098388671875,-0.017180562019348145,1.8216142654418945,-1.7177526950836182
1696082162121098200,12.16409814453125,0.1651068925857544,1.8697490692138672,-1.634954810142517
1696082162131098400,12.174098388671876,1.3459571599960327,1.9915127754211426,-1.455756425857544
1696082162141098200,12.18409814453125,1.660666823387146,1.6268672943115234,-1.4795950651168823
1696082162151098400,12.194098388671875,1.527969479560852,1.2764272689819336,-1.3286070823669434
1696082162161098200,12.20409814453125,1.0021851062774658,1.1823959350585938,-1.029640555381775
1696082162171098400,12.214098388671875,0.15869343280792236,1.2180900573730469,-0.5712155103683472
1696082162181098200,12.22409814453125,-0.6372036933898926,1.137735366821289,0.10339939594268799
1696082162191098400,12.234098388671875,-1.2774168252944946,0.9468860626220703,0.6078126430511475
1696082162201098200,12.24409814453125,-1.9208626747131348,0.6721811294555664,1.0032086372375488
1696082162211098400,12.254098388671874,-2.7955517768859863,0.4932069778442383,1.3334758281707764
1696082162221098500,12.264098388671876,-3.474858283996582,0.4175853729248047,1.628498911857605
1696082162231098400,12.274098388671876,-3.4140238761901855,0.5919351577758789,1.7649452686309814
1696082162241098500,12.284098388671875,-2.831355571746826,0.9472255706787109,1.9693130254745483
1696082162251098400,12.294098388671875,-1.8683514595031738,0.8586664199829102,2.0803487300872803
1696082162261098500,12.304098388671875,-0.43170660734176636,0.19674301147460938,2.1836113929748535
1696082162271098400,12.314098388671875,1.3513566255569458,-0.6315851211547852,2.15169095993042
1696082162281098500,12.324098388671874,2.9589717388153076,-1.1573257446289062,1.9843263626098633
1696082162575616000,12.618615966796876,3.4065375328063965,-4.650330543518066,-0.6088076829910278
1696082162585616100,12.6286162109375,1.5093311071395874,-4.298290252685547,-1.012643814086914
1696082162595616000,12.638615966796875,-0.4506315290927887,-4.340723037719727,-1.8204892873764038
1696082162605616000,12.6486162109375,-1.8708865642547607,-4.749220848083496,-2.844838857650757
1696082162615616000,12.658615966796875,-2.6420602798461914,-5.666446685791016,-3.873044490814209
1696082162625616100,12.6686162109375,-3.3690409660339355,-6.387558937072754,-5.033630847930908
1696082162635616000,12.678615966796874,-4.147745132446289,-6.9503021240234375,-6.147459506988525
1696082162645616000,12.6886162109375,-5.17241096496582,-6.704010009765625,-6.973587989807129
1696082162655616000,12.698615966796876,-5.793073654174805,-5.206667900085449,-6.997712135314941
1696082162665616100,12.7086162109375,-3.189729928970337,-3.5625877380371094,-6.55934476852417
1696082162675616000,12.718615966796875,-1.3694055080413818,-2.328434944152832,-5.3164496421813965
1696082162685616000,12.7286162109375,-0.2815650701522827,-1.3461809158325195,-3.970947265625
1696082162695616000,12.738615966796875,-1.107675552368164,-0.7543840408325195,-3.1079959869384766
1696082162705616100,12.7486162109375,-2.990050792694092,-0.3419809341430664,-2.762984275817871
1696082162715616300,12.7586162109375,-3.7837982177734375,0.07778739929199219,-2.1741867065429688
1696082162725616000,12.7686162109375,-3.5053703784942627,0.6673784255981445,-2.0112757682800293
1696082162735616300,12.7786162109375,-3.227860927581787,1.1516542434692383,-1.5937278270721436
1696082162745616100,12.7886162109375,-3.1743292808532715,1.6349310874938965,-1.174386978149414
1696082162755616300,12.7986162109375,-3.4603958129882812,2.010580539703369,-1.0037659406661987
1696082162765616000,12.8086162109375,-4.050173282623291,2.186507225036621,-0.6495039463043213
1696082162775616300,12.8186162109375,-4.471675395965576,2.1388492584228516,-0.5756449699401855
1696082162785616100,12.8286162109375,-4.432364463806152,1.995565414428711,-1.0725971460342407
1696082162795616300,12.8386162109375,-4.40163516998291,1.7222638130187988,-2.233459949493408
1696082162805616000,12.8486162109375,-4.543270587921143,1.5021634101867676,-3.5531320571899414
1696082162815616300,12.8586162109375,-4.839345932006836,1.4333314895629883,-4.54262113571167
1696082162825616100,12.8686162109375,-5.074565887451172,1.3348026275634766,-5.128551006317139
1696082162835616300,12.8786162109375,-5.077950477600098,1.248396396636963,-5.443241596221924
1696082162845616000,12.8886162109375,-4.941231727600098,1.3394293785095215,-5.6492228507995605
1696082162855616300,12.8986162109375,-4.869095325469971,1.6325445175170898,-5.735640048980713
1696082162865616100,12.9086162109375,-5.050372123718262,2.0865235328674316,-5.78900671005249
1696082162875616300,12.9186162109375,-5.219583511352539,2.67159366607666,-5.900803565979004
1696082162885616000,12.9286162109375,-5.372605800628662,3.308259963989258,-6.172763347625732
1696082162895616300,12.9386162109375,-5.437492370605469,3.8558249473571777,-6.499479293823242
1696082162905616100,12.9486162109375,-5.420675277709961,4.326621055603027,-6.678328990936279
1696082162915616300,12.9586162109375,-5.279240608215332,4.753623008728027,-6.805678367614746
1696082162925616400,12.968616455078125,-5.136190414428711,5.011237621307373,-6.735559463500977
1696082162935616300,12.9786162109375,-4.694006443023682,5.081430435180664,-6.37593412399292
1696082162945616400,12.988616455078125,-3.845130443572998,4.787893295288086,-5.3578033447265625
1696082162955616500,12.998616455078125,-2.786604642868042,4.131601810455322,-3.6779866218566895
1696082162965616400,13.008616455078124,-1.064436674118042,3.156282424926758,-1.3199563026428223
1696082163621193700,13.66419384765625,-0.16838979721069336,-0.05455207824707031,-0.505893349647522
1696082163631193600,13.674193603515626,0.2931027412414551,-0.2263174057006836,-0.6840217113494873
1696082163641193700,13.68419384765625,0.7000032663345337,-0.23534297943115234,-0.7331026196479797
1696082163651193600,13.694193603515625,0.8683382868766785,0.00684356689453125,-0.6525477170944214
1696082163661193700,13.70419384765625,0.8092261552810669,0.22718048095703125,-0.204029381275177
1696082163671193600,13.714193603515625,0.5511101484298706,0.3703746795654297,0.32060545682907104
1696082163681193700,13.72419384765625,0.2648424506187439,0.5894289016723633,0.7997786998748779
1696082163691193600,13.734193603515624,-0.13414019346237183,0.788508415222168,1.274458646774292
1696082163701193700,13.74419384765625,-0.6410518884658813,0.8694648742675781,1.736432671546936
1696082163711193600,13.754193603515626,-1.199791431427002,0.7173929214477539,2.140347957611084
1696082163721193700,13.76419384765625,-1.8300617933273315,0.4713268280029297,2.47066593170166
1696082163731193600,13.774193603515625,-2.233240842819214,0.40204620361328125,2.6488590240478516
1696082163741193700,13.78419384765625,-2.3638694286346436,0.7108011245727539,2.6718332767486572
1696082163751193600,13.794193603515625,-2.349841594696045,1.1776838302612305,2.6518447399139404
1696082163761193700,13.80419384765625,-2.1836557388305664,1.5704469680786133,2.6121902465820312
1696082163771193600,13.814193603515625,-1.8910977840423584,1.7477378845214844,2.4063518047332764
1696082163781193700,13.82419384765625,-1.4740729331970215,1.5417728424072266,2.0926856994628906
1696082163791193600,13.834193603515626,-1.0766990184783936,1.000234603881836,1.549439549446106
1696082163801193700,13.84419384765625,-0.7809468507766724,0.6760501861572266,0.8097672462463379
1696082163811193600,13.854193603515625,-0.6791715025901794,0.5139951705932617,0.30057308077812195
1696082163821193700,13.86419384765625,-0.6650437712669373,0.2528362274169922,0.14216363430023193
1696082163831193600,13.874193603515625,-0.5981143116950989,-0.22261333465576172,-0.07467880845069885
1696082163841193700,13.88419384765625,-0.33142393827438354,-0.9245376586914062,-0.5881797075271606
1696082163851193600,13.894193603515625,0.3399399518966675,-1.7048835754394531,-1.5423988103866577
1696082163861193700,13.90419384765625,1.2692676782608032,-2.475919723510742,-2.7209830284118652
1696082163871193600,13.914193603515624,2.3177614212036133,-3.1418094635009766,-3.934983730316162
1696082163881193700,13.92419384765625,3.191391944885254,-3.6094369888305664,-5.021971702575684
