time,seconds_elapsed,z,y,x
1695713569353169200,0.179169189453125,-1.348876953125,-3.577117919921875,-0.53192138671875
1695713569362690600,0.188690673828125,-1.186981201171875,-3.315277099609375,-0.43365478515625
1695713569372212000,0.1982119140625,-0.895538330078125,-3.04046630859375,-0.19134521484375
1695713569381764000,0.20776416015625,-0.516204833984375,-2.73101806640625,0.13275146484375
1695713569391346700,0.2173466796875,-0.25909423828125,-2.35992431640625,0.352630615234375
1695713569400868000,0.2268681640625,-0.197906494140625,-2.0343017578125,0.431060791015625
1695713569410420000,0.236419921875,-0.212554931640625,-1.97021484375,0.449981689453125
1695713569419972000,0.24597216796875,-0.219268798828125,-2.0404052734375,0.50933837890625
1695713569429524000,0.25552392578125,-0.184173583984375,-2.09625244140625,0.666351318359375
1695713569439045600,0.265045654296875,-0.120697021484375,-2.171173095703125,0.8648681640625
1695713569448597500,0.274597412109375,-0.047760009765625,-2.257232666015625,1.033782958984375
1695713569458149600,0.284149658203125,0.0274658203125,-2.271881103515625,1.147918701171875
1695713569467701500,0.293701416015625,0.09063720703125,-2.04559326171875,1.147003173828125
1695713569477253600,0.303253662109375,0.1055908203125,-1.58355712890625,0.98602294921875
1695713569486775000,0.312775146484375,0.05340576171875,-1.143646240234375,0.725250244140625
1695713569496327200,0.3223271484375,-0.065155029296875,-0.796051025390625,0.394439697265625
1695713569505879000,0.331879150390625,-0.224456787109375,-0.477142333984375,0.061187744140625
1695713569515431200,0.34143115234375,-0.380859375,-0.22491455078125,-0.2056884765625
1695713569524983000,0.350983154296875,-0.500030517578125,-0.005035400390625,-0.383453369140625
1695713569534504400,0.36050439453125,-0.502777099609375,0.14129638671875,-0.48553466796875
1695713569544056600,0.370056640625,-0.35247802734375,-0.007171630859375,-0.47637939453125
1695713569553608400,0.3796083984375,-0.168609619140625,-0.27374267578125,-0.339813232421875
1695713569563160600,0.38916064453125,-0.061187744140625,-0.56854248046875,-0.0958251953125
1695713569572682000,0.398681884765625,-0.070648193359375,-0.845947265625,0.2459716796875
1695713569582234000,0.408234130859375,-0.164642333984375,-1.00860595703125,0.63720703125
1695713569591786000,0.417785888671875,-0.30792236328125,-0.92041015625,1.01165771484375
1695713569601338000,0.427338134765625,-0.437164306640625,-0.665130615234375,1.2615966796875
1695713569610890000,0.436889892578125,-0.489044189453125,-0.49041748046875,1.28936767578125
1695713569620442000,0.446442138671875,-0.474700927734375,-0.427093505859375,1.053619384765625
1695713569629994000,0.455993896484375,-0.458526611328125,-0.401153564453125,0.63385009765625
1695713569639546000,0.465546142578125,-0.454254150390625,-0.405426025390625,0.14862060546875
1695713569649098000,0.475097900390625,-0.429534912109375,-0.476837158203125,-0.281829833984375
1695713569658650000,0.484650146484375,-0.3448486328125,-0.58563232421875,-0.46112060546875
1695713569668171500,0.494171630859375,-0.213165283203125,-0.712738037109375,-0.272674560546875
1695713569677723600,0.5037236328125,-0.106658935546875,-0.92193603515625,0.12603759765625
1695713569687275500,0.513275634765625,-0.077667236328125,-1.110076904296875,0.5230712890625
1695713569696827600,0.52282763671875,-0.092315673828125,-1.172943115234375,0.769195556640625
1695713569706349000,0.53234912109375,-0.096588134765625,-1.111297607421875,0.789642333984375
1695713569715901000,0.54190087890625,-0.114288330078125,-0.9002685546875,0.64605712890625
1695713569725453000,0.551453125,-0.091705322265625,-0.57281494140625,0.454254150390625
1695713569735005000,0.5610048828125,0.04913330078125,-0.22796630859375,0.2734375
1695713569744557000,0.57055712890625,0.241546630859375,0.06072998046875,0.123291015625
1695713569754078500,0.580078369140625,0.39459228515625,0.21331787109375,0.041961669921875
1695713569763630600,0.589630615234375,0.500946044921875,0.12359619140625,0.037689208984375
1695713569773182500,0.599182373046875,0.482330322265625,-0.21270751953125,0.078582763671875
1695713569782734600,0.608734619140625,0.33203125,-0.711212158203125,0.084381103515625
1695713569792286500,0.618286376953125,0.183258056640625,-1.3348388671875,0.016937255859375
1695713569801808100,0.62780810546875,0.133819580078125,-1.761322021484375,-0.09368896484375
1695713569811360000,0.637360107421875,0.150909423828125,-1.67083740234375,-0.238494873046875
1695713569820912000,0.646912109375,0.251617431640625,-1.184844970703125,-0.399322509765625
1695713569830464000,0.656464111328125,0.35980224609375,-0.680084228515625,-0.55267333984375
1695713569840016100,0.66601611328125,0.40618896484375,-0.346527099609375,-0.649871826171875
1695713569849537500,0.67553759765625,0.36956787109375,-0.1959228515625,-0.652923583984375
1695713569859089400,0.68508935546875,0.3448486328125,-0.2825927734375,-0.635223388671875
1695713569868641500,0.6946416015625,0.38238525390625,-0.359344482421875,-0.668792724609375
1695713569878193400,0.704193359375,0.37872314453125,-0.331573486328125,-0.80352783203125
1695713569887715000,0.713715087890625,0.374755859375,-0.279541015625,-0.999298095703125
1695713569897267000,0.723266845703125,0.4345703125,-0.030670166015625,-1.111602783203125
1695713569906849500,0.732849609375,0.440673828125,0.304718017578125,-1.17401123046875
1695713569916401400,0.7424013671875,0.45013427734375,0.47821044921875,-1.1981201171875
1695713569925953500,0.75195361328125,0.529327392578125,0.498046875,-1.107330322265625
1695713569935475000,0.761474853515625,0.653533935546875,0.377655029296875,-0.89141845703125
1695713569945027000,0.771027099609375,0.77178955078125,0.16357421875,-0.616912841796875
1695713569954579000,0.780578857421875,0.846710205078125,-0.17486572265625,-0.340423583984375
1695713569964131000,0.790131103515625,0.901336669921875,-0.655517578125,-0.0433349609375
1695713569973683000,0.799682861328125,1.008453369140625,-1.2725830078125,0.336761474609375
1695713569983204600,0.80920458984375,1.234283447265625,-1.9873046875,0.882568359375
1695713569992756500,0.818756591796875,1.593780517578125,-2.6934814453125,1.519012451171875
1695713570002308600,0.82830859375,2.094268798828125,-3.42681884765625,2.150421142578125
1695713570011860500,0.837860595703125,2.783966064453125,-4.22088623046875,2.69866943359375
1695713570021382000,0.8473818359375,3.6126708984375,-5.104217529296875,3.09326171875
1695713570030934000,0.85693408203125,4.090728759765625,-5.58074951171875,3.3642578125
1695713570040486000,0.86648583984375,4.535369873046875,-5.515289306640625,3.5223388671875
1695713570050038000,0.8760380859375,4.97406005859375,-5.499114990234375,3.542938232421875
1695713570059590000,0.88558984375,5.3619384765625,-5.58013916015625,3.531494140625
1695713570069111600,0.895111572265625,5.70281982421875,-5.425567626953125,3.5174560546875
1695713570078663400,0.904663330078125,5.962982177734375,-4.857177734375,3.44024658203125
1695713570088215600,0.914215576171875,6.2091064453125,-3.916473388671875,3.253326416015625
1695713570097767400,0.923767333984375,6.405792236328125,-2.970123291015625,2.988128662109375
1695713570107319600,0.933319580078125,6.4556884765625,-2.247467041015625,2.80120849609375
1695713570116841000,0.942841064453125,6.392364501953125,-1.763763427734375,2.914886474609375
1695713570126393000,0.95239306640625,6.369476318359375,-1.531524658203125,3.318939208984375
1695713570135945000,0.961945068359375,6.350860595703125,-1.5863037109375,3.758544921875
1695713570145497000,0.9714970703125,6.350555419921875,-1.757049560546875,3.992462158203125
1695713570155049000,0.981049072265625,6.199951171875,-1.806182861328125,4.077301025390625
1695713570164570400,0.9905703125,5.84259033203125,-1.828155517578125,4.17449951171875
1695713570174122500,1.00012255859375,5.649566650390625,-2.02667236328125,4.364776611328125
1695713570183674400,1.00967431640625,5.638885498046875,-2.279510498046875,4.665069580078125
1695713570193257000,1.019257080078125,5.499267578125,-2.445068359375,4.968719482421875
1695713570202778400,1.0287783203125,5.209197998046875,-2.684326171875,5.14984130859375
1695713570212330500,1.03833056640625,4.823150634765625,-2.81585693359375,5.184326171875
1695713570221882400,1.04788232421875,4.35333251953125,-2.603607177734375,5.074005126953125
1695713570231434500,1.0574345703125,3.820037841796875,-2.154693603515625,4.771270751953125
1695713570240986400,1.066986328125,3.2598876953125,-1.73583984375,4.357452392578125
1695713570250508000,1.076508056640625,2.6361083984375,-1.68121337890625,4.06524658203125
1695713570260060000,1.086059814453125,2.003936767578125,-2.139434814453125,4.011383056640625
1695713570269612000,1.095612060546875,1.39068603515625,-4.059600830078125,3.212432861328125
1695713570279164000,1.105163818359375,1.320953369140625,-6.440887451171875,0.13671875
1695713570288716000,1.114716064453125,2.149658203125,-5.87890625,-2.109832763671875
1695713570298237400,1.124237548828125,2.87506103515625,-3.655548095703125,-2.28973388671875
1695713570307789600,1.13378955078125,2.764434814453125,-1.7340087890625,-0.981292724609375
1695713570317341400,1.143341552734375,2.471923828125,-0.25390625,0.218505859375
1695713570326893600,1.1528935546875,2.365875244140625,0.382843017578125,0.65460205078125
1695713570336415000,1.1624150390625,2.011566162109375,0.239410400390625,0.63873291015625
1695713570345966800,1.171966796875,1.544189453125,-0.281982421875,0.422210693359375
1695713570355519000,1.18151904296875,1.228179931640625,-0.454864501953125,0.322418212890625
1695713570365070800,1.19107080078125,0.966339111328125,-0.18951416015625,0.438079833984375
1695713570374623000,1.200623046875,0.607147216796875,0.09033203125,0.709381103515625
1695713570384144400,1.210144287109375,0.4144287109375,-0.28656005859375,1.21795654296875
1695713570393696500,1.219696533203125,0.41595458984375,0.228424072265625,3.0352783203125
1695713570403248400,1.229248291015625,1.3861083984375,0.7952880859375,4.93194580078125
1695713570412800500,1.238800537109375,1.709442138671875,-1.142730712890625,4.413299560546875
1695713570422352400,1.248352294921875,1.80084228515625,-2.834930419921875,2.263641357421875
1695713570431874000,1.2578740234375,2.017669677734375,-3.295745849609375,0.179443359375
1695713570441426000,1.267426025390625,2.423248291015625,-2.80303955078125,-0.80657958984375
1695713570450978000,1.27697802734375,2.673187255859375,-1.756744384765625,-0.760345458984375
1695713570460530000,1.286530029296875,2.702178955078125,-0.741119384765625,-0.254974365234375
1695713570470051300,1.29605126953125,2.728118896484375,-0.373992919921875,0.23284912109375
1695713570479634000,1.305634033203125,2.790679931640625,-0.1513671875,0.356597900390625
1695713570489186000,1.31518603515625,2.87200927734375,-0.19195556640625,0.18341064453125
1695713570498738000,1.324738037109375,2.99285888671875,-0.417633056640625,0.059661865234375
1695713570508290000,1.3342900390625,3.2440185546875,-0.53955078125,-0.004425048828125
1695713570517811500,1.3438115234375,3.379974365234375,-0.375518798828125,-0.22430419921875
1695713570527363300,1.35336328125,3.28125,-0.101470947265625,-0.41656494140625
1695713570536915500,1.36291552734375,3.116607666015625,0.404052734375,-0.589447021484375
1695713570546467300,1.37246728515625,2.9541015625,0.90362548828125,-0.80474853515625
1695713570556019500,1.38201953125,2.89886474609375,1.317901611328125,-1.006317138671875
1695713570565540900,1.391540771484375,2.984619140625,1.386566162109375,-1.1627197265625
1695713570575093000,1.401093017578125,3.033599853515625,1.083831787109375,-1.082305908203125
1695713570584644900,1.410644775390625,2.913818359375,0.91522216796875,-0.732269287109375
1695713570594197000,1.420197021484375,2.652130126953125,0.90911865234375,-0.44097900390625
1695713570603779300,1.429779296875,2.313690185546875,0.973358154296875,-0.317230224609375
1695713570613392400,1.439392333984375,1.992645263671875,0.985870361328125,-0.265350341796875
1695713570623005400,1.44900537109375,1.7950439453125,1.005401611328125,-0.254974365234375
1695713570632618500,1.458618408203125,1.663360595703125,1.001434326171875,-0.321807861328125
1695713570642231600,1.4682314453125,1.5118408203125,0.958709716796875,-0.365447998046875
1695713570651844600,1.4778447265625,1.355133056640625,0.8636474609375,-0.363006591796875
1695713570661457700,1.487457763671875,1.226959228515625,0.692901611328125,-0.367279052734375
1695713570680073500,1.506073486328125,1.13616943359375,-0.004425048828125,-0.0860595703125
1695713570699146800,1.525146728515625,1.0601806640625,0.04974365234375,0.056304931640625
1695713570708729300,1.534729248046875,0.858001708984375,0.17608642578125,0.065765380859375
1695713570718281500,1.544281494140625,0.615997314453125,0.312652587890625,0.063323974609375
1695713570727833300,1.553833251953125,0.41259765625,0.45745849609375,0.039215087890625
1695713570737385500,1.563385498046875,0.154571533203125,0.4486083984375,0.007171630859375
1695713570746907000,1.572906982421875,-0.143280029296875,0.259552001953125,-0.005645751953125
1695713570756459000,1.582458984375,-0.28961181640625,0.023956298828125,-0.052490234375
1695713570766041300,1.592041259765625,-0.503082275390625,0.08056640625,-0.09124755859375
1695713570775593500,1.601593505859375,-0.948486328125,0.255584716796875,-0.023651123046875
1695713570785115000,1.611114990234375,-1.601104736328125,0.229949951171875,0.16571044921875
1695713570794667000,1.6206669921875,-2.234649658203125,-0.12054443359375,0.380096435546875
1695713570804219000,1.630218994140625,-2.584381103515625,-0.369110107421875,0.455780029296875
1695713570813771000,1.63977099609375,-2.674713134765625,-0.62347412109375,0.355377197265625
1695713570823323000,1.649322998046875,-2.694244384765625,-0.58258056640625,0.172119140625
1695713570832844300,1.65884423828125,-2.07763671875,-0.5902099609375,0.346832275390625
1695713570842396400,1.668396484375,-0.60699462890625,-0.750885009765625,0.56610107421875
1695713570851948300,1.6779482421875,0.196685791015625,-0.448455810546875,0.20355224609375
1695713570861500400,1.68750048828125,0.771484375,-0.319671630859375,0.114288330078125
1695713570871052300,1.69705224609375,0.991058349609375,-0.447235107421875,0.317535400390625
1695713570880574000,1.706573974609375,1.0443115234375,-0.65093994140625,0.444488525390625
1695713570890125800,1.716125732421875,0.76690673828125,-1.095733642578125,0.408782958984375
1695713570899678000,1.725677978515625,0.286102294921875,-1.512603759765625,0.230712890625
1695713570909229800,1.735229736328125,0.0018310546875,-1.20849609375,0.012359619140625
1695713570918782000,1.744781982421875,0.009765625,-0.533447265625,-0.17425537109375
1695713570928303400,1.754303466796875,-0.092620849609375,-0.97442626953125,-0.44586181640625
1695713570937855500,1.76385546875,-0.23651123046875,-1.488800048828125,-0.318450927734375
1695713570947407400,1.773407470703125,-0.2947998046875,-1.7425537109375,-0.0677490234375
1695713570956959500,1.78295947265625,-0.142059326171875,-1.464385986328125,0.072174072265625
1695713570966481000,1.79248095703125,0.153045654296875,-0.701446533203125,0.043182373046875
1695713570976032800,1.80203271484375,0.33477783203125,0.323333740234375,0.018463134765625
1695713570985585000,1.8115849609375,0.31951904296875,0.977020263671875,0.047760009765625
1695713570995136800,1.82113671875,0.200042724609375,1.018524169921875,0.041961669921875
1695713571004689000,1.83068896484375,0.0677490234375,0.664520263671875,0.006866455078125
1695713571014210300,1.840210205078125,-0.03387451171875,0.222930908203125,-0.001678466796875
1695713571023762400,1.849762451171875,-0.080108642578125,0.04150390625,0.029754638671875
1695713571033314300,1.859314208984375,-0.077362060546875,0.0445556640625,0.049896240234375
1695713571042866400,1.868866455078125,0.585479736328125,-0.021514892578125,0.036773681640625
1695713571052448800,1.87844873046875,1.1016845703125,0.232086181640625,0.147705078125
1695713571061970400,1.887970458984375,1.09954833984375,0.45379638671875,-0.032806396484375
1695713571071522300,1.897522216796875,1.1456298828125,0.550537109375,-0.220794677734375
1695713571081074400,1.907074462890625,1.11541748046875,0.751495361328125,-0.256195068359375
1695713571090626300,1.916626220703125,0.987701416015625,0.787353515625,-0.359344482421875
1695713571100148000,1.92614794921875,0.955047607421875,0.398101806640625,-0.12359619140625
1695713571109699800,1.935699951171875,1.15509033203125,-0.440826416015625,0.2679443359375
1695713571119252000,1.945251953125,1.7578125,-1.567535400390625,0.297088623046875
1695713571128803800,1.954803955078125,2.800445556640625,-1.843109130859375,0.445709228515625
1695713571138356000,1.96435595703125,3.9605712890625,-2.0855712890625,0.324249267578125
1695713571147877400,1.97387744140625,4.77813720703125,-2.269439697265625,-0.331573486328125
1695713571157429200,1.98342919921875,5.192718505859375,-2.4139404296875,-0.596160888671875
1695713571166981400,1.9929814453125,5.12786865234375,-3.224945068359375,-1.010894775390625
1695713571176533200,2.002533203125,4.573211669921875,-3.00689697265625,-0.679168701171875
1695713571186085400,2.01208544921875,3.734283447265625,-2.171783447265625,0.426483154296875
1695713571195606800,2.021606689453125,2.6239013671875,-0.931396484375,0.60089111328125
1695713571205159000,2.031158935546875,0.974273681640625,0.7586669921875,1.148834228515625
1695713571214710800,2.040710693359375,0.563812255859375,1.432037353515625,0.86273193359375
1695713571224263000,2.050262939453125,0.71441650390625,1.383209228515625,0.103912353515625
1695713571233784300,2.059784423828125,0.606842041015625,0.745086669921875,-0.350189208984375
1695713571243336400,2.06933642578125,0.726318359375,0.1190185546875,-0.671844482421875
1695713571252888300,2.078888427734375,0.79193115234375,-0.2117919921875,-0.78857421875
1695713571262440400,2.0884404296875,0.79132080078125,0.001068115234375,-0.4693603515625
1695713571271992300,2.097992431640625,0.645294189453125,0.616302490234375,0.13519287109375
1695713571281513700,2.107513671875,0.40008544921875,1.011505126953125,0.51025390625
1695713571291065900,2.11706591796875,0.193328857421875,0.87799072265625,0.550537109375
1695713571300617700,2.12661767578125,-0.01678466796875,0.43304443359375,0.474700927734375
1695713571310169900,2.136169921875,-0.200347900390625,-0.002288818359375,0.435638427734375
1695713571319721700,2.1457216796875,-0.33294677734375,-0.1678466796875,0.476531982421875
1695713571329243400,2.155243408203125,-0.38909912109375,-0.072174072265625,0.56488037109375
1695713571338825700,2.16482568359375,-0.3631591796875,0.10009765625,0.663299560546875
1695713571348377900,2.1743779296875,-0.294189453125,0.226287841796875,0.767059326171875
1695713571357929700,2.1839296875,-0.196685791015625,0.298004150390625,0.8795166015625
1695713571367481900,2.19348193359375,-0.110626220703125,0.343780517578125,0.9686279296875
1695713571377003300,2.203003173828125,-0.057525634765625,0.386199951171875,0.95428466796875
1695713571386555400,2.212555419921875,-0.01922607421875,0.381622314453125,0.774383544921875
1695713571396107300,2.222107177734375,0.0677490234375,0.337677001953125,0.454254150390625
1695713571405659400,2.231659423828125,0.203094482421875,0.272979736328125,0.137939453125
1695713571415180800,2.241180908203125,0.3228759765625,0.2069091796875,-0.0823974609375
1695713571424733000,2.25073291015625,0.43487548828125,0.1776123046875,-0.206298828125
1695713571434284800,2.260284912109375,0.579986572265625,0.130615234375,-0.240936279296875
1695713571443837000,2.2698369140625,0.74615478515625,0.019683837890625,-0.17486572265625
1695713571453388800,2.279388916015625,0.916900634765625,-0.102996826171875,-0.031280517578125
1695713571462910200,2.28891015625,1.058349609375,-0.2142333984375,0.1666259765625
1695713571472462300,2.29846240234375,1.1431884765625,-0.28472900390625,0.397186279296875
1695713571482014200,2.30801416015625,1.14501953125,-0.28656005859375,0.567626953125
1695713571491566300,2.31756640625,1.083984375,-0.283203125,0.5706787109375
1695713571501118200,2.3271181640625,1.0284423828125,-0.27557373046875,0.454559326171875
1695713571510639900,2.336639892578125,1.019439697265625,-0.18798828125,0.335235595703125
1695713571520191700,2.346191650390625,1.03759765625,-0.055999755859375,0.301361083984375
1695713571529744000,2.355743896484375,1.005401611328125,0.010833740234375,0.342254638671875
1695713571539295700,2.365295654296875,0.917816162109375,0.013275146484375,0.397186279296875
1695713571548817400,2.3748173828125,0.780029296875,0.009307861328125,0.50079345703125
1695713571558369300,2.384369384765625,0.492095947265625,-0.034942626953125,0.402679443359375
1695713571567921400,2.39392138671875,0.156707763671875,-0.077667236328125,0.208740234375
1695713571577473300,2.403473388671875,-0.135345458984375,-0.084686279296875,0.108184814453125
1695713571587025400,2.413025390625,-0.34027099609375,-0.1544189453125,0.085601806640625
1695713571596546800,2.422546875,-0.477142333984375,-0.21087646484375,0.032501220703125
1695713571606098700,2.4320986328125,-0.57861328125,-0.17059326171875,-0.0885009765625
1695713571615650800,2.44165087890625,-0.67291259765625,-0.086212158203125,-0.231170654296875
1695713571625233400,2.4512333984375,-0.760955810546875,0.06591796875,-0.302276611328125
1695713571634785300,2.460785400390625,-0.831146240234375,0.234527587890625,-0.259246826171875
1695713571644306700,2.470306640625,-0.858001708984375,0.347747802734375,-0.0555419921875
1695713571653858800,2.47985888671875,-0.67352294921875,0.255889892578125,0.56854248046875
1695713571663410700,2.48941064453125,-0.3076171875,-0.324554443359375,0.6500244140625
1695713571672962800,2.498962890625,0.00091552734375,-0.523681640625,0.15869140625
1695713571682514700,2.5085146484375,-0.049285888671875,-0.1611328125,-0.1300048828125
1695713571692036400,2.518036376953125,-0.135955810546875,-0.048370361328125,-0.08087158203125
1695713571701588200,2.527588134765625,-0.149078369140625,-0.1715087890625,0.033416748046875
1695713571711140400,2.537140380859375,-0.168914794921875,-0.30029296875,0.1544189453125
1695713571720692200,2.546692138671875,-0.143890380859375,-0.384368896484375,0.194091796875
1695713571730214000,2.5562138671875,-0.134429931640625,-0.372161865234375,0.1690673828125
1695713571739765800,2.565765869140625,-0.136566162109375,-0.322418212890625,0.16204833984375
1695713571749318000,2.57531787109375,-0.143890380859375,-0.29205322265625,0.17486572265625
1695713571758869800,2.584869873046875,-0.144805908203125,-0.29205322265625,0.19073486328125
1695713571768422000,2.594421875,-0.139312744140625,-0.28045654296875,0.2056884765625
1695713571777943300,2.603943359375,-0.135040283203125,-0.31005859375,0.1995849609375
1695713571787495200,2.6134951171875,-0.149383544921875,-0.358734130859375,0.1739501953125
1695713571797047300,2.62304736328125,-0.173187255859375,-0.373992919921875,0.159912109375
1695713571806599200,2.63259912109375,-0.198211669921875,-0.341644287109375,0.169677734375
1695713571816151300,2.6421513671875,-0.219879150390625,-0.316009521484375,0.18310546875
1695713571825672700,2.651672607421875,-0.23651123046875,-0.316619873046875,0.1861572265625
1695713571835224800,2.661224853515625,-0.25177001953125,-0.325164794921875,0.18890380859375
1695713571844776700,2.670776611328125,-0.2642822265625,-0.334930419921875,0.194091796875
1695713571854328800,2.680328857421875,-0.27313232421875,-0.331573486328125,0.19561767578125
1695713571863850200,2.689850341796875,-0.28228759765625,-0.325164794921875,0.19073486328125
1695713571873402400,2.69940234375,-0.29571533203125,-0.319061279296875,0.19195556640625
1695713571882954200,2.708954345703125,-0.31402587890625,-0.3131103515625,0.2044677734375
1695713571892506400,2.71850634765625,-0.32806396484375,-0.310516357421875,0.21514892578125
1695713571902058200,2.728058349609375,-0.34393310546875,-0.305328369140625,0.2215576171875
1695713571911610400,2.7376103515625,-0.35980224609375,-0.29632568359375,0.233154296875
1695713571921162200,2.747162353515625,-0.36865234375,-0.29754638671875,0.2410888671875
1695713571930714400,2.75671435546875,-0.37628173828125,-0.320892333984375,0.234375
1695713571940266200,2.766266357421875,-0.38818359375,-0.356597900390625,0.21942138671875
1695713571949818400,2.775818359375,-0.405426025390625,-0.394134521484375,0.22186279296875
1695713571959339800,2.78533984375,-0.426788330078125,-0.420074462890625,0.2105712890625
1695713571968891600,2.7948916015625,-0.454559326171875,-0.431976318359375,0.17425537109375
1695713571978443800,2.80444384765625,-0.484771728515625,-0.432281494140625,0.13153076171875
1695713571987995600,2.81399560546875,-0.516815185546875,-0.417633056640625,0.078887939453125
1695713571997517300,2.823517333984375,-0.535125732421875,-0.379180908203125,0.003814697265625
1695713572007069200,2.833069091796875,-0.549774169921875,-0.317230224609375,-0.0958251953125
1695713572016621300,2.842621337890625,-0.505523681640625,-0.150146484375,-0.17364501953125
1695713572026173200,2.852173095703125,-0.401763916015625,0.05828857421875,-0.21759033203125
1695713572035725300,2.861725341796875,-0.27130126953125,0.265350341796875,-0.242767333984375
1695713572045246700,2.871246826171875,-0.131378173828125,0.44891357421875,-0.275421142578125
1695713572054798800,2.880798828125,0.00274658203125,0.607757568359375,-0.354461669921875
1695713572064350700,2.890350830078125,0.10955810546875,0.758514404296875,-0.49346923828125
1695713572073902800,2.89990283203125,0.165863037109375,0.8172607421875,-0.694122314453125
1695713572083454700,2.909454833984375,0.176544189453125,0.76995849609375,-0.90911865234375
1695713572092976000,2.91897607421875,0.136871337890625,0.7830810546875,-1.1456298828125
1695713572102528300,2.9285283203125,0.09674072265625,0.908203125,-1.480255126953125
1695713572112080100,2.938080078125,0.10528564453125,1.045684814453125,-1.85638427734375
1695713572121632300,2.94763232421875,0.154876708984375,1.16729736328125,-2.152557373046875
1695713572131153700,2.957153564453125,0.248565673828125,1.2664794921875,-2.33856201171875
1695713572140705800,2.966705810546875,0.37445068359375,1.26068115234375,-2.446136474609375
1695713572150257700,2.976257568359375,0.502166748046875,1.12548828125,-2.507781982421875
1695713572159809800,2.985809814453125,0.594940185546875,0.946502685546875,-2.521514892578125
1695713572169361700,2.995361572265625,0.615692138671875,0.81451416015625,-2.450714111328125
1695713572178883300,3.00488330078125,0.550689697265625,0.78155517578125,-2.31414794921875
1695713572188465700,3.014465576171875,0.42694091796875,0.8551025390625,-2.198638916015625
1695713572198017800,3.024017822265625,0.274505615234375,1.014556884765625,-2.167205810546875
1695713572207569700,3.033569580078125,0.10650634765625,1.2060546875,-2.20794677734375
1695713572217121800,3.043121826171875,-0.051116943359375,1.349945068359375,-2.2625732421875
1695713572226643200,3.052643310546875,-0.140228271484375,1.365203857421875,-2.265625
1695713572236195300,3.0621953125,-0.111541748046875,1.1798095703125,-2.21282958984375
1695713572245747200,3.071747314453125,-0.065765380859375,1.686553955078125,-2.191925048828125
1695713572255299300,3.08129931640625,0.01495361328125,1.693267822265625,-2.184600830078125
1695713572264851200,3.090851318359375,0.142669677734375,1.410064697265625,-2.164459228515625
1695713572274372600,3.10037255859375,0.260772705078125,1.13311767578125,-2.082672119140625
1695713572283924700,3.1099248046875,0.367431640625,1.12152099609375,-1.95220947265625
1695713572293476600,3.1194765625,0.4144287109375,1.313629150390625,-1.835784912109375
1695713572303028700,3.12902880859375,0.41778564453125,1.484375,-1.767425537109375
1695713572312550100,3.138550048828125,0.401611328125,1.449737548828125,-1.732025146484375
1695713572322102300,3.148102294921875,0.38665771484375,1.25885009765625,-1.65435791015625
1695713572331654100,3.157654052734375,0.40283203125,1.089935302734375,-1.53533935546875
1695713572341206300,3.167206298828125,0.45166015625,0.961456298828125,-1.422882080078125
1695713572350758100,3.176758056640625,0.535125732421875,0.88897705078125,-1.323394775390625
1695713572360279800,3.18627978515625,0.572662353515625,0.92376708984375,-1.21734619140625
1695713572369831700,3.195831787109375,0.547637939453125,1.026458740234375,-1.121368408203125
1695713572379383800,3.2053837890625,0.503082275390625,1.110076904296875,-1.032562255859375
1695713572388935700,3.214935791015625,0.4486083984375,1.13677978515625,-0.92987060546875
1695713572398487800,3.22448779296875,0.37322998046875,1.110076904296875,-0.8099365234375
1695713572408009200,3.23400927734375,0.280609130859375,1.028289794921875,-0.669708251953125
1695713572417561000,3.24356103515625,0.193023681640625,0.902099609375,-0.50537109375
1695713572427113200,3.25311328125,0.1171875,0.734100341796875,-0.314483642578125
1695713572436665000,3.2626650390625,0.05950927734375,0.562744140625,-0.09857177734375
1695713572446217200,3.27221728515625,0.0372314453125,0.40191650390625,0.1470947265625
1695713572455738600,3.281738525390625,0.0469970703125,0.250701904296875,0.413360595703125
1695713572465290800,3.291290771484375,0.0640869140625,0.1080322265625,0.676422119140625
1695713572474842600,3.300842529296875,0.0897216796875,-0.014495849609375,0.90728759765625
1695713572484425200,3.31042529296875,0.12298583984375,-0.107879638671875,1.089019775390625
1695713572493946600,3.319946533203125,0.164031982421875,-0.16571044921875,1.2225341796875
1695713572503498800,3.329498779296875,0.204925537109375,-0.115509033203125,1.2841796875
1695713572513050600,3.339050537109375,0.254364013671875,0.05157470703125,1.25518798828125
1695713572522602800,3.348602783203125,0.328369140625,0.321807861328125,1.131439208984375
1695713572532154600,3.358154541015625,0.4437255859375,0.629425048828125,0.9259033203125
1695713572541676300,3.36767626953125,0.581207275390625,0.944061279296875,0.64208984375
1695713572551228200,3.377228271484375,0.69244384765625,1.27838134765625,0.264892578125
1695713572560780300,3.3867802734375,0.7659912109375,1.48895263671875,-0.1751708984375
1695713572570332200,3.396332275390625,0.80902099609375,1.2615966796875,-0.574951171875
1695713572579884300,3.40588427734375,0.855865478515625,0.465087890625,-0.81329345703125
1695713572589405700,3.41540576171875,0.861968994140625,-0.360565185546875,-0.87554931640625
1695713572598957600,3.42495751953125,0.76507568359375,-0.59539794921875,-0.82855224609375
1695713572608509700,3.434509765625,0.573883056640625,-0.386810302734375,-0.716400146484375
1695713572618061600,3.4440615234375,0.36865234375,0.06134033203125,-0.5145263671875
1695713572627583200,3.453583251953125,0.234527587890625,0.639190673828125,-0.19744873046875
1695713572637135000,3.463135009765625,0.0872802734375,1.24298095703125,0.2288818359375
1695713572646687200,3.472687255859375,-0.198211669921875,1.373443603515625,0.689239501953125
1695713572656239000,3.482239013671875,-0.625,0.511474609375,1.155548095703125
1695713572665791200,3.491791259765625,-0.99212646484375,-1.2359619140625,1.501312255859375
1695713572675312600,3.501312744140625,-0.929412841796875,-2.799072265625,1.183624267578125
1695713572684864800,3.51086474609375,-0.476837158203125,-2.234344482421875,0.036163330078125
1695713572694416600,3.520416748046875,-0.078582763671875,-0.20599365234375,-0.90606689453125
1695713572703968800,3.52996875,0.08026123046875,0.243682861328125,-0.44403076171875
1695713572713520600,3.539520751953125,0.05157470703125,-0.6610107421875,0.740203857421875
1695713572723042000,3.5490419921875,-0.181121826171875,-1.479034423828125,1.57379150390625
1695713572732594200,3.55859423828125,-0.496063232421875,-1.533966064453125,1.712646484375
1695713572742146000,3.56814599609375,-0.654296875,-1.29364013671875,1.496734619140625
1695713572751718700,3.57771875,-0.64422607421875,-1.558074951171875,1.536712646484375
1695713572761270500,3.5872705078125,-0.5963134765625,-1.9757080078125,1.862640380859375
1695713572770822700,3.59682275390625,-0.551605224609375,-2.234344482421875,2.170257568359375
1695713572780374500,3.60637451171875,-0.487518310546875,-2.30255126953125,2.199554443359375
1695713572789926700,3.6159267578125,-0.25543212890625,-1.788787841796875,1.898956298828125
1695713572799478500,3.625478515625,0.0775146484375,-0.811614990234375,1.399688720703125
1695713572809000200,3.635000244140625,0.155792236328125,-0.17822265625,1.102142333984375
1695713572818552000,3.644552001953125,0.0543212890625,-0.24566650390625,1.098175048828125
1695713572828104200,3.654104248046875,-0.071258544921875,-0.680999755859375,1.173858642578125
1695713572837656000,3.663656005859375,-0.177764892578125,-1.135406494140625,1.24420166015625
1695713572847208200,3.673208251953125,-0.2813720703125,-1.439971923828125,1.3470458984375
1695713572856729600,3.6827294921875,-0.38818359375,-1.5911865234375,1.478424072265625
1695713572866281700,3.69228173828125,-0.441436767578125,-1.6455078125,1.58172607421875
1695713572875833600,3.70183349609375,-0.396728515625,-1.554107666015625,1.59393310546875
1695713572885385700,3.7113857421875,-0.286865234375,-1.29119873046875,1.532135009765625
1695713572894907100,3.7209072265625,-0.160980224609375,-0.95916748046875,1.446380615234375
1695713572904459000,3.730458984375,-0.087432861328125,-0.700225830078125,1.385345458984375
1695713572914011100,3.74001123046875,-0.104217529296875,-0.550537109375,1.3677978515625
1695713572923563000,3.74956298828125,-0.186614990234375,-0.475616455078125,1.383819580078125
1695713572933115100,3.759115234375,-0.279541015625,-0.453643798828125,1.383514404296875
1695713572942636500,3.768636474609375,-0.34149169921875,-0.489044189453125,1.358642578125
1695713572952188700,3.778188720703125,-0.3717041015625,-0.5877685546875,1.28997802734375
1695713572961740500,3.787740478515625,-0.38421630859375,-0.65887451171875,1.188507080078125
1695713572971292700,3.797292724609375,-0.421600341796875,-0.62652587890625,1.102142333984375
1695713572980844500,3.806844482421875,-0.471038818359375,-0.59234619140625,1.056976318359375
1695713572990366200,3.8163662109375,-0.507965087890625,-0.574951171875,1.058197021484375
1695713572999918000,3.82591796875,-0.523223876953125,-0.56060791015625,1.069793701171875
1695713573009470200,3.83547021484375,-0.525970458984375,-0.5120849609375,1.081695556640625
1695713573019022000,3.84502197265625,-0.533294677734375,-0.464630126953125,1.085662841796875
1695713573028574200,3.85457421875,-0.551605224609375,-0.5023193359375,1.072540283203125
1695713573038095600,3.864095703125,-0.576629638671875,-0.61126708984375,1.063995361328125
1695713573047678200,3.87367822265625,-0.5914306640625,-0.689849853515625,1.049652099609375
1695713573057230000,3.88322998046875,-0.5975341796875,-0.66070556640625,1.00341796875
1695713573066782200,3.8927822265625,-0.6005859375,-0.53802490234375,0.8966064453125
1695713573076303600,3.9023037109375,-0.604248046875,-0.463714599609375,0.728302001953125
1695713573085855500,3.91185546875,-0.60821533203125,-0.51971435546875,0.54779052734375
1695713573095407600,3.92140771484375,-0.5865478515625,-0.65948486328125,0.414886474609375
1695713573104959500,3.93095947265625,-0.523223876953125,-0.745391845703125,0.346527099609375
1695713573114511600,3.94051171875,-0.448760986328125,-0.706939697265625,0.304107666015625
1695713573124033000,3.950032958984375,-0.410003662109375,-0.59234619140625,0.2276611328125
1695713573133585200,3.959585205078125,-0.424041748046875,-0.452423095703125,0.110931396484375
1695713573143137000,3.969136962890625,-0.486602783203125,-0.323944091796875,-0.017852783203125
1695713573152689200,3.978689208984375,-0.549163818359375,-0.22247314453125,-0.1324462890625
1695713573162241000,3.988240966796875,-0.551605224609375,-0.1983642578125,-0.229644775390625
1695713573171762700,3.9977626953125,-0.473480224609375,-0.279541015625,-0.343475341796875
1695713573181314600,4.007314453125,-0.35003662109375,-0.411224365234375,-0.50079345703125
1695713573190866700,4.01686669921875,-0.161285400390625,-0.454254150390625,-0.695953369140625
1695713573200418600,4.02641845703125,0.134124755859375,-0.2532958984375,-0.89691162109375
1695713573209940000,4.03593994140625,0.37567138671875,0.227203369140625,-1.105804443359375
1695713573219492000,4.0454921875,0.527191162109375,0.716094970703125,-1.356048583984375
1695713573229044000,4.0550439453125,0.69854736328125,1.055450439453125,-1.65557861328125
1695713573238596000,4.06459619140625,0.83343505859375,1.312713623046875,-2.01171875
1695713573248148000,4.07414794921875,0.865631103515625,1.48284912109375,-2.396087646484375
1695713573257669600,4.083669677734375,0.847015380859375,1.450347900390625,-2.777252197265625
1695713573267221500,4.093221435546875,0.7757568359375,1.16546630859375,-3.07647705078125
1695713573276773600,4.102773681640625,0.567779541015625,0.849609375,-3.190460205078125
1695713573286325500,4.112325439453125,0.196380615234375,0.799560546875,-3.152008056640625
1695713573295877600,4.121877685546875,-0.31829833984375,1.059417724609375,-3.057861328125
1695713573305399000,4.13139892578125,-0.878143310546875,1.424713134765625,-2.97393798828125
1695713573314951200,4.140951171875,-1.337890625,1.490478515625,-2.921905517578125
1695713573324503000,4.1505029296875,-1.591339111328125,0.927734375,-2.95318603515625
1695713573334055200,4.16005517578125,-1.69464111328125,-0.074920654296875,-2.98828125
1695713573343637500,4.169637451171875,-1.75445556640625,-1.00006103515625,-2.91961669921875
1695713573353159200,4.1791591796875,-1.73583984375,-1.408538818359375,-2.70294189453125
1695713573362711000,4.1887109375,-1.575775146484375,-1.133270263671875,-2.28668212890625
1695713573372263200,4.19826318359375,-1.208038330078125,-0.438385009765625,-1.8902587890625
1695713573381815000,4.20781494140625,-0.7293701171875,0.305328369140625,-1.803131103515625
1695713573391336400,4.21733642578125,-0.23284912109375,0.84716796875,-2.079315185546875
1695713573400888600,4.226888671875,0.149688720703125,0.961456298828125,-2.536163330078125
1695713573410440400,4.2364404296875,0.187225341796875,1.094512939453125,-2.739410400390625
1695713573419992600,4.24599267578125,0.167083740234375,1.175537109375,-2.6629638671875
1695713573429544400,4.25554443359375,0.195159912109375,1.1627197265625,-2.437286376953125
1695713573439066000,4.265066162109375,0.231475830078125,1.108551025390625,-2.156524658203125
1695713573448618000,4.274617919921875,0.260467529296875,1.089324951171875,-1.859130859375
1695713573458170000,4.284170166015625,0.294952392578125,1.11114501953125,-1.5753173828125
1695713573467722000,4.293721923828125,0.34088134765625,1.114044189453125,-1.331024169921875
1695713573477274000,4.303274169921875,0.40283203125,1.078338623046875,-1.115875244140625
1695713573486795500,4.31279541015625,0.46112060546875,1.027984619140625,-0.91217041015625
1695713573496347600,4.32234765625,0.508575439453125,1.008148193359375,-0.692596435546875
1695713573505899500,4.3318994140625,0.527801513671875,1.039886474609375,-0.45623779296875
1695713573515451600,4.34145166015625,0.511932373046875,1.069488525390625,-0.2227783203125
1695713573524973000,4.35097314453125,0.479583740234375,1.062774658203125,0.009002685546875
1695713573534525000,4.36052490234375,0.445556640625,1.013336181640625,0.26153564453125
1695713573544077000,4.3700771484375,0.430908203125,0.9228515625,0.5426025390625
1695713573553629000,4.37962890625,0.43212890625,0.80810546875,0.86273193359375
1695713573563181000,4.38918115234375,0.428466796875,0.697784423828125,1.2310791015625
1695713573572702500,4.398702392578125,0.4766845703125,0.672454833984375,1.6204833984375
1695713573582254600,4.408254638671875,0.573272705078125,0.730743408203125,1.97540283203125
1695713573591806500,4.417806396484375,0.657501220703125,0.81787109375,2.206268310546875
1695713573601358600,4.427358642578125,0.68511962890625,0.89202880859375,2.178192138671875
1695713573610910500,4.436910400390625,0.67413330078125,0.85662841796875,1.786346435546875
1695713573620462600,4.446462646484375,0.625457763671875,0.729827880859375,1.060333251953125
1695713573630014500,4.456014404296875,0.479888916015625,0.926513671875,0.088958740234375
1695713573639566600,4.465566650390625,0.289459228515625,1.55975341796875,-0.996551513671875
1695713573649118500,4.475118408203125,0.287933349609375,1.649169921875,-1.612548828125
1695713573658640100,4.48464013671875,0.536041259765625,0.644683837890625,-1.431427001953125
1695713573668192000,4.49419189453125,0.770263671875,-0.458831787109375,-0.82763671875
1695713573677744000,4.503744140625,0.7763671875,-0.754241943359375,-0.399322509765625
1695713573687296000,4.5132958984375,0.531768798828125,-0.22918701171875,-0.323944091796875
1695713573696848100,4.52284814453125,0.261993408203125,0.46417236328125,-0.4205322265625
1695713573706369500,4.53236962890625,0.128936767578125,1.060943603515625,-0.41015625
1695713573715921400,4.54192138671875,-0.065460205078125,1.59942626953125,-0.1611328125
1695713573725473500,4.5514736328125,-0.32501220703125,1.774444580078125,0.420989990234375
1695713573735025400,4.561025390625,-0.475006103515625,0.737152099609375,1.185150146484375
1695713573744577500,4.57057763671875,-0.446014404296875,-1.454010009765625,1.34368896484375
1695713573754099000,4.580098876953125,-0.402069091796875,-2.192535400390625,0.409088134765625
1695713573763651000,4.589651123046875,-0.2532958984375,0.216827392578125,-0.750885009765625
1695713573773203000,4.599202880859375,0.12420654296875,0.52215576171875,-0.198974609375
1695713573782755000,4.608755126953125,0.291290283203125,-0.87158203125,1.23565673828125
1695713573792307000,4.618306884765625,0.184173583984375,-0.9814453125,1.895599365234375
1695713573801828600,4.62782861328125,-0.01373291015625,-0.166015625,1.568603515625
1695713573811380500,4.63738037109375,-0.25421142578125,-0.093536376953125,1.084747314453125
1695713573820932600,4.6469326171875,-0.58441162109375,-1.050262451171875,1.477508544921875
1695713573830484500,4.656484375,-0.774688720703125,-1.93145751953125,2.275390625
1695713573840006000,4.666005859375,-0.7403564453125,-2.28912353515625,2.80609130859375
1695713573849558000,4.67555810546875,-0.457611083984375,-2.00775146484375,2.816619873046875
1695713573859110000,4.68510986328125,0.05157470703125,-1.37451171875,2.42034912109375
1695713573868662000,4.694662109375,0.48492431640625,-0.776214599609375,2.000732421875
1695713573878214000,4.7042138671875,0.581207275390625,-0.269775390625,1.777801513671875
1695713573887735600,4.713735595703125,0.489044189453125,0.040435791015625,1.737213134765625
1695713573897287400,4.723287353515625,0.36895751953125,0.026702880859375,1.817169189453125
1695713573906870000,4.7328701171875,0.282745361328125,-0.20751953125,1.94732666015625
1695713573916422000,4.742421875,0.203399658203125,-0.439910888671875,2.0709228515625
1695713573925974000,4.75197412109375,0.0982666015625,-0.5133056640625,2.118072509765625
1695713573935495400,4.761495361328125,0.001220703125,-0.442962646484375,2.100067138671875
1695713573945047600,4.771047607421875,-0.047760009765625,-0.312347412109375,2.02117919921875
1695713573954599400,4.780599365234375,-0.041656494140625,-0.1904296875,1.891937255859375
1695713573964151600,4.790151611328125,-0.0067138671875,-0.2362060546875,1.760406494140625
1695713573973673000,4.7996728515625,0.02593994140625,-0.450286865234375,1.6717529296875
1695713573983225000,4.80922509765625,0.0311279296875,-0.60394287109375,1.6375732421875
1695713573992777000,4.81877685546875,-0.01861572265625,-0.64910888671875,1.61895751953125
1695713574002329000,4.8283291015625,-0.111541748046875,-0.65399169921875,1.5802001953125
1695713574011881000,4.837880859375,-0.193328857421875,-0.66253662109375,1.517791748046875
1695713574021402400,4.84740234375,-0.22796630859375,-0.723724365234375,1.467742919921875
1695713574030954500,4.85695458984375,-0.250244140625,-0.735931396484375,1.448822021484375
1695713574040506400,4.86650634765625,-0.2886962890625,-0.65460205078125,1.439056396484375
1695713574050058500,4.87605859375,-0.3369140625,-0.5328369140625,1.415557861328125
1695713574059610400,4.8856103515625,-0.3863525390625,-0.447540283203125,1.379241943359375
1695713574069132000,4.895132080078125,-0.433502197265625,-0.380401611328125,1.3525390625
1695713574078684000,4.904683837890625,-0.468597412109375,-0.330657958984375,1.3409423828125
1695713574088236000,4.914236083984375,-0.478668212890625,-0.341339111328125,1.33758544921875
1695713574097788000,4.923787841796875,-0.461273193359375,-0.455169677734375,1.32904052734375
1695713574107340000,4.933340087890625,-0.416412353515625,-0.6439208984375,1.30401611328125
1695713574116861400,4.942861328125,-0.3607177734375,-0.782012939453125,1.25030517578125
1695713574126413600,4.95241357421875,-0.31341552734375,-0.829925537109375,1.132049560546875
1695713574135965400,4.96196533203125,-0.29296875,-0.804290771484375,0.93505859375
1695713574145517600,4.971517578125,-0.28350830078125,-0.742340087890625,0.695037841796875
1695713574155039000,4.9810390625,-0.284423828125,-0.660858154296875,0.4888916015625
1695713574164590800,4.9905908203125,-0.31494140625,-0.5303955078125,0.366973876953125
1695713574174143000,5.00014306640625,-0.3594970703125,-0.428619384765625,0.30029296875
1695713574183694800,5.00969482421875,-0.39398193359375,-0.411834716796875,0.2313232421875
1695713574193247000,5.0192470703125,-0.40130615234375,-0.424957275390625,0.13397216796875
1695713574202798800,5.028798828125,-0.38299560546875,-0.406341552734375,0.019378662109375
1695713574212351000,5.03835107421875,-0.34942626953125,-0.370330810546875,-0.0836181640625
1695713574221902800,5.04790283203125,-0.318603515625,-0.385589599609375,-0.15533447265625
1695713574231455000,5.057455078125,-0.29449462890625,-0.485687255859375,-0.228424072265625
1695713574241006800,5.0670068359375,-0.260009765625,-0.63720703125,-0.367889404296875
1695713574250528500,5.076528564453125,-0.164337158203125,-0.699310302734375,-0.584564208984375
1695713574260080400,5.086080322265625,-0.036773681640625,-0.52764892578125,-0.8453369140625
1695713574269632500,5.095632568359375,0.0579833984375,-0.150146484375,-1.118927001953125
1695713574279184400,5.105184326171875,0.142059326171875,0.276031494140625,-1.412811279296875
1695713574288706000,5.1147060546875,0.272064208984375,0.619659423828125,-1.743316650390625
1695713574298258000,5.1242578125,0.37689208984375,0.8642578125,-2.091827392578125
1695713574307810000,5.13381005859375,0.377197265625,1.016387939453125,-2.447967529296875
1695713574317362000,5.14336181640625,0.301513671875,1.030731201171875,-2.845611572265625
1695713574326914000,5.1529140625,0.200958251953125,0.841064453125,-3.216094970703125
1695713574336435500,5.162435546875,0.11993408203125,0.4205322265625,-3.3831787109375
1695713574345987300,5.1719873046875,0.0482177734375,0.0311279296875,-3.3673095703125
1695713574355539500,5.18153955078125,-0.055389404296875,-0.042572021484375,-3.273468017578125
1695713574365091300,5.19109130859375,-0.188751220703125,0.1568603515625,-3.230438232421875
1695713574374643500,5.2006435546875,-0.28717041015625,0.279083251953125,-3.251495361328125
1695713574384164900,5.210164794921875,-0.30548095703125,-0.029144287109375,-3.257904052734375
1695713574393717000,5.219717041015625,-0.2978515625,-0.763092041015625,-3.188323974609375
1695713574403268900,5.229268798828125,-0.38055419921875,-1.544342041015625,-2.999267578125
1695713574412821000,5.238821044921875,-0.533294677734375,-2.05474853515625,-2.72491455078125
1695713574422342400,5.24834228515625,-0.677490234375,-2.208099365234375,-2.410430908203125
1695713574431894500,5.25789453125,-0.69366455078125,-1.65069580078125,-1.99188232421875
1695713574441446400,5.2674462890625,-0.474090576171875,-0.383453369140625,-1.56890869140625
1695713574450998500,5.27699853515625,-0.018310546875,0.8245849609375,-1.54327392578125
1695713574460550400,5.28655029296875,0.270233154296875,1.410369873046875,-1.964111328125
1695713574470071800,5.29607177734375,0.264739990234375,1.371917724609375,-2.426910400390625
1695713574479654400,5.305654296875,0.178985595703125,1.093597412109375,-2.64190673828125
1695713574489206500,5.31520654296875,0.143585205078125,0.951080322265625,-2.5762939453125
1695713574498758400,5.32475830078125,0.199432373046875,1.002044677734375,-2.31292724609375
1695713574508310500,5.334310546875,0.30487060546875,1.061553955078125,-1.99371337890625
1695713574517832000,5.34383203125,0.3692626953125,1.100921630859375,-1.681976318359375
1695713574527383800,5.3533837890625,0.40069580078125,1.13189697265625,-1.393585205078125
1695713574536936000,5.36293603515625,0.4254150390625,1.1517333984375,-1.1376953125
1695713574546487800,5.37248779296875,0.45318603515625,1.170654296875,-0.9234619140625
1695713574556009500,5.382009521484375,0.494232177734375,1.18255615234375,-0.722808837890625
1695713574565561300,5.391561279296875,0.530548095703125,1.201171875,-0.5224609375
1695713574575113500,5.401113525390625,0.549774169921875,1.1895751953125,-0.332794189453125
1695713574584665300,5.410665283203125,0.558319091796875,1.1541748046875,-0.1409912109375
1695713574594217500,5.420217529296875,0.557403564453125,1.084747314453125,0.070037841796875
1695713574603739000,5.42973876953125,0.545501708984375,0.967864990234375,0.310211181640625
1695713574613291000,5.439291015625,0.533599853515625,0.83709716796875,0.5792236328125
1695713574622843000,5.4488427734375,0.539703369140625,0.731353759765625,0.87615966796875
1695713574632395000,5.45839501953125,0.578765869140625,0.689239501953125,1.2188720703125
1695713574641947000,5.46794677734375,0.653839111328125,0.7861328125,1.583251953125
1695713574651468300,5.47746826171875,0.7525634765625,0.989532470703125,1.9232177734375
1695713574661020400,5.4870205078125,0.836181640625,1.25213623046875,2.140960693359375
1695713574670572300,5.496572265625,0.871124267578125,1.53411865234375,2.03369140625
1695713574680124400,5.50612451171875,0.861663818359375,1.571044921875,1.450653076171875
1695713574689676300,5.51567626953125,0.82366943359375,1.20361328125,0.467376708984375
1695713574699198000,5.525197998046875,0.605621337890625,1.015167236328125,-0.592803955078125
1695713574708749800,5.534749755859375,0.209808349609375,1.170654296875,-1.398468017578125
1695713574718302000,5.544302001953125,-0.03021240234375,0.938262939453125,-1.803436279296875
1695713574727853800,5.553853759765625,0.05096435546875,-0.15045166015625,-1.54998779296875
1695713574737375500,5.56337548828125,0.281524658203125,-1.127166748046875,-0.93475341796875
1695713574746927400,5.57292724609375,0.3973388671875,-1.472625732421875,-0.45684814453125
1695713574756479500,5.5824794921875,0.3070068359375,-1.146392822265625,-0.288543701171875
1695713574766031400,5.59203125,0.129241943359375,-0.466766357421875,-0.312042236328125
1695713574775614000,5.601614013671875,-0.0360107421875,0.305633544921875,-0.314483642578125
1695713574785135400,5.61113525390625,-0.3143310546875,1.1492919921875,-0.12298583984375
1695713574794687500,5.6206875,-0.71258544921875,1.6192626953125,0.304107666015625
1695713574804239400,5.6302392578125,-0.95245361328125,1.141357421875,0.93017578125
1695713574813791500,5.63979150390625,-0.818939208984375,-0.459747314453125,1.181793212890625
1695713574823343400,5.64934326171875,-0.474090576171875,-1.752471923828125,0.6201171875
1695713574832864800,5.65886474609375,-0.2752685546875,-0.370635986328125,-0.4327392578125
1695713574842417000,5.6684169921875,0.131072998046875,-0.053558349609375,-0.179443359375
1695713574851968800,5.67796875,0.562896728515625,-1.60491943359375,1.56219482421875
1695713574861521000,5.68752099609375,0.608367919921875,-1.818389892578125,2.512054443359375
1695713574871072800,5.69707275390625,0.284881591796875,-1.042327880859375,2.184600830078125
1695713574880594400,5.706594482421875,-0.079193115234375,-0.299072265625,1.3568115234375
1695713574890146300,5.716146240234375,-0.38482666015625,-0.29632568359375,1.34307861328125
1695713574899698400,5.725698486328125,-0.566253662109375,-0.776214599609375,2.01019287109375
1695713574909250300,5.735250244140625,-0.537567138671875,-1.2493896484375,2.582550048828125
1695713574918772000,5.74477197265625,-0.31402587890625,-1.424102783203125,2.70843505859375
1695713574928323800,5.75432373046875,0.06927490234375,-1.36199951171875,2.463531494140625
1695713574937876000,5.7638759765625,0.45257568359375,-1.159820556640625,2.04833984375
1695713574947427800,5.773427734375,0.602569580078125,-0.85205078125,1.746368408203125
1695713574956980000,5.78297998046875,0.557708740234375,-0.439910888671875,1.6607666015625
1695713574966501400,5.79250146484375,0.46356201171875,-0.118560791015625,1.748809814453125
1695713574976053200,5.80205322265625,0.36468505859375,-0.060272216796875,1.91741943359375
1695713574985605400,5.81160546875,0.259246826171875,-0.2374267578125,2.076416015625
1695713574995157200,5.8211572265625,0.154876708984375,-0.464019775390625,2.162933349609375
1695713575004709400,5.83070947265625,0.069580078125,-0.5987548828125,2.163238525390625
1695713575014230800,5.840230712890625,0.03509521484375,-0.6414794921875,2.07061767578125
1695713575023783000,5.849782958984375,0.05950927734375,-0.5621337890625,1.895904541015625
1695713575033334800,5.859334716796875,0.0811767578125,-0.442352294921875,1.724853515625
1695713575042887000,5.868886962890625,0.05645751953125,-0.378570556640625,1.61590576171875
1695713575052438800,5.878438720703125,0.01251220703125,-0.330352783203125,1.583251953125
1695713575061991000,5.887990966796875,-0.058441162109375,-0.347442626953125,1.57257080078125
1695713575071542800,5.897542724609375,-0.125579833984375,-0.458831787109375,1.5570068359375
1695713575081095000,5.907094970703125,-0.178985595703125,-0.6097412109375,1.544647216796875
1695713575090646800,5.916646728515625,-0.210723876953125,-0.722808837890625,1.530609130859375
1695713575100168400,5.92616845703125,-0.213775634765625,-0.769195556640625,1.529998779296875
1695713575109720300,5.93572021484375,-0.2276611328125,-0.732574462890625,1.520233154296875
1695713575119272400,5.9452724609375,-0.25665283203125,-0.6231689453125,1.495819091796875
1695713575128824300,5.95482421875,-0.3009033203125,-0.464630126953125,1.476287841796875
1695713575138376400,5.96437646484375,-0.3594970703125,-0.3057861328125,1.475677490234375
1695713575147897900,5.97389794921875,-0.417022705078125,-0.19866943359375,1.489715576171875
1695713575157449700,5.98344970703125,-0.460968017578125,-0.19134521484375,1.503448486328125
1695713575167001900,5.993001953125,-0.484466552734375,-0.27618408203125,1.495208740234375
1695713575176553700,6.0025537109375,-0.485992431640625,-0.389862060546875,1.442718505859375
1695713575186075400,6.012075439453125,-0.458831787109375,-0.476226806640625,1.32659912109375
1695713575195627300,6.021627197265625,-0.420074462890625,-0.5230712890625,1.143341064453125
1695713575205179400,6.031179443359375,-0.39703369140625,-0.5718994140625,0.90301513671875
1695713575214731300,6.040731201171875,-0.39031982421875,-0.648193359375,0.6439208984375
1695713575224283400,6.050283447265625,-0.36895751953125,-0.723114013671875,0.428009033203125
1695713575233804800,6.0598046875,-0.333251953125,-0.691375732421875,0.2911376953125
1695713575243357000,6.06935693359375,-0.30853271484375,-0.54046630859375,0.23468017578125
1695713575252908800,6.07890869140625,-0.32257080078125,-0.419464111328125,0.20355224609375
1695713575262461000,6.0884609375,-0.347900390625,-0.441741943359375,0.15228271484375
1695713575272012800,6.0980126953125,-0.35797119140625,-0.5633544921875,0.066680908203125
1695713575281534200,6.1075341796875,-0.3485107421875,-0.638427734375,-0.029144287109375
1695713575291086300,6.11708642578125,-0.3082275390625,-0.64483642578125,-0.1153564453125
1695713575300638200,6.12663818359375,-0.24139404296875,-0.6463623046875,-0.19317626953125
1695713575310190300,6.1361904296875,-0.168609619140625,-0.616455078125,-0.283966064453125
1695713575319711700,6.145711669921875,-0.095062255859375,-0.50140380859375,-0.4437255859375
1695713575329263900,6.155263916015625,-0.00091552734375,-0.388031005859375,-0.650787353515625
1695713575338846200,6.16484619140625,0.086669921875,-0.28717041015625,-0.84228515625
1695713575348398300,6.1743984375,0.12664794921875,-0.091705322265625,-1.041412353515625
1695713575357950200,6.1839501953125,0.13031005859375,0.241241455078125,-1.309051513671875
1695713575367471900,6.193471923828125,0.154876708984375,0.56915283203125,-1.658935546875
1695713575377023700,6.203023681640625,0.175628662109375,0.787353515625,-2.047576904296875
1695713575386576000,6.212575927734375,0.138092041015625,0.90484619140625,-2.497711181640625
1695713575396127700,6.222127685546875,0.04425048828125,0.8056640625,-3.03802490234375
1695713575405679900,6.231679931640625,-0.0341796875,0.4486083984375,-3.480987548828125
1695713575415201300,6.241201171875,-0.03997802734375,-0.034332275390625,-3.645782470703125
1695713575424753400,6.25075341796875,-0.01220703125,-0.403289794921875,-3.514862060546875
1695713575434305300,6.26030517578125,0.00732421875,-0.472259521484375,-3.262481689453125
1695713575443857400,6.269857421875,-0.0103759765625,-0.28350830078125,-3.094482421875
1695713575453378800,6.27937890625,-0.039215087890625,-0.097503662109375,-3.05084228515625
1695713575462930700,6.2889306640625,-0.057525634765625,-0.27923583984375,-3.04290771484375
1695713575472482800,6.29848291015625,-0.097503662109375,-0.835113525390625,-2.97332763671875
1695713575482034700,6.30803466796875,-0.207366943359375,-1.381072998046875,-2.823944091796875
1695713575491586800,6.3175869140625,-0.30670166015625,-1.71539306640625,-2.611083984375
1695713575501108200,6.327108154296875,-0.3045654296875,-1.69036865234375,-2.34344482421875
1695713575510660400,6.336660400390625,-0.168914794921875,-0.9271240234375,-1.97601318359375
1695713575520212200,6.346212158203125,0.079345703125,0.271759033203125,-1.701202392578125
1695713575529764400,6.355764404296875,0.222015380859375,1.300506591796875,-1.800689697265625
1695713575539316200,6.365316162109375,0.216217041015625,1.683807373046875,-2.185821533203125
1695713575548838000,6.374837890625,0.151519775390625,1.49139404296875,-2.550506591796875
1695713575558389800,6.3843896484375,0.120849609375,1.16851806640625,-2.70599365234375
1695713575567942000,6.39394189453125,0.152130126953125,1.014251708984375,-2.6019287109375
1695713575577493800,6.40349365234375,0.266265869140625,1.032562255859375,-2.30377197265625
1695713575587046000,6.4130458984375,0.39398193359375,1.060028076171875,-1.94610595703125
1695713575596567300,6.4225673828125,0.499420166015625,1.035003662109375,-1.622314453125
1695713575606119200,6.432119140625,0.576934814453125,0.975799560546875,-1.355133056640625
1695713575615671300,6.44167138671875,0.637054443359375,0.950469970703125,-1.13800048828125
1695713575625223200,6.45122314453125,0.692138671875,0.991058349609375,-0.955657958984375
1695713575634775300,6.460775390625,0.7318115234375,1.056976318359375,-0.777587890625
1695713575644327200,6.4703271484375,0.74462890625,1.1370849609375,-0.596466064453125
1695713575653879300,6.47987939453125,0.74249267578125,1.2158203125,-0.41595458984375
1695713575663431200,6.48943115234375,0.7159423828125,1.22039794921875,-0.231781005859375
1695713575672983300,6.4989833984375,0.66925048828125,1.1572265625,-0.027008056640625
1695713575682504700,6.508504638671875,0.603790283203125,1.071319580078125,0.20904541015625
1695713575692056800,6.518056884765625,0.541534423828125,0.986785888671875,0.470733642578125
1695713575701608700,6.527608642578125,0.499420166015625,0.90545654296875,0.760650634765625
1695713575711160800,6.537160888671875,0.48065185546875,0.83953857421875,1.103363037109375
1695713575720712700,6.546712646484375,0.509490966796875,0.8489990234375,1.487579345703125
1695713575730234400,6.556234375,0.571136474609375,0.956878662109375,1.854705810546875
1695713575739786200,6.5657861328125,0.639495849609375,1.1181640625,2.144012451171875
1695713575749338400,6.57533837890625,0.68756103515625,1.328277587890625,2.231597900390625
1695713575758890200,6.58489013671875,0.7196044921875,1.5191650390625,1.9781494140625
1695713575768442400,6.5944423828125,0.7440185546875,1.4752197265625,1.395721435546875
1695713575777963800,6.6039638671875,0.6787109375,1.296539306640625,0.50140380859375
1695713575787515600,6.613515625,0.42999267578125,1.355743408203125,-0.677947998046875
1695713575797067800,6.62306787109375,0.10162353515625,1.5826416015625,-1.695404052734375
1695713575806619600,6.63261962890625,0.0128173828125,1.018524169921875,-2.01446533203125
1695713575816141300,6.642141357421875,0.260162353515625,-0.383148193359375,-1.56646728515625
1695713575825693200,6.651693115234375,0.524139404296875,-1.30523681640625,-0.967864990234375
1695713575835245300,6.661245361328125,0.547943115234375,-1.28204345703125,-0.662994384765625
1695713575844797200,6.670797119140625,0.38116455078125,-0.5841064453125,-0.633392333984375
1695713575854349300,6.680349365234375,0.178375244140625,0.343475341796875,-0.599822998046875
1695713575863870700,6.68987060546875,-0.157928466796875,1.2713623046875,-0.273895263671875
1695713575873422800,6.6994228515625,-0.561676025390625,1.789703369140625,0.308380126953125
1695713575882974700,6.708974609375,-0.805511474609375,1.314239501953125,1.038055419921875
1695713575892526800,6.71852685546875,-0.59051513671875,-0.347137451171875,1.28631591796875
1695713575902078700,6.72807861328125,-0.195465087890625,-1.740570068359375,0.667266845703125
1695713575911630800,6.737630859375,-0.00946044921875,-0.95947265625,-0.245513916015625
1695713575921182700,6.7471826171875,0.261993408203125,0.244903564453125,-0.18585205078125
1695713575930734800,6.75673486328125,0.493011474609375,-0.26641845703125,1.139373779296875
1695713575940286700,6.76628662109375,0.487213134765625,-0.804595947265625,2.123260498046875
1695713575949808000,6.77580810546875,0.165863037109375,-0.66192626953125,1.97418212890625
1695713575959360300,6.7853603515625,-0.25665283203125,-0.395355224609375,1.480560302734375
1695713575968912100,6.794912109375,-0.515594482421875,-0.395660400390625,1.6033935546875
1695713575978464300,6.80446435546875,-0.432891845703125,-0.61737060546875,2.034912109375
1695713575988016000,6.81401611328125,-0.156707763671875,-0.94635009765625,2.29278564453125
1695713575997537800,6.823537841796875,0.143280029296875,-1.097259521484375,2.216339111328125
1695713576007089700,6.833089599609375,0.4339599609375,-0.760650634765625,1.894073486328125
1695713576016641800,6.842641845703125,0.586090087890625,-0.27587890625,1.61773681640625
1695713576026193700,6.852193603515625,0.563812255859375,-0.050201416015625,1.56341552734375
1695713576035745800,6.861745849609375,0.499420166015625,0.032196044921875,1.6119384765625
1695713576045267200,6.87126708984375,0.42816162109375,0.11016845703125,1.68243408203125
1695713576054819300,6.8808193359375,0.3271484375,0.05157470703125,1.809844970703125
1695713576064371200,6.89037109375,0.196075439453125,-0.101470947265625,1.976318359375
1695713576073923300,6.89992333984375,0.08087158203125,-0.23468017578125,2.094573974609375
1695713576083444700,6.90944482421875,0.01617431640625,-0.356597900390625,2.114715576171875
1695713576092996600,6.91899658203125,0.025634765625,-0.406341552734375,2.02606201171875
1695713576102548700,6.928548828125,0.09796142578125,-0.318145751953125,1.889801025390625
1695713576112100600,6.9381005859375,0.149078369140625,-0.25177001953125,1.776275634765625
1695713576121652700,6.94765283203125,0.149688720703125,-0.21087646484375,1.719970703125
1695713576131174100,6.957174072265625,0.10040283203125,-0.2142333984375,1.69677734375
1695713576140726300,6.966726318359375,0.00946044921875,-0.28045654296875,1.663818359375
1695713576150278100,6.976278076171875,-0.059661865234375,-0.400543212890625,1.6094970703125
1695713576159830300,6.985830322265625,-0.109710693359375,-0.49224853515625,1.568603515625
1695713576169382100,6.995382080078125,-0.163726806640625,-0.51910400390625,1.529388427734375
1695713576178903800,7.00490380859375,-0.214996337890625,-0.440826416015625,1.496734619140625
1695713576188455700,7.01445556640625,-0.26397705078125,-0.348663330078125,1.470184326171875
1695713576198038300,7.024038330078125,-0.3155517578125,-0.30975341796875,1.437835693359375
1695713576207590100,7.033590087890625,-0.37506103515625,-0.3021240234375,1.417694091796875
1695713576217111800,7.04311181640625,-0.423736572265625,-0.30517578125,1.422271728515625
1695713576226663700,7.05266357421875,-0.457611083984375,-0.308074951171875,1.441802978515625
1695713576236215800,7.0622158203125,-0.482330322265625,-0.29144287109375,1.441802978515625
1695713576245767700,7.071767578125,-0.485992431640625,-0.301513671875,1.414947509765625
1695713576255319800,7.08131982421875,-0.460052490234375,-0.414581298828125,1.35528564453125
1695713576264841200,7.09084130859375,-0.412445068359375,-0.6036376953125,1.2445068359375
1695713576274393000,7.10039306640625,-0.3631591796875,-0.789947509765625,1.068878173828125
1695713576283945200,7.1099453125,-0.30792236328125,-0.904541015625,0.86029052734375
1695713576293497000,7.1194970703125,-0.24566650390625,-0.8673095703125,0.668487548828125
1695713576303049200,7.12904931640625,-0.211639404296875,-0.702972412109375,0.50994873046875
1695713576312570600,7.138570556640625,-0.223388671875,-0.5615234375,0.356597900390625
1695713576322122800,7.148122802734375,-0.27069091796875,-0.506591796875,0.1904296875
1695713576331674600,7.157674560546875,-0.3118896484375,-0.50750732421875,0.027618408203125
1695713576341226800,7.167226806640625,-0.302734375,-0.51727294921875,-0.1080322265625
1695713576350778600,7.176778564453125,-0.2484130859375,-0.464630126953125,-0.20111083984375
1695713576360300300,7.18630029296875,-0.205841064453125,-0.363006591796875,-0.253143310546875
1695713576369852200,7.19585205078125,-0.204925537109375,-0.320281982421875,-0.333099365234375
1695713576379404300,7.205404296875,-0.191192626953125,-0.343170166015625,-0.50384521484375
1695713576388956200,7.2149560546875,-0.108184814453125,-0.337371826171875,-0.764617919921875
1695713576398477600,7.2244775390625,0.0091552734375,-0.22216796875,-1.087799072265625
1695713576408029700,7.23402978515625,0.1043701171875,0.04180908203125,-1.438751220703125
1695713576417581600,7.24358154296875,0.181427001953125,0.386505126953125,-1.786346435546875
1695713576427133700,7.2531337890625,0.262603759765625,0.668792724609375,-2.121734619140625
1695713576436685600,7.262685546875,0.305633544921875,0.78338623046875,-2.490692138671875
1695713576446207200,7.272207275390625,0.255889892578125,0.716094970703125,-2.95867919921875
1695713576455759000,7.281759033203125,0.187225341796875,0.44036865234375,-3.39508056640625
1695713576465311200,7.291311279296875,0.139923095703125,-0.022735595703125,-3.609466552734375
1695713576474863000,7.300863037109375,0.09124755859375,-0.417327880859375,-3.590240478515625
1695713576484415200,7.310415283203125,0.0152587890625,-0.538330078125,-3.41156005859375
1695713576493967000,7.319967041015625,-0.00579833984375,-0.48797607421875,-3.242034912109375
1695713576503519200,7.329519287109375,0.074462890625,-0.50628662109375,-3.178863525390625
1695713576513071000,7.339071044921875,0.146942138671875,-0.802459716796875,-3.157196044921875
1695713576522623200,7.348623291015625,0.127105712890625,-1.365966796875,-3.06427001953125
1695713576532144600,7.35814453125,0.03570556640625,-1.99462890625,-2.856903076171875
1695713576541696800,7.36769677734375,-0.044097900390625,-2.45513916015625,-2.537078857421875
1695713576551248600,7.37724853515625,-0.077056884765625,-2.469024658203125,-2.122039794921875
1695713576560800800,7.38680078125,0.02593994140625,-1.571044921875,-1.58782958984375
1695713576570352600,7.3963525390625,0.3387451171875,-0.047454833984375,-1.2005615234375
1695713576579874000,7.4058740234375,0.546417236328125,1.2744140625,-1.363983154296875
1695713576589426200,7.41542626953125,0.516815185546875,1.760406494140625,-1.94854736328125
1695713576598978000,7.42497802734375,0.3570556640625,1.5850830078125,-2.505645751953125
1695713576608530200,7.4345302734375,0.263214111328125,1.313934326171875,-2.753448486328125
1695713576618082000,7.44408203125,0.278472900390625,1.2158203125,-2.67578125
1695713576627603700,7.453603759765625,0.3143310546875,1.22222900390625,-2.408294677734375
1695713576637155600,7.463155517578125,0.3472900390625,1.2481689453125,-2.071075439453125
1695713576646707700,7.472707763671875,0.37261962890625,1.273193359375,-1.737823486328125
1695713576656259600,7.482259521484375,0.386962890625,1.251220703125,-1.441192626953125
1695713576665811700,7.491811767578125,0.4241943359375,1.19842529296875,-1.17523193359375
1695713576675333000,7.5013330078125,0.490570068359375,1.1334228515625,-0.943603515625
1695713576684885200,7.51088525390625,0.569305419921875,1.063385009765625,-0.736846923828125
1695713576694437000,7.52043701171875,0.629119873046875,1.029510498046875,-0.5389404296875
1695713576703989200,7.5299892578125,0.66253662109375,1.057891845703125,-0.347137451171875
1695713576713510700,7.5395107421875,0.68389892578125,1.090240478515625,-0.16265869140625
1695713576723062500,7.5490625,0.693359375,1.109771728515625,0.034637451171875
1695713576732614700,7.55861474609375,0.67352294921875,1.095123291015625,0.24383544921875
1695713576742166500,7.56816650390625,0.650787353515625,1.058502197265625,0.476226806640625
1695713576751718700,7.57771875,0.627899169921875,0.994110107421875,0.757904052734375
1695713576761240000,7.587239990234375,0.611419677734375,0.92559814453125,1.128997802734375
1695713576770822700,7.59682275390625,0.616302490234375,0.92803955078125,1.549530029296875
1695713576780374500,7.60637451171875,0.638580322265625,0.994720458984375,1.92779541015625
1695713576789926700,7.6159267578125,0.658721923828125,1.107330322265625,2.194976806640625
1695713576799478500,7.625478515625,0.649261474609375,1.27716064453125,2.221527099609375
1695713576809000200,7.635000244140625,0.634307861328125,1.405487060546875,1.839447021484375
1695713576818552000,7.644552001953125,0.617218017578125,1.2603759765625,1.086883544921875
1695713576828104200,7.654104248046875,0.482177734375,1.16424560546875,0.1654052734375
1695713576837656000,7.663656005859375,0.214080810546875,1.401214599609375,-0.84503173828125
1695713576847177700,7.673177734375,-0.00701904296875,1.60491943359375,-1.61163330078125
1695713576856729600,7.6827294921875,0.057373046875,0.983734130859375,-1.684722900390625
1695713576866281700,7.69228173828125,0.297698974609375,-0.123291015625,-1.13739013671875
1695713576875833600,7.70183349609375,0.4522705078125,-0.840911865234375,-0.588836669921875
1695713576885385700,7.7113857421875,0.40985107421875,-0.814361572265625,-0.391693115234375
1695713576894907100,7.7209072265625,0.232696533203125,-0.331878662109375,-0.47332763671875
1695713576904459000,7.730458984375,0.0408935546875,0.297088623046875,-0.5767822265625
1695713576914011100,7.74001123046875,-0.27923583984375,1.11907958984375,-0.44464111328125
1695713576923563000,7.74956298828125,-0.68572998046875,1.694793701171875,-0.0927734375
1695713576933115100,7.759115234375,-0.883636474609375,1.352691650390625,0.416107177734375
1695713576942636500,7.768636474609375,-0.65948486328125,-0.18035888671875,0.616455078125
1695713576952188700,7.778188720703125,-0.2471923828125,-1.493682861328125,0.448150634765625
1695713576961740500,7.787740478515625,0.03326416015625,-0.468902587890625,-0.14007568359375
1695713576971292700,7.797292724609375,0.34149169921875,-0.082244873046875,0.22247314453125
1695713576980814000,7.80681396484375,0.518035888671875,-0.94146728515625,1.520233154296875
1695713576990366200,7.8163662109375,0.40496826171875,-0.9912109375,2.272491455078125
1695713576999918000,7.82591796875,0.09185791015625,-0.312957763671875,1.96044921875
1695713577009470200,7.83547021484375,-0.2520751953125,0.113525390625,1.30767822265625
1695713577019022000,7.84502197265625,-0.507965087890625,-0.2349853515625,1.5673828125
1695713577028543500,7.85454345703125,-0.494537353515625,-0.9136962890625,2.29736328125
1695713577038095600,7.864095703125,-0.24322509765625,-1.5673828125,2.67059326171875
1695713577047647500,7.8736474609375,0.09796142578125,-1.749420166015625,2.525482177734375
1695713577057199600,7.88319970703125,0.47515869140625,-1.28814697265625,2.025146484375
1695713577066782200,7.8927822265625,0.70465087890625,-0.53436279296875,1.545562744140625
1695713577076303600,7.9023037109375,0.68756103515625,-0.013885498046875,1.382904052734375
1695713577085855500,7.91185546875,0.572967529296875,0.295257568359375,1.432342529296875
1695713577095407600,7.92140771484375,0.45806884765625,0.40679931640625,1.5582275390625
1695713577104959500,7.93095947265625,0.35064697265625,0.250396728515625,1.747283935546875
1695713577114481200,7.940481201171875,0.209503173828125,-0.084075927734375,1.93145751953125
1695713577124033000,7.950032958984375,0.05767822265625,-0.422515869140625,2.01568603515625
1695713577133585200,7.959585205078125,-0.03509521484375,-0.686187744140625,2.0526123046875
1695713577143137000,7.969136962890625,-0.01678466796875,-0.752105712890625,2.044677734375
1695713577152689200,7.978689208984375,0.09429931640625,-0.64117431640625,1.97418212890625
1695713577162210600,7.98821044921875,0.178070068359375,-0.52581787109375,1.842803955078125
1695713577171762700,7.9977626953125,0.193023681640625,-0.470428466796875,1.72943115234375
1695713577181314600,8.007314453125,0.156707763671875,-0.443878173828125,1.66290283203125
1695713577190866700,8.01686669921875,0.07659912109375,-0.432281494140625,1.60430908203125
1695713577200418600,8.02641845703125,-0.01739501953125,-0.453643798828125,1.552276611328125
1695713577209940000,8.03593994140625,-0.089874267578125,-0.470428466796875,1.509857177734375
1695713577219492000,8.0454921875,-0.134429931640625,-0.50201416015625,1.481475830078125
1695713577229044000,8.0550439453125,-0.159759521484375,-0.48248291015625,1.492462158203125
1695713577238596000,8.06459619140625,-0.164031982421875,-0.428924560546875,1.518096923828125
1695713577248117500,8.074117431640625,-0.184173583984375,-0.381317138671875,1.516876220703125
1695713577257669600,8.083669677734376,-0.22613525390625,-0.359954833984375,1.484832763671875
1695713577267221500,8.093221435546875,-0.28045654296875,-0.350494384765625,1.460723876953125
1695713577276773600,8.102773681640626,-0.33843994140625,-0.357513427734375,1.455535888671875
1695713577286325500,8.112325439453125,-0.3961181640625,-0.373382568359375,1.461334228515625
1695713577295847200,8.12184716796875,-0.441436767578125,-0.412445068359375,1.460418701171875
1695713577305399000,8.13139892578125,-0.468292236328125,-0.48736572265625,1.434783935546875
1695713577314951200,8.140951171875,-0.465850830078125,-0.5950927734375,1.3665771484375
1695713577324503000,8.1505029296875,-0.434722900390625,-0.709686279296875,1.24237060546875
1695713577334055200,8.16005517578125,-0.386962890625,-0.792388916015625,1.061248779296875
1695713577343607000,8.16960693359375,-0.32745361328125,-0.837249755859375,0.83984375
1695713577353159200,8.1791591796875,-0.2618408203125,-0.787506103515625,0.62255859375
1695713577362711000,8.1887109375,-0.212554931640625,-0.6195068359375,0.441436767578125
1695713577372263200,8.19826318359375,-0.204010009765625,-0.451812744140625,0.305023193359375
1695713577381815000,8.20781494140625,-0.23681640625,-0.424957275390625,0.2020263671875
1695713577391336400,8.21733642578125,-0.27496337890625,-0.51513671875,0.115203857421875
1695713577400888600,8.226888671875,-0.26641845703125,-0.5999755859375,0.027313232421875
1695713577410440400,8.2364404296875,-0.207366943359375,-0.59600830078125,-0.06195068359375
1695713577419992600,8.24599267578125,-0.152740478515625,-0.482940673828125,-0.14617919921875
1695713577429514000,8.255513916015625,-0.135955810546875,-0.370635986328125,-0.224609375
1695713577439066000,8.265066162109376,-0.133209228515625,-0.336151123046875,-0.332183837890625
1695713577448618000,8.274617919921875,-0.080108642578125,-0.352020263671875,-0.4937744140625
1695713577458170000,8.284170166015626,0.02777099609375,-0.361175537109375,-0.700531005859375
1695713577467722000,8.293721923828125,0.1153564453125,-0.2764892578125,-0.93597412109375
1695713577477243600,8.30324365234375,0.158233642578125,-0.022735595703125,-1.21307373046875
1695713577486795500,8.31279541015625,0.208587646484375,0.290069580078125,-1.53472900390625
1695713577496347600,8.32234765625,0.272979736328125,0.5224609375,-1.89056396484375
1695713577505899500,8.3318994140625,0.278167724609375,0.666961669921875,-2.2955322265625
1695713577515451600,8.34145166015625,0.209503173828125,0.649261474609375,-2.813262939453125
1695713577524973000,8.35097314453125,0.10833740234375,0.382232666015625,-3.3209228515625
1695713577534525000,8.36052490234375,0.0726318359375,-0.058746337890625,-3.567047119140625
1695713577544077000,8.3700771484375,0.08270263671875,-0.417022705078125,-3.544158935546875
1695713577553629000,8.37962890625,0.07354736328125,-0.51513671875,-3.3660888671875
1695713577563150600,8.389150634765626,0.01556396484375,-0.368804931640625,-3.206024169921875
1695713577572702500,8.398702392578125,-0.059967041015625,-0.110015869140625,-3.177642822265625
1695713577582254600,8.408254638671876,-0.114593505859375,-0.092926025390625,-3.190155029296875
1695713577591806500,8.417806396484375,-0.161285400390625,-0.535888671875,-3.125457763671875
1695713577601358600,8.427358642578126,-0.24383544921875,-1.22406005859375,-2.950439453125
1695713577610880000,8.4368798828125,-0.33447265625,-1.786041259765625,-2.68646240234375
1695713577620432100,8.44643212890625,-0.3466796875,-1.9891357421875,-2.32666015625
1695713577630014500,8.456014404296875,-0.242919921875,-1.478118896484375,-1.8499755859375
1695713577639566600,8.465566650390626,-0.00518798828125,-0.394744873046875,-1.475067138671875
1695713577649118500,8.475118408203125,0.165557861328125,0.746307373046875,-1.4990234375
1695713577658640100,8.48464013671875,0.176239013671875,1.368865966796875,-1.881103515625
1695713577668192000,8.49419189453125,0.09674072265625,1.396026611328125,-2.30865478515625
1695713577677744000,8.503744140625,0.0537109375,1.141357421875,-2.559356689453125
1695713577687296000,8.5132958984375,0.07354736328125,0.961456298828125,-2.558441162109375
1695713577696848100,8.52284814453125,0.158843994140625,0.999603271484375,-2.34405517578125
1695713577706369500,8.53236962890625,0.281219482421875,1.056365966796875,-2.038421630859375
1695713577715921400,8.54192138671875,0.377197265625,1.044464111328125,-1.729583740234375
1695713577725473500,8.5514736328125,0.4400634765625,1.021270751953125,-1.441192626953125
1695713577735025400,8.561025390625,0.506439208984375,1.013031005859375,-1.18499755859375
1695713577744547000,8.570547119140626,0.574188232421875,1.004180908203125,-0.956268310546875
1695713577754099000,8.580098876953125,0.623931884765625,1.011810302734375,-0.746002197265625
1695713577763651000,8.589651123046876,0.66070556640625,1.035003662109375,-0.5572509765625
1695713577773203000,8.599202880859375,0.68389892578125,1.074676513671875,-0.382537841796875
1695713577782755000,8.608755126953126,0.68817138671875,1.096954345703125,-0.2099609375
1695713577792276500,8.6182763671875,0.67352294921875,1.089630126953125,-0.022735595703125
1695713577801828600,8.62782861328125,0.644683837890625,1.052093505859375,0.2001953125
1695713577811380500,8.63738037109375,0.611114501953125,0.999603271484375,0.463104248046875
1695713577820932600,8.6469326171875,0.594329833984375,0.941925048828125,0.762481689453125
1695713577830484500,8.656484375,0.609588623046875,0.8697509765625,1.096343994140625
1695713577840006000,8.666005859375,0.650482177734375,0.83343505859375,1.457977294921875
1695713577849558000,8.67555810546875,0.7037353515625,0.8587646484375,1.803436279296875
1695713577859110000,8.68510986328125,0.77789306640625,0.9320068359375,2.0892333984375
1695713577868662000,8.694662109375,0.850067138671875,1.048736572265625,2.240142822265625
1695713577878183400,8.704183349609375,0.880584716796875,1.18438720703125,2.0947265625
1695713577887735600,8.713735595703126,0.861663818359375,1.138916015625,1.504974365234375
1695713577897287400,8.723287353515625,0.770263671875,0.92987060546875,0.5096435546875
1695713577906839600,8.732839599609376,0.487823486328125,0.972137451171875,-0.735931396484375
1695713577916422000,8.742421875,0.08514404296875,1.23382568359375,-1.9488525390625
1695713577925943600,8.751943603515626,-0.02716064453125,0.977630615234375,-2.409210205078125
1695713577935495400,8.761495361328125,0.270538330078125,-0.002288818359375,-2.066802978515625
1695713577945047600,8.771047607421876,0.594940185546875,-0.693817138671875,-1.442718505859375
1695713577954599400,8.780599365234375,0.612945556640625,-0.732574462890625,-0.92010498046875
1695713577964151600,8.790151611328126,0.39306640625,-0.371246337890625,-0.597686767578125
1695713577973673000,8.7996728515625,0.194854736328125,0.07110595703125,-0.4425048828125
1695713577983225000,8.80922509765625,0.023193359375,0.738067626953125,-0.253448486328125
1695713577992777000,8.81877685546875,-0.27587890625,1.708221435546875,0.12847900390625
1695713578002329000,8.8283291015625,-0.64178466796875,2.3553466796875,0.828094482421875
1695713578011850500,8.8378505859375,-0.823516845703125,1.421661376953125,1.57257080078125
1695713578021402400,8.84740234375,-0.520782470703125,-1.183319091796875,1.447296142578125
1695713578030954500,8.85695458984375,-0.193634033203125,-2.32696533203125,0.403594970703125
1695713578040506400,8.86650634765625,0.152130126953125,-0.417327880859375,-0.704498291015625
1695713578050058500,8.87605859375,0.6683349609375,-0.223388671875,-0.000152587890625
1695713578059580000,8.885579833984375,0.975189208984375,-1.25885009765625,1.59088134765625
1695713578069132000,8.895132080078126,0.819091796875,-1.32568359375,2.32666015625
1695713578078684000,8.904683837890625,0.3472900390625,-0.767669677734375,1.881256103515625
1695713578088236000,8.914236083984376,-0.157928466796875,-0.079498291015625,0.9716796875
1695713578097788000,8.923787841796875,-0.530548095703125,-0.012664794921875,0.9344482421875
1695713578107309600,8.9333095703125,-0.60699462890625,-0.460052490234375,1.63726806640625
1695713578116861400,8.942861328125,-0.37811279296875,-1.2298583984375,2.34405517578125
1695713578126413600,8.95241357421875,-0.00946044921875,-1.861724853515625,2.66510009765625
1695713578135965400,8.96196533203125,0.38787841796875,-2.04315185546875,2.525177001953125
1695713578145486800,8.97148681640625,0.70831298828125,-1.64764404296875,2.03155517578125
1695713578155039000,8.9810390625,0.76446533203125,-0.84442138671875,1.634521484375
1695713578164590800,8.9905908203125,0.645294189453125,-0.059661865234375,1.496734619140625
1695713578174143000,9.00014306640625,0.4656982421875,0.41595458984375,1.514739990234375
1695713578183694800,9.00969482421875,0.272674560546875,0.469970703125,1.610107421875
1695713578193216500,9.019216552734376,0.103759765625,0.1739501953125,1.747894287109375
1695713578202798800,9.028798828125,-0.01495361328125,-0.23406982421875,1.878509521484375
1695713578212351000,9.03835107421875,-0.088043212890625,-0.477752685546875,1.92108154296875
1695713578221902800,9.04790283203125,-0.104217529296875,-0.484771728515625,1.872711181640625
1695713578231455000,9.057455078125,-0.073394775390625,-0.326995849609375,1.787567138671875
1695713578240976400,9.066976318359375,-0.0177001953125,-0.17364501953125,1.7108154296875
1695713578250528500,9.076528564453126,0.03021240234375,-0.116119384765625,1.67724609375
1695713578260080400,9.086080322265625,0.03570556640625,-0.181884765625,1.6766357421875
1695713578269632500,9.095632568359376,-0.00579833984375,-0.342254638671875,1.6741943359375
1695713578279154000,9.10515380859375,-0.058135986328125,-0.58868408203125,1.63787841796875
1695713578288706000,9.1147060546875,-0.102996826171875,-0.741729736328125,1.58294677734375
1695713578298258000,9.1242578125,-0.115509033203125,-0.750579833984375,1.518402099609375
1695713578307810000,9.13381005859375,-0.115203857421875,-0.62225341796875,1.499176025390625
1695713578317362000,9.14336181640625,-0.131683349609375,-0.461578369140625,1.526336669921875
1695713578326883300,9.15288330078125,-0.155181884765625,-0.374298095703125,1.550140380859375
1695713578336435500,9.162435546875,-0.196380615234375,-0.387115478515625,1.541900634765625
1695713578345987300,9.1719873046875,-0.25299072265625,-0.458526611328125,1.513519287109375
1695713578355539500,9.18153955078125,-0.31341552734375,-0.54046630859375,1.483917236328125
1695713578365091300,9.19109130859375,-0.3717041015625,-0.59173583984375,1.486358642578125
1695713578374613000,9.200613037109376,-0.424957275390625,-0.60333251953125,1.519317626953125
1695713578384164900,9.210164794921875,-0.458221435546875,-0.60943603515625,1.531219482421875
1695713578393717000,9.219717041015626,-0.474090576171875,-0.63690185546875,1.479339599609375
1695713578403268900,9.229268798828125,-0.468292236328125,-0.66253662109375,1.3446044921875
1695713578412821000,9.238821044921876,-0.436859130859375,-0.678558349609375,1.135711669921875
1695713578422342400,9.24834228515625,-0.379638671875,-0.721893310546875,0.897216796875
1695713578431894500,9.25789453125,-0.30731201171875,-0.795135498046875,0.670928955078125
1695713578441446400,9.2674462890625,-0.240478515625,-0.84716796875,0.50048828125
1695713578450998500,9.27699853515625,-0.205841064453125,-0.8642578125,0.389862060546875
1695713578460520000,9.28652001953125,-0.191192626953125,-0.90301513671875,0.306549072265625
1695713578470071800,9.29607177734375,-0.190582275390625,-0.9747314453125,0.2069091796875
1695713578479624000,9.3056240234375,-0.193023681640625,-1.01776123046875,0.076141357421875
1695713578489206500,9.31520654296875,-0.200653076171875,-0.99395751953125,-0.05950927734375
1695713578498758400,9.32475830078125,-0.191192626953125,-0.916748046875,-0.18096923828125
1695713578508279800,9.33427978515625,-0.164031982421875,-0.817108154296875,-0.292510986328125
1695713578517832000,9.34383203125,-0.131072998046875,-0.716705322265625,-0.41778564453125
1695713578527383800,9.3533837890625,-0.062713623046875,-0.6512451171875,-0.616607666015625
1695713578536936000,9.36293603515625,0.07232666015625,-0.621337890625,-0.87432861328125
1695713578546487800,9.37248779296875,0.227203369140625,-0.55328369140625,-1.131591796875
1695713578556009500,9.382009521484376,0.32012939453125,-0.2752685546875,-1.374359130859375
1695713578565561300,9.391561279296875,0.355224609375,0.18524169921875,-1.6448974609375
1695713578575113500,9.401113525390626,0.3533935546875,0.613555908203125,-1.95068359375
1695713578584665300,9.410665283203125,0.3302001953125,0.8636474609375,-2.32757568359375
1695713578594187000,9.42018701171875,0.227813720703125,0.91796875,-2.860870361328125
1695713578603739000,9.42973876953125,0.0830078125,0.624847412109375,-3.38348388671875
1695713578613291000,9.439291015625,0.00274658203125,0.03997802734375,-3.636322021484375
1695713578622843000,9.4488427734375,-0.01312255859375,-0.463714599609375,-3.584747314453125
1695713578632395000,9.45839501953125,-0.02471923828125,-0.664215087890625,-3.35662841796875
1695713578641916400,9.46791650390625,-0.060577392578125,-0.59112548828125,-3.163604736328125
1695713578651468300,9.47746826171875,-0.105438232421875,-0.49102783203125,-3.08837890625
1695713578661020400,9.4870205078125,-0.115814208984375,-0.681304931640625,-3.02215576171875
1695713578670572300,9.496572265625,-0.135650634765625,-1.188201904296875,-2.903594970703125
1695713578680124400,9.50612451171875,-0.206756591796875,-1.68792724609375,-2.746429443359375
1695713578689645800,9.515645751953125,-0.28472900390625,-1.925048828125,-2.528533935546875
1695713578699198000,9.525197998046876,-0.31036376953125,-1.7022705078125,-2.2296142578125
1695713578708749800,9.534749755859375,-0.158233642578125,-0.85784912109375,-1.840362548828125
1695713578718302000,9.544302001953126,0.150909423828125,0.227508544921875,-1.6058349609375
1695713578727823400,9.5538232421875,0.256500244140625,1.14776611328125,-1.736907958984375
1695713578737375500,9.56337548828125,0.178070068359375,1.502685546875,-2.112274169921875
1695713578746927400,9.57292724609375,0.10528564453125,1.364898681640625,-2.448883056640625
1695713578756479500,9.5824794921875,0.07568359375,1.062774658203125,-2.58941650390625
1695713578766031400,9.59203125,0.1019287109375,0.887451171875,-2.494354248046875
1695713578775583500,9.60158349609375,0.204010009765625,0.84625244140625,-2.25189208984375
1695713578785135400,9.61113525390625,0.302276611328125,0.82061767578125,-1.94793701171875
1695713578794687500,9.6206875,0.369873046875,0.79559326171875,-1.6448974609375
1695713578804239400,9.6302392578125,0.42938232421875,0.82550048828125,-1.367340087890625
1695713578813791500,9.63979150390625,0.501861572265625,0.872802734375,-1.13494873046875
1695713578823313000,9.64931298828125,0.564727783203125,0.9161376953125,-0.941162109375
1695713578832864800,9.65886474609375,0.616607666015625,0.955963134765625,-0.772705078125
1695713578842417000,9.6684169921875,0.65887451171875,1.011810302734375,-0.613250732421875
1695713578851968800,9.67796875,0.68145751953125,1.068267822265625,-0.45623779296875
1695713578861521000,9.68752099609375,0.68756103515625,1.071014404296875,-0.286712646484375
1695713578871042300,9.697042236328125,0.68145751953125,1.038970947265625,-0.0799560546875
1695713578880594400,9.706594482421876,0.652618408203125,0.977020263671875,0.17852783203125
1695713578890146300,9.716146240234375,0.612030029296875,0.887451171875,0.473785400390625
1695713578899698400,9.725698486328126,0.578765869140625,0.7916259765625,0.796661376953125
1695713578909219800,9.7352197265625,0.566558837890625,0.723724365234375,1.154937744140625
1695713578918772000,9.74477197265625,0.590362548828125,0.748443603515625,1.530303955078125
1695713578928323800,9.75432373046875,0.646209716796875,0.85174560546875,1.881561279296875
1695713578937876000,9.7638759765625,0.7049560546875,1.012420654296875,2.162017822265625
1695713578947427800,9.773427734375,0.71929931640625,1.2530517578125,2.236480712890625
1695713578956949200,9.78294921875,0.66619873046875,1.444854736328125,1.91650390625
1695713578966501400,9.79250146484375,0.602874755859375,1.305999755859375,1.174163818359375
1695713578976053200,9.80205322265625,0.486907958984375,1.059112548828125,0.1385498046875
1695713578985605400,9.81160546875,0.204925537109375,1.094512939453125,-0.977325439453125
1695713578995157200,9.8211572265625,-0.080718994140625,1.17706298828125,-1.763153076171875
1695713579004679000,9.830678955078126,-0.096893310546875,0.640411376953125,-1.89422607421875
1695713579014230800,9.840230712890625,0.168914794921875,-0.2850341796875,-1.461639404296875
1695713579023783000,9.849782958984376,0.4193115234375,-0.799713134765625,-0.9307861328125
1695713579033334800,9.859334716796875,0.37994384765625,-0.799407958984375,-0.587005615234375
1695713579042856400,9.8688564453125,0.158538818359375,-0.474395751953125,-0.4180908203125
1695713579052408300,9.878408203125,-0.0347900390625,-0.033721923828125,-0.340728759765625
1695713579061991000,9.887990966796876,-0.190887451171875,0.594635009765625,-0.21820068359375
1695713579071542800,9.897542724609375,-0.429229736328125,1.403045654296875,0.090789794921875
1695713579081095000,9.907094970703126,-0.7147216796875,2.029571533203125,0.700836181640625
1695713579090616300,9.9166162109375,-0.904693603515625,1.794281005859375,1.680908203125
1695713579100168400,9.92616845703125,-0.817413330078125,0.001373291015625,2.0880126953125
1695713579109720300,9.93572021484375,-0.445098876953125,-2.217864990234375,0.98236083984375
1695713579119272400,9.9452724609375,-0.22613525390625,-1.60614013671875,-0.624847412109375
1695713579128824300,9.95482421875,0.209503173828125,0.370941162109375,-0.996856689453125
1695713579138345700,9.964345703125,0.81268310546875,-0.410308837890625,0.679168701171875
1695713579147897900,9.97389794921875,1.08612060546875,-1.66107177734375,2.4078369140625
1695713579157449700,9.98344970703125,0.83709716796875,-1.749114990234375,2.835540771484375
1695713579167001900,9.993001953125,0.330810546875,-1.127777099609375,2.129669189453125
1695713579176523300,10.002523193359375,-0.183258056640625,-0.19317626953125,1.22650146484375
1695713579186075400,10.012075439453126,-0.537872314453125,0.18096923828125,1.189117431640625
1695713579195627300,10.021627197265625,-0.6903076171875,-0.106658935546875,1.754913330078125
1695713579205179400,10.031179443359376,-0.623779296875,-0.833892822265625,2.2894287109375
1695713579214731300,10.040731201171875,-0.2972412109375,-1.491546630859375,2.4407958984375
1695713579224253000,10.0502529296875,0.174102783203125,-1.6668701171875,2.202301025390625
1695713579233804800,10.0598046875,0.531768798828125,-1.33392333984375,1.792144775390625
1695713579243357000,10.06935693359375,0.626678466796875,-0.803985595703125,1.57623291015625
1695713579252908800,10.07890869140625,0.607147216796875,-0.2618408203125,1.57440185546875
1695713579262461000,10.0884609375,0.532379150390625,0.0921630859375,1.6619873046875
1695713579271982300,10.097982421875,0.406494140625,0.093994140625,1.787872314453125
1695713579281534200,10.1075341796875,0.244598388671875,-0.196533203125,1.912841796875
1695713579291086300,10.11708642578125,0.0958251953125,-0.5645751953125,1.9598388671875
1695713579300638200,10.12663818359375,0.02105712890625,-0.840301513671875,1.9427490234375
1695713579310160000,10.136159912109376,0.0341796875,-0.89019775390625,1.894378662109375
1695713579319711700,10.145711669921875,0.07598876953125,-0.720672607421875,1.809234619140625
1695713579329263900,10.155263916015626,0.0848388671875,-0.5279541015625,1.7279052734375
1695713579338815700,10.164815673828125,0.0714111328125,-0.445709228515625,1.69342041015625
1695713579348398300,10.1743984375,0.01190185546875,-0.5072021484375,1.66900634765625
1695713579357919700,10.183919677734375,-0.084991455078125,-0.6573486328125,1.60552978515625
1695713579367471900,10.193471923828126,-0.174102783203125,-0.804290771484375,1.513519287109375
1695713579377023700,10.203023681640625,-0.210723876953125,-0.8721923828125,1.452178955078125
1695713579386576000,10.212575927734376,-0.220794677734375,-0.834808349609375,1.454620361328125
1695713579396127700,10.222127685546875,-0.214385986328125,-0.732574462890625,1.491851806640625
1695713579405649400,10.2316494140625,-0.212554931640625,-0.62469482421875,1.513214111328125
1695713579415201300,10.241201171875,-0.230712890625,-0.58441162109375,1.506195068359375
1695713579424753400,10.25075341796875,-0.267333984375,-0.62286376953125,1.499786376953125
1695713579434305300,10.26030517578125,-0.3106689453125,-0.63262939453125,1.509857177734375
1695713579443857400,10.269857421875,-0.3570556640625,-0.62164306640625,1.512603759765625
1695713579453378800,10.27937890625,-0.39703369140625,-0.63934326171875,1.485443115234375
1695713579462930700,10.2889306640625,-0.427398681640625,-0.687713623046875,1.427764892578125
1695713579472482800,10.29848291015625,-0.427398681640625,-0.738983154296875,1.33392333984375
1695713579482034700,10.30803466796875,-0.39764404296875,-0.768280029296875,1.19354248046875
1695713579491556400,10.317556396484376,-0.3668212890625,-0.781097412109375,0.99761962890625
1695713579501108200,10.327108154296875,-0.33477783203125,-0.843048095703125,0.771026611328125
1695713579510660400,10.336660400390626,-0.28656005859375,-0.93902587890625,0.5596923828125
1695713579520212200,10.346212158203125,-0.26031494140625,-0.8905029296875,0.405731201171875
1695713579529764400,10.355764404296876,-0.28350830078125,-0.698699951171875,0.28717041015625
1695713579539285800,10.36528564453125,-0.33905029296875,-0.579833984375,0.17059326171875
1695713579548838000,10.374837890625,-0.39276123046875,-0.61431884765625,0.051422119140625
1695713579558389800,10.3843896484375,-0.404510498046875,-0.714263916015625,-0.05584716796875
1695713579567942000,10.39394189453125,-0.36376953125,-0.793914794921875,-0.1544189453125
1695713579577493800,10.40349365234375,-0.296630859375,-0.807037353515625,-0.253143310546875
1695713579587015200,10.41301513671875,-0.23681640625,-0.720977783203125,-0.351104736328125
1695713579596567300,10.4225673828125,-0.194549560546875,-0.5889892578125,-0.430908203125
1695713579606119200,10.432119140625,-0.140838623046875,-0.49652099609375,-0.56732177734375
1695713579615671300,10.44167138671875,-0.059356689453125,-0.450592041015625,-0.791015625
1695713579625192700,10.451192626953125,0.01678466796875,-0.348968505859375,-1.067657470703125
1695713579634775300,10.460775390625,0.0689697265625,-0.14556884765625,-1.364898681640625
1695713579644327200,10.4703271484375,0.131988525390625,0.13946533203125,-1.677398681640625
1695713579653879300,10.47987939453125,0.205535888671875,0.46600341796875,-2.01629638671875
1695713579663431200,10.48943115234375,0.284576416015625,0.729522705078125,-2.37060546875
1695713579672952800,10.498952880859376,0.3375244140625,0.79986572265625,-2.775115966796875
1695713579682504700,10.508504638671875,0.269012451171875,0.608978271484375,-3.208160400390625
1695713579692056800,10.518056884765626,0.165863037109375,0.225372314453125,-3.515167236328125
1695713579701608700,10.527608642578125,0.10772705078125,-0.21209716796875,-3.571319580078125
1695713579711160800,10.537160888671876,0.04974365234375,-0.476531982421875,-3.404541015625
1695713579720682200,10.54668212890625,-0.03173828125,-0.50140380859375,-3.173065185546875
1695713579730234400,10.556234375,-0.068817138671875,-0.406951904296875,-3.018798828125
1695713579739786200,10.5657861328125,-0.03173828125,-0.473480224609375,-2.9400634765625
1695713579749338400,10.57533837890625,-0.0128173828125,-0.90545654296875,-2.869110107421875
1695713579758890200,10.58489013671875,-0.070648193359375,-1.503143310546875,-2.72857666015625
1695713579768411600,10.59441162109375,-0.142974853515625,-1.829376220703125,-2.450714111328125
1695713579777963800,10.6039638671875,-0.139007568359375,-1.523895263671875,-2.015380859375
1695713579787515600,10.613515625,0.06195068359375,-0.52947998046875,-1.55792236328125
1695713579797067800,10.62306787109375,0.3875732421875,0.594329833984375,-1.390533447265625
1695713579806589200,10.632589111328125,0.481109619140625,1.6070556640625,-1.64642333984375
1695713579816141300,10.642141357421876,0.39093017578125,2.024078369140625,-2.121429443359375
1695713579825693200,10.651693115234375,0.279998779296875,2.012786865234375,-2.498321533203125
1695713579835245300,10.661245361328126,0.232696533203125,1.808929443359375,-2.64617919921875
1695713579844797200,10.670797119140625,0.277557373046875,1.632080078125,-2.546844482421875
1695713579854318800,10.68031884765625,0.37139892578125,1.53472900390625,-2.28302001953125
1695713579863870700,10.68987060546875,0.4693603515625,1.50360107421875,-1.9622802734375
1695713579873422800,10.6994228515625,0.544586181640625,1.4990234375,-1.680755615234375
1695713579882974700,10.708974609375,0.601348876953125,1.510009765625,-1.480255126953125
1695713579892526800,10.71852685546875,0.642242431640625,1.57623291015625,-1.336822509765625
1695713579902048300,10.72804833984375,0.6817626953125,1.695709228515625,-1.19598388671875
1695713579911600000,10.73760009765625,0.70892333984375,1.800994873046875,-1.052703857421875
1695713579921182700,10.7471826171875,0.711669921875,1.8536376953125,-0.908203125
1695713579930734800,10.75673486328125,0.69366455078125,1.84539794921875,-0.744476318359375
1695713579940256300,10.76625634765625,0.66253662109375,1.764678955078125,-0.56365966796875
1695713579949808000,10.77580810546875,0.624542236328125,1.6015625,-0.358428955078125
1695713579959360300,10.7853603515625,0.583343505859375,1.342315673828125,-0.1116943359375
1695713579968912100,10.794912109375,0.542144775390625,1.037445068359375,0.1678466796875
1695713579978464300,10.80446435546875,0.522918701171875,0.75286865234375,0.459747314453125
1695713579987985700,10.813985595703125,0.533905029296875,0.5462646484375,0.763092041015625
1695713579997537800,10.823537841796876,0.569305419921875,0.43212890625,1.063385009765625
1695713580007089700,10.833089599609375,0.608062744140625,0.375823974609375,1.31317138671875
1695713580016641800,10.842641845703126,0.644989013671875,0.352020263671875,1.460113525390625
1695713580026193700,10.852193603515625,0.673828125,0.368499755859375,1.460723876953125
1695713580035715300,10.86171533203125,0.6646728515625,0.4461669921875,1.275634765625
1695713580045267200,10.87126708984375,0.597381591796875,0.588226318359375,0.95458984375
1695713580054819300,10.8808193359375,0.517425537109375,0.8447265625,0.5657958984375
1695713580064371200,10.89037109375,0.45074462890625,1.25762939453125,0.084075927734375
1695713580073892600,10.899892578125,0.41534423828125,1.670074462890625,-0.4547119140625
1695713580083444700,10.90944482421875,0.40557861328125,1.772918701171875,-0.90850830078125
1695713580092996600,10.91899658203125,0.46722412109375,1.345977783203125,-1.1297607421875
1695713580102548700,10.928548828125,0.579071044921875,0.55023193359375,-1.044769287109375
1695713580112100600,10.9381005859375,0.655059814453125,-0.16632080078125,-0.757904052734375
1695713580121622300,10.947622314453126,0.639190673828125,-0.465240478515625,-0.42144775390625
1695713580131174100,10.957174072265625,0.531768798828125,-0.353240966796875,-0.12603759765625
1695713580140726300,10.966726318359376,0.40130615234375,-0.021820068359375,0.099639892578125
1695713580150278100,10.976278076171875,0.32470703125,0.391082763671875,0.2532958984375
1695713580159830300,10.985830322265626,0.249786376953125,0.83892822265625,0.407867431640625
1695713580169351700,10.9953515625,0.0592041015625,1.18896484375,0.691070556640625
1695713580178903800,11.00490380859375,-0.207061767578125,1.23443603515625,1.25244140625
1695713580188455700,11.01445556640625,-0.437164306640625,0.43304443359375,1.99737548828125
1695713580198007800,11.0240078125,-0.500030517578125,-1.71478271484375,2.135467529296875
1695713580207559700,11.0335595703125,-0.401763916015625,-3.242950439453125,1.007080078125
1695713580217111800,11.04311181640625,-0.081939697265625,-1.764068603515625,-0.843505859375
1695713580226663700,11.05266357421875,0.37017822265625,0.370025634765625,-1.048736572265625
1695713580236215800,11.0622158203125,0.6744384765625,0.283355712890625,0.60150146484375
1695713580245767700,11.071767578125,0.6689453125,-0.5560302734375,2.121734619140625
1695713580255289000,11.0812890625,0.30548095703125,-0.770416259765625,2.579803466796875
1695713580264841200,11.09084130859375,-0.060577392578125,-0.441131591796875,1.847686767578125
1695713580274393000,11.10039306640625,-0.38909912109375,-0.020599365234375,0.87005615234375
1695713580283945200,11.1099453125,-0.7147216796875,-0.4925537109375,1.097564697265625
1695713580293497000,11.1194970703125,-0.903778076171875,-1.2420654296875,2.0208740234375
1695713580303018800,11.129018798828126,-0.824127197265625,-2.02728271484375,2.7838134765625
1695713580312570600,11.138570556640625,-0.39398193359375,-2.505035400390625,2.972869873046875
1695713580322122800,11.148122802734376,0.243072509765625,-2.332763671875,2.4493408203125
1695713580331674600,11.157674560546875,0.67718505859375,-1.37481689453125,1.63726806640625
1695713580341196300,11.1671962890625,0.74676513671875,-0.342864990234375,1.30706787109375
1695713580350748200,11.176748046875,0.6793212890625,0.257415771484375,1.334228515625
1695713580360300300,11.18630029296875,0.553131103515625,0.5596923828125,1.434478759765625
1695713580369852200,11.19585205078125,0.364990234375,0.5206298828125,1.532745361328125
1695713580379404300,11.205404296875,0.172271728515625,0.0634765625,1.641845703125
1695713580388925700,11.21492578125,0.045166015625,-0.526123046875,1.765594482421875
1695713580398477600,11.2244775390625,0.00457763671875,-0.89080810546875,1.872100830078125
1695713580408029700,11.23402978515625,0.04547119140625,-1.00128173828125,1.93084716796875
1695713580417581600,11.24358154296875,0.154876708984375,-0.9564208984375,1.94732666015625
1695713580427133700,11.2531337890625,0.249481201171875,-0.89385986328125,1.917266845703125
1695713580436655000,11.262655029296875,0.268402099609375,-0.85662841796875,1.842193603515625
1695713580446207200,11.272207275390626,0.202789306640625,-0.792083740234375,1.71844482421875
1695713580455759000,11.281759033203125,0.081787109375,-0.765228271484375,1.5692138671875
1695713580465311200,11.291311279296876,-0.0201416015625,-0.719451904296875,1.460113525390625
1695713580474832600,11.30083251953125,-0.098419189453125,-0.65887451171875,1.409149169921875
1695713580484384800,11.310384765625,-0.138397216796875,-0.59722900390625,1.396942138671875
1695713580493967000,11.319967041015625,-0.157623291015625,-0.5328369140625,1.418914794921875
1695713580503519200,11.329519287109376,-0.197601318359375,-0.455169677734375,1.426849365234375
1695713580513071000,11.339071044921875,-0.255126953125,-0.403900146484375,1.424407958984375
1695713580522592800,11.3485927734375,-0.30487060546875,-0.408477783203125,1.455230712890625
1695713580532144600,11.35814453125,-0.35186767578125,-0.417327880859375,1.519012451171875
1695713580541696800,11.36769677734375,-0.39093017578125,-0.408477783203125,1.5618896484375
1695713580551248600,11.37724853515625,-0.410003662109375,-0.420074462890625,1.548614501953125
1695713580560800800,11.38680078125,-0.403900146484375,-0.443878173828125,1.463165283203125
1695713580570322200,11.396322265625,-0.38116455078125,-0.437774658203125,1.28875732421875
1695713580579874000,11.4058740234375,-0.3704833984375,-0.432891845703125,1.037139892578125
1695713580589426200,11.41542626953125,-0.398712158203125,-0.5133056640625,0.784149169921875
1695713580598978000,11.42497802734375,-0.439605712890625,-0.696258544921875,0.58563232421875
1695713580608499700,11.434499755859376,-0.442352294921875,-0.8660888671875,0.435333251953125
1695713580618051600,11.444051513671875,-0.411834716796875,-0.91339111328125,0.315093994140625
1695713580627603700,11.453603759765626,-0.37078857421875,-0.842742919921875,0.2276611328125
1695713580637155600,11.463155517578125,-0.33660888671875,-0.745391845703125,0.17669677734375
1695713580646707700,11.472707763671876,-0.30975341796875,-0.731658935546875,0.1348876953125
1695713580656229000,11.48222900390625,-0.281982421875,-0.814361572265625,0.085601806640625
1695713580665781200,11.49178125,-0.2532958984375,-0.8746337890625,0.027923583984375
1695713580675333000,11.5013330078125,-0.2325439453125,-0.85540771484375,-0.033416748046875
1695713580684885200,11.51088525390625,-0.224151611328125,-0.792694091796875,-0.107421875
1695713580694437000,11.52043701171875,-0.23468017578125,-0.688323974609375,-0.21942138671875
1695713580703958500,11.52995849609375,-0.2520751953125,-0.48431396484375,-0.377655029296875
1695713580713510700,11.5395107421875,-0.222625732421875,-0.2618408203125,-0.583038330078125
1695713580723062500,11.5490625,-0.133209228515625,-0.123138427734375,-0.82916259765625
1695713580732614700,11.55861474609375,-0.02716064453125,-0.010528564453125,-1.097259521484375
1695713580742166500,11.56816650390625,0.08331298828125,0.1885986328125,-1.384124755859375
1695713580751688200,11.577688232421876,0.209503173828125,0.4937744140625,-1.682586669921875
1695713580761240000,11.587239990234375,0.3411865234375,0.7757568359375,-1.9775390625
1695713580770792200,11.596792236328126,0.4449462890625,0.93292236328125,-2.2906494140625
1695713580780374500,11.60637451171875,0.44403076171875,0.91461181640625,-2.6959228515625
1695713580789896200,11.615896240234376,0.357666015625,0.656280517578125,-3.145599365234375
1695713580799448000,11.625447998046875,0.274505615234375,0.19744873046875,-3.40667724609375
1695713580809000200,11.635000244140626,0.220794677734375,-0.28076171875,-3.40087890625
1695713580818552000,11.644552001953125,0.150909423828125,-0.4931640625,-3.260955810546875
1695713580828104200,11.654104248046876,0.04638671875,-0.391998291015625,-3.161468505859375
1695713580837625600,11.66362548828125,-0.01617431640625,-0.2008056640625,-3.134307861328125
1695713580847177700,11.673177734375,0.00946044921875,-0.2423095703125,-3.107147216796875
1695713580856729600,11.6827294921875,0.01983642578125,-0.689849853515625,-3.02642822265625
1695713580866281700,11.69228173828125,-0.059356689453125,-1.180877685546875,-2.842559814453125
1695713580875833600,11.70183349609375,-0.159149169921875,-1.28662109375,-2.533721923828125
1695713580885355000,11.71135498046875,-0.175628662109375,-0.96527099609375,-2.21710205078125
1695713580894907100,11.7209072265625,-0.091094970703125,-0.389556884765625,-1.97723388671875
1695713580904459000,11.730458984375,0.072021484375,0.333709716796875,-1.8414306640625
1695713580914011100,11.74001123046875,0.11016845703125,1.091461181640625,-1.93939208984375
1695713580923532500,11.749532470703125,0.052490234375,1.5185546875,-2.189483642578125
1695713580933084700,11.759084716796876,-0.02593994140625,1.61529541015625,-2.404327392578125
1695713580942636500,11.768636474609375,-0.051422119140625,1.398773193359375,-2.517547607421875
1695713580952188700,11.778188720703126,-0.010986328125,1.077423095703125,-2.495269775390625
1695713580961740500,11.787740478515625,0.108642578125,0.943145751953125,-2.31170654296875
1695713580971262200,11.79726220703125,0.274505615234375,0.91888427734375,-2.047882080078125
1695713580980814000,11.80681396484375,0.4229736328125,0.91705322265625,-1.776580810546875
1695713580990366200,11.8163662109375,0.543975830078125,0.91644287109375,-1.51885986328125
1695713580999918000,11.82591796875,0.629119873046875,0.91644287109375,-1.27960205078125
1695713581009470200,11.83547021484375,0.675048828125,0.924072265625,-1.059112548828125
1695713581018991600,11.84499169921875,0.69305419921875,0.9375,-0.8526611328125
1695713581028543500,11.85454345703125,0.69976806640625,0.958404541015625,-0.657501220703125
1695713581038095600,11.864095703125,0.68603515625,0.976409912109375,-0.47454833984375
1695713581047647500,11.8736474609375,0.652923583984375,0.983428955078125,-0.294036865234375
1695713581057199600,11.88319970703125,0.601654052734375,0.972442626953125,-0.09765625
1695713581066751500,11.89275146484375,0.538787841796875,0.927734375,0.13946533203125
1695713581076303600,11.9023037109375,0.483856201171875,0.84442138671875,0.423431396484375
1695713581085855500,11.91185546875,0.4388427734375,0.723419189453125,0.737457275390625
1695713581095407600,11.92140771484375,0.41534423828125,0.622711181640625,1.067047119140625
1695713581104929000,11.930928955078125,0.4290771484375,0.595245361328125,1.394500732421875
1695713581114481200,11.940481201171876,0.46966552734375,0.649261474609375,1.6986083984375
1695713581124033000,11.950032958984375,0.533294677734375,0.7720947265625,1.9683837890625
1695713581133585200,11.959585205078126,0.611419677734375,0.967864990234375,2.144927978515625
1695713581143137000,11.969136962890625,0.67657470703125,1.19842529296875,2.06756591796875
1695713581152658700,11.97865869140625,0.721435546875,1.2884521484375,1.56707763671875
1695713581162210600,11.98821044921875,0.6732177734375,1.12945556640625,0.645751953125
1695713581171762700,11.9977626953125,0.4522705078125,1.1871337890625,-0.47698974609375
1695713581181314600,12.007314453125,0.144500732421875,1.378326416015625,-1.422576904296875
1695713581190866700,12.01686669921875,0.006103515625,1.217041015625,-1.939697265625
1695713581200388000,12.02638818359375,0.162200927734375,0.264434814453125,-1.84844970703125
1695713581209940000,12.03593994140625,0.452880859375,-0.685577392578125,-1.460113525390625
1695713581219492000,12.0454921875,0.638580322265625,-0.94146728515625,-1.12518310546875
1695713581229044000,12.0550439453125,0.507659912109375,-0.57861328125,-0.89447021484375
1695713581238565600,12.064565673828126,0.265655517578125,-0.080718994140625,-0.720367431640625
1695713581248117500,12.074117431640625,0.10650634765625,0.50323486328125,-0.50079345703125
1695713581257669600,12.083669677734376,-0.144195556640625,1.434478759765625,-0.16632080078125
1695713581267221500,12.093221435546875,-0.550384521484375,2.3382568359375,0.2105712890625
1695713581276773600,12.102773681640626,-0.856475830078125,2.422027587890625,0.755767822265625
1695713581286295000,12.112294921875,-0.72418212890625,0.703582763671875,1.27716064453125
1695713581295847200,12.12184716796875,-0.183563232421875,-2.180633544921875,1.33453369140625
1695713581305399000,12.13139892578125,0.1055908203125,-2.6788330078125,0.695953369140625
1695713581314951200,12.140951171875,0.181121826171875,-1.258544921875,-0.07232666015625
1695713581324503000,12.1505029296875,0.4095458984375,-1.2896728515625,0.6146240234375
1695713581334024400,12.1600244140625,0.538787841796875,-1.526031494140625,1.63482666015625
1695713581343576600,12.16957666015625,0.35308837890625,-1.032867431640625,1.9342041015625
1695713581353159200,12.1791591796875,-0.0244140625,-0.085601806640625,1.58966064453125
1695713581362711000,12.1887109375,-0.26214599609375,0.274505615234375,1.632080078125
1695713581372232400,12.198232421875,-0.277099609375,-0.198974609375,2.137908935546875
1695713581381784600,12.20778466796875,-0.117950439453125,-0.98114013671875,2.520599365234375
1695713581391336400,12.21733642578125,0.0396728515625,-1.6192626953125,2.595977783203125
1695713581400888600,12.226888671875,0.1019287109375,-1.867218017578125,2.364501953125
1695713581410440400,12.2364404296875,0.148468017578125,-1.72821044921875,1.899871826171875
1695713581419962000,12.245962158203126,0.1177978515625,-1.2139892578125,1.536407470703125
1695713581429514000,12.255513916015625,0.03570556640625,-0.60546875,1.408538818359375
1695713581439066000,12.265066162109376,-0.00885009765625,-0.13702392578125,1.452484130859375
1695713581448618000,12.274617919921875,-0.02105712890625,0.103759765625,1.6143798828125
1695713581458170000,12.284170166015626,-0.01068115234375,0.1025390625,1.848297119140625
1695713581467691500,12.29369140625,0.00579833984375,-0.053863525390625,2.061767578125
1695713581477243600,12.30324365234375,0.0335693359375,-0.341339111328125,2.116241455078125
1695713581486795500,12.31279541015625,0.0726318359375,-0.60943603515625,2.0501708984375
1695713581496347600,12.32234765625,0.12664794921875,-0.685882568359375,1.93023681640625
1695713581505869000,12.331869140625,0.162506103515625,-0.57861328125,1.809234619140625
1695713581515421000,12.3414208984375,0.146026611328125,-0.410614013671875,1.72119140625
1695713581524973000,12.35097314453125,0.07965087890625,-0.343475341796875,1.6790771484375
1695713581534525000,12.36052490234375,-0.02716064453125,-0.365753173828125,1.66595458984375
1695713581544077000,12.3700771484375,-0.132904052734375,-0.5072021484375,1.6455078125
1695713581553598500,12.379598388671875,-0.214691162109375,-0.667572021484375,1.5997314453125
1695713581563150600,12.389150634765626,-0.25726318359375,-0.745697021484375,1.511688232421875
1695713581572702500,12.398702392578125,-0.2734375,-0.692291259765625,1.409149169921875
1695713581582254600,12.408254638671876,-0.2642822265625,-0.5572509765625,1.346435546875
1695713581591806500,12.417806396484375,-0.26336669921875,-0.419158935546875,1.33819580078125
1695713581601328000,12.427328125,-0.284423828125,-0.318756103515625,1.33941650390625
1695713581610880000,12.4368798828125,-0.3240966796875,-0.27191162109375,1.3311767578125
1695713581620432100,12.44643212890625,-0.36285400390625,-0.2630615234375,1.33087158203125
1695713581629984000,12.45598388671875,-0.390625,-0.311126708984375,1.348876953125
1695713581639536000,12.4655361328125,-0.400390625,-0.402679443359375,1.35528564453125
1695713581649088000,12.475087890625,-0.405731201171875,-0.501708984375,1.32476806640625
1695713581658640100,12.48464013671875,-0.415191650390625,-0.56396484375,1.23870849609375
1695713581668192000,12.49419189453125,-0.421600341796875,-0.567626953125,1.083221435546875
1695713581677713400,12.50371337890625,-0.423126220703125,-0.54412841796875,0.88409423828125
1695713581687265500,12.513265625,-0.417633056640625,-0.5780029296875,0.696258544921875
1695713581696817400,12.5228173828125,-0.399627685546875,-0.673370361328125,0.5462646484375
1695713581706369500,12.53236962890625,-0.36407470703125,-0.767669677734375,0.416107177734375
1695713581715921400,12.54192138671875,-0.33447265625,-0.759429931640625,0.302886962890625
1695713581725473500,12.5514736328125,-0.32379150390625,-0.666046142578125,0.19256591796875
1695713581734995000,12.560994873046875,-0.3314208984375,-0.56884765625,0.075531005859375
1695713581744547000,12.570547119140626,-0.33294677734375,-0.5072021484375,-0.05340576171875
1695713581754099000,12.580098876953125,-0.30853271484375,-0.49530029296875,-0.203857421875
1695713581763651000,12.589651123046876,-0.24627685546875,-0.48614501953125,-0.387420654296875
1695713581773172500,12.59917236328125,-0.123748779296875,-0.385284423828125,-0.577392578125
1695713581782724600,12.608724609375,0.074462890625,-0.18157958984375,-0.735321044921875
1695713581792276500,12.6182763671875,0.275115966796875,0.050048828125,-0.85174560546875
1695713581801828600,12.62782861328125,0.3302001953125,0.234832763671875,-0.991973876953125
1695713581811380500,12.63738037109375,0.3131103515625,0.384063720703125,-1.2493896484375
1695713581820902000,12.64690185546875,0.3277587890625,0.491943359375,-1.6143798828125
1695713581830454000,12.6564541015625,0.33294677734375,0.608367919921875,-2.01873779296875
1695713581840006000,12.666005859375,0.244598388671875,0.7647705078125,-2.476654052734375
1695713581849558000,12.67555810546875,0.0714111328125,0.756683349609375,-3.01422119140625
1695713581859110000,12.68510986328125,-0.03875732421875,0.53253173828125,-3.4332275390625
1695713581868631600,12.694631591796876,-0.008544921875,0.259246826171875,-3.572235107421875
1695713581878183400,12.704183349609375,0.084228515625,-0.082244873046875,-3.44757080078125
1695713581887735600,12.713735595703126,0.183563232421875,-0.414886474609375,-3.147735595703125
1695713581897287400,12.723287353515625,0.214385986328125,-0.6463623046875,-2.854461669921875
1695713581906839600,12.732839599609376,0.167083740234375,-0.821075439453125,-2.7178955078125
1695713581916361000,12.74236083984375,0.0860595703125,-1.095733642578125,-2.71881103515625
1695713581925943600,12.751943603515626,-0.0042724609375,-1.404571533203125,-2.71087646484375
1695713581935495400,12.761495361328125,-0.059967041015625,-1.556243896484375,-2.60101318359375
1695713581945047600,12.771047607421876,-0.103912353515625,-1.397247314453125,-2.3443603515625
1695713581954569000,12.78056884765625,-0.113067626953125,-0.710296630859375,-1.97509765625
1695713581964121000,12.79012109375,0.003662109375,0.1763916015625,-1.725921630859375
1695713581973673000,12.7996728515625,0.09979248046875,1.017913818359375,-1.806182861328125
1695713581983225000,12.80922509765625,0.08270263671875,1.425933837890625,-2.183074951171875
1695713581992777000,12.81877685546875,0.00885009765625,1.438140869140625,-2.527008056640625
1695713582002298400,12.82829833984375,-0.03814697265625,1.2725830078125,-2.68341064453125
1695713582011850500,12.8378505859375,-0.0042724609375,1.097259521484375,-2.6226806640625
1695713582021402400,12.84740234375,0.12115478515625,1.010589599609375,-2.389678955078125
1695713582030954500,12.85695458984375,0.272369384765625,1.007537841796875,-2.048797607421875
1695713582040476000,12.866475830078125,0.41259765625,1.045074462890625,-1.698150634765625
1695713582050028000,12.876028076171876,0.532989501953125,1.065826416015625,-1.376190185546875
1695713582059580000,12.885579833984375,0.615692138671875,1.054229736328125,-1.080780029296875
1695713582069132000,12.895132080078126,0.6707763671875,1.006622314453125,-0.80474853515625
1695713582078684000,12.904683837890625,0.71197509765625,0.952301025390625,-0.52825927734375
1695713582088205600,12.91420556640625,0.7330322265625,0.92132568359375,-0.251922607421875
1695713582097757400,12.92375732421875,0.72357177734375,0.89019775390625,0.010223388671875
1695713582107309600,12.9333095703125,0.6732177734375,0.814208984375,0.24139404296875
1695713582116861400,12.942861328125,0.590362548828125,0.734100341796875,0.440216064453125
1695713582126413600,12.95241357421875,0.497283935546875,0.652618408203125,0.64300537109375
1695713582135935000,12.96193505859375,0.43975830078125,0.591888427734375,0.8746337890625
