time,seconds_elapsed,z,y,x
1696083172825551400,0.32255126953125,0.07696902006864548,-0.7867944240570068,-0.07269296050071716
1696083172835551500,0.332551513671875,0.060475658625364304,-1.1001683473587036,-0.07635815441608429
1696083172845551400,0.34255126953125,-0.006108652334660292,-1.3799445629119873,-0.10934487730264664
1696083172855551500,0.352551513671875,-0.09224065393209457,-1.6957619190216064,-0.08491026610136032
1696083172865552000,0.3625517578125,-0.1618792861700058,-1.945605754852295,-0.04642575979232788
1696083172875551700,0.3725517578125,-0.18020524084568024,-2.378098487854004,-0.02382374368607998
1696083172885551900,0.3825517578125,-0.182648703455925,-3.1777210235595703,-0.028099801391363144
1696083172895551700,0.3925517578125,-0.045204028487205505,-3.914424419403076,-0.004886921960860491
1696083172905552000,0.4025517578125,0.08185594528913498,-4.371962547302246,-0.07452555745840073
1696083172915551700,0.4125517578125,0.16310101747512817,-4.965723514556885,-0.1319468915462494
1696083172925551900,0.4225517578125,0.2577851414680481,-5.723196506500244,-0.16493362188339233
1696083172935551700,0.4325517578125,0.3952298164367676,-6.269309997558594,-0.25961771607398987
1696083172945552000,0.4425517578125,0.5009095072746277,-6.633996486663818,-0.3927863538265228
1696083172955551700,0.4525517578125,0.5180137157440186,-7.081150054931641,-0.48869219422340393
1696083172965551900,0.4625517578125,0.4147774875164032,-7.528913974761963,-0.5595525503158569
1696083172975551700,0.4725517578125,0.22602014243602753,-7.875274658203125,-0.6395758986473083
1696083172985552000,0.4825517578125,0.06291911751031876,-7.963850021362305,-0.8252789378166199
1696083172995551700,0.4925517578125,0,-8.046317100524902,-1.0806206464767456
1696083173005551900,0.5025517578125,0.033597588539123535,-8.218581199645996,-1.3475687503814697
1696083173015551700,0.5125517578125,0.1814269721508026,-8.279056549072266,-1.5809192657470703
1696083173025552000,0.5225517578125,0.27977627515792847,-7.272350788116455,-1.480737328529358
1696083173035551700,0.5325517578125,0.44104471802711487,-5.111720561981201,-1.2950342893600464
1696083173045551900,0.5425517578125,0.34636059403419495,-2.961474657058716,-0.7721336483955383
1696083173055551700,0.5525517578125,0.45142942667007446,-2.383596181869507,-0.6322455406188965
1696083173065552000,0.5625517578125,0.7476990818977356,-2.8368582725524902,-0.9388998746871948
1696083173075552300,0.57255224609375,1.0586295127868652,-2.9290988445281982,-1.2864822149276733
1696083173085552000,0.58255224609375,1.3261884450912476,-2.143526077270508,-1.4776830673217773
1696083173095552300,0.59255224609375,1.740355134010315,-0.9529497623443604,-1.7592918872833252
1696083173105552100,0.60255224609375,2.22477126121521,-0.37690386176109314,-2.317622661590576
1696083173115552300,0.61255224609375,2.4941627979278564,-0.475253164768219,-3.0659327507019043
1696083173125551900,0.6225517578125,2.5448646545410156,-0.5149593949317932,-3.631593942642212
1696083173135551700,0.6325517578125,2.4868323802948,-0.24862214922904968,-3.832568645477295
1696083173145552000,0.6425517578125,2.3298399448394775,0.30054569244384766,-3.615100622177124
1696083173155551700,0.6525517578125,2.0952677726745605,1.0305296182632446,-3.0689868927001953
1696083173165551900,0.6625517578125,1.9321668148040771,1.711033582687378,-2.4214699268341064
1696083173175551700,0.6725517578125,1.9168951511383057,2.093435287475586,-1.9052886962890625
1696083173185552000,0.6825517578125,2.1563544273376465,2.03540301322937,-1.6016886234283447
1696083173195551700,0.6925517578125,2.7116308212280273,1.616349458694458,-1.4715744256973267
1696083173205551900,0.7025517578125,3.324939489364624,1.0775662660598755,-1.3640620708465576
1696083173215551700,0.7125517578125,3.7891972064971924,0.42638394236564636,-1.1178834438323975
1696083173225552000,0.7225517578125,4.144109725952148,-0.15454891324043274,-0.8955284357070923
1696083173235551700,0.7325517578125,4.393342971801758,-0.4807509481906891,-0.8411614298820496
1696083173245551900,0.7425517578125,4.572326183319092,-0.48808133602142334,-0.9731083512306213
1696083173255551700,0.7525517578125,4.641964912414551,-0.5180137157440186,-1.1954632997512817
1696083173265552000,0.7625517578125,4.57293701171875,-0.7874053120613098,-1.368949055671692
1696083173275551700,0.7725517578125,4.352415084838867,-1.2498302459716797,-1.4410310983657837
1696083173285551900,0.7825517578125,3.944356918334961,-1.6982053518295288,-1.4257594347000122
1696083173295551700,0.7925517578125,3.670689344406128,-1.8319848775863647,-1.4031574726104736
1696083173305552000,0.8025517578125,3.0830368995666504,-2.0445659160614014,-1.4245377779006958
1696083173315551700,0.8125517578125,2.5448646545410156,-2.2773056030273438,-1.5210545063018799
1696083173325551900,0.8225517578125,2.0616703033447266,-2.5534167289733887,-1.6194037199020386
1696083173335551700,0.8325517578125,1.6224581003189087,-3.0024027824401855,-1.6200146675109863
1696083173345552000,0.8425517578125,1.2211196422576904,-3.2950072288513184,-1.5564846992492676
1696083173355551700,0.8525517578125,0.8979719281196594,-3.933361291885376,-1.3976596593856812
1696083173365551900,0.8625517578125,0.6432411074638367,-4.602258682250977,-1.2962560653686523
1696083173375551200,0.87255126953125,0.2620611786842346,-5.185635089874268,-1.2858713865280151
1696083173385551400,0.88255126953125,-0.1661553531885147,-5.5063395500183105,-1.3518447875976562
1696083173395551200,0.89255126953125,-0.4715879559516907,-5.958379745483398,-1.4605787992477417
1696083173405551400,0.90255126953125,-0.826500654220581,-5.820323944091797,-1.6548339128494263
1696083173415551200,0.91255126953125,-1.299310326576233,-5.3805012702941895,-1.6627751588821411
1696083173425551000,0.922551025390625,-1.7745635509490967,-4.7696356773376465,-1.6615535020828247
1696083173435551200,0.93255126953125,-2.1813998222351074,-4.201530933380127,-1.652390480041504
1696083173445551000,0.942551025390625,-2.436741352081299,-3.665191411972046,-1.6591099500656128
1696083173455551200,0.95255126953125,-2.5302038192749023,-3.034167766571045,-1.7055357694625854
1696083173465551400,0.96255126953125,-2.5583035945892334,-2.370157241821289,-1.6920967102050781
1696083173475551000,0.972551025390625,-2.4996604919433594,-1.7116444110870361,-1.557706356048584
1696083173485550800,0.98255078125,-2.288912057876587,-1.1618657112121582,-1.3115277290344238
1696083173495551000,0.992551025390625,-1.955379605293274,-0.8020660877227783,-1.0140362977981567
1696083173505550800,1.00255078125,-1.4966198205947876,-0.5815436840057373,-0.7257078886032104
1696083173515551000,1.012551025390625,-0.9749409556388855,-0.4789183437824249,-0.45875978469848633
1696083173525550600,1.022550537109375,-0.375071257352829,-0.5852088928222656,-0.2632829248905182
1696083173535550500,1.032550537109375,0.24129177629947662,-0.36529740691185,-0.1160643994808197
1696083173545550600,1.042550537109375,0.7312057018280029,-0.09773843735456467,0.08735372871160507
1696083173555550500,1.052550537109375,1.1551461219787598,0.19547687470912933,0.25595253705978394
1696083173565550600,1.062550537109375,1.5167783498764038,0.5479460954666138,0.3878994286060333
1696083173575550700,1.07255078125,1.7696765661239624,0.8839219808578491,0.4856378734111786
1696083173585550600,1.082550537109375,1.935831904411316,1.1954632997512817,0.5186246037483215
1696083173595550700,1.09255078125,2.034792184829712,1.4679092168807983,0.5241223573684692
1696083173605550600,1.102550537109375,2.073887586593628,1.7434093952178955,0.4605923891067505
1696083173615550700,1.11255078125,2.059837579727173,1.945605754852295,0.2828305959701538
1696083173625550600,1.122550537109375,1.9266690015792847,1.9889771938323975,-0.06719517707824707
1696083173635550700,1.13255078125,1.674992561340332,1.9266690015792847,-0.5436700582504272
1696083173645550600,1.142550537109375,1.3768903017044067,1.7525724172592163,-1.0488556623458862
1696083173655550700,1.15255078125,1.064738154411316,1.5308283567428589,-1.4746286869049072
1696083173665550600,1.162550537109375,0.8155050873756409,1.2388347387313843,-1.8002198934555054
1696083173675551000,1.172551025390625,0.6340781450271606,0.9950994849205017,-2.0958786010742188
1696083173685550600,1.182550537109375,0.47280970215797424,0.8833111524581909,-2.4544565677642822
1696083173695550500,1.192550537109375,0.3078760802745819,0.8717046976089478,-2.799595355987549
1696083173705550600,1.202550537109375,0.22479841113090515,0.8436049222946167,-3.000570058822632
1696083173715550500,1.212550537109375,-0.18936823308467865,0.4709770977497101,-2.5192081928253174
1696083173725551000,1.222551025390625,-1.1557570695877075,0.3927863538265228,-1.5717562437057495
1696083173735551000,1.232551025390625,-1.9541579484939575,0.2583959996700287,-1.1001683473587036
1696083173745550800,1.24255078125,-2.1673498153686523,-0.013439035043120384,-1.2492194175720215
1696083173755551000,1.252551025390625,-1.9908097982406616,-0.3274237811565399,-1.3964380025863647
1696083173765550800,1.26255078125,-1.86497163772583,-0.5174028873443604,-1.2492194175720215
1696083173775551200,1.27255126953125,-1.9352210760116577,-0.30054569244384766,-1.0671815872192383
1696083173785550800,1.28255078125,-2.012190103530884,0.32559117674827576,-1.1020009517669678
1696083173795550700,1.29255078125,-1.8839083909988403,0.8998045325279236,-1.1948524713516235
1696083173805550800,1.30255078125,-1.5564846992492676,1.3139711618423462,-1.2150110006332397
1696083173815550700,1.31255078125,-1.3072515726089478,1.4159855842590332,-1.1496484279632568
1696083173825551400,1.32255126953125,-1.186300277709961,1.4025466442108154,-1.0574077367782593
1696083173835551200,1.33255126953125,-1.0512990951538086,1.1423180103302002,-0.9101892113685608
1696083173845551400,1.34255126953125,-0.7654141783714294,0.694553792476654,-0.6707300543785095
1696083173855551200,1.35255126953125,-0.23029619455337524,-0.2217440903186798,-0.28955012559890747
1696083173865551400,1.36255126953125,0.34147366881370544,-0.7098253965377808,-0.08674286305904388
1696083173875551200,1.37255126953125,1.6994271278381348,-0.4337143301963806,0.44287729263305664
1696083173885550800,1.38255078125,3.3066136837005615,-0.5167919993400574,0.8668177723884583
1696083173895551000,1.392551025390625,3.441614866256714,0.7953465580940247,1.3836097717285156
1696083173905550800,1.40255078125,1.9633208513259888,2.2711970806121826,0.9779952764511108
1696083173915550700,1.41255078125,0.16920967400074005,3.299283266067505,-0.2028072625398636
1696083173925550800,1.42255078125,-0.5925393104553223,2.8625144958496094,-1.750128984451294
1696083173935550500,1.432550537109375,-0.5051855444908142,1.6768250465393066,-2.65726375579834
1696083173948961000,1.4459609375,-0.32009339332580566,0.7336491346359253,-2.8063149452209473
1696083173958961000,1.4559609375,-0.02015855349600315,0.5290092825889587,-2.7714955806732178
1696083173968960800,1.465960693359375,0.19608774781227112,1.1826350688934326,-2.3658812046051025
1696083173978961000,1.4759609375,0.14233160018920898,1.882686734199524,-1.7886134386062622
1696083173988961300,1.485961181640625,0.1014036312699318,2.3628268241882324,-1.3738359212875366
1696083173998961200,1.495961181640625,0.13072516024112701,2.395813465118408,-0.9871582388877869
1696083174008961300,1.505961181640625,0.12278391420841217,1.9297232627868652,-0.46853363513946533
1696083174018961200,1.515961181640625,0.12095131725072861,1.2864822149276733,0.07269296050071716
1696083174028961300,1.525961181640625,0.16493362188339233,0.8625417351722717,0.6059783101081848
1696083174038961400,1.53596142578125,0.2480112910270691,0.9358455538749695,1.0024298429489136
1696083174048961300,1.545961181640625,0.4538728892803192,2.0531179904937744,1.1410962343215942
1696083174058961400,1.55596142578125,0.8093964457511902,3.9266417026519775,0.7250970602035522
1696083174068961300,1.565961181640625,1.0659598112106323,4.984049320220947,0.13988813757896423
1696083174078961400,1.57596142578125,1.4501941204071045,4.470922946929932,-0.41111230850219727
1696083174088961800,1.5859619140625,1.948660135269165,2.792264938354492,-0.8038986921310425
1696083174098961700,1.595961669921875,2.311514139175415,0.3323107063770294,-0.9908234477043152
1696083174108961800,1.6059619140625,3.0469958782196045,-1.8203784227371216,-1.0024298429489136
1696083174118961700,1.615961669921875,3.4654386043548584,-3.3066136837005615,-0.8228355050086975
1696083174128961800,1.6259619140625,3.6169331073760986,-4.156327247619629,-0.4691445231437683
1696083174138961700,1.635961669921875,3.9571850299835205,-4.279110908508301,-0.02382374368607998
1696083174148961500,1.64596142578125,4.433049201965332,-3.7672059535980225,0.3390302062034607
1696083174158961400,1.65596142578125,4.798957347869873,-2.9547553062438965,0.5564982295036316
1696083174168961500,1.66596142578125,5.206404685974121,-1.5332717895507812,0.4306600093841553
1696083174178961400,1.67596142578125,5.4562482833862305,-0.7666358947753906,0.4544837474822998
1696083174188962800,1.685962890625,5.44342041015625,-0.15332718193531036,0.5448917746543884
1696083174198963000,1.695962890625,5.290092945098877,0.59803706407547,0.5723807215690613
1696083174208962800,1.705962890625,5.240002155303955,1.6774359941482544,0.5510004758834839
1696083174218963000,1.715962890625,5.400659561157227,3.138014793395996,0.2822197377681732
1696083174228963000,1.725963134765625,5.568647384643555,4.069584369659424,-0.28527405858039856
1696083174238963000,1.735962890625,5.384777069091797,3.810577392578125,-1.1594222784042358
1696083174248963000,1.745963134765625,3.98895001411438,3.000570058822632,-1.9132299423217773
1696083174258963000,1.755962890625,2.4104743003845215,1.19607412815094,-2.0977113246917725
1696083174268963000,1.765963134765625,1.6316211223602295,0.05497787147760391,-1.7544050216674805
1696083174278963000,1.775962890625,1.3432927131652832,-0.12217304855585098,-1.2754865884780884
1696083174288963000,1.785963134765625,1.2980886697769165,0.04764748737215996,-0.8478809595108032
1696083174298963000,1.795962890625,1.513113260269165,0.02382374368607998,-0.6615670323371887
1696083174308962800,1.805962890625,1.742187738418579,0.2480112910270691,-0.5876523852348328
1696083174318962700,1.815962646484375,2.0861048698425293,0.5497786998748779,-0.7757988572120667
1696083174328962800,1.825962890625,2.353663682937622,0.9926560521125793,-1.0293079614639282
1696083174338962700,1.835962646484375,2.355496406555176,1.3439035415649414,-1.2101240158081055
1696083174348962800,1.845962890625,2.2125539779663086,1.7818939685821533,-1.3396275043487549
1696083174358964000,1.8559638671875,2.076941728591919,2.5112669467926025,-1.4611896276474
1696083174368964000,1.865964111328125,1.9871445894241333,2.7672195434570312,-1.5522085428237915
1696083174378964000,1.8759638671875,1.9071213006973267,2.6841418743133545,-1.7214182615280151
1696083174388964000,1.885964111328125,1.7214182615280151,2.7324001789093018,-1.6126842498779297
1696083174398964000,1.8959638671875,1.5387696027755737,2.8680124282836914,-1.5112806558609009
1696083174408964000,1.905964111328125,1.3768903017044067,2.93154239654541,-1.4190399646759033
1696083174418964000,1.9159638671875,1.2785409688949585,2.819753885269165,-1.3194689750671387
1696083174428964000,1.925964111328125,1.2608258724212646,2.459343433380127,-1.1117748022079468
1696083174438964200,1.935964111328125,1.3298536539077759,1.9614882469177246,-0.8210029006004333
1696083174448964400,1.94596435546875,1.5241087675094604,1.3280210494995117,-0.475253164768219
1696083174458964200,1.955964111328125,1.822821855545044,0.7122688889503479,-0.17776179313659668
1696083174468964400,1.96596435546875,2.004859685897827,0.36529740691185,0.16249015927314758
1696083174478964200,1.975964111328125,2.0665571689605713,-0.20036379992961884,0.8234463334083557
1696083174488963300,1.98596337890625,1.665218710899353,-1.4520267248153687,1.8112154006958008
1696083174498963200,1.995963134765625,1.0183123350143433,-2.4776694774627686,2.4642302989959717
1696083174508963300,2.00596337890625,-0.006719517521560192,-3.7091736793518066,1.3726142644882202
1696083174518963200,2.015963134765625,-0.9767735004425049,-4.1160101890563965,-0.41111230850219727
1696083174528963000,2.025963134765625,-1.29381263256073,-3.520416498184204,-1.6438384056091309
1696083174538963500,2.03596337890625,-1.1594222784042358,-2.4019222259521484,-2.172236919403076
1696083174548963600,2.045963623046875,-0.8344419002532959,-1.1032226085662842,-2.135584831237793
1696083174558963500,2.05596337890625,-0.4660901725292206,0.19058994948863983,-1.6774359941482544
1696083174568963600,2.065963623046875,-0.12767083942890167,1.2027937173843384,-0.9731083512306213
1696083174578963500,2.07596337890625,0.14966198801994324,1.7140878438949585,-0.26083946228027344
1696083174588963600,2.085963623046875,0.35674530267715454,1.7415767908096313,0.28527405858039856
1696083174598963500,2.09596337890625,0.4807509481906891,1.5057828426361084,0.6340781450271606
1696083174608963800,2.1059638671875,0.4911356568336487,1.177748203277588,0.8142833709716797
1696083174618963700,2.115963623046875,0.39767327904701233,0.7660250067710876,0.8399397134780884
1696083174628963800,2.1259638671875,0.22846360504627228,0.27611109614372253,0.7189884185791016
1696083174638963700,2.135963623046875,0.09896016865968704,-0.17348572611808777,0.485027015209198
1696083174648963800,2.1459638671875,0.06963863968849182,-0.5229006409645081,0.2125810980796814
1696083174658962400,2.15596240234375,0.08735372871160507,-0.7428121566772461,-0.03237585723400116
1696083174668962600,2.165962646484375,0.08368854224681854,-0.8063421249389648,-0.1869247704744339
1696083174678962400,2.17596240234375,0.03237585723400116,-0.7305948138237,-0.2223549485206604
1696083174688962600,2.185962646484375,-0.021991148591041565,-0.5626068711280823,-0.17959438264369965
1696083174698962400,2.19596240234375,-0.04581489413976669,-0.33292156457901,-0.10995574295520782
1696083174708962600,2.205962646484375,-0.0555887371301651,-0.1007927656173706,-0.05009094998240471
1696083174718962400,2.21596240234375,-0.07269296050071716,0.04581489413976669,-0.02932153269648552
1696083174728962300,2.22596240234375,-0.0910189226269722,0.06475171446800232,-0.0555887371301651
1696083174738962400,2.23596240234375,-0.08735372871160507,-0.021380282938480377,-0.1014036312699318
1696083174748962300,2.24596240234375,-0.07330382615327835,-0.14782938361167908,-0.13500121235847473
1696083174758962400,2.25596240234375,-0.05314527451992035,-0.24007004499435425,-0.15393804013729095
1696083174768962300,2.26596240234375,-0.03726277872920036,-0.2626720666885376,-0.1563815027475357
1696083174778962400,2.27596240234375,-0.02321287989616394,-0.2174680233001709,-0.13744467496871948
1696083174788962600,2.285962646484375,-0.0024434609804302454,-0.14477506279945374,-0.10323622822761536
1696083174798962400,2.29596240234375,0.02687807008624077,-0.08796459436416626,-0.06352998316287994
1696083174808962600,2.305962646484375,0.05375614017248154,-0.06230825558304787,-0.022602014243602753
1696083174818962400,2.31596240234375,0.07147123664617538,-0.06352998316287994,0.001832595793530345
1696083174828962600,2.325962646484375,0.08002334833145142,-0.08979719132184982,0.013439035043120384
1696083174838962400,2.33596240234375,0.09468411654233932,-0.13744467496871948,0.012217304669320583
1696083174848962600,2.345962646484375,0.11239920556545258,-0.19547687470912933,-0.0006108652451075613
1696083174858962400,2.35596240234375,0.13072516024112701,-0.25045475363731384,-0.015882495790719986
1696083174868962600,2.365962646484375,0.13805554807186127,-0.28038713335990906,-0.039706241339445114
1696083174878962400,2.37596240234375,0.1466076523065567,-0.23396138846874237,-0.07024950534105301
1696083174888962600,2.385962646484375,0.152105450630188,-0.16737708449363708,-0.09529497474431992
1696083174898962400,2.39596240234375,0.12889257073402405,-0.1313360333442688,-0.0959058403968811
1696083174908962600,2.405962646484375,0.0959058403968811,-0.14049901068210602,-0.08552113175392151
1696083174918962400,2.41596240234375,0.05925392732024193,-0.19853121042251587,-0.08307767659425735
1696083174928962600,2.425962646484375,0.016493361443281174,-0.27122417092323303,-0.10384709388017654
1696083174938962400,2.43596240234375,-0.030543262138962746,-0.40622538328170776,-0.11545353382825851
1696083174948962600,2.445962646484375,-0.06108652427792549,-0.53328537940979,-0.1160643994808197
1696083174958962400,2.45596240234375,-0.09162978827953339,-0.5937610268592834,-0.1215621829032898
1696083174968962300,2.46596240234375,-0.11667526513338089,-0.6334672570228577,-0.1258382350206375
1696083174978962400,2.47596240234375,-0.11972958594560623,-0.6798930168151855,-0.11972958594560623
1696083174988962600,2.485962646484375,-0.10323622822761536,-0.7122688889503479,-0.09896016865968704
1696083174998962400,2.49596240234375,-0.06658431142568588,-0.7226535677909851,-0.07819075137376785
1696083175008962600,2.505962646484375,-0.03237585723400116,-0.7385360598564148,-0.05803219974040985
1696083175018962400,2.51596240234375,-0.015271631069481373,-0.7751879692077637,-0.009162978269159794
1696083175028962600,2.525962646484375,-0.025045474991202354,-0.8301658630371094,0.08735372871160507
1696083175038962400,2.53596240234375,-0.045204028487205505,-0.8625417351722717,0.19058994948863983
1696083175048962600,2.545962646484375,-0.07147123664617538,-0.8527678847312927,0.24129177629947662
1696083175058962400,2.55596240234375,-0.07208210229873657,-0.8393288254737854,0.16798794269561768
1696083175068962600,2.565962646484375,-0.03237585723400116,-0.807563841342926,-0.00366519158706069
1696083175078962400,2.57596240234375,0.01771509274840355,-0.7287622094154358,-0.2015855312347412
1696083175088962600,2.585962646484375,0.04398229718208313,-0.616973876953125,-0.3604104816913605
1696083175098962400,2.59596240234375,0.048258353024721146,-0.5174028873443604,-0.4740314185619354
1696083175108962600,2.605962646484375,0.04398229718208313,-0.45753806829452515,-0.5393940210342407
1696083175118962400,2.61596240234375,0.039706241339445114,-0.4294382631778717,-0.5497786998748779
1696083175128962600,2.625962646484375,0.03787364438176155,-0.4153883755207062,-0.5167919993400574
1696083175138962400,2.63596240234375,0.03298672288656235,-0.40194934606552124,-0.45265114307403564
1696083175148962600,2.645962646484375,0.029932396486401558,-0.3933972120285034,-0.3744603991508484
1696083175158962400,2.65596240234375,0.03481931984424591,-0.41111230850219727,-0.3078760802745819
1696083175168962600,2.665962646484375,0.03787364438176155,-0.4605923891067505,-0.2736676335334778
1696083175178962400,2.67596240234375,0.04764748737215996,-0.5277875661849976,-0.2718350291252136
1696083175188962600,2.685962646484375,0.0757472887635231,-0.5858197808265686,-0.2840523421764374
1696083175198962400,2.69596240234375,0.1215621829032898,-0.6059783101081848,-0.29626965522766113
1696083175208962600,2.705962646484375,0.17592918872833252,-0.588263213634491,-0.304210901260376
1696083175218962400,2.71596240234375,0.22296582162380219,-0.5681046843528748,-0.304210901260376
1696083175228962600,2.725962646484375,0.2528982162475586,-0.5742133259773254,-0.2987131178379059
1696083175238962400,2.73596240234375,0.2730567753314972,-0.607810914516449,-0.28955012559890747
1696083175248962600,2.745962646484375,0.2816088795661926,-0.6585127115249634,-0.2779437005519867
1696083175258962200,2.755962158203125,0.2871066629886627,-0.7165449261665344,-0.2681698501110077
1696083175268962300,2.76596240234375,0.2974913716316223,-0.7837401032447815,-0.2638937830924988
1696083175278962200,2.775962158203125,0.313373863697052,-0.8607091307640076,-0.2590068578720093
1696083175288962300,2.78596240234375,0.3445279896259308,-0.9437867999076843,-0.2370157092809677
1696083175298962200,2.795962158203125,0.3995058834552765,-1.0256427526474,-0.1875356286764145
1696083175308962300,2.80596240234375,0.47830748558044434,-1.0922271013259888,-0.1215621829032898
1696083175318962200,2.815962158203125,0.5632177591323853,-1.1270463466644287,-0.05803219974040985
1696083175328962000,2.825962158203125,0.637132465839386,-1.1203268766403198,0.0012217304902151227
1696083175338962200,2.835962158203125,0.6621779203414917,-1.0879509449005127,0.03726277872920036
1696083175348962000,2.845962158203125,0.627358615398407,-1.0183123350143433,0.019547687843441963
1696083175358962200,2.855962158203125,0.5540547966957092,-0.9144652485847473,-0.0555887371301651
1696083175368962000,2.865962158203125,0.4856378734111786,-0.8026769161224365,-0.13988813757896423
1696083175378962200,2.875962158203125,0.44104471802711487,-0.6774495840072632,-0.1563815027475357
1696083175388962300,2.88596240234375,0.39706242084503174,-0.4996877610683441,-0.06291911751031876
1696083175398962200,2.895962158203125,0.32986724376678467,-0.2828305959701538,0.12095131725072861
1696083175408962300,2.90596240234375,0.251676470041275,-0.0959058403968811,0.3530801236629486
1696083175418962200,2.915962158203125,0.17592918872833252,0.02871066704392433,0.5809328556060791
1696083175428962300,2.92596240234375,0.08857546001672745,0.15393804013729095,0.7831292152404785
1696083175438962200,2.935962158203125,-0.021991148591041565,0.3494149148464203,0.9639453291893005
1696083175448962300,2.94596240234375,-0.12034045159816742,0.6481280326843262,1.1331549882888794
1696083175458962200,2.955962158203125,-0.17898350954055786,1.0384708642959595,1.2999212741851807
1696083175468962300,2.96596240234375,-0.22357667982578278,1.4324790239334106,1.4770721197128296
1696083175478962200,2.975962158203125,-0.29016098380088806,1.7134770154953003,1.6664403676986694
1696083175488962300,2.98596240234375,-0.3995058834552765,1.7244726419448853,1.881464958190918
1696083175498962200,2.995962158203125,-0.5204572081565857,1.3078625202178955,2.1844542026519775
1696083175508962300,3.00596240234375,-0.6438519954681396,0.5974262356758118,2.5216517448425293
1696083175518962200,3.015962158203125,-0.769079327583313,-0.13988813757896423,2.805093288421631
1696083175528962300,3.02596240234375,-0.8924741148948669,-0.7855727076530457,3.0305025577545166
1696083175538962200,3.035962158203125,-1.047023057937622,-1.2406673431396484,3.127019166946411
1696083175548962300,3.04596240234375,-1.2027937173843384,-1.5125023126602173,3.048217535018921
1696083175558962400,3.05596240234375,-1.2956452369689941,-1.6841554641723633,2.830138683319092
1696083175568962300,3.06596240234375,-1.3298536539077759,-1.8496999740600586,2.5466971397399902
1696083175578962400,3.07596240234375,-1.3017538785934448,-1.86497163772583,2.1789562702178955
1696083175588962300,3.08596240234375,-1.2492194175720215,-1.6536122560501099,1.8124371767044067
1696083175598962400,3.09596240234375,-1.1954632997512817,-1.3371840715408325,1.5998560190200806
1696083175608962300,3.10596240234375,-1.1728612184524536,-1.0030407905578613,1.5485434532165527
1696083175618962400,3.11596240234375,-1.2082914113998413,-0.5412266254425049,1.5650367736816406
1696083175628962300,3.12596240234375,-1.2767083644866943,-0.04459316283464432,1.6022995710372925
1696083175638962400,3.13596240234375,-1.350012183189392,0.39217549562454224,1.607797384262085
1696083175648962300,3.14596240234375,-1.387274980545044,0.6633996367454529,1.5638149976730347
1696083175658962400,3.15596240234375,-1.3915510177612305,0.7751879692077637,1.4844025373458862
1696083175668962300,3.16596240234375,-1.3750576972961426,0.7165449261665344,1.4086552858352661
1696083175678962400,3.17596240234375,-1.340238332748413,0.484416127204895,1.3329079151153564
1696083175688962300,3.18596240234375,-1.3054190874099731,0.20525072515010834,1.2376129627227783
1696083175698962400,3.19596240234375,-1.2864822149276733,-0.027488935738801956,1.1362093687057495
1696083175708962300,3.20596240234375,-1.302364706993103,-0.10567969083786011,1.0238101482391357
1696083175718962400,3.21596240234375,-1.3463469743728638,0.05253441259264946,0.8924741148948669
1696083175728962300,3.22596240234375,-1.3744467496871948,0.3701843321323395,0.7745771408081055
1696083175738962400,3.23596240234375,-1.3396275043487549,0.684779942035675,0.694553792476654
1696083175748962300,3.24596240234375,-1.2290608882904053,0.9071348905563354,0.6530149579048157
1696083175758962400,3.25596240234375,-1.0415252447128296,1.0500773191452026,0.6585127115249634
1696083175768962300,3.26596240234375,-0.8197811841964722,1.168585181236267,0.6743952035903931
1696083175778962400,3.27596240234375,-0.6017022728919983,1.2986994981765747,0.6664539575576782
1696083175788962300,3.28596240234375,-0.41661009192466736,1.3927727937698364,0.6120869517326355
1696083175798962400,3.29596240234375,-0.2767219543457031,1.3921618461608887,0.5222898125648499
1696083175808962300,3.30596240234375,-0.1722639948129654,1.312138557434082,0.42271876335144043
1696083175818962400,3.31596240234375,-0.09896016865968704,1.186300277709961,0.313373863697052
1696083175828962300,3.32596240234375,-0.048258353024721146,1.0543533563613892,0.1820378452539444
1696083175838962400,3.33596240234375,0.013439035043120384,0.9395107626914978,0.04337143152952194
1696083175848962300,3.34596240234375,0.09896016865968704,0.8784242272377014,-0.08246681094169617
1696083175858962400,3.35596240234375,0.19608774781227112,0.8319984674453735,-0.21013765037059784
1696083175868962600,3.365962646484375,0.3072652220726013,0.7354817390441895,-0.3481931984424591
1696083175878962400,3.37596240234375,0.42088615894317627,0.5601634383201599,-0.513126790523529
1696083175888962300,3.38596240234375,0.5283984541893005,0.3072652220726013,-0.7092145681381226
1696083175898962400,3.39596240234375,0.6041457056999207,0.05619960278272629,-0.9279043078422546
1696083175908962300,3.40596240234375,0.6236934065818787,-0.07269296050071716,-1.1423180103302002
1696083175918962400,3.41596240234375,0.616973876953125,-0.004886921960860491,-1.2834278345108032
1696083175928962300,3.42596240234375,0.6163630485534668,0.29626965522766113,-1.3451253175735474
1696083175938962400,3.43596240234375,0.6139195561408997,0.769079327583313,-1.3628404140472412
1696083175948962300,3.44596240234375,0.5662720799446106,1.2162326574325562,-1.3274102210998535
1696083175958962400,3.45596240234375,0.42271876335144043,1.3738359212875366,-1.207069754600525
1696083175968962300,3.46596240234375,0.19914206862449646,1.0293079614639282,-1.007927656173706
1696083175978962400,3.47596240234375,-0.04948008432984352,0.28527405858039856,-0.7232644557952881
1696083175988962300,3.48596240234375,-0.26022860407829285,-0.6194173693656921,-0.45875978469848633
1696083175998962400,3.49596240234375,-0.3597996234893799,-1.2473868131637573,-0.2480112910270691
1696083176008962300,3.50596240234375,-0.3604104816913605,-1.3829989433288574,-0.08796459436416626
1696083176018962400,3.51596240234375,-0.31093040108680725,-1.1276572942733765,-0.031154127791523933
1696083176028962600,3.525962646484375,-0.23640485107898712,-0.6762278079986572,-0.14416420459747314
1696083176038962400,3.53596240234375,-0.1514945775270462,-0.2370157092809677,-0.4453207552433014
1696083176048962600,3.545962646484375,-0.033597588539123535,-0.08368854224681854,-0.8038986921310425
1696083176058962400,3.55596240234375,0.08979719132184982,-0.3121521472930908,-1.0219775438308716
1696083176068962600,3.565962646484375,0.22602014243602753,-0.7238753437995911,-1.1172724962234497
1696083176078962400,3.57596240234375,0.37751471996307373,-1.171028733253479,-1.1484266519546509
1696083176088962600,3.585962646484375,0.4605923891067505,-1.4092661142349243,-1.1074986457824707
1696083176098962400,3.59596240234375,0.4080579876899719,-1.254717230796814,-0.9431759119033813
1696083176108962600,3.605962646484375,0.30054569244384766,-0.7660250067710876,-0.6243042945861816
1696083176118962400,3.61596240234375,0.16493362188339233,0.025045474991202354,-0.28588494658470154
1696083176128962600,3.625962646484375,0.05925392732024193,0.43249258399009705,-0.2620611786842346
1696083176138962400,3.63596240234375,0.06414084881544113,0.3243694305419922,-0.25473082065582275
1696083176148962600,3.645962646484375,0.17959438264369965,0.006108652334660292,-0.22357667982578278
1696083176158962400,3.65596240234375,0.4050036668777466,-0.34758231043815613,-0.3286454975605011
1696083176168962300,3.66596240234375,0.6786713004112244,-0.5393940210342407,-0.5955936312675476
1696083176178962400,3.67596240234375,0.9419541954994202,-0.4715879559516907,-0.9248499870300293
1696083176188962300,3.68596240234375,1.1856894493103027,-0.2565633952617645,-1.156978726387024
1696083176198962400,3.69596240234375,1.3078625202178955,-0.09957103431224823,-1.2125675678253174
1696083176208962300,3.70596240234375,1.2565498352050781,0.02382374368607998,-1.1636983156204224
1696083176218962400,3.71596240234375,1.1129964590072632,0.1514945775270462,-1.053742527961731
1696083176228962300,3.72596240234375,1.007927656173706,0.19914206862449646,-0.921184778213501
1696083176238962400,3.73596240234375,0.9657779335975647,0.09651670604944229,-0.836885392665863
1696083176248962300,3.74596240234375,0.9779952764511108,-0.09346238523721695,-0.8857545852661133
1696083176258962400,3.75596240234375,1.037249207496643,-0.33108896017074585,-1.0702359676361084
1696083176268962300,3.76596240234375,1.0757336616516113,-0.5772676467895508,-1.2883148193359375
1696083176278962400,3.77596240234375,1.0256427526474,-0.8197811841964722,-1.4110987186431885
1696083176288962300,3.78596240234375,0.8814785480499268,-0.940732479095459,-1.3866641521453857
1696083176298962400,3.79596240234375,0.6841690540313721,-0.8491026759147644,-1.2431107759475708
1696083176308962300,3.80596240234375,0.50335294008255,-0.5827654600143433,-1.015868902206421
1696083176318962400,3.81596240234375,0.38667771220207214,-0.24862214922904968,-0.7617489695549011
1696083176328962300,3.82596240234375,0.3280346393585205,-0.06108652427792549,-0.5436700582504272
1696083176338962400,3.83596240234375,0.294437050819397,-0.013439035043120384,-0.43188172578811646
1696083176348962300,3.84596240234375,0.2773328125476837,0.016493361443281174,-0.4392121136188507
1696083176358962400,3.85596240234375,0.26939156651496887,-0.042760565876960754,-0.47219884395599365
1696083176368962300,3.86596240234375,0.23090706765651703,-0.192422553896904,-0.4697553813457489
1696083176378961400,3.87596142578125,0.16920967400074005,-0.3090978264808655,-0.43188172578811646
1696083176388961500,3.88596142578125,0.11911872029304504,-0.33719760179519653,-0.3683517575263977
1696083176398961400,3.89596142578125,0.07880161702632904,-0.2785545587539673,-0.2968805134296417
1696083176408961500,3.90596142578125,0.05803219974040985,-0.19486601650714874,-0.24068090319633484
1696083176418961400,3.91596142578125,0.07024950534105301,-0.16310101747512817,-0.24495697021484375
1696083176428961500,3.92596142578125,0.1014036312699318,-0.22296582162380219,-0.33108896017074585
1696083176438961400,3.93596142578125,0.15027284622192383,-0.3286454975605011,-0.4899139404296875
1696083176448961500,3.94596142578125,0.2021963894367218,-0.4043927788734436,-0.6786713004112244
1696083176458961400,3.95596142578125,0.2541199326515198,-0.42271876335144043,-0.8539896011352539
1696083176468961500,3.96596142578125,0.2871066629886627,-0.4098905920982361,-0.9975429177284241
1696083176478961400,3.97596142578125,0.2932153046131134,-0.42210787534713745,-1.0885618925094604
1696083176488961500,3.98596142578125,0.30604347586631775,-0.46181413531303406,-1.1233811378479004
1696083176498961400,3.99596142578125,0.34513887763023376,-0.4960225820541382,-1.1087204217910767
1696083176508961500,4.00596142578125,0.3995058834552765,-0.484416127204895,-1.0421360731124878
1696083176518961400,4.01596142578125,0.46181413531303406,-0.43799036741256714,-0.9431759119033813
1696083176528961500,4.02596142578125,0.5259549617767334,-0.4355469346046448,-0.8283332586288452
1696083176538961400,4.03596142578125,0.5797111392021179,-0.5393940210342407,-0.7177666425704956
1696083176548961500,4.04596142578125,0.6188064813613892,-0.7422012686729431,-0.5962044596672058
1696083176558961400,4.05596142578125,0.6438519954681396,-0.9871582388877869,-0.4495968222618103
1696083176568961500,4.06596142578125,0.6701191663742065,-1.2302825450897217,-0.28099802136421204
1696083176578961400,4.07596142578125,0.7189884185791016,-1.3811663389205933,-0.10812314599752426
1696083176588961500,4.08596142578125,0.7910705208778381,-1.3377948999404907,0.06658431142568588
1696083176598961400,4.09596142578125,0.8600982427597046,-1.102611780166626,0.2223549485206604
1696083176608961500,4.10596142578125,0.8973610401153564,-0.7617489695549011,0.3188716471195221
1696083176618961400,4.11596142578125,0.8924741148948669,-0.4593706727027893,0.3072652220726013
1696083176628961500,4.12596142578125,0.8387179970741272,-0.3274237811565399,0.1569923609495163
1696083176638961400,4.13596142578125,0.7153232097625732,-0.3952298164367676,-0.08552113175392151
1696083176648961500,4.14596142578125,0.5009095072746277,-0.5112941861152649,-0.2767219543457031
1696083176658961200,4.155961181640625,0.22479841113090515,-0.46731191873550415,-0.2779437005519867
1696083176668961300,4.165961181640625,-0.07024950534105301,-0.22052235901355743,-0.08307767659425735
1696083176678962000,4.1759619140625,-0.3243694305419922,0.051312681287527084,0.20463985204696655
1696083176688962000,4.185962158203125,-0.5051855444908142,0.26450464129447937,0.4966334402561188
1696083176698962000,4.1959619140625,-0.6444628238677979,0.4807509481906891,0.7648032903671265
1696083176708962000,4.205962158203125,-0.7672467231750488,0.7293730974197388,0.99876469373703
1696083176718962000,4.2159619140625,-0.8784242272377014,0.9321803450584412,1.2021827697753906
1696083176728962000,4.225962158203125,-0.9804387092590332,1.0873401165008545,1.4300355911254883
1696083176738962000,4.2359619140625,-1.1264355182647705,1.2528846263885498,1.718363881111145
1696083176748962000,4.245962158203125,-1.303586483001709,1.3127493858337402,2.0677788257598877
1696083176758962000,4.2559619140625,-1.5155566930770874,1.149037480354309,2.4489588737487793
1696083176768962000,4.265962158203125,-1.712866187095642,0.9242390990257263,2.7391197681427
1696083176778962000,4.2759619140625,-1.8191566467285156,0.5546656250953674,2.915048837661743
1696083176788962000,4.285962158203125,-1.833817481994629,-0.054367005825042725,2.9993484020233154
1696083176798962000,4.2959619140625,-1.806328535079956,-0.7165449261665344,2.9877419471740723
1696083176808962000,4.305962158203125,-1.72935950756073,-1.2315043210983276,2.858238458633423
1696083176818962000,4.3159619140625,-1.5515977144241333,-1.5234979391098022,2.556471109390259
1696083176828962000,4.325962158203125,-1.3066407442092896,-1.5796974897384644,2.1392500400543213
1696083176838962000,4.3359619140625,-1.0787880420684814,-1.4098769426345825,1.6743816137313843
1696083176848962000,4.345962158203125,-0.959669291973114,-1.0836749076843262,1.2754865884780884
1696083176858962000,4.3559619140625,-0.9486737251281738,-0.8136724829673767,1.0702359676361084
1696083176868961800,4.3659619140625,-1.0250319242477417,-0.543059229850769,1.102611780166626
1696083176878962000,4.3759619140625,-1.147204875946045,-0.22357667982578278,1.2858713865280151
1696083176888961800,4.3859619140625,-1.2809844017028809,0.10690141469240189,1.4257594347000122
1696083176898962000,4.3959619140625,-1.3646728992462158,0.3793473243713379,1.453248381614685
1696083176908961800,4.4059619140625,-1.3726142644882202,0.4648684561252594,1.4129313230514526
1696083176918962000,4.4159619140625,-1.3561208248138428,0.5174028873443604,1.3732250928878784
1696083176928961800,4.4259619140625,-1.3353514671325684,0.5015203952789307,1.2791517972946167
1696083176938962000,4.4359619140625,-1.3096951246261597,0.4080579876899719,1.19912850856781
1696083176948961800,4.4459619140625,-1.2852604389190674,0.24068090319633484,1.1398745775222778
1696083176958962200,4.455962158203125,-1.2687671184539795,0.12034045159816742,1.086118459701538
1696083176968962300,4.46596240234375,-1.2443325519561768,0.15332718193531036,1.035416603088379
1696083176978962200,4.475962158203125,-1.2040153741836548,0.2828305959701538,0.9810495972633362
1696083176988962300,4.48596240234375,-1.1349875926971436,0.42699480056762695,0.9083566069602966
1696083176998962200,4.495962158203125,-1.0280861854553223,0.5870414972305298,0.8136724829673767
1696083177008962300,4.50596240234375,-0.8949176073074341,0.7929030656814575,0.7018841505050659
1696083177018962200,4.515962158203125,-0.7422012686729431,1.0152580738067627,0.5955936312675476
1696083177028962300,4.52596240234375,-0.5894849896430969,1.187522053718567,0.5125159621238708
1696083177038962200,4.535962158203125,-0.45265114307403564,1.2308934926986694,0.4337143301963806
1696083177048962300,4.54596240234375,-0.3445279896259308,1.1643091440200806,0.33658674359321594
1696083177058962400,4.55596240234375,-0.25045475363731384,1.0580185651779175,0.21563543379306793
1696083177068962300,4.56596240234375,-0.1459967941045761,0.930347740650177,0.06719517707824707
1696083177078962200,4.575962158203125,-0.03237585723400116,0.8063421249389648,-0.10323622822761536
1696083177088962300,4.58596240234375,0.08857546001672745,0.7043276429176331,-0.28649580478668213
1696083177098962200,4.595962158203125,0.21502456068992615,0.6206390857696533,-0.46303585171699524
1696083177108962300,4.60596240234375,0.3646865487098694,0.5051855444908142,-0.6322455406188965
1696083177118962400,4.61596240234375,0.5387831330299377,0.3549126982688904,-0.8051204085350037
1696083177128962300,4.62596240234375,0.7250970602035522,0.2119702398777008,-0.9914342761039734
1696083177138962400,4.63596240234375,0.8747590184211731,0.12400564551353455,-1.216843605041504
1696083177148962300,4.64596240234375,0.9364564418792725,0.1014036312699318,-1.4575244188308716
1696083177158962400,4.65596240234375,0.9272934198379517,0.17776179313659668,-1.6224581003189087
1696083177168962300,4.66596240234375,0.8619308471679688,0.38728857040405273,-1.6273449659347534
1696083177178962400,4.67596240234375,0.7073819637298584,0.7935139536857605,-1.4123204946517944
1696083177188962300,4.68596240234375,0.4801400899887085,1.1380419731140137,-1.1496484279632568
1696083177198962400,4.69596240234375,0.22540926933288574,1.0879509449005127,-0.998153805732727
1696083177208962300,4.70596240234375,0.003054326167330146,0.6572909951210022,-0.8888089060783386
1696083177218962200,4.715962158203125,-0.12339477986097336,-0.11545353382825851,-0.6688974499702454
1696083177228962300,4.72596240234375,-0.14477506279945374,-0.8686503767967224,-0.32681289315223694
1696083177238962200,4.735962158203125,-0.14905111491680145,-1.3555099964141846,-0.006719517521560192
1696083177248962300,4.74596240234375,-0.17409659922122955,-1.6267341375350952,0.20586158335208893
1696083177258962200,4.755962158203125,-0.2223549485206604,-1.4984524250030518,0.24373523890972137
1696083177268962300,4.76596240234375,-0.22663100063800812,-1.0323622226715088,0.0507018156349659
1696083177278962200,4.775962158203125,-0.11056660860776901,-0.6236934065818787,-0.3286454975605011
1696083177288962300,4.78596240234375,0.08429940044879913,-0.7159340381622314,-0.6743952035903931
1696083177298962200,4.795962158203125,0.31031954288482666,-1.0867292881011963,-0.9046914577484131
1696083177308962300,4.80596240234375,0.5583308339118958,-1.309084177017212,-1.0207557678222656
1696083177318962200,4.815962158203125,0.6878342628479004,-1.0384708642959595,-0.9156870245933533
1696083177328962300,4.82596240234375,0.6432411074638367,-0.3543018400669098,-0.5656611919403076
1696083177338962200,4.835962158203125,0.5149593949317932,0.3323107063770294,-0.14233160018920898
1696083177348962300,4.84596240234375,0.3842342495918274,0.9169087409973145,0.022602014243602753
1696083177358962200,4.855962158203125,0.34086281061172485,0.921184778213501,-0.1258382350206375
1696083177368962300,4.86596240234375,0.4098905920982361,0.4489859640598297,-0.2376265823841095
1696083177378962200,4.875962158203125,0.5638286471366882,-0.11667526513338089,-0.33658674359321594
1696083177388962300,4.88596240234375,0.7629706859588623,-0.6432411074638367,-0.5057964324951172
1696083177398962200,4.895962158203125,0.9676105380058289,-1.0677924156188965,-0.7470881938934326
1696083177408962300,4.90596240234375,1.1484266519546509,-1.2956452369689941,-1.0134254693984985
1696083177418962200,4.915962158203125,1.1966849565505981,-1.1899654865264893,-1.3555099964141846
1696083177428962300,4.92596240234375,1.0867292881011963,-0.788016140460968,-1.6762142181396484
1696083177438962200,4.935962158203125,0.9847147464752197,-0.11789698898792267,-1.7189748287200928
1696083177448962300,4.94596240234375,0.9718865752220154,0.5540547966957092,-1.4373658895492554
1696083177458962200,4.955962158203125,1.0152580738067627,0.9896016716957092,-1.0170906782150269
1696083177468962300,4.96596240234375,1.037249207496643,1.1838568449020386,-0.684779942035675
1696083177478962200,4.975962158203125,1.018923282623291,1.169806957244873,-0.5705481171607971
1696083177488962300,4.98596240234375,0.9853256344795227,0.7660250067710876,-0.789237916469574
1696083177498962200,4.995962158203125,0.9205739498138428,-0.15027284622192383,-1.2394455671310425
1696083177508962300,5.00596240234375,0.7739662528038025,-1.1563678979873657,-1.5522085428237915
1696083177518962400,5.01596240234375,0.5546656250953674,-1.7763961553573608,-1.5570955276489258
1696083177528963000,5.025963134765625,0.33719760179519653,-1.794722080230713,-1.303586483001709
1696083177538963000,5.035962890625,0.19547687470912933,-1.2864822149276733,-0.912021815776825
1696083177548963000,5.045963134765625,0.16737708449363708,-0.5283984541893005,-0.5436700582504272
1696083177558963000,5.055962890625,0.1966986060142517,0.11545353382825851,-0.33658674359321594
1696083177568963000,5.065963134765625,0.22113321721553802,0.4331034719944,-0.28649580478668213
1696083177578963000,5.075962890625,0.1973094791173935,0.4398229718208313,-0.2816088795661926
1696083177588963000,5.085963134765625,0.16982053220272064,0.3078760802745819,-0.25045475363731384
1696083177598963000,5.095962890625,0.17409659922122955,0.12828169763088226,-0.21135938167572021
1696083177608963000,5.105963134765625,0.2168571650981903,-0.015882495790719986,-0.21991148591041565
1696083177618963000,5.115962890625,0.2675589919090271,-0.0861319974064827,-0.3029891550540924
1696083177628963000,5.125963134765625,0.32009339332580566,-0.2480112910270691,-0.4386012554168701
1696083177638963000,5.135962890625,0.3677408695220947,-0.45142942667007446,-0.5791002511978149
1696083177648963000,5.145963134765625,0.37262779474258423,-0.6304129362106323,-0.7250970602035522
1696083177658963000,5.155962890625,0.3604104816913605,-0.7061602473258972,-0.8478809595108032
1696083177668963000,5.165963134765625,0.3500257730484009,-0.6792821288108826,-0.911410927772522
1696083177678963000,5.175962890625,0.3701843321323395,-0.6139195561408997,-0.9144652485847473
1696083177688963000,5.185963134765625,0.43127086758613586,-0.5174028873443604,-0.8546004891395569
1696083177698963000,5.195962890625,0.49296826124191284,-0.41661009192466736,-0.7715228199958801
1696083177708963000,5.205963134765625,0.5314527750015259,-0.3335324227809906,-0.7275404930114746
1696083177718963000,5.215962890625,0.5589417219161987,-0.28527405858039856,-0.7409795522689819
1696083177728962800,5.225962890625,0.5925393104553223,-0.2816088795661926,-0.7965682744979858
1696083177738963000,5.235962890625,0.6395758986473083,-0.3341432809829712,-0.8723155856132507
1696083177748962800,5.245962890625,0.7018841505050659,-0.44593164324760437,-0.9242390990257263
1696083177758963000,5.255962890625,0.779464066028595,-0.5711590051651001,-0.8900306820869446
1696083177768962800,5.265962890625,0.8558222055435181,-0.665232241153717,-0.7257078886032104
1696083177778963000,5.275962890625,0.8991936445236206,-0.7305948138237,-0.46731191873550415
1696083177788963000,5.285963134765625,0.9059131741523743,-0.7757988572120667,-0.192422553896904
1696083177798963000,5.295962890625,0.9004153609275818,-0.7379252314567566,0.04703662544488907
1696083177808963000,5.305963134765625,0.9046914577484131,-0.5381723046302795,0.2321287989616394
1696083177818963000,5.315962890625,0.8998045325279236,-0.2321287989616394,0.32986724376678467
1696083177828962300,5.32596240234375,0.8692612648010254,0.010995574295520782,0.30970868468284607
1696083177838962400,5.33596240234375,0.7941248416900635,0.05009094998240471,0.1563815027475357
1696083177848962300,5.34596240234375,0.6261368989944458,-0.13744467496871948,-0.07880161702632904
1696083177858962400,5.35596240234375,0.3488040566444397,-0.4190535545349121,-0.2834414839744568
1696083177868962600,5.365962646484375,0.021991148591041565,-0.6114761233329773,-0.3335324227809906
1696083177878962400,5.37596240234375,-0.29565876722335815,-0.6114761233329773,-0.21502456068992615
1696083177888962300,5.38596240234375,-0.5638286471366882,-0.4398229718208313,0.04886921867728233
1696083177898962400,5.39596240234375,-0.7531968355178833,-0.1875356286764145,0.4141666293144226
1696083177908962300,5.40596240234375,-0.836885392665863,0.03787364438176155,0.8136724829673767
1696083177918962400,5.41596240234375,-0.8539896011352539,0.16859880089759827,1.1887437105178833
1696083177928962300,5.42596240234375,-0.8582656979560852,0.2382374405860901,1.5332717895507812
1696083177938929200,5.43592919921875,-0.8918632864952087,0.44654250144958496,1.8765780925750732
1696083177948895700,5.445895751953125,-0.9938777685165405,0.8985827565193176,2.252260208129883
1696083177958862300,5.4558623046875,-1.1942415237426758,1.3897184133529663,2.5729644298553467
1696083177968829000,5.465828857421875,-1.4764612913131714,1.720807433128357,2.713463306427002
1696083177978795800,5.475795654296875,-1.7733417749404907,1.7983872890472412,2.6816983222961426
1696083177988762400,5.485762451171875,-2.0079140663146973,1.5583171844482422,2.598620653152466
1696083177998729000,5.49572900390625,-2.155132532119751,1.0885618925094604,2.565023183822632
1696083178008695800,5.50569580078125,-2.182621479034424,0.4795292317867279,2.601675033569336
1696083178018662400,5.515662353515625,-2.0451767444610596,-0.23335053026676178,2.6419920921325684
1696083178028629200,5.525629150390625,-1.8319848775863647,-1.0922271013259888,2.5980098247528076
1696083178038595800,5.535595947265625,-1.6487252712249756,-1.8558086156845093,2.3658812046051025
1696083178048562400,5.5455625,-1.5094480514526367,-2.3548855781555176,1.9413297176361084
1696083178058529300,5.555529296875,-1.4282029867172241,-2.400700330734253,1.4184291362762451
1696083178068496000,5.565495849609375,-1.3701707124710083,-2.094046115875244,1.0806206464767456
1696083178078462500,5.57546240234375,-1.3322970867156982,-1.6010777950286865,1.06657075881958
1696083178088429300,5.58542919921875,-1.330464482307434,-0.9132435321807861,1.2479976415634155
1696083178098396000,5.59539599609375,-1.3237450122833252,-0.04581489413976669,1.3365731239318848
1696083178108362500,5.605362548828125,-1.246165156364441,0.7648032903671265,1.2626584768295288
1696083178118329000,5.6153291015625,-1.131933331489563,1.359175205230713,1.1533136367797852
1696083178128296000,5.6252958984375,-1.0140362977981567,1.483791708946228,1.1056660413742065
1696083178138262500,5.635262451171875,-0.9254608750343323,1.1887437105178833,1.0769554376602173
1696083178148229000,5.64522900390625,-0.8674286603927612,0.6298020482063293,1.0476338863372803
1696083178158195700,5.65519580078125,-0.8594874143600464,0.07757988572120667,0.979827880859375
1696083178168162600,5.66516259765625,-0.911410927772522,-0.21502456068992615,0.8894197940826416
1696083178178129200,5.675129150390625,-0.9853256344795227,-0.1514945775270462,0.8057312369346619
1696083178188095700,5.685095703125,-1.0335839986801147,0.15027284622192383,0.7586946487426758
1696083178198062300,5.695062255859375,-1.0286970138549805,0.4447098970413208,0.7177666425704956
1696083178208029200,5.705029296875,-0.9645562171936035,0.6743952035903931,0.6352998614311218
1696083178217995800,5.714995849609375,-0.8509352803230286,0.9138544201850891,0.5283984541893005
1696083178227962400,5.72496240234375,-0.6988298296928406,1.130711555480957,0.42699480056762695
1696083178237962500,5.73496240234375,-0.5369505286216736,1.2669345140457153,0.32986724376678467
1696083178247962400,5.74496240234375,-0.3885102868080139,1.2883148193359375,0.22846360504627228
1696083178257962500,5.75496240234375,-0.2565633952617645,1.208902359008789,0.11850785464048386
1696083178267962400,5.76496240234375,-0.1319468915462494,1.0891727209091187,-0.016493361443281174
1696083178277962500,5.77496240234375,-0.007941247895359993,0.9651671051979065,-0.182648703455925
1696083178287962400,5.78496240234375,0.1062905490398407,0.8588765263557434,-0.39156460762023926
1696083178297962500,5.79496240234375,0.2223549485206604,0.7580837607383728,-0.618195652961731
1696083178307962400,5.80496240234375,0.3585779070854187,0.6291912198066711,-0.836885392665863
1696083178317962200,5.814962158203125,0.5186246037483215,0.4251621961593628,-1.0390818119049072
1696083178327962400,5.82496240234375,0.6939429044723511,0.17348572611808777,-1.23394775390625
1696083178337962200,5.834962158203125,0.8509352803230286,-0.02871066704392433,-1.4275920391082764
1696083178347962400,5.84496240234375,0.9175195693969727,-0.06352998316287994,-1.6267341375350952
1696083178357962200,5.854962158203125,0.8759807348251343,0.10445795953273773,-1.788002610206604
1696083178367962400,5.86496240234375,0.7709119319915771,0.48380526900291443,-1.785559058189392
1696083178377962200,5.874962158203125,0.6206390857696533,1.0219775438308716,-1.5338826179504395
1696083178387962400,5.88496240234375,0.45204028487205505,1.4831807613372803,-1.2180652618408203
1696083178397962200,5.894962158203125,0.31154128909111023,1.4666874408721924,-1.0476338863372803
1696083178407962400,5.90496240234375,0.22663100063800812,0.9224064946174622,-0.9853256344795227
1696083178417962200,5.914962158203125,0.15271630883216858,0.025045474991202354,-0.8588765263557434
1696083178427962400,5.92496240234375,-0.051312681287527084,-0.6023131608963013,-0.5821545720100403
1696083178437962200,5.934962158203125,-0.28649580478668213,-0.9920451641082764,-0.17898350954055786
1696083178447962400,5.94496240234375,-0.42088615894317627,-1.2217304706573486,0.17104226350784302
1696083178457962200,5.954962158203125,-0.4917465150356293,-1.186300277709961,0.24007004499435425
1696083178467962400,5.96496240234375,-0.43799036741256714,-1.0140362977981567,0.006719517521560192
1696083178477962200,5.974962158203125,-0.2718350291252136,-1.0879509449005127,-0.32498031854629517
1696083178487962400,5.98496240234375,-0.02687807008624077,-1.5008958578109741,-0.6053674817085266
1696083178497962200,5.994962158203125,0.2626720666885376,-2.0164661407470703,-0.8142833709716797
1696083178507962400,6.00496240234375,0.4966334402561188,-2.20278000831604,-0.7916813492774963
1696083178517962200,6.014962158203125,0.5925393104553223,-1.623068928718567,-0.46853363513946533
1696083178527961300,6.02496142578125,0.6090326309204102,-0.3390302062034607,0.06963863968849182
1696083178537961500,6.03496142578125,0.5448917746543884,1.1808024644851685,0.3170390725135803
1696083178547961300,6.04496142578125,0.5705481171607971,1.788002610206604,0.09162978827953339
1696083178557961500,6.05496142578125,0.7440338730812073,1.541213035583496,-0.030543262138962746
1696083178567961300,6.06496142578125,0.9108000993728638,1.131933331489563,-0.03726277872920036
1696083178577961500,6.07496142578125,1.0268645286560059,0.7538077235221863,-0.1014036312699318
1696083178587961300,6.08496142578125,1.1233811378479004,0.2981022298336029,-0.33658674359321594
1696083178597961500,6.09496142578125,1.1869112253189087,-0.23640485107898712,-0.6475171446800232
1696083178607960800,6.1049609375,1.1374311447143555,-0.6682865619659424,-0.9254608750343323
1696083178617961000,6.1149609375,0.96883225440979,-0.817948579788208,-1.1575896739959717
1696083178627960800,6.1249609375,0.8093964457511902,-0.6395758986473083,-1.302364706993103
1696083178637961000,6.1349609375,0.7715228199958801,-0.2669481039047241,-1.3439035415649414
1696083178647960800,6.1449609375,0.8246681094169617,0.19364428520202637,-1.2767083644866943
1696083178657961000,6.1549609375,0.9040805697441101,0.66584312915802,-1.140485405921936
1696083178667960800,6.1649609375,0.9737191796302795,1.0128145217895508,-1.043968677520752
1696083178677961000,6.1749609375,1.0366383790969849,0.8051204085350037,-1.1948524713516235
1696083178687960800,6.1849609375,1.054964303970337,-0.030543262138962746,-1.5748106241226196
1696083178697961000,6.1949609375,0.9486737251281738,-1.045190453529358,-1.8771889209747314
1696083178707960800,6.2049609375,0.6957755088806152,-1.8655824661254883,-1.93766450881958
1696083178717961000,6.2149609375,0.4031710624694824,-2.1533000469207764,-1.7324138879776
1696083178727960800,6.2249609375,0.19303341209888458,-1.8222110271453857,-1.3371840715408325
1696083178737961000,6.2349609375,0.09773843735456467,-1.0751228332519531,-0.9071348905563354
1696083178747960800,6.2449609375,0.06414084881544113,-0.21930062770843506,-0.5833762884140015
1696083178757961000,6.2549609375,0.051312681287527084,0.4202753007411957,-0.423329621553421
1696083178767960800,6.2649609375,0.05314527451992035,0.7263187766075134,-0.3549126982688904
1696083178777961000,6.2749609375,0.0861319974064827,0.6334672570228577,-0.2926044464111328
1696083178787960800,6.2849609375,0.17043140530586243,0.3445279896259308,-0.24190263450145721
1696083178797961000,6.2949609375,0.2577851414680481,0.07208210229873657,-0.25961771607398987
1696083178807960800,6.3049609375,0.34513887763023376,-0.12400564551353455,-0.3121521472930908
1696083178817961000,6.3149609375,0.43615779280662537,-0.26450464129447937,-0.3481931984424591
1696083178827961900,6.3249619140625,0.50335294008255,-0.4605923891067505,-0.38606682419776917
1696083178837961700,6.334961669921875,0.5198463201522827,-0.7110471725463867,-0.47280970215797424
1696083178847961900,6.3449619140625,0.5167919993400574,-0.8283332586288452,-0.5809328556060791
1696083178857961700,6.354961669921875,0.5216789245605469,-0.7916813492774963,-0.6878342628479004
1696083178867961900,6.3649619140625,0.5283984541893005,-0.6524040699005127,-0.7629706859588623
1696083178877961700,6.374961669921875,0.5564982295036316,-0.5283984541893005,-0.8038986921310425
1696083178887961900,6.3849619140625,0.5839871764183044,-0.4544837474822998,-0.808174729347229
1696083178897961700,6.394961669921875,0.5907067060470581,-0.40072759985923767,-0.8118399381637573
1696083178907962400,6.40496240234375,0.5913175344467163,-0.3341432809829712,-0.8454375267028809
1696083178917962200,6.414962158203125,0.6151412725448608,-0.25473082065582275,-0.9095783233642578
1696083178927962400,6.42496240234375,0.656680166721344,-0.1869247704744339,-1.0030407905578613
1696083178937962200,6.434962158203125,0.6927211880683899,-0.17409659922122955,-1.120937705039978
1696083178947962400,6.44496240234375,0.7318165898323059,-0.23090706765651703,-1.2027937173843384
1696083178957962200,6.454962158203125,0.7776314616203308,-0.29016098380088806,-1.156978726387024
1696083178967962400,6.46496240234375,0.8087855577468872,-0.2626720666885376,-0.9291260242462158
1696083178977962200,6.474962158203125,0.7922922372817993,-0.21319197118282318,-0.5803219676017761
1696083178987962400,6.48496240234375,0.7446447610855103,-0.26450464129447937,-0.23579397797584534
1696083178997962200,6.494962158203125,0.7189884185791016,-0.3695734739303589,0.05925392732024193
1696083179007962400,6.50496240234375,0.7275404930114746,-0.3995058834552765,0.29993483424186707
1696083179017962200,6.514962158203125,0.7470881938934326,-0.34025195240974426,0.45204028487205505
1696083179027962400,6.52496240234375,0.7507534027099609,-0.2932153046131134,0.45875978469848633
1696083179037962200,6.534962158203125,0.7086036801338196,-0.37568211555480957,0.29138273000717163
1696083179047962400,6.54496240234375,0.5595525503158569,-0.6236934065818787,0.00733038317412138
1696083179057962800,6.554962646484375,0.30604347586631775,-0.8680394887924194,-0.2168571650981903
1696083179067963000,6.564962890625,0.02626720629632473,-0.9169087409973145,-0.20891591906547546
1696083179077962800,6.574962646484375,-0.2382374405860901,-0.7354817390441895,0.056810468435287476
1696083179087963000,6.584962890625,-0.4593706727027893,-0.45631635189056396,0.4599815309047699
1696083179097962800,6.594962646484375,-0.6017022728919983,-0.26633724570274353,0.8600982427597046
1696083179107963000,6.604962890625,-0.6591235995292664,-0.20525072515010834,1.2034045457839966
1696083179117962800,6.614962646484375,-0.6792821288108826,-0.15943582355976105,1.5515977144241333
1696083179127963000,6.624962890625,-0.7299839854240417,0.09712757170200348,1.9346102476119995
1696083179137962800,6.634962646484375,-0.836885392665863,0.6957755088806152,2.342057466506958
1696083179147963000,6.644962890625,-1.091616153717041,1.4196507930755615,2.6792550086975098
1696083179157962800,6.654962646484375,-1.4960089921951294,1.9688186645507812,2.811201810836792
1696083179167963000,6.664962890625,-1.9724838733673096,2.211332082748413,2.7091872692108154
1696083179177962800,6.674962646484375,-2.3402247428894043,2.059837579727173,2.523484230041504
1696083179187963000,6.684962890625,-2.498438835144043,1.5778648853302002,2.4587326049804688
1696083179197962800,6.694962646484375,-2.411695957183838,0.8985827565193176,2.5662448406219482
1696083179207963000,6.704962890625,-2.116037130355835,0.19975294172763824,2.749504566192627
1696083179217962800,6.714962646484375,-1.7739527225494385,-0.6352998614311218,2.872899293899536
1696083179227963000,6.724962890625,-1.5613715648651123,-1.4092661142349243,2.680476665496826
1696083179237962800,6.734962646484375,-1.490511178970337,-1.9480493068695068,2.149634838104248
1696083179247963000,6.744962890625,-1.472796082496643,-2.196671485900879,1.4471397399902344
1696083179257962800,6.754962646484375,-1.5015068054199219,-2.1203131675720215,0.8936958312988281
1696083179267963000,6.764962890625,-1.5546520948410034,-1.9798142910003662,0.827722430229187
1696083179277962800,6.774962646484375,-1.632842779159546,-1.6181820631027222,1.1154398918151855
1696083179287963000,6.784962890625,-1.671938180923462,-0.8436049222946167,1.3646728992462158
1696083179297962800,6.794962646484375,-1.6175711154937744,0.16249015927314758,1.3848315477371216
1696083179307963000,6.804962890625,-1.4911220073699951,0.9871582388877869,1.282817006111145
1696083179317962800,6.814962646484375,-1.3329079151153564,1.3836097717285156,1.1716395616531372
1696083179327963000,6.824962890625,-1.176526427268982,1.3365731239318848,1.1099421977996826
1696083179337962800,6.834962646484375,-1.0323622226715088,0.979216992855072,1.0965031385421753
1696083179347963000,6.844962890625,-0.9376781582832336,0.5577199459075928,1.0989465713500977
1696083179357962200,6.854962158203125,-0.9169087409973145,0.2376265823841095,1.0726794004440308
1696083179367962400,6.86496240234375,-0.9443976879119873,0.10995574295520782,1.0225883722305298
1696083179377962200,6.874962158203125,-0.9669997096061707,0.17592918872833252,0.9761626720428467
1696083179387962400,6.88496240234375,-0.959669291973114,0.3243694305419922,0.911410927772522
1696083179397962200,6.894962158203125,-0.921184778213501,0.513126790523529,0.8057312369346619
1696083179407962400,6.90496240234375,-0.8497135639190674,0.7831292152404785,0.6725626587867737
1696083179417962200,6.914962158203125,-0.7354817390441895,1.0433578491210938,0.5393940210342407
1696083179427962400,6.92496240234375,-0.5907067060470581,1.2082914113998413,0.42271876335144043
1696083179437962200,6.934962158203125,-0.4392121136188507,1.2589932680130005,0.30970868468284607
1696083179447962400,6.94496240234375,-0.29504790902137756,1.1899654865264893,0.19425514340400696
1696083179457962200,6.954962158203125,-0.1472185254096985,1.054964303970337,0.06230825558304787
1696083179467963100,6.964963134765625,0.004886921960860491,0.921795666217804,-0.10934487730264664
1696083179477963000,6.974962890625,0.1508837193250656,0.8228355050086975,-0.31642818450927734
1696083179487963100,6.984963134765625,0.3072652220726013,0.7336491346359253,-0.5302310585975647
1696083179497963000,6.994962890625,0.48319441080093384,0.588263213634491,-0.7360926270484924
1696083179507963100,7.004963134765625,0.6780604124069214,0.39584067463874817,-0.940121591091156
1696083179517963000,7.014962890625,0.8723155856132507,0.20952677726745605,-1.158811330795288
1696083179527963100,7.024963134765625,1.0140362977981567,0.09346238523721695,-1.4019356966018677
1696083179537963000,7.034962890625,1.0433578491210938,0.07269296050071716,-1.6413949728012085
1696083179547963100,7.044963134765625,0.9828822016716003,0.18387043476104736,-1.8008307218551636
1696083179557963000,7.054962890625,0.8436049222946167,0.4746423065662384,-1.7898352146148682
1696083179567963100,7.064963134765625,0.6163630485534668,0.9297369122505188,-1.5338826179504395
1696083179577963000,7.074962890625,0.37568211555480957,1.2773191928863525,-1.2394455671310425
1696083179587963100,7.084963134765625,0.16371189057826996,1.168585181236267,-1.1068878173828125
1696083179597963000,7.094962890625,0.021380282938480377,0.5216789245605469,-1.0580185651779175
1696083179607963100,7.104963134765625,-0.0354301854968071,-0.4178318381309509,-0.8362745046615601
1696083179617963000,7.114962890625,-0.06719517707824707,-1.1368201971054077,-0.44776421785354614
1696083179627963100,7.124963134765625,-0.1264491081237793,-1.4966198205947876,-0.07391469180583954
1696083179637963000,7.134962890625,-0.2015855312347412,-1.5338826179504395,0.11667526513338089
1696083179647963100,7.144963134765625,-0.2681698501110077,-1.2877039909362793,0.1258382350206375
1696083179657963000,7.154962890625,-0.24678955972194672,-0.9083566069602966,-0.03726277872920036
1696083179667963100,7.164963134765625,-0.07513642311096191,-0.5076290369033813,-0.34758231043815613
1696083179677963000,7.174962890625,0.23151792585849762,-0.20525072515010834,-0.6982190012931824
1696083179687963100,7.184963134765625,0.5253441333770752,-0.14782938361167908,-0.988379955291748
1696083179697963000,7.194962890625,0.740368664264679,-0.3695734739303589,-1.19912850856781
1696083179707963100,7.204963134765625,0.8918632864952087,-0.6676757335662842,-1.178359031677246
1696083179717963000,7.214962890625,0.8723155856132507,-0.48869219422340393,-0.9065240025520325
1696083179727963100,7.224963134765625,0.7257078886032104,-0.01710422709584236,-0.5125159621238708
1696083179737963000,7.234962890625,0.5302310585975647,0.17898350954055786,-0.28038713335990906
1696083179747963100,7.244963134765625,0.342695415019989,0.24373523890972137,-0.40072759985923767
1696083179757963000,7.254962890625,0.3194825351238251,0.042760565876960754,-0.5369505286216736
1696083179767962400,7.26496240234375,0.4386012554168701,-0.2626720666885376,-0.45204028487205505
1696083179777962200,7.274962158203125,0.607200026512146,-0.5198463201522827,-0.34025195240974426
1696083179787962400,7.28496240234375,0.7941248416900635,-0.6823364496231079,-0.3854559659957886
1696083179797962200,7.294962158203125,0.8955284357070923,-0.7483099102973938,-0.484416127204895
1696083179807962400,7.30496240234375,1.0598511695861816,-0.8900306820869446,-0.79840087890625
1696083179817962200,7.314962158203125,1.1899654865264893,-0.8491026759147644,-1.1355985403060913
1696083179827962400,7.32496240234375,1.3072515726089478,-0.23579397797584534,-1.3781119585037231
1696083179837962200,7.334962158203125,1.2571606636047363,0.694553792476654,-1.4850133657455444
1696083179847962400,7.34496240234375,1.103833556175232,1.4501941204071045,-1.3457361459732056
1696083179857962200,7.354962158203125,0.9376781582832336,1.7971655130386353,-1.1056660413742065
1696083179867962400,7.36496240234375,0.7623597979545593,1.7269160747528076,-0.9230173826217651
1696083179877962200,7.374962158203125,0.5699372887611389,1.4404202699661255,-0.817337691783905
1696083179887962400,7.38496240234375,0.4056145250797272,1.1136072874069214,-0.7812966704368591
1696083179897962200,7.394962158203125,0.304210901260376,0.8582656979560852,-0.836885392665863
1696083179907962400,7.40496240234375,0.34025195240974426,0.0959058403968811,-1.3237450122833252
1696083179917962200,7.414962158203125,0.5571091175079346,-1.8203784227371216,-2.219273328781128
1696083179927962400,7.42496240234375,0.5900958180427551,-3.3005049228668213,-2.448347806930542
1696083179937962200,7.434962158203125,0.4740314185619354,-3.907705068588257,-2.0567831993103027
1696083179947962400,7.44496240234375,0.34758231043815613,-3.356093645095825,-1.1844676733016968
1696083179957962200,7.454962158203125,0.2877175211906433,-1.8582520484924316,-0.22540926933288574
1696083179967962400,7.46496240234375,0.24984388053417206,-0.21074850857257843,0.4147774875164032
1696083179977962200,7.474962158203125,0.24923302233219147,0.9242390990257263,0.6212499737739563
1696083179987962400,7.48496240234375,0.3072652220726013,1.5558737516403198,0.5742133259773254
1696083179997962200,7.494962158203125,0.4086688458919525,1.7373007535934448,0.3701843321323395
1696083180007962400,7.50496240234375,0.4697553813457489,1.359786033630371,0.06780604273080826
1696083180017962200,7.514962158203125,0.523511528968811,0.4862487316131592,-0.22418753802776337
1696083180027962400,7.52496240234375,0.5791002511978149,-0.637132465839386,-0.5412266254425049
1696083180037962200,7.534962158203125,0.5821545720100403,-1.4428637027740479,-0.8894197940826416
1696083180047962400,7.54496240234375,0.5589417219161987,-1.5851953029632568,-1.130711555480957
1696083180057962200,7.554962158203125,0.5510004758834839,-1.4324790239334106,-1.2889256477355957
1696083180067962400,7.56496240234375,0.5650503635406494,-1.1533136367797852,-1.3139711618423462
1696083180077962200,7.574962158203125,0.5791002511978149,-0.8442157506942749,-1.1618657112121582
1696083180087962400,7.58496240234375,0.5864306092262268,-0.5925393104553223,-0.902247965335846
1696083180097962200,7.594962158203125,0.5955936312675476,-0.43676865100860596,-0.6450737118721008
1696083180107962400,7.60496240234375,0.6230825781822205,-0.3933972120285034,-0.5174028873443604
1696083180117962200,7.614962158203125,0.6646214127540588,-0.40072759985923767,-0.5387831330299377
1696083180127962400,7.62496240234375,0.7195992469787598,-0.40683624148368835,-0.6511823534965515
1696083180137962200,7.634962158203125,0.7770205736160278,-0.38240164518356323,-0.7562511563301086
1696083180147962400,7.64496240234375,0.816726803779602,-0.36224308609962463,-0.7922922372817993
1696083180157962200,7.654962158203125,0.8210029006004333,-0.38667771220207214,-0.7312057018280029
1696083180167962400,7.66496240234375,0.7935139536857605,-0.513126790523529,-0.5699372887611389
1696083180177962200,7.674962158203125,0.7733554244041443,-0.6982190012931824,-0.3066543638706207
1696083180187962400,7.68496240234375,0.7831292152404785,-0.7721336483955383,0.0507018156349659
1696083180197962200,7.694962158203125,0.8252789378166199,-0.5723807215690613,0.4282165467739105
1696083180207962400,7.70496240234375,0.8759807348251343,-0.1264491081237793,0.6921103000640869
1696083180217962200,7.714962158203125,0.8912523984909058,0.30482175946235657,0.7367035150527954
1696083180227962400,7.72496240234375,0.8252789378166199,0.45326200127601624,0.513126790523529
1696083180237962200,7.734962158203125,0.6352998614311218,0.22296582162380219,0.07696902006864548
1696083180247962400,7.74496240234375,0.2968805134296417,-0.23151792585849762,-0.3445279896259308
1696083180257962200,7.754962158203125,-0.11728613078594208,-0.5992587804794312,-0.46731191873550415
1696083180267962400,7.76496240234375,-0.5827654600143433,-0.6811147332191467,-0.2528982162475586
1696083180277962200,7.774962158203125,-1.0250319242477417,-0.5766568183898926,0.15760323405265808
1696083180287962400,7.78496240234375,-1.3072515726089478,-0.4996877610683441,0.6780604124069214
1696083180297962200,7.794962158203125,-1.3781119585037231,-0.4178318381309509,1.2681562900543213
1696083180307962400,7.80496240234375,-1.3231340646743774,-0.06536258012056351,1.8790215253829956
1696083180317962200,7.814962158203125,-1.3420709371566772,0.6493497490882874,2.448347806930542
1696083180327962400,7.82496240234375,-1.5754214525222778,1.398881435394287,2.797152042388916
1696083180337962200,7.834962158203125,-1.9333884716033936,1.785559058189392,2.813645362854004
1696083180347962400,7.84496240234375,-2.238821029663086,1.8197675943374634,2.621833562850952
1696083180357962200,7.854962158203125,-2.3909265995025635,1.513113260269165,2.3805418014526367
1696083180367962400,7.86496240234375,-2.375654935836792,0.8979719281196594,2.2479841709136963
1696083180377962200,7.874962158203125,-2.241264581680298,0.24434609711170197,2.2730295658111572
1696083180387962400,7.88496240234375,-1.987755537033081,-0.375071257352829,2.414750337600708
1696083180397962200,7.894962158203125,-1.740355134010315,-1.0848966836929321,2.526538610458374
1696083180407962400,7.90496240234375,-1.5931365489959717,-1.6157386302947998,2.4214699268341064
1696083180417962200,7.914962158203125,-1.5399912595748901,-1.9309450387954712,2.0751092433929443
1696083180427962400,7.92496240234375,-1.480737328529358,-1.949881911277771,1.6108516454696655
1696083180437962200,7.934962158203125,-1.4489723443984985,-1.4618005752563477,1.2559388875961304
1696083180447962400,7.94496240234375,-1.4178181886672974,-0.7232644557952881,1.179580807685852
1696083180457962200,7.954962158203125,-1.3713924884796143,0.01466076634824276,1.243721604347229
1696083180467962400,7.96496240234375,-1.2968668937683105,0.578489363193512,1.2883148193359375
1696083180477962200,7.974962158203125,-1.197906732559204,0.8655960559844971,1.3005321025848389
1696083180487962400,7.98496240234375,-1.103833556175232,0.8362745046615601,1.3054190874099731
1696083180497962200,7.994962158203125,-1.0525208711624146,0.588874101638794,1.3072515726089478
1696083180507962400,8.00496240234375,-1.0464121103286743,0.3445279896259308,1.2528846263885498
1696083180517962200,8.014962158203126,-1.0610729455947876,0.10506882518529892,1.150259256362915
1696083180527962400,8.02496240234375,-1.1081095933914185,-0.060475658625364304,1.0305296182632446
1696083180537962200,8.034962158203125,-1.1643091440200806,-0.04703662544488907,0.9388998746871948
1696083180547962400,8.04496240234375,-1.2198978662490845,0.06536258012056351,0.901637077331543
1696083180557962200,8.054962158203125,-1.2687671184539795,0.21380282938480377,0.8637634515762329
1696083180567962400,8.06496240234375,-1.2602150440216064,0.4300491213798523,0.788016140460968
1696083180577962200,8.074962158203125,-1.1942415237426758,0.7611380815505981,0.685390830039978
1696083180587962400,8.08496240234375,-1.0812314748764038,1.1166616678237915,0.5736024379730225
1696083180597962200,8.094962158203124,-0.9382890462875366,1.367727279663086,0.46364670991897583
1696083180607962400,8.10496240234375,-0.769690215587616,1.5302174091339111,0.3640756905078888
1696083180617962200,8.114962158203125,-0.5797111392021179,1.651168704032898,0.2626720666885376
1696083180627962400,8.12496240234375,-0.38728857040405273,1.6395623683929443,0.15332718193531036
1696083180637962200,8.134962158203125,-0.2125810980796814,1.4953981637954712,0.02321287989616394
1696083180647962400,8.14496240234375,-0.056810468435287476,1.3158037662506104,-0.1411098688840866
1696083180657962200,8.154962158203125,0.07757988572120667,1.1649199724197388,-0.3445279896259308
1696083180667962400,8.16496240234375,0.20586158335208893,1.0012081861495972,-0.5821545720100403
1696083180677962200,8.174962158203124,0.3536909818649292,0.8106181621551514,-0.8301658630371094
1696083180687962400,8.18496240234375,0.5369505286216736,0.6151412725448608,-1.0671815872192383
1696083180697962200,8.194962158203126,0.7507534027099609,0.44165557622909546,-1.2974777221679688
1696083180707962400,8.20496240234375,0.9523389339447021,0.3225368559360504,-1.5106697082519531
1696083180717962200,8.214962158203125,1.0726794004440308,0.33475416898727417,-1.6969836950302124
1696083180727962400,8.22496240234375,1.103833556175232,0.4660901725292206,-1.8264870643615723
1696083180737962200,8.234962158203125,1.0445796251296997,0.6890559792518616,-1.8570303916931152
1696083180747962400,8.24496240234375,0.8833111524581909,0.9938777685165405,-1.6798794269561768
1696083180757962200,8.254962158203124,0.6524040699005127,1.405600905418396,-1.3555099964141846
1696083180767962400,8.26496240234375,0.41233405470848083,1.6242907047271729,-1.2693779468536377
1696083180777962200,8.274962158203126,0.19608774781227112,1.3048081398010254,-1.3829989433288574
1696083180787962400,8.28496240234375,0.11423180252313614,0.3549126982688904,-1.3927727937698364
1696083180797962200,8.294962158203125,0.152105450630188,-0.8484918475151062,-1.0971139669418335
1696083180807962400,8.30496240234375,0.11362093687057495,-1.7146987915039062,-0.5619960427284241
1696083180817962200,8.314962158203125,-0.07269296050071716,-2.149634838104248,-0.03237585723400116
1696083180827962400,8.32496240234375,-0.2834414839744568,-2.214386463165283,0.21502456068992615
1696083180837962200,8.334962158203124,-0.42149701714515686,-2.0763309001922607,0.13927727937698364
1696083180847962400,8.34496240234375,-0.4300491213798523,-2.0195205211639404,-0.02076941914856434
1696083180857962200,8.354962158203126,-0.27122417092323303,-2.0946569442749023,-0.15332718193531036
1696083180867962400,8.36496240234375,0.02015855349600315,-2.191784381866455,-0.2791654169559479
1696083180877962200,8.374962158203125,0.3072652220726013,-2.168571710586548,-0.20402899384498596
1696083180887962400,8.38496240234375,0.4392121136188507,-1.7324138879776,0.11972958594560623
1696083180897962200,8.394962158203125,0.3836233615875244,-0.5216789245605469,0.5345070958137512
1696083180907962400,8.40496240234375,0.3793473243713379,0.6230825781822205,0.4056145250797272
1696083180917962200,8.414962158203124,0.5845980644226074,1.1624765396118164,0.16920967400074005
1696083180927962400,8.42496240234375,0.827111542224884,1.5717562437057495,0.07941248267889023
1696083180937962200,8.434962158203126,1.045190453529358,1.797776460647583,-0.10323622822761536
1696083180947962400,8.44496240234375,1.1539244651794434,1.560760736465454,-0.413555771112442
1696083180957962200,8.454962158203125,1.1264355182647705,0.9810495972633362,-0.7837401032447815
1696083180967962400,8.46496240234375,1.0971139669418335,0.3646865487098694,-1.2192870378494263
1696083180977962200,8.474962158203125,1.0403034687042236,-0.0959058403968811,-1.6694947481155396
1696083180987962400,8.48496240234375,0.9474520087242126,-0.34636059403419495,-1.9529361724853516
1696083180997962200,8.494962158203125,0.8436049222946167,-0.2376265823841095,-1.9230037927627563
1696083181007962400,8.50496240234375,0.7660250067710876,0.056810468435287476,-1.683544635772705
1696083181017962200,8.514962158203126,0.7202101349830627,0.3701843321323395,-1.389107584953308
1696083181027962400,8.52496240234375,0.7012733221054077,0.6481280326843262,-1.1459832191467285
1696083181037962200,8.534962158203125,0.6976081132888794,0.8301658630371094,-0.9938777685165405
1696083181047962400,8.54496240234375,0.6994407176971436,0.8851437568664551,-0.9560040831565857
1696083181057962200,8.554962158203125,0.8051204085350037,-0.1411098688840866,-1.7122552394866943
1696083181067962400,8.56496240234375,0.8539896011352539,-1.7537940740585327,-2.4544565677642822
1696083181077962200,8.574962158203125,0.7134906053543091,-2.676811456680298,-2.345111608505249
1696083181087962400,8.58496240234375,0.48869219422340393,-2.5521950721740723,-1.6194037199020386
1696083181097962200,8.594962158203124,0.24617868661880493,-1.6646077632904053,-0.6866125464439392
1696083181107962400,8.60496240234375,0.07208210229873657,-0.5998696684837341,0.01466076634824276
1696083181117962200,8.614962158203125,0.06902777403593063,0.2919935882091522,0.3579670190811157
1696083181127962400,8.62496240234375,0.14844025671482086,0.7739662528038025,0.4001167416572571
1696083181137962200,8.634962158203125,0.25106561183929443,0.9896016716957092,0.2541199326515198
1696083181147962400,8.64496240234375,0.3433062732219696,1.0965031385421753,0.036041051149368286
1696083181157962200,8.654962158203125,0.4141666293144226,0.9376781582832336,-0.13561208546161652
1696083181167962400,8.66496240234375,0.47830748558044434,0.5766568183898926,-0.28099802136421204
1696083181177962200,8.674962158203124,0.5369505286216736,0.03726277872920036,-0.48197266459465027
1696083181187962400,8.68496240234375,0.5668829679489136,-0.5155702829360962,-0.769079327583313
1696083181197962200,8.694962158203126,0.5564982295036316,-0.8973610401153564,-1.0836749076843262
1696083181207962400,8.70496240234375,0.5668829679489136,-1.149037480354309,-1.291369080543518
1696083181217962200,8.714962158203125,0.6004805564880371,-1.2467759847640991,-1.3420709371566772
1696083181227962400,8.72496240234375,0.607810914516449,-1.120937705039978,-1.2528846263885498
1696083181237962200,8.734962158203125,0.5907067060470581,-0.8124507665634155,-1.053742527961731
1696083181247962400,8.74496240234375,0.5674937963485718,-0.44776421785354614,-0.837496280670166
1696083181257962200,8.754962158203124,0.5546656250953674,-0.1875356286764145,-0.7147123217582703
1696083181267962400,8.76496240234375,0.5626068711280823,-0.09162978827953339,-0.7116580009460449
1696083181277962200,8.774962158203126,0.5937610268592834,-0.11911872029304504,-0.7904596328735352
1696083181287962400,8.78496240234375,0.6487388610839844,-0.1765400618314743,-0.8906415104866028
1696083181297962200,8.794962158203125,0.7079927921295166,-0.24007004499435425,-0.9810495972633362
1696083181307962400,8.80496240234375,0.7629706859588623,-0.3384193480014801,-1.0042624473571777
1696083181317962200,8.814962158203125,0.8216137290000916,-0.455705463886261,-0.8674286603927612
1696083181327962400,8.82496240234375,0.8680394887924194,-0.588874101638794,-0.5626068711280823
1696083181337962200,8.834962158203124,0.8833111524581909,-0.769079327583313,-0.17531833052635193
1696083181347962400,8.84496240234375,0.8594874143600464,-0.9645562171936035,0.1918116807937622
1696083181357962200,8.854962158203126,0.8387179970741272,-1.0458012819290161,0.4789183437824249
1696083181367962400,8.86496240234375,0.8509352803230286,-0.8839219808578491,0.6542366743087769
1696083181377962200,8.874962158203125,0.8906415104866028,-0.5607742667198181,0.6976081132888794
1696083181387962400,8.88496240234375,0.9248499870300293,-0.304210901260376,0.578489363193512
1696083181397962200,8.894962158203125,0.9089674949645996,-0.2528982162475586,0.2877175211906433
1696083181407962400,8.90496240234375,0.7648032903671265,-0.4300491213798523,-0.09224065393209457
1696083181417962200,8.914962158203124,0.44654250144958496,-0.6896668672561646,-0.3787364661693573
1696083181427962400,8.92496240234375,0.0354301854968071,-0.8710938692092896,-0.40622538328170776
1696083181437962200,8.934962158203126,-0.37568211555480957,-0.9175195693969727,-0.11789698898792267
1696083181447962400,8.94496240234375,-0.7195992469787598,-0.7904596328735352,0.4386012554168701
1696083181457962200,8.954962158203125,-0.998153805732727,-0.4453207552433014,1.1398745775222778
1696083181467962400,8.96496240234375,-1.188132882118225,-0.031154127791523933,1.8014415502548218
1696083181477962200,8.974962158203125,-1.2693779468536377,0.24373523890972137,2.31945538520813
1696083181487962400,8.98496240234375,-1.3390166759490967,0.5497786998748779,2.7146852016448975
1696083181497962200,8.994962158203125,-1.4960089921951294,1.0848966836929321,2.955976963043213
1696083181507962400,9.00496240234375,-1.7458528280258179,1.6768250465393066,2.984076738357544
1696083181517962200,9.014962158203126,-2.0928242206573486,2.052507162094116,2.8399124145507812
1696083181527962400,9.02496240234375,-2.495384454727173,2.0482311248779297,2.577240467071533
1696083181537962200,9.034962158203125,-2.805093288421631,1.6811012029647827,2.3316726684570312
1696083181547962400,9.04496240234375,-2.9162707328796387,1.0714576244354248,2.2687535285949707
1696083181557962200,9.054962158203125,-2.772106409072876,0.21930062770843506,2.356107234954834
1696083181567962400,9.06496240234375,-2.4776694774627686,-0.8356636762619019,2.4660630226135254
1696083181577962200,9.074962158203125,-2.157576084136963,-1.8765780925750732,2.39825701713562
1696083181587962400,9.08496240234375,-1.9217820167541504,-2.4831671714782715,1.996307611465454
1696083181597962200,9.094962158203124,-1.7599027156829834,-2.479501962661743,1.492343783378601
1696083181607962400,9.10496240234375,-1.623068928718567,-2.0360138416290283,1.207680583000183
1696083181617962200,9.114962158203125,-1.5570955276489258,-1.238223910331726,1.2418889999389648
1696083181627962400,9.12496240234375,-1.503339409828186,-0.4147774875164032,1.3646728992462158
1696083181637962200,9.134962158203125,-1.3811663389205933,0.342695415019989,1.3182471990585327
1696083181647962400,9.14496240234375,-1.2553280591964722,0.9004153609275818,1.1355985403060913
1696083181657962200,9.154962158203125,-1.1496484279632568,1.2486085891723633,0.9456194043159485
1696083181667962400,9.16496240234375,-1.084285855293274,1.3854423761367798,0.8014551997184753
1696083181677962200,9.174962158203124,-1.0543533563613892,1.3713924884796143,0.7489207983016968
1696083181687962400,9.18496240234375,-1.0464121103286743,1.2431107759475708,0.7953465580940247
1696083181697962200,9.194962158203126,-1.0445796251296997,1.1001683473587036,0.9230173826217651
1696083181707962400,9.20496240234375,-1.0512990951538086,0.8759807348251343,1.0183123350143433
1696083181717962200,9.214962158203125,-1.0757336616516113,0.6139195561408997,1.0134254693984985
1696083181727962400,9.22496240234375,-1.10139000415802,0.4893030524253845,0.9162978529930115
1696083181737962200,9.234962158203125,-1.083064079284668,0.6096435189247131,0.797789990901947
1696083181747962400,9.24496240234375,-1.0097602605819702,0.960280179977417,0.6798930168151855
1696083181757962200,9.254962158203124,-0.9004153609275818,1.425148606300354,0.5723807215690613
1696083181767962400,9.26496240234375,-0.7452555894851685,1.797776460647583,0.4856378734111786
1696083181777962200,9.274962158203126,-0.5571091175079346,1.9382754564285278,0.4196644127368927
1696083181787962400,9.28496240234375,-0.34758231043815613,1.8387043476104736,0.35185837745666504
1696083181797962200,9.294962158203125,-0.15027284622192383,1.5699236392974854,0.2376265823841095
1696083181807962400,9.30496240234375,0.01038470957428217,1.2113457918167114,0.04703662544488907
1696083181817962200,9.314962158203125,0.13316862285137177,0.8759807348251343,-0.18448130786418915
1696083181827962400,9.32496240234375,0.24495697021484375,0.5913175344467163,-0.4349360466003418
1696083181837962200,9.334962158203124,0.3640756905078888,0.31459560990333557,-0.6878342628479004
1696083181847962400,9.34496240234375,0.5222898125648499,0.05253441259264946,-0.9279043078422546
1696083181857962200,9.354962158203126,0.7287622094154358,-0.1973094791173935,-1.166752576828003
1696083181867962400,9.36496240234375,0.9419541954994202,-0.403781920671463,-1.4220943450927734
1696083181877962200,9.374962158203125,1.0751228332519531,-0.5338962078094482,-1.6945401430130005
1696083181887962400,9.38496240234375,1.0952813625335693,-0.5510004758834839,-1.93766450881958
1696083181897962200,9.394962158203125,1.0213667154312134,-0.394618958234787,-2.0476202964782715
1696083181907962400,9.40496240234375,0.8539896011352539,-0.04948008432984352,-1.9077321290969849
1696083181917962200,9.414962158203124,0.6053674817085266,0.40744712948799133,-1.5063936710357666
1696083181927962400,9.42496240234375,0.36224308609962463,0.7971791625022888,-1.1655309200286865
1696083181937962200,9.434962158203126,0.18325957655906677,0.7678576111793518,-1.0286970138549805
1696083181947962400,9.44496240234375,0.10323622822761536,0.3029891550540924,-0.9731083512306213
1696083181957962200,9.454962158203125,0.1111774742603302,-0.2480112910270691,-0.816726803779602
1696083181967962400,9.46496240234375,0.07696902006864548,-0.6524040699005127,-0.49724429845809937
1696083181977962200,9.474962158203125,-0.021380282938480377,-0.9242390990257263,-0.1368338167667389
1696083181987962400,9.48496240234375,-0.1319468915462494,-0.959669291973114,0.10262536257505417
1696083181997962200,9.494962158203125,-0.2278527319431305,-0.827111542224884,0.11911872029304504
1696083182007962400,9.50496240234375,-0.21624629199504852,-0.6285803318023682,-0.1160643994808197
1696083182017962200,9.514962158203126,-0.04886921867728233,-0.5070181488990784,-0.46547931432724
1696083182027962400,9.52496240234375,0.2217440903186798,-0.6548475623130798,-0.7831292152404785
1696083182037962200,9.534962158203125,0.4703662395477295,-1.074512004852295,-1.0348057746887207
1696083182047962400,9.54496240234375,0.6438519954681396,-1.5332717895507812,-1.0965031385421753
1696083182057962200,9.554962158203125,0.6878342628479004,-1.5693128108978271,-0.8399397134780884
1696083182067962400,9.56496240234375,0.6389650702476501,-1.2082914113998413,-0.39156460762023926
1696083182077962200,9.574962158203125,0.5711590051651001,-0.33108896017074585,0.12339477986097336
1696083182087962400,9.58496240234375,0.5259549617767334,0.34208452701568604,0.05253441259264946
1696083182097962200,9.594962158203124,0.5393940210342407,0.3701843321323395,0.02626720629632473
1696083182107962400,9.60496240234375,0.5699372887611389,0.12339477986097336,0.14782938361167908
1696083182117962200,9.614962158203125,0.6682865619659424,-0.1111774742603302,0.1270599663257599
1696083182127962400,9.62496240234375,0.9028588533401489,-0.2993239760398865,-0.13805554807186127
1696083182137962200,9.634962158203125,1.147204875946045,-0.4306600093841553,-0.5375614166259766
1696083182147962400,9.64496240234375,1.3854423761367798,-0.42699480056762695,-0.9272934198379517
1696083182157962200,9.654962158203125,1.6096298694610596,-0.13561208546161652,-1.274264931678772
1696083182167962400,9.66496240234375,1.6694947481155396,0.3500257730484009,-1.6102408170700073
1696083182177962200,9.674962158203124,1.4831807613372803,0.7244861721992493,-1.825876235961914
1696083182187962400,9.68496240234375,1.122159481048584,0.9468411207199097,-1.7831156253814697
1696083182197962200,9.694962158203126,0.7660250067710876,1.0629055500030518,-1.5015068054199219
1696083182207962400,9.70496240234375,0.5070181488990784,1.0867292881011963,-1.1380419731140137
1696083182217962200,9.714962158203125,0.3805690407752991,1.103833556175232,-0.827722430229187
1696083182227962400,9.72496240234375,0.3494149148464203,1.1239920854568481,-0.6688974499702454
1696083182237962200,9.734962158203125,0.4697553813457489,0.3390302062034607,-1.103833556175232
1696083182247962400,9.74496240234375,0.665232241153717,-1.2846496105194092,-1.8564194440841675
1696083182257962200,9.754962158203124,0.6676757335662842,-2.526538610458374,-2.1197023391723633
1696083182267962400,9.76496240234375,0.5436700582504272,-3.045774221420288,-1.9321668148040771
1696083182277962200,9.774962158203126,0.4288274049758911,-2.7324001789093018,-1.4001030921936035
1696083182287962400,9.78496240234375,0.3646865487098694,-1.613295078277588,-0.7067710757255554
1696083182297962200,9.794962158203125,0.3286454975605011,-0.21624629199504852,-0.10567969083786011
1696083182307962400,9.80496240234375,0.31642818450927734,0.7666358947753906,0.19547687470912933
1696083182317962200,9.814962158203125,0.3396410644054413,1.3408491611480713,0.2626720666885376
1696083182327962400,9.82496240234375,0.3836233615875244,1.510058879852295,0.1875356286764145
1696083182337962200,9.834962158203124,0.43737950921058655,1.19912850856781,0.006108652334660292
1696083182347962400,9.84496240234375,0.504574716091156,0.5277875661849976,-0.2528982162475586
1696083182357962200,9.854962158203126,0.5589417219161987,-0.34147366881370544,-0.5754350423812866
1696083182367962400,9.86496240234375,0.5644394755363464,-1.1740829944610596,-0.8973610401153564
1696083182377962200,9.874962158203125,0.5516113042831421,-1.4966198205947876,-1.0977247953414917
1696083182387962400,9.88496240234375,0.5558874011039734,-1.3952162265777588,-1.2107349634170532
1696083182397962200,9.894962158203125,0.5711590051651001,-1.1074986457824707,-1.2620476484298706
1696083182407962400,9.90496240234375,0.59803706407547,-0.8210029006004333,-1.2479976415634155
1696083182417962200,9.914962158203124,0.6383541822433472,-0.6133087277412415,-1.1533136367797852
1696083182427962400,9.92496240234375,0.6780604124069214,-0.4550946056842804,-1.0134254693984985
1696083182437962200,9.934962158203126,0.7220427393913269,-0.32131510972976685,-0.8772025108337402
1696083182447962400,9.94496240234375,0.7641924023628235,-0.21135938167572021,-0.7935139536857605
1696083182457962200,9.954962158203125,0.807563841342926,-0.1417207419872284,-0.7666358947753906
1696083182467962400,9.96496240234375,0.8405506014823914,-0.12339477986097336,-0.7739662528038025
1696083182477962200,9.974962158203125,0.8704829812049866,-0.14233160018920898,-0.7635815739631653
1696083182487962400,9.98496240234375,0.912021815776825,-0.18509216606616974,-0.6890559792518616
1696083182497962200,9.994962158203125,0.9608910083770752,-0.2528982162475586,-0.5338962078094482
1696083182507962400,10.00496240234375,0.9810495972633362,-0.37690386176109314,-0.31642818450927734
1696083182517962200,10.014962158203126,0.9523389339447021,-0.5632177591323853,-0.08674286305904388
1696083182527962400,10.02496240234375,0.9181304574012756,-0.7104362845420837,0.13561208546161652
1696083182537962200,10.034962158203125,0.8961393237113953,-0.7189884185791016,0.34513887763023376
1696083182547962400,10.04496240234375,0.8619308471679688,-0.636521577835083,0.47280970215797424
1696083182557962200,10.054962158203125,0.7745771408081055,-0.6139195561408997,0.4300491213798523
1696083182567962400,10.06496240234375,0.5742133259773254,-0.7525860071182251,0.192422553896904
1696083182577962200,10.074962158203125,0.25045475363731384,-0.959669291973114,-0.07391469180583954
1696083182587962400,10.08496240234375,-0.10018189996480942,-1.084285855293274,-0.13988813757896423
1696083182597962200,10.094962158203124,-0.423329621553421,-1.0122036933898926,0.08368854224681854
1696083182607962400,10.10496240234375,-0.694553792476654,-0.7238753437995911,0.5345070958137512
1696083182617962200,10.114962158203125,-0.8906415104866028,-0.3695734739303589,1.084285855293274
1696083182627962400,10.12496240234375,-0.99876469373703,-0.10567969083786011,1.5876387357711792
1696083182637962200,10.134962158203125,-1.0769554376602173,0.11911872029304504,1.9828685522079468
1696083182647962400,10.14496240234375,-1.169806957244873,0.5021312236785889,2.325563907623291
1696083182657962200,10.154962158203125,-1.3811663389205933,1.024420976638794,2.6120598316192627
1696083182667962400,10.16496240234375,-1.7599027156829834,1.3811663389205933,2.7091872692108154
1696083182677962200,10.174962158203124,-2.2382102012634277,1.5387696027755737,2.623666286468506
1696083182687962400,10.18496240234375,-2.6755897998809814,1.5015068054199219,2.453234910964966
1696083182697962200,10.194962158203126,-2.922990083694458,1.1844676733016968,2.3011293411254883
1696083182707962400,10.20496240234375,-2.9492573738098145,0.7348709106445312,2.250427484512329
1696083182717962200,10.214962158203125,-2.780658483505249,0.24068090319633484,2.3548855781555176
1696083182727962400,10.22496240234375,-2.426356792449951,-0.3793473243713379,2.5106561183929443
1696083182737962200,10.234962158203125,-2.065335512161255,-1.2150110006332397,2.536923408508301
1696083182747962400,10.24496240234375,-1.8319848775863647,-1.8289304971694946,2.269975185394287
1696083182757962200,10.254962158203124,-1.6725490093231201,-2.0470094680786133,1.7971655130386353
1696083182767962400,10.26496240234375,-1.5821410417556763,-1.6200146675109863,1.3280210494995117
1696083182777962200,10.274962158203126,-1.5241087675094604,-0.7837401032447815,1.171028733253479
1696083182787962400,10.28496240234375,-1.4672982692718506,-0.08918632566928864,1.2901474237442017
1696083182797962200,10.294962158203125,-1.3585642576217651,0.423329621553421,1.3726142644882202
1696083182807962400,10.30496240234375,-1.2205088138580322,0.7672467231750488,1.3603968620300293
1696083182817962200,10.314962158203125,-1.0806206464767456,0.9431759119033813,1.2901474237442017
1696083182827962400,10.32496240234375,-0.9877691268920898,0.9425650835037231,1.208902359008789
1696083182837962200,10.334962158203124,-0.9535606503486633,0.778853178024292,1.1465940475463867
1696083182847962400,10.34496240234375,-0.9639453291893005,0.5510004758834839,1.1032226085662842
1696083182857962200,10.354962158203126,-1.0384708642959595,0.4147774875164032,1.072068452835083
1696083182867962400,10.36496240234375,-1.1435397863388062,0.384845107793808,1.0751228332519531
1696083182877962200,10.374962158203125,-1.2198978662490845,0.40683624148368835,1.1081095933914185
1696083182887962400,10.38496240234375,-1.2272282838821411,0.4386012554168701,1.1331549882888794
1696083182897962200,10.394962158203125,-1.1911872625350952,0.5931501388549805,1.1246029138565063
1696083182907962400,10.40496240234375,-1.1288789510726929,0.9046914577484131,1.06657075881958
1696083182917962200,10.414962158203124,-1.016479730606079,1.207680583000183,0.9181304574012756
1696083182927962400,10.42496240234375,-0.8875871896743774,1.5063936710357666,0.7275404930114746
1696083182937962200,10.434962158203126,-0.7568620443344116,1.7690657377243042,0.5479460954666138
1696083182947962400,10.44496240234375,-0.6243042945861816,1.8380935192108154,0.41111230850219727
1696083182957962200,10.454962158203125,-0.47280970215797424,1.6823228597640991,0.2981022298336029
1696083182967962400,10.46496240234375,-0.30482175946235657,1.3909401893615723,0.1667662113904953
1696083182977962200,10.474962158203125,-0.1319468915462494,1.120937705039978,-0.003054326167330146
1696083182987962400,10.48496240234375,0.033597588539123535,0.9547823667526245,-0.23090706765651703
1696083182997962200,10.494962158203125,0.1973094791173935,0.8216137290000916,-0.4917465150356293
1696083183007962400,10.50496240234375,0.37079519033432007,0.656680166721344,-0.7623597979545593
1696083183017962200,10.514962158203126,0.5729916095733643,0.45875978469848633,-1.0311405658721924
1696083183027962400,10.52496240234375,0.7812966704368591,0.2724458873271942,-1.320690631866455
1696083183037962200,10.534962158203125,0.930347740650177,0.11301007121801376,-1.6371188163757324
1696083183047962400,10.54496240234375,0.9682214260101318,0.014049900695681572,-1.938886284828186
1696083183057962200,10.554962158203125,0.9523389339447021,0.04886921867728233,-2.169182538986206
1696083183067962400,10.56496240234375,0.9004153609275818,0.3072652220726013,-2.2198843955993652
1696083183077962200,10.574962158203125,0.7568620443344116,0.808174729347229,-1.8979582786560059
1696083183087962400,10.58496240234375,0.4966334402561188,1.3127493858337402,-1.359786033630371
1696083183097962200,10.594962158203124,0.2125810980796814,1.2431107759475708,-1.094059705734253
1696083183107962400,10.60496240234375,0.0006108652451075613,0.4147774875164032,-1.0207557678222656
1696083183117962200,10.614962158203125,-0.06780604273080826,-0.7874053120613098,-0.8381071090698242
1696083183127962400,10.62496240234375,-0.048258353024721146,-1.531439185142517,-0.5552765130996704
1696083183137962200,10.634962158203125,-0.022602014243602753,-1.6939293146133423,-0.2736676335334778
1696083183147962400,10.64496240234375,-0.04642575979232788,-1.674992561340332,-0.051312681287527084
1696083183157962200,10.654962158203125,-0.11301007121801376,-1.5082262754440308,0.04459316283464432
1696083183167962400,10.66496240234375,-0.1618792861700058,-1.1374311447143555,-0.0659734457731247
1696083183177962200,10.674962158203124,-0.1007927656173706,-0.8210029006004333,-0.33169981837272644
1696083183187962400,10.68496240234375,0.07391469180583954,-0.8906415104866028,-0.5754350423812866
1696083183197962200,10.694962158203126,0.2883284091949463,-1.2510520219802856,-0.7544185519218445
1696083183207962400,10.70496240234375,0.49724429845809937,-1.4984524250030518,-0.7073819637298584
1696083183217962200,10.714962158203125,0.627358615398407,-1.2748757600784302,-0.40683624148368835
1696083183227962400,10.72496240234375,0.6279694437980652,-0.9560040831565857,-0.039095375686883926
1696083183237962200,10.734962158203125,0.5021312236785889,-0.3689626157283783,0.12217304855585098
1696083183247962400,10.74496240234375,0.394618958234787,0.14233160018920898,-0.2321287989616394
1696083183257962200,10.754962158203124,0.5021312236785889,0.23029619455337524,-0.3023782968521118
1696083183267962400,10.76496240234375,0.6499606370925903,0.13866640627384186,-0.1869247704744339
1696083183277962200,10.774962158203126,0.8778133392333984,-0.0659734457731247,-0.26450464129447937
1696083183287962400,10.78496240234375,1.166752576828003,-0.27122417092323303,-0.618195652961731
1696083183297962200,10.794962158203125,1.4379768371582031,-0.37079519033432007,-1.017701506614685
1696083183307962400,10.80496240234375,1.5992451906204224,-0.21868975460529327,-1.3237450122833252
1696083183317962200,10.814962158203125,1.6029103994369507,0.08429940044879913,-1.606575608253479
1696083183327962400,10.82496240234375,1.4575244188308716,0.4129449129104614,-1.822821855545044
1696083183337962200,10.834962158203124,1.1539244651794434,0.7770205736160278,-1.814269781112671
1696083183347962400,10.84496240234375,0.816726803779602,1.1276572942733765,-1.5906931161880493
1696083183357962200,10.854962158203126,0.5772676467895508,1.3078625202178955,-1.318858027458191
1696083183367962400,10.86496240234375,0.4495968222618103,1.370781660079956,-1.0885618925094604
1696083183377962200,10.874962158203125,0.4508185386657715,1.207680583000183,-1.0690141916275024
1696083183387962400,10.88496240234375,0.6261368989944458,0.2675589919090271,-1.5552629232406616
1696083183397962200,10.894962158203125,0.6572909951210022,-1.0775662660598755,-1.814880609512329
1696083183407962400,10.90496240234375,0.5803219676017761,-1.6395623683929443,-1.72935950756073
1696083183417962200,10.914962158203124,0.3176499307155609,-2.238821029663086,-1.2510520219802856
1696083183427962400,10.92496240234375,0.0403171069920063,-2.157576084136963,-0.5974262356758118
1696083183437962200,10.934962158203126,-0.08552113175392151,-1.5613715648651123,-0.04703662544488907
1696083183447962400,10.94496240234375,-0.01771509274840355,-0.7104362845420837,0.26083946228027344
1696083183457962200,10.954962158203125,0.13500121235847473,0.09224065393209457,0.30482175946235657
1696083183467962400,10.96496240234375,0.24068090319633484,0.6053674817085266,0.21624629199504852
1696083183477962200,10.974962158203125,0.3170390725135803,0.8087855577468872,0.09346238523721695
1696083183487962400,10.98496240234375,0.41111230850219727,0.7684684991836548,-0.06169738993048668
1696083183497962200,10.994962158203125,0.5271766781806946,0.4966334402561188,-0.2687807083129883
1696083183507962400,11.00496240234375,0.6676757335662842,0.13072516024112701,-0.5180137157440186
1696083183517962200,11.014962158203126,0.7305948138237,-0.36102136969566345,-0.8429940342903137
1696083183527962400,11.02496240234375,0.7214318513870239,-0.8008443117141724,-1.168585181236267
1696083183537962200,11.034962158203125,0.7202101349830627,-1.0122036933898926,-1.4220943450927734
1696083183547962400,11.04496240234375,0.7391469478607178,-1.0097602605819702,-1.521665334701538
1696083183557962200,11.054962158203125,0.7611380815505981,-0.8484918475151062,-1.4196507930755615
1696083183567962400,11.06496240234375,0.7525860071182251,-0.6316346526145935,-1.1844676733016968
1696083183577962200,11.074962158203125,0.7330383062362671,-0.4453207552433014,-0.8979719281196594
1696083183587962400,11.08496240234375,0.7189884185791016,-0.37201693654060364,-0.6707300543785095
1696083183597962200,11.094962158203124,0.7257078886032104,-0.43676865100860596,-0.5668829679489136
1696083183607962400,11.10496240234375,0.7489207983016968,-0.5534439086914062,-0.5803219676017761
1696083183617962200,11.114962158203125,0.7965682744979858,-0.646295428276062,-0.6627888083457947
1696083183627962400,11.12496240234375,0.8454375267028809,-0.7006624341011047,-0.7409795522689819
1696083183637962200,11.134962158203125,0.8979719281196594,-0.7250970602035522,-0.7232644557952881
1696083183647962000,11.144962158203125,0.970054030418396,-0.7483099102973938,-0.5577199459075928
1696083183657962200,11.154962158203125,1.0476338863372803,-0.8185594081878662,-0.26572638750076294
1696083183667962400,11.16496240234375,1.1001683473587036,-0.9205739498138428,0.05619960278272629
1696083183677962200,11.174962158203124,1.112385630607605,-0.9902125597000122,0.3139847218990326
1696083183687962000,11.184962158203126,1.1020009517669678,-0.9138544201850891,0.44715335965156555
1696083183697962200,11.194962158203126,1.0793988704681396,-0.655458390712738,0.4703662395477295
1696083183707962400,11.20496240234375,1.034194827079773,-0.2919935882091522,0.4147774875164032
1696083183717962200,11.214962158203125,0.93095862865448,0.028099801391363144,0.27122417092323303
1696083183727962000,11.224962158203125,0.7043276429176331,0.152105450630188,0.031154127791523933
1696083183737962200,11.234962158203125,0.3500257730484009,0.027488935738801956,-0.2028072625398636
1696083183747962400,11.24496240234375,-0.03787364438176155,-0.16371189057826996,-0.20952677726745605
1696083183757962200,11.254962158203124,-0.3781255781650543,-0.16371189057826996,0.10567969083786011
1696083183767962000,11.264962158203126,-0.6707300543785095,0.04948008432984352,0.5876523852348328
1696083183777962200,11.274962158203126,-0.9425650835037231,0.3084869384765625,1.0396926403045654
1696083183787962400,11.28496240234375,-1.1508700847625732,0.42149701714515686,1.389107584953308
1696083183797962200,11.294962158203125,-1.2516628503799438,0.4196644127368927,1.6988162994384766
1696083183807962000,11.304962158203125,-1.3145819902420044,0.5491678714752197,2.03540301322937
1696083183817962200,11.314962158203125,-1.4587461948394775,0.8747590184211731,2.3774874210357666
1696083183827962400,11.32496240234375,-1.7507398128509521,1.176526427268982,2.5778512954711914
1696083183837962200,11.334962158203124,-2.169182538986206,1.3084733486175537,2.5754079818725586
1696083183847962000,11.344962158203124,-2.5528059005737305,1.2803735733032227,2.467284679412842
1696083183857962200,11.354962158203126,-2.777604341506958,1.1197160482406616,2.3579399585723877
1696083183867962400,11.36496240234375,-2.7867672443389893,0.7489207983016968,2.2956316471099854
1696083183877962200,11.374962158203125,-2.624277114868164,0.2278527319431305,2.331061840057373
1696083183887962000,11.384962158203125,-2.309070587158203,-0.5393940210342407,2.434908866882324
1696083183897962200,11.394962158203125,-2.0250182151794434,-1.3353514671325684,2.4239132404327393
1696083183907962400,11.40496240234375,-1.8808541297912598,-1.7519614696502686,2.1655173301696777
1696083183917962200,11.414962158203124,-1.7996090650558472,-1.6969836950302124,1.7385225296020508
1696083183927962000,11.424962158203124,-1.7006487846374512,-1.217454433441162,1.2907582521438599
1696083183937962200,11.434962158203126,-1.521665334701538,-0.8381071090698242,1.1044443845748901
1696083183947962400,11.44496240234375,-1.4172073602676392,-0.513126790523529,1.1551461219787598
1696083183957962200,11.454962158203125,-1.376279354095459,-0.16249015927314758,1.2418889999389648
1696083183967962000,11.464962158203125,-1.356731653213501,0.2577851414680481,1.197906732559204
1696083183977962200,11.474962158203125,-1.3359622955322266,0.6591235995292664,1.06657075881958
1696083183987962400,11.48496240234375,-1.3048081398010254,0.8643743395805359,0.9676105380058289
1696083183997962200,11.494962158203125,-1.2852604389190674,0.8723155856132507,0.9242390990257263
1696083184007962000,11.504962158203124,-1.2864822149276733,0.7715228199958801,0.9187413454055786
1696083184017962200,11.514962158203126,-1.3017538785934448,0.6963863968849182,0.9126327037811279
1696083184027962400,11.52496240234375,-1.320690631866455,0.7092145681381226,0.8753699064254761
1696083184037962200,11.534962158203125,-1.3127493858337402,0.7244861721992493,0.8600982427597046
1696083184047962000,11.544962158203125,-1.2681562900543213,0.6493497490882874,0.8533787727355957
1696083184057962200,11.554962158203125,-1.2015719413757324,0.6438519954681396,0.8319984674453735
1696083184067962400,11.56496240234375,-1.0922271013259888,0.7733554244041443,0.7709119319915771
1696083184077962200,11.574962158203125,-0.9578366875648499,1.015868902206421,0.6383541822433472
1696083184087962000,11.584962158203124,-0.8405506014823914,1.2877039909362793,0.45631635189056396
1696083184097962200,11.594962158203124,-0.7165449261665344,1.4819591045379639,0.2883284091949463
1696083184107962400,11.60496240234375,-0.5619960427284241,1.5558737516403198,0.1667662113904953
1696083184117962200,11.614962158203125,-0.3927863538265228,1.4844025373458862,0.08246681094169617
1696083184127962000,11.624962158203125,-0.21807889640331268,1.3451253175735474,0.001832595793530345
1696083184137963000,11.634962890625,-0.04581489413976669,1.1704177856445312,-0.11972958594560623
1696083184147963100,11.644963134765625,0.11178833991289139,0.9908234477043152,-0.30482175946235657
1696083184157963000,11.654962890625,0.2687807083129883,0.8258898258209229,-0.5363397002220154
1696083184167963100,11.664963134765625,0.44287729263305664,0.6542366743087769,-0.7898487448692322
1696083184177963000,11.674962890625,0.6401867866516113,0.4691445231437683,-1.0512990951538086
1696083184187963100,11.684963134765624,0.8515461683273315,0.2791654169559479,-1.3145819902420044
1696083184197963000,11.694962890625,1.004873275756836,0.11178833991289139,-1.5625933408737183
1696083184207963100,11.704963134765626,1.043968677520752,0.04703662544488907,-1.7641788721084595
1696083184217963000,11.714962890625,1.004873275756836,0.1869247704744339,-1.874745488166809
1696083184227963100,11.724963134765625,0.8698720932006836,0.5192354321479797,-1.7941112518310547
1696083184237963000,11.734962890625,0.6236934065818787,1.0586295127868652,-1.441641926765442
1696083184247963100,11.744963134765625,0.33658674359321594,1.5454890727996826,-1.074512004852295
1696083184257963000,11.754962890625,0.11239920556545258,1.436144232749939,-0.9566149711608887
1696083184267963100,11.764963134765624,0.02382374368607998,0.6298020482063293,-0.960280179977417
1696083184277963000,11.774962890625,0.08002334833145142,-0.5222898125648499,-0.9254608750343323
1696083184287963100,11.784963134765626,0.19914206862449646,-1.4984524250030518,-0.807563841342926
1696083184297963000,11.794962890625,0.26022860407829285,-1.9260581731796265,-0.6224716901779175
1696083184307963100,11.804963134765625,0.192422553896904,-1.9730947017669678,-0.4282165467739105
1696083184317963000,11.814962890625,0.03726277872920036,-1.7831156253814697,-0.25961771607398987
1696083184327963100,11.824963134765625,-0.11667526513338089,-1.3432927131652832,-0.18325957655906677
1696083184337963000,11.834962890625,-0.15271630883216858,-0.7373143434524536,-0.26939156651496887
1696083184347963100,11.844963134765624,-0.009162978269159794,-0.1313360333442688,-0.48380526900291443
1696083184357963000,11.854962890625,0.21013765037059784,0.17470745742321014,-0.6414085030555725
1696083184367963100,11.864963134765626,0.3536909818649292,0.06963863968849182,-0.7440338730812073
1696083184377963000,11.874962890625,0.46547931432724,-0.2828305959701538,-0.8100073337554932
1696083184387963100,11.884963134765625,0.5503895878791809,-0.4508185386657715,-0.7440338730812073
1696083184397963000,11.894962890625,0.5473352670669556,-0.4056145250797272,-0.5424483418464661
1696083184407963100,11.904963134765625,0.41111230850219727,-0.5717698931694031,-0.2889392673969269
1696083184417963000,11.914962890625,0.1612684279680252,-0.5283984541893005,-0.1771509200334549
1696083184427963100,11.924963134765624,0.054367005825042725,-0.3072652220726013,-0.21319197118282318
1696083184437962200,11.934962158203126,0.11239920556545258,-0.16493362188339233,-0.1160643994808197
1696083184447962000,11.944962158203126,0.2632829248905182,-0.2125810980796814,-0.006719517521560192
1696083184457962200,11.954962158203125,0.47708576917648315,-0.3891211748123169,-0.03420845419168472
1696083184467962400,11.96496240234375,0.7177666425704956,-0.6725626587867737,-0.24129177629947662
1696083184477962200,11.974962158203125,0.9669997096061707,-0.9279043078422546,-0.5467243790626526
1696083184487962000,11.984962158203125,1.1203268766403198,-0.930347740650177,-0.8991936445236206
1696083184497962200,11.994962158203125,1.1270463466644287,-0.5998696684837341,-1.2479976415634155
1696083184507962400,12.00496240234375,1.026253581047058,-0.021991148591041565,-1.4599679708480835
1696083184517962200,12.014962158203126,0.921184778213501,0.5607742667198181,-1.3836097717285156
1696083184527962000,12.024962158203126,0.8448266386985779,0.8203920125961304,-1.1032226085662842
1696083184537962200,12.034962158203125,0.7825183868408203,0.7861835956573486,-0.7721336483955383
1696083184547962400,12.04496240234375,0.7409795522689819,0.7031059265136719,-0.5400048494338989
1696083184557962200,12.054962158203125,0.7226535677909851,0.6994407176971436,-0.4758640229701996
1696083184567962000,12.064962158203125,0.7641924023628235,0.6017022728919983,-0.7336491346359253
1696083184577962200,12.074962158203125,0.8533787727355957,0.21930062770843506,-1.2797627449035645
1696083184587962400,12.08496240234375,0.8643743395805359,-0.36102136969566345,-1.7287486791610718
1696083184597962200,12.094962158203124,0.7654141783714294,-0.9340129494667053,-1.8496999740600586
1696083184607962000,12.104962158203126,0.6304129362106323,-1.2095131874084473,-1.6218472719192505
1696083184617962200,12.114962158203125,0.5088507533073425,-1.0348057746887207,-1.1527026891708374
1696083184627962400,12.12496240234375,0.4306600093841553,-0.5656611919403076,-0.617584764957428
1696083184637962200,12.134962158203125,0.40194934606552124,-0.039095375686883926,-0.19058994948863983
1696083184647962000,12.144962158203125,0.3897320330142975,0.37690386176109314,0.007941247895359993
1696083184657962200,12.154962158203125,0.3701843321323395,0.5564982295036316,0.027488935738801956
1696083184667962400,12.16496240234375,0.35735616087913513,0.4538728892803192,-0.03726277872920036
1696083184677962200,12.174962158203124,0.37751471996307373,0.17959438264369965,-0.1368338167667389
1696083184687962000,12.184962158203126,0.4282165467739105,-0.21013765037059784,-0.252287358045578
1696083184697962200,12.194962158203126,0.4966334402561188,-0.5717698931694031,-0.3585779070854187
1696083184707962400,12.20496240234375,0.5503895878791809,-0.7916813492774963,-0.47219884395599365
1696083184717962200,12.214962158203125,0.5656611919403076,-0.8973610401153564,-0.6163630485534668
1696083184727962000,12.224962158203125,0.5571091175079346,-0.8973610401153564,-0.7641924023628235
1696083184737962200,12.234962158203125,0.5534439086914062,-0.836885392665863,-0.8546004891395569
1696083184747962400,12.24496240234375,0.5656611919403076,-0.720820963382721,-0.8417723178863525
1696083184757962200,12.254962158203124,0.5876523852348328,-0.5736024379730225,-0.7519751191139221
1696083184767962000,12.264962158203126,0.5900958180427551,-0.43127086758613586,-0.6450737118721008
1696083184777962200,12.274962158203126,0.5607742667198181,-0.3084869384765625,-0.5833762884140015
1696083184787962400,12.28496240234375,0.5345070958137512,-0.22540926933288574,-0.5955936312675476
1696083184797962200,12.294962158203125,0.5296201705932617,-0.1820378452539444,-0.6603453159332275
1696083184807962000,12.304962158203125,0.5552765130996704,-0.17592918872833252,-0.759916365146637
1696083184817962200,12.314962158203125,0.5962044596672058,-0.2064724564552307,-0.8747590184211731
1696083184827962400,12.32496240234375,0.6499606370925903,-0.2773328125476837,-0.9718865752220154
1696083184837962200,12.334962158203124,0.7128797173500061,-0.35735616087913513,-0.9902125597000122
1696083184847962000,12.344962158203124,0.769690215587616,-0.39095374941825867,-0.8662069439888
1696083184857962200,12.354962158203126,0.8069530129432678,-0.3830125033855438,-0.6120869517326355
1696083184867962400,12.36496240234375,0.8148942589759827,-0.3995058834552765,-0.3017674386501312
1696083184877962200,12.374962158203125,0.797789990901947,-0.475253164768219,0
1696083184887962000,12.384962158203125,0.7751879692077637,-0.5564982295036316,0.26083946228027344
1696083184897962200,12.394962158203125,0.7531968355178833,-0.5858197808265686,0.4642575979232788
1696083184907962400,12.40496240234375,0.7263187766075134,-0.5247332453727722,0.5821545720100403
1696083184917962200,12.414962158203124,0.6890559792518616,-0.38728857040405273,0.5852088928222656
1696083184927962000,12.424962158203124,0.6236934065818787,-0.24617868661880493,0.4538728892803192
1696083184937962200,12.434962158203126,0.4996877610683441,-0.1661553531885147,0.2223549485206604
1696083184947962400,12.44496240234375,0.2767219543457031,-0.11850785464048386,-0.01466076634824276
1696083184957962200,12.454962158203125,-0.04459316283464432,-0.006719517521560192,-0.13866640627384186
1696083184967962000,12.464962158203125,-0.4153883755207062,0.22907446324825287,-0.059864792972803116
1696083184977962200,12.474962158203125,-0.7648032903671265,0.5711590051651001,0.25595253705978394
1696083184987962400,12.48496240234375,-1.0983357429504395,0.846659243106842,0.7110471725463867
1696083184997962200,12.494962158203125,-1.4117095470428467,0.9352346658706665,1.149037480354309
1696083185007962400,12.50496240234375,-1.6847662925720215,0.8741481900215149,1.4685200452804565
1696083185017962200,12.514962158203126,-1.9462167024612427,0.7855727076530457,1.7531832456588745
1696083185027962400,12.52496240234375,-2.1954495906829834,0.8069530129432678,2.0946569442749023
1696083185037962200,12.534962158203125,-2.367713689804077,0.8087855577468872,2.426356792449951
1696083185047962400,12.54496240234375,-2.4196372032165527,0.6407976150512695,2.6835310459136963
1696083185057962200,12.554962158203125,-2.3793201446533203,0.27122417092323303,2.8374691009521484
1696083185067962400,12.56496240234375,-2.213775634765625,-0.30543261766433716,2.85274076461792
1696083185077962200,12.574962158203125,-1.9504927396774292,-0.9492846131324768,2.7507262229919434
1696083185087962400,12.58496240234375,-1.7061465978622437,-1.2962560653686523,2.4678955078125
1696083185097962200,12.594962158203124,-1.4984524250030518,-1.3041973114013672,2.074498414993286
1696083185107962400,12.60496240234375,-1.321912407875061,-1.0848966836929321,1.7079792022705078
1696083185117962200,12.614962158203125,-1.187522053718567,-0.6878342628479004,1.4404202699661255
1696083185127962400,12.62496240234375,-1.0726794004440308,-0.3494149148464203,1.2773191928863525
1696083185137962200,12.634962158203125,-0.9920451641082764,-0.16065755486488342,1.2626584768295288
1696083185147962400,12.64496240234375,-0.9492846131324768,-0.05375614017248154,1.387274980545044
1696083185157962200,12.654962158203125,-0.9474520087242126,0.02382374368607998,1.5387696027755737
1696083185167962400,12.66496240234375,-0.9779952764511108,0.13866640627384186,1.5888605117797852
1696083185177962200,12.674962158203124,-0.9743300676345825,0.35246923565864563,1.522887110710144
1696083185187962400,12.68496240234375,-0.9456194043159485,0.5155702829360962,1.4013248682022095
1696083185197962200,12.694962158203126,-0.9266825914382935,0.5357288122177124,1.2907582521438599
1696083185207962400,12.70496240234375,-0.9431759119033813,0.4129449129104614,1.2443325519561768
1696083185217962200,12.714962158203125,-0.9841039180755615,0.1215621829032898,1.2443325519561768
1696083185227962400,12.72496240234375,-1.053742527961731,-0.10995574295520782,1.177748203277588
1696083185237962200,12.734962158203125,-1.1410962343215942,-0.22418753802776337,1.0464121103286743
1696083185247962400,12.74496240234375,-1.2052371501922607,-0.2687807083129883,0.9156870245933533
1696083185257962200,12.754962158203124,-1.1985175609588623,-0.22663100063800812,0.8484918475151062
1696083185267962400,12.76496240234375,-1.1197160482406616,-0.042760565876960754,0.817948579788208
1696083185277962200,12.774962158203126,-0.9926560521125793,0.2370157092809677,0.7678576111793518
1696083185287962000,12.784962158203125,-0.8203920125961304,0.5870414972305298,0.6823364496231079
1696083185297962000,12.7949619140625,-0.6114761233329773,0.9346238374710083,0.5766568183898926
