time,seconds_elapsed,z,y,x
1695712577694153000,0.145153076171875,9.366703987121582,3.4061830043792725,1.212562918663025
1695712577704185300,0.155185302734375,9.620343208312988,3.181257724761963,1.0929217338562012
1695712577714220800,0.165220703125,8.748757362365723,3.4923245906829834,0.8105686902999878
1695712577724253000,0.1752529296875,7.863413333892822,4.124628067016602,0.6813562512397766
1695712577734433800,0.185433837890625,8.006982803344727,4.564907550811768,0.8584251403808594
1695712577744472600,0.19547265625,7.70967435836792,4.560121536254883,0.9780662655830383
1695712577754355500,0.20535546875,8.662615776062012,4.459623336791992,1.0354939699172974
1695712577764530400,0.215530517578125,10.013364791870117,4.397409915924072,1.088136076927185
1695712577774560500,0.225560546875,10.176076889038086,4.296911239624023,1.1264212131500244
1695712577784587300,0.235587158203125,10.463214874267578,4.416552543640137,1.0977073907852173
1695712577794614000,0.245614013671875,10.73121166229248,4.397409915924072,1.3280165195465088
1695712577804488700,0.25548876953125,10.4823579788208,4.402195453643799,1.7539390325546265
1695712577814464000,0.265464111328125,10.267004013061523,4.502694129943848,1.9884356260299683
1695712577824583200,0.275583251953125,10.233504295349121,4.469194412231445,1.8687944412231445
1695712577834619400,0.285619384765625,10.195219039916992,4.1868414878845215,1.5337992906570435
1695712577844613400,0.29561328125,10.214361190795898,4.071985721588135,1.4333007335662842
1695712577854631700,0.305631591796875,10.13300609588623,4.205984115600586,1.6247265338897705
1695712577864707800,0.315707763671875,9.424132347106934,4.196412563323975,1.6821542978286743
1695712577874750700,0.325750732421875,9.395418167114258,3.947559118270874,1.4428720474243164
1695712577884768000,0.33576806640625,9.223134994506836,4.124628067016602,0.9876375198364258
1695712577894800000,0.3457998046875,9.203991889953613,4.229912281036377,0.8871390223503113
1695712577904835000,0.3558349609375,9.247062683105469,4.129413604736328,0.8344969153404236
1695712577914868500,0.365868408203125,9.30449104309082,3.9427735805511475,1.179063320159912
1695712577924899300,0.3758994140625,9.347561836242676,4.095914363861084,1.399801254272461
1695712577934931500,0.385931396484375,9.294919967651367,4.862215518951416,1.9980069398880005
1695712577944955400,0.395955322265625,8.926424980163574,5.144568920135498,2.289931297302246
1695712577954984000,0.40598388671875,8.14098072052002,5.670989513397217,2.0745773315429688
1695712577964998100,0.415998046875,7.542177200317383,5.034498691558838,2.1415762901306152
1695712577975020500,0.4260205078125,7.11146879196167,4.411766529083252,1.6295121908187866
1695712577985084200,0.436084228515625,6.963113784790039,4.521836757659912,0.719641387462616
1695712577995124000,0.4461240234375,7.551748275756836,4.756931304931641,-0.08015955984592438
1695712578005150200,0.456150146484375,8.107481002807617,4.670191764831543,0.08255238085985184
1695712578015184400,0.466184326171875,8.590831756591797,4.545764923095703,0.7770691514015198
1695712578025234700,0.476234619140625,8.289336204528809,4.325624942779541,1.3471591472625732
1695712578035275500,0.486275634765625,7.451249599456787,4.091128349304199,1.2699905633926392
1695712578045271800,0.496271728515625,6.479165554046631,3.8470606803894043,1.0019944906234741
1695712578055294000,0.5062939453125,5.833103179931641,3.5928232669830322,0.8584251403808594
1695712578065344500,0.516344482421875,5.507081508636475,3.166900873184204,0.9924231767654419
1695712578075378400,0.52637841796875,5.420939922332764,2.750549554824829,0.8297112584114075
1695712578085406200,0.53640625,5.483152866363525,2.11824631690979,0.4468596279621124
1695712578095437300,0.546437255859375,5.74696159362793,1.8263218402862549,-0.08973085135221481
1695712578105471500,0.556471435546875,5.526223659515381,1.3854442834854126,-0.1950150430202484
1695712578115503000,0.566503173828125,4.851448059082031,0.8973084688186646,-0.18544375896453857
1695712578125531000,0.57653076171875,4.142574310302734,0.10707881301641464,0.0011964113218709826
1695712578135562000,0.58656201171875,4.085146427154541,-0.9320043921470642,0.5856433510780334
1695712578145597200,0.59659716796875,4.032504558563232,-2.7804598808288574,1.648654818534851
1695712578155628800,0.60662890625,3.5437703132629395,-4.978267669677734,3.142374277114868
1695712578165658400,0.616658447265625,3.6155550479888916,-4.188037872314453,2.668595552444458
1695712578175689700,0.626689697265625,3.754936933517456,-3.2590243816375732,1.7012969255447388
1695712578185716500,0.636716552734375,3.548556089401245,-3.029313564300537,1.0498509407043457
1695712578195747300,0.646747314453125,3.1513473987579346,-3.1585259437561035,0.9828519225120544
1695712578205810000,0.656809814453125,3.5533416271209717,-3.469592809677124,0.9445667266845703
1695712578215844000,0.666843994140625,3.4672000408172607,-3.996612071990967,1.064207911491394
1695712578225848800,0.676848876953125,3.390629768371582,-4.872983455657959,1.6965112686157227
1695712578235880000,0.6868798828125,3.428914785385132,-5.907280921936035,3.0993034839630127
1695712578245931000,0.696930908203125,3.778865098953247,-7.2813591957092285,4.176671981811523
1695712578255964200,0.706964111328125,4.7605204582214355,-8.282156944274902,4.622334957122803
1695712578266002200,0.717002197265625,5.8474602699279785,-8.751151084899902,4.8089752197265625
1695712578276035600,0.72703564453125,6.9583282470703125,-9.168100357055664,4.818546772003174
1695712578286038000,0.7370380859375,7.671389579772949,-9.244669914245605,5.1152567863464355
1695712578296068400,0.747068359375,7.144968509674072,-9.900901794433594,6.010770320892334
1695712578306135000,0.757135009765625,6.20638370513916,-11.466405868530273,6.734001159667969
1695712578316169200,0.767169189453125,4.8466620445251465,-12.558131217956543,6.777071952819824
1695712578326197000,0.777197021484375,3.414557933807373,-13.176077842712402,7.135995388031006
1695712578336373500,0.78737353515625,2.3371894359588623,-13.779068946838379,9.06580638885498
1695712578346407000,0.797406982421875,1.5134602785110474,-14.497513771057129,11.689537048339844
1695712578356430000,0.80743017578125,1.1258230209350586,-14.655440330505371,15.754942893981934
1695712578366462500,0.81746240234375,1.1832507848739624,-13.846068382263184,20.438295364379883
1695712578376494800,0.827494873046875,1.5906288623809814,-12.806984901428223,24.575485229492188
1695712578386382300,0.83738232421875,1.4033905267715454,-11.255837440490723,28.415966033935547
1695712578396402700,0.847402587890625,0.3643072545528412,-9.302098274230957,31.67678451538086
1695712578406437400,0.857437255859375,-1.7569299936294556,-7.501499176025391,33.759735107421875
1695712578416459300,0.867459228515625,-3.025724172592163,-5.715256690979004,34.34358596801758
1695712578426514200,0.87751416015625,-3.355933666229248,-3.934398651123047,33.10829162597656
1695712578436539600,0.88753955078125,-2.513062000274658,-2.4017956256866455,30.642486572265625
1695712578446577000,0.897576904296875,-1.4069796800613403,-1.0612168312072754,27.865018844604492
1695712578456603400,0.907603271484375,-1.2873386144638062,-0.04127619042992592,25.077978134155273
1695712578466632400,0.917632568359375,-1.771286964416504,0.8733802437782288,22.36332130432129
1695712578476659000,0.927658935546875,-2.6285157203674316,1.677966833114624,20.19422721862793
1695712578486705000,0.937704833984375,-3.61435866355896,2.1948165893554688,18.465412139892578
1695712578496733700,0.947733642578125,-4.265804767608643,2.3910279273986816,16.57388687133789
1695712578506742300,0.9577421875,-4.945964336395264,2.276172637939453,12.978072166442871
1695712578516768800,0.967768798828125,-6.214758396148682,2.017747640609741,7.150352478027344
1695712578526839600,0.977839599609375,-15.982858657836914,0.5575276613235474,-3.0011978149414062
1695712578536870400,0.987870361328125,-14.666208267211914,-2.957528829574585,-4.3417768478393555
1695712578546871600,0.99787158203125,-5.0464630126953125,-2.554936408996582,5.1343994140625
1695712578556899600,1.007899658203125,5.7134623527526855,3.3439695835113525,11.316256523132324
1695712578566934500,1.0179345703125,3.8985064029693604,-2.8283164501190186,6.283552169799805
1695712578576963300,1.02796337890625,0.12502498924732208,-4.05403995513916,1.5337992906570435
1695712578587012000,1.03801220703125,-0.9858429431915283,-2.957528829574585,1.0163514614105225
1695712578597043000,1.04804296875,1.9639091491699219,-2.593221426010132,3.9326040744781494
1695712578607095300,1.05809521484375,2.499901533126831,-1.76051926612854,4.938187599182129
1695712578617128200,1.068128173828125,2.461616277694702,-2.9766714572906494,5.163113117218018
1695712578627161300,1.078161376953125,1.1784651279449463,-3.211168050765991,5.057828903198242
1695712578637194200,1.0881943359375,0.5324030518531799,-4.4033918380737305,5.282754421234131
1695712578647219000,1.098218994140625,0.8578268885612488,-5.4951171875,6.288337707519531
1695712578657251000,1.1082509765625,0.46480581164360046,-7.937591075897217,7.931010723114014
1695712578667281400,1.118281494140625,-1.2251251935958862,-7.534998416900635,8.82652473449707
1695712578677313300,1.128313232421875,-0.03290131315588951,-9.56052303314209,11.929417610168457
1695712578687335400,1.13833544921875,3.500699520111084,-9.622735977172852,14.337793350219727
1695712578697366300,1.1483662109375,4.837090969085693,-12.390633583068848,14.519647598266602
1695712578707417300,1.158417236328125,2.1266210079193115,-14.641083717346191,11.316256523132324
1695712578717450200,1.1684501953125,-0.8183453679084778,-14.0715913772583,9.07537841796875
1695712578727466200,1.17846630859375,-2.3886351585388184,-13.831710815429688,8.476573944091797
1695712578737497600,1.18849755859375,-2.5465614795684814,-12.19920825958252,7.0546393394470215
1695712578747533800,1.198533935546875,-2.5800609588623047,-9.345169067382812,5.891129493713379
1695712578757565400,1.2085654296875,-2.5226333141326904,-6.208776473999023,5.508277893066406
1695712578767597300,1.218597412109375,-1.4452649354934692,-4.503890514373779,5.771488189697266
1695712578777629000,1.22862890625,1.0396814346313477,-3.6424741744995117,5.661418437957764
1695712578787673900,1.238673828125,2.499901533126831,-3.483949661254883,5.8337016105651855
1695712578797706800,1.248706787109375,4.070789337158203,-3.493520975112915,5.670989513397217
1695712578807724500,1.258724609375,4.037290096282959,-3.211168050765991,5.804987907409668
1695712578817756000,1.268755859375,3.596412420272827,-3.531806230545044,6.307480335235596
1695712578827799300,1.27879931640625,1.7916259765625,-4.849055290222168,7.2125654220581055
1695712578837832000,1.28883203125,-2.4221346378326416,-7.314858913421631,7.892725467681885
1695712578847829800,1.298829833984375,-4.174877166748047,-8.904889106750488,9.271589279174805
1695712578857858800,1.30885888671875,-1.0767701864242554,-7.966304779052734,8.352147102355957
1695712578867897600,1.318897705078125,0.4169493317604065,-7.678567886352539,9.41037368774414
1695712578877927700,1.328927734375,-0.3248256742954254,-7.57806921005249,10.071390151977539
1695712578887961900,1.3389619140625,-1.0049854516983032,-8.00937557220459,8.749954223632812
1695712578897992400,1.348992431640625,-1.0001999139785767,-8.871390342712402,6.982854843139648
1695712578908022800,1.359022705078125,-0.372682124376297,-8.688937187194824,5.8097734451293945
1695712578918053000,1.36905322265625,0.7334001660346985,-4.264608383178711,4.871188640594482
1695712578928121900,1.379121826171875,1.0923235416412354,-2.7517459392547607,5.048257350921631
1695712578938156000,1.389156005859375,1.1306086778640747,-3.053241729736328,5.714060306549072
1695712578948180500,1.399180419921875,1.4177473783493042,-3.153740167617798,6.10169792175293
1695712578958213600,1.409213623046875,1.475175142288208,-3.0580272674560547,6.32662296295166
1695712578968218600,1.419218505859375,0.9343972206115723,-3.603590965270996,6.293123722076416
1695712578978249000,1.4292490234375,0.3451646566390991,-4.202394962310791,6.178267955780029
1695712578988285000,1.439284912109375,0.09152546525001526,-2.1337995529174805,5.2731828689575195
1695712578998315800,1.449315673828125,-0.4588237404823303,-1.5206388235092163,4.842474937438965
1695712579008374800,1.459374755859375,-0.8231309652328491,-0.8171489238739014,4.406383037567139
1695712579018408700,1.46940869140625,-0.5306084156036377,-0.3044866919517517,4.157529354095459
1695712579028408000,1.479407958984375,-0.4253242313861847,-0.8123632669448853,4.2245283126831055
1695712579038438400,1.4894384765625,-0.7992027401924133,-0.7836494445800781,2.65423846244812
1695712579048508200,1.499508056640625,1.3363914489746094,-2.9288148880004883,0.50907301902771
1695712579058542300,1.509542236328125,5.071587562561035,-1.1665010452270508,-0.1663011759519577
1695712579068558000,1.51955810546875,5.645864963531494,-4.097110748291016,-0.8512466549873352
1695712579078590500,1.529590576171875,5.852245807647705,-6.543771743774414,-1.1718848943710327
1695712579088632800,1.5396328125,6.460022926330566,-10.164112091064453,-1.5451651811599731
1695712579098666200,1.549666259765625,3.7597224712371826,-11.609975814819336,-1.430309772491455
1695712579108687600,1.5596875,1.451246976852417,-10.949556350708008,-1.4829518795013428
1695712579118719700,1.5697197265625,2.51425838470459,-18.21356773376465,1.466800332069397
1695712579128749000,1.5797490234375,2.6153552532196045,-37.56791305541992,1.2987045049667358
1695712579138781000,1.589781005859375,0.014955141581594944,-41.159542083740234,-0.013160524889826775
1695712579148820000,1.599820068359375,-2.6668007373809814,-26.54537582397461,2.1990039348602295
1695712579158852600,1.6098525390625,-2.3024935722351074,-16.360326766967773,3.702893018722534
1695712579168884200,1.61988427734375,-1.0001999139785767,-11.10748291015625,3.970889091491699
1695712579178916600,1.62991650390625,-0.09032905846834183,-7.94716215133667,2.7738797664642334
1695712579188958500,1.63995849609375,0.33080771565437317,-6.309275150299072,1.5864413976669312
1695712579198992000,1.649991943359375,-0.1621137410402298,-7.554141044616699,0.22133609652519226
1695712579209001000,1.6600009765625,-0.32961133122444153,-14.167304992675781,-2.249253273010254
1695712579219031800,1.67003173828125,0.8530412912368774,-16.226327896118164,-5.289932727813721
1695712579229063000,1.68006298828125,2.184048891067505,-10.451251029968262,-8.809176445007324
1695712579239094000,1.690093994140625,2.3563320636749268,-6.6107707023620605,-9.269196510314941
1695712579249134800,1.700134765625,2.0644078254699707,-5.375475883483887,-8.081758499145508
1695712579259167000,1.7101669921875,2.0787646770477295,-5.274977684020996,-4.9160542488098145
1695712579269352200,1.720352294921875,2.303689956665039,-6.467201232910156,-3.2404799461364746
1695712579279397400,1.7303974609375,2.610569477081299,-7.803592681884766,-2.407179594039917
1695712579289442600,1.740442626953125,2.7876384258270264,-9.196813583374023,-1.94297194480896
1695712579299310600,1.750310546875,2.9359934329986572,-10.125826835632324,-3.029911756515503
1695712579309342000,1.760342041015625,2.2510478496551514,-10.446465492248535,-3.101696252822876
1695712579319356400,1.7703564453125,1.211964726448059,-10.604392051696777,-2.172683000564575
1695712579329386000,1.780385986328125,0.7094719409942627,-10.671390533447266,-1.9812572002410889
1695712579339447000,1.790447021484375,0.41216370463371277,-10.039685249328613,-1.5451651811599731
1695712579349480000,1.80047998046875,0.6281159520149231,-9.565308570861816,-1.7078771591186523
1695712579359500300,1.810500244140625,0.9200403094291687,-9.373882293701172,-2.311466693878174
1695712579369532000,1.820531982421875,0.98703932762146,-8.995817184448242,-2.273181438446045
1695712579379557400,1.830557373046875,0.9439685344696045,-8.775078773498535,-2.2923240661621094
1695712579389588200,1.840588134765625,0.7286145091056824,-8.650651931762695,-2.493321180343628
1695712579399618300,1.850618408203125,0.38344982266426086,-8.83250617980957,-2.723032236099243
1695712579409649200,1.860649169921875,-0.08075776696205139,-9.182456970214844,-2.7278177738189697
1695712579419668000,1.87066796875,-0.38703906536102295,-9.704092025756836,-2.809173822402954
1695712579429697500,1.880697509765625,-0.7082754969596863,-9.881759643554688,-2.4646072387695312
1695712579439752400,1.89075244140625,-1.2586246728897095,-10.04447078704834,-1.7413766384124756
1695712579449784800,1.900784912109375,-1.5361921787261963,-10.441679954528809,-1.3441680669784546
1695712579459798500,1.910798583984375,-0.17168502509593964,-10.27896785736084,-2.359323024749756
1695712579469828900,1.920828857421875,-1.7425731420516968,-9.728020668029785,-1.6839489936828613
1695712579479889400,1.930889404296875,-0.3439682424068451,-10.101899147033691,-2.3306093215942383
1695712579489922800,1.9409228515625,-1.0671988725662231,-10.259825706481934,-1.947757601737976
1695712579499924500,1.950924560546875,-1.3399807214736938,-10.111470222473145,-1.6121642589569092
1695712579509954600,1.96095458984375,-2.015354871749878,-9.402596473693848,-1.1670992374420166
1695712579519985700,1.970985595703125,-2.259422779083252,-8.765507698059082,-1.358525037765503
1695712579530016000,1.98101611328125,-1.5170495510101318,-8.559724807739258,-2.0673987865448
1695712579540062000,1.99106201171875,-0.8614161610603333,-7.793423175811768,-4.303491592407227
1695712579550093600,2.001093505859375,-1.6516457796096802,-8.21994400024414,-3.8865420818328857
1695712579560117500,2.011117431640625,-1.7904295921325684,-9.694520950317383,-2.4119651317596436
1695712579570148400,2.0211484375,-1.8574285507202148,-10.250253677368164,-1.7270197868347168
1695712579580177700,2.031177734375,-2.197209358215332,-10.326824188232422,-1.3776676654815674
1695712579590208500,2.04120849609375,-1.83828604221344,-10.197611808776855,-0.6640082597732544
1695712579600261000,2.05126123046875,-1.1820544004440308,-9.915258407592773,0.2069791555404663
1695712579610294300,2.061294189453125,-0.9667003750801086,-9.665806770324707,0.48514479398727417
1695712579620330500,2.07133056640625,-1.0001999139785767,-9.637093544006348,0.5712863802909851
1695712579630364000,2.081364013671875,-1.0001999139785767,-9.862018585205078,0.3080759048461914
1695712579640394200,2.091394287109375,-1.1485549211502075,-9.972686767578125,0.1495514214038849
1695712579650427400,2.101427490234375,-1.5026925802230835,-9.972686767578125,-0.2715853750705719
1695712579660467700,2.1114677734375,-1.6133606433868408,-9.766305923461914,-0.2907279431819916
1695712579670501400,2.12150146484375,-1.5074782371520996,-9.641879081726074,-0.43908295035362244
1695712579680525000,2.131525146484375,-1.6133606433868408,-9.287740707397461,-0.5491527915000916
1695712579690557700,2.1415576171875,-1.6803597211837769,-8.813364028930664,-0.7310073375701904
1695712579700585700,2.151585693359375,-1.8047864437103271,-8.397012710571289,-1.2915260791778564
1695712579710617900,2.161617919921875,-1.7569299936294556,-8.339585304260254,-1.425524115562439
1695712579720652800,2.17165283203125,-1.7521443367004395,-8.684151649475098,-1.7413766384124756
1695712579730685200,2.181685302734375,-1.800000786781311,-9.278169631958008,-1.9573289155960083
1695712579740690700,2.191690673828125,-1.6755740642547607,-9.842875480651855,-1.6313068866729736
1695712579750720500,2.201720458984375,-1.4117653369903564,-10.221540451049805,-1.334596872329712
1695712579760776400,2.2117763671875,-1.2681959867477417,-10.259825706481934,-1.5547364950180054
1695712579770808800,2.221808837890625,-1.0719845294952393,-9.963115692138672,-1.430309772491455
1695712579780818700,2.231818603515625,-0.7513462901115417,-9.651450157165527,-1.358525037765503
1695712579790848800,2.241848876953125,-1.1341979503631592,-9.761520385742188,-0.9804590940475464
1695712579800911600,2.25191162109375,-1.1198409795761108,-9.651450157165527,-1.2436695098876953
1695712579810945000,2.261945068359375,-1.2873386144638062,-9.483952522277832,-1.3441680669784546
1695712579820974300,2.271974365234375,-1.1724830865859985,-9.512666702270508,-1.3058829307556152
1695712579831007200,2.28200732421875,-1.191625714302063,-9.57487964630127,-1.5020943880081177
1695712579841048300,2.29204833984375,-1.0432707071304321,-9.555737495422363,-1.923829436302185
1695712579851082000,2.30208203125,-0.8997012972831726,-9.302098274230957,-2.1056840419769287
1695712579861085700,2.312085693359375,-0.6173482537269592,-8.760722160339355,-2.493321180343628
1695712579871116500,2.322116455078125,-0.511465847492218,-8.688937187194824,-3.0825538635253906
1695712579881168600,2.332168701171875,-0.39182472229003906,-8.698508262634277,-3.4606196880340576
1695712579891201300,2.342201171875,-0.1908276081085205,-8.789435386657715,-3.580260992050171
1695712579901215200,2.35221533203125,-0.4827519655227661,-8.857032775878906,-3.2309088706970215
1695712579911246000,2.36224609375,-0.7992027401924133,-9.110671997070312,-2.761317253112793
1695712579921291800,2.372291748046875,-0.8949156403541565,-9.316454887390137,-2.3545374870300293
1695712579931324200,2.38232421875,-0.8614161610603333,-9.493523597717285,-2.00518536567688
1695712579941364000,2.392364013671875,-0.8662018179893494,-9.517452239990234,-1.7796618938446045
1695712579951396900,2.40239697265625,-0.8662018179893494,-9.45045280456543,-1.8131613731384277
1695712579961401600,2.412401611328125,-0.8662018179893494,-9.359525680541992,-1.828116536140442
1695712579971432000,2.422431884765625,-0.8566305041313171,-9.416953086853027,-1.9381862878799438
1695712579981487400,2.4324873046875,-0.9236295223236084,-9.598808288574219,-1.8903298377990723
1695712579991520000,2.44252001953125,-1.0049854516983032,-9.737591743469238,-1.7222341299057007
1695712580001556700,2.452556640625,-1.0432707071304321,-9.77109146118164,-1.5068800449371338
1695712580011590000,2.46258984375,-1.0241280794143677,-9.766305923461914,-1.4063814878463745
1695712580021609000,2.47260888671875,-0.97148597240448,-9.77109146118164,-1.430309772491455
1695712580031640600,2.482640625,-1.0336993932724,-9.713663101196289,-1.3250255584716797
1695712580041676500,2.492676513671875,-1.196411371231079,-9.670592308044434,-1.186241865158081
1695712580051708700,2.502708740234375,-1.2634103298187256,-9.613164901733398,-1.2293126583099365
1695712580061741800,2.512741943359375,-1.1676974296569824,-9.751948356628418,-1.2532408237457275
1695712580071774000,2.52277392578125,-1.215553879737854,-9.82373332977295,-1.4973087310791016
1695712580081790500,2.53279052734375,-1.3543375730514526,-9.77109146118164,-1.7796618938446045
1695712580091821000,2.542821044921875,-1.210768222808838,-9.718449592590332,-1.5930216312408447
1695712580101875500,2.55287548828125,-0.9762716293334961,-9.613164901733398,-1.4685949087142944
1695712580111908600,2.56290869140625,-0.794417142868042,-9.565308570861816,-1.4638092517852783
1695712580121932000,2.57293212890625,-0.698704183101654,-9.29731273651123,-0.5300102233886719
1695712580131964200,2.582964111328125,-0.9619147181510925,-8.861818313598633,-0.9613165259361267
1695712580141997800,2.592997802734375,-1.0959128141403198,-9.067601203918457,-1.1240284442901611
1695712580152030000,2.603030029296875,-1.2203395366668701,-9.316454887390137,-1.2436695098876953
1695712580162037000,2.613037109375,-1.0959128141403198,-9.517452239990234,-1.3824533224105835
1695712580172066600,2.623066650390625,-1.4021940231323242,-9.531808853149414,-1.2388839721679688
1695712580182127000,2.633127197265625,-1.6085749864578247,-9.589237213134766,-1.44945228099823
1695712580192159700,2.64315966796875,-1.2729816436767578,-9.608379364013672,-1.296311616897583
1695712580202177000,2.653177001953125,-1.6803597211837769,-9.732806205749512,-1.4350954294204712
1695712580212208000,2.6632080078125,-1.7330018281936646,-9.857233047485352,-1.4446666240692139
1695712580222266600,2.6732666015625,-1.6707884073257446,-9.555737495422363,-1.1958130598068237
1695712580232300500,2.683300537109375,-1.6707884073257446,-9.32602596282959,-1.4063814878463745
1695712580242292700,2.693292724609375,-1.5846468210220337,-9.239884376525879,-1.3489537239074707
1695712580252322600,2.703322509765625,-1.77607262134552,-9.431310653686523,-1.9908283948898315
1695712580262364400,2.713364501953125,-1.435693621635437,-9.637093544006348,-1.8131613731384277
1695712580272395500,2.7233955078125,-1.4691931009292603,-9.7998046875,-1.6217355728149414
1695712580282429700,2.7334296875,-1.4739787578582764,-10.073184967041016,-1.3537393808364868
1695712580292460800,2.743460693359375,-1.3304094076156616,-10.532607078552246,-1.51166570186615
1695712580302513000,2.753512939453125,-1.0528420209884644,-10.456036567687988,-1.4159528017044067
1695712580312546300,2.76354638671875,-0.9332008361816406,-10.144969940185547,-1.5212370157241821
1695712580322558500,2.773558349609375,-0.9188438653945923,-9.751948356628418,-1.4350954294204712
1695712580332589600,2.783589599609375,-0.8901300430297852,-9.527023315429688,-1.4829518795013428
1695712580342621000,2.793620849609375,-0.7848458290100098,-9.388239860534668,-1.5499508380889893
1695712580352842800,2.8038427734375,-0.6891329288482666,-9.206384658813477,-1.5355939865112305
1695712580362863400,2.81386328125,-0.698704183101654,-8.684151649475098,-1.3441680669784546
1695712580372894700,2.823894775390625,-0.7752745151519775,-8.291728973388672,-1.0761719942092896
1695712580382929400,2.833929443359375,-0.9667003750801086,-8.167302131652832,-1.1766705513000488
1695712580392960500,2.84396044921875,-1.1676974296569824,-8.320442199707031,-1.8903298377990723
1695712580402996000,2.853995849609375,-1.5750755071640015,-8.301300048828125,-2.929413080215454
1695712580412999700,2.863999755859375,-1.6803597211837769,-8.162516593933105,-4.600201606750488
1695712580423031000,2.874031005859375,-1.0671988725662231,-7.372286796569824,-6.324230194091797
1695712580433073700,2.88407373046875,-0.38225340843200684,-7.142575740814209,-6.448657035827637
1695712580443102200,2.894102294921875,-0.4588237404823303,-8.057231903076172,-4.700700283050537
1695712580453130200,2.904130126953125,-1.062413215637207,-9.555737495422363,-2.4502503871917725
1695712580463145200,2.914145263671875,-1.2634103298187256,-10.805388450622559,-1.0809576511383057
1695712580473160200,2.92416015625,-1.1198409795761108,-11.361122131347656,-0.18065811693668365
1695712580483175200,2.934175048828125,-0.727418065071106,-11.198410034179688,0.4612165689468384
1695712580493190100,2.944190185546875,-0.46360939741134644,-10.743175506591797,0.8153542876243591
1695712580503205400,2.954205322265625,-0.4013960063457489,-10.460822105407715,0.7914260625839233
1695712580513220400,2.964220458984375,-0.372682124376297,-10.159326553344727,0.666999340057373
1695712580523235300,2.9742353515625,-0.35832518339157104,-9.828518867492676,0.18783657252788544
1695712580533250300,2.984250244140625,-0.4540380835533142,-9.546165466308594,-0.4486542344093323
1695712580543265300,2.994265380859375,-0.6364908218383789,-9.464810371398926,-0.9469595551490784
1695712580553294000,3.004294189453125,-0.9332008361816406,-9.550951957702637,-1.3776676654815674
1695712580563327000,3.014326904296875,-1.2681959867477417,-9.713663101196289,-1.6791633367538452
1695712580573359600,3.024359619140625,-1.4835500717163086,-9.948758125305176,-1.7988044023513794
1695712580583392500,3.034392578125,-1.594218134880066,-10.188040733337402,-1.8759729862213135
1695712580593425200,3.044425048828125,-1.6755740642547607,-10.322038650512695,-2.00518536567688
1695712580603458000,3.0544580078125,-1.6803597211837769,-10.235897064208984,-2.4263222217559814
1695712580613491000,3.064490966796875,-1.6468602418899536,-10.001399993896484,-2.982055187225342
1695712580623523600,3.074523681640625,-1.7234305143356323,-9.987043380737305,-3.441477060317993
1695712580633556500,3.084556396484375,-1.9387845993041992,-10.049257278442383,-3.723830223083496
1695712580643589000,3.094589111328125,-2.2163519859313965,-9.847661972045898,-3.7286159992218018
1695712580653619000,3.104618896484375,-2.843869686126709,-9.651450157165527,-3.5228331089019775
1695712580663652900,3.11465283203125,-3.7489547729492188,-9.57487964630127,-3.1543383598327637
1695712580673687000,3.12468701171875,-3.6675989627838135,-9.57487964630127,-2.5986053943634033
1695712580683721000,3.134720947265625,-2.7864420413970947,-9.838089942932129,-2.0482561588287354
1695712580693755000,3.1447548828125,-1.6564314365386963,-10.288538932800293,-1.669592022895813
1695712580703788800,3.154788818359375,-1.5026925802230835,-10.566106796264648,-1.5068800449371338
1695712580713822700,3.16482275390625,-1.800000786781311,-10.5421781539917,-1.5738791227340698
1695712580723857000,3.17485693359375,-1.550549030303955,-10.451251029968262,-1.6839489936828613
1695712580733890800,3.184890869140625,-0.5647061467170715,-10.37946605682373,-1.7700905799865723
1695712580743924700,3.1949248046875,0.8913264274597168,-9.963115692138672,-1.919043779373169
1695712580753964800,3.20496484375,1.9351953268051147,-9.507881164550781,-1.94297194480896
1695712580764066300,3.21506640625,2.1888344287872314,-9.18724250793457,-2.0099709033966064
1695712580774167600,3.22516748046875,2.002194404602051,-9.144171714782715,-2.1056840419769287
1695712580784202800,3.23520263671875,1.3316057920455933,-9.20159912109375,-2.3401806354522705
1695712580794216200,3.24521630859375,0.37866419553756714,-9.483952522277832,-2.4502503871917725
1695712580804229600,3.255229736328125,-0.5551348328590393,-9.991828918457031,-2.3401806354522705
1695712580814243000,3.2652431640625,-0.9954141974449158,-10.422536849975586,-2.2157537937164307
1695712580824256500,3.275256591796875,-1.2586246728897095,-10.853245735168457,-2.0243279933929443
1695712580834270000,3.28527001953125,-1.459621787071228,-11.097911834716797,-2.0578274726867676
1695712580844283400,3.295283447265625,-1.435693621635437,-11.0835542678833,-2.1678972244262695
1695712580854296800,3.305296875,-1.3830515146255493,-10.676176071166992,-2.407179594039917
1695712580864310300,3.315310302734375,-1.4021940231323242,-10.202397346496582,-2.6943182945251465
1695712580874323500,3.325323486328125,-1.3256237506866455,-9.589237213134766,-3.1830523014068604
1695712580884365300,3.335365234375,-1.4500504732131958,-8.952746391296387,-3.661616802215576
1695712580894449700,3.34544970703125,-1.5696916580200195,-8.416155815124512,-3.7094733715057373
1695712580904534300,3.3555341796875,-1.5649060010910034,-7.875377655029297,-3.9254255294799805
1695712580914618600,3.36561865234375,-1.5314065217971802,-7.506284713745117,-4.040280818939209
1695712580924660500,3.375660400390625,-1.0959128141403198,-6.831508636474609,-4.126422882080078
1695712580934644200,3.385644287109375,-0.9906286001205444,-6.189633846282959,-4.322634220123291
1695712580944560600,3.395560546875,-1.3304094076156616,-5.811567783355713,-4.356133460998535
1695712580954589000,3.4055888671875,-2.048854351043701,-5.773283004760742,-4.198207378387451
1695712580964629000,3.41562890625,-2.7625136375427246,-5.80199670791626,-4.284348964691162
1695712580974658600,3.425658447265625,-2.9970104694366455,-5.945566177368164,-4.202992916107178
1695712580984674000,3.435674072265625,-3.451646566390991,-6.342774391174316,-3.8051862716674805
1695712580994702000,3.4457021484375,-4.012165546417236,-6.798008918762207,-3.015554666519165
1695712581004728800,3.455728759765625,-3.988237142562866,-6.888936519622803,-2.196611166000366
1695712581014928600,3.4659287109375,-3.988237142562866,-7.267002582550049,-2.3018953800201416
1695712581024956200,3.4759560546875,-3.768097400665283,-7.582854747772217,-1.8951154947280884
1695712581034984200,3.485984130859375,-3.8590247631073,-7.678567886352539,-1.6552350521087646
1695712581045017000,3.49601708984375,-4.179663181304932,-7.659425258636475,-1.5595221519470215
1695712581055042800,3.506042724609375,-4.586442947387695,-7.659425258636475,-1.6265212297439575
1695712581065070800,3.51607080078125,-5.0464630126953125,-7.501499176025391,-2.0243279933929443
1695712581075102700,3.526102783203125,-5.6207404136657715,-7.444071292877197,-2.455035924911499
1695712581085176800,3.5361767578125,-6.286543369293213,-7.530212879180908,-2.881556749343872
1695712581095204900,3.546204833984375,-6.918846607208252,-7.774280548095703,-3.3505499362945557
1695712581105213200,3.556213134765625,-7.0959153175354,-8.066802978515625,-3.6329028606414795
1695712581115262000,3.566261962890625,-6.803991317749023,-8.306085586547852,-3.800400495529175
1695712581125287200,3.576287109375,-6.535397052764893,-8.306085586547852,-3.8913278579711914
1695712581135301600,3.586301513671875,-6.415755748748779,-8.291728973388672,-3.9493536949157715
1695712581145316000,3.596316162109375,-6.56411075592041,-8.066802978515625,-4.021138668060303
1695712581155330600,3.60633056640625,-6.770491600036621,-7.664210796356201,-4.054637908935547
1695712581165344800,3.6163447265625,-7.1820573806762695,-7.223931789398193,-3.8051862716674805
1695712581175359200,3.626359130859375,-6.9236321449279785,-6.812366008758545,-3.5371899604797363
1695712581185373700,3.636373779296875,-5.798407554626465,-6.19920539855957,-2.9006991386413574
1695712581195388200,3.64638818359375,-5.041677474975586,-5.787639617919922,-2.4358935356140137
1695712581205402600,3.656402587890625,-4.141377925872803,-5.969494342803955,-2.273181438446045
1695712581215417000,3.6664169921875,-2.431705951690674,-7.128218650817871,-3.613760471343994
1695712581225431300,3.676431396484375,-1.306481122970581,-9.014959335327148,-5.868995666503906
1695712581235463700,3.686463623046875,-1.5074782371520996,-10.939985275268555,-7.325028419494629
1695712581245550000,3.696550048828125,-3.0209386348724365,-12.486347198486328,-7.181458950042725
1695712581255636500,3.706636474609375,-4.955535888671875,-13.908281326293945,-5.5483574867248535
1695712581265723100,3.71672314453125,-6.966702938079834,-15.206387519836426,-3.7525441646575928
1695712581275752000,3.726751953125,-7.038487911224365,-16.341184616088867,-3.0729825496673584
1695712581285767000,3.736766845703125,-4.529015064239502,-15.775879859924316,-4.432703971862793
1695712581295782100,3.7467822265625,-0.4875376224517822,-12.979268074035645,-4.791627407073975
1695712581305797000,3.756797119140625,3.697509288787842,-9.120243072509766,-3.8195431232452393
1695712581315812400,3.766812255859375,5.924030780792236,-5.581258773803711,-3.1926236152648926
1695712581325827300,3.776827392578125,6.603592395782471,-3.311666488647461,-2.982055187225342
1695712581335842600,3.786842529296875,5.588437080383301,-2.459223508834839,-3.0251259803771973
1695712581345857500,3.796857421875,2.926422119140625,-2.54536509513855,-2.699103832244873
1695712581355872800,3.806872802734375,-0.28175488114356995,-3.8626139163970947,-2.115255117416382
1695712581365887700,3.8168876953125,-0.7513462901115417,-6.40020227432251,-1.5355939865112305
1695712581375917000,3.8269169921875,1.815554141998291,-9.005388259887695,-1.44945228099823
1695712581385947400,3.836947509765625,3.8985064029693604,-10.838888168334961,-1.784447431564331
1695712581395977700,3.846977783203125,3.8362929821014404,-12.2135648727417,-2.0099709033966064
1695712581406008300,3.85700830078125,3.012563705444336,-12.692129135131836,-1.6552350521087646
1695712581416038700,3.86703857421875,1.8251254558563232,-12.08913803100586,-1.4733805656433105
1695712581426069000,3.877069091796875,1.2741780281066895,-10.657033920288086,-1.6600207090377808
1695712581436099300,3.887099365234375,1.552343726158142,-9.21117115020752,-1.7126628160476685
1695712581446130000,3.8971298828125,1.8011972904205322,-8.306085586547852,-1.2245270013809204
1695712581456160300,3.90716015625,1.8059829473495483,-8.0955171585083,-1.1910275220870972
1695712581466190600,3.917190673828125,1.9351953268051147,-8.602795600891113,-1.119242787361145
1695712581476220700,3.927220703125,1.4847464561462402,-9.024530410766602,-0.6305087804794312
1695712581486254800,3.9372548828125,1.4656038284301758,-9.33559799194336,-0.12323036789894104
1695712581496288800,3.947288818359375,1.4656038284301758,-9.670592308044434,0.3798605799674988
1695712581506323000,3.957322998046875,1.1210373640060425,-10.307682037353516,1.0259226560592651
1695712581516357000,3.967357177734375,0.589830756187439,-10.37946605682373,1.150349497795105
1695712581526391000,3.97739111328125,0.21595224738121033,-10.202397346496582,0.8105686902999878
1695712581536425200,3.98742529296875,-0.06640082597732544,-9.89133071899414,0.26500511169433594
1695712581546459400,3.99745947265625,-0.35832518339157104,-9.555737495422363,-0.25722843408584595
1695712581556493300,4.007493408203125,-0.4731806814670563,-9.182456970214844,-0.9421738982200623
1695712581566527500,4.017527587890625,-0.5306084156036377,-9.019744873046875,-1.5547364950180054
1695712581576558600,4.02755859375,-0.2721835672855377,-8.765507698059082,-1.8759729862213135
1695712581586594600,4.037594482421875,-0.08075776696205139,-8.636295318603516,-2.0721843242645264
1695712581596630500,4.047630615234375,0.14895321428775787,-8.411369323730469,-2.091326951980591
1695712581606666200,4.057666259765625,0.29730820655822754,-8.143373489379883,-2.139183521270752
1695712581616702200,4.0677021484375,0.373878538608551,-8.033304214477539,-2.0865414142608643
1695712581626738000,4.077738037109375,0.3355933725833893,-8.181658744812012,-2.0338993072509766
1695712581636774000,4.08777392578125,0.22552353143692017,-8.751151084899902,-1.6552350521087646
1695712581646809900,4.097809814453125,0.3595215976238251,-9.21117115020752,-1.5308083295822144
1695712581656845600,4.107845458984375,0.5419743061065674,-9.53659439086914,-1.5595221519470215
1695712581666881500,4.117881591796875,0.8099704384803772,-9.7998046875,-1.8179470300674438
1695712581676915700,4.127915771484375,0.6903293132781982,-10.27896785736084,-2.0673987865448
1695712581686964700,4.13796484375,0.5078766345977783,-10.992627143859863,-2.014756679534912
1695712581697013500,4.148013427734375,0.3355933725833893,-11.643474578857422,-1.5738791227340698
1695712581707062500,4.1580625,0.22073788940906525,-12.055638313293457,-0.908674418926239
1695712581717111300,4.168111328125,0.024526432156562805,-12.337991714477539,0.020338991656899452
1695712581727160300,4.178160400390625,0.11066804826259613,-12.261421203613281,0.8488538265228271
1695712581737209300,4.188209228515625,0.4983053207397461,-11.887542724609375,0.7579265832901001
1695712581747258000,4.198258056640625,0.7094719409942627,-11.365907669067383,0.3128615617752075
1695712581757307100,4.20830712890625,0.8769695162773132,-11.021341323852539,0.020338991656899452
1695712581767356200,4.218356201171875,0.9822536706924438,-11.289337158203125,-0.1423729509115219
1695712581777386800,4.22838671875,0.9248259663581848,-11.839686393737793,-0.6113662123680115
1695712581787404000,4.238404052734375,0.5467599630355835,-12.644272804260254,-1.2436695098876953
1695712581797421600,4.248421630859375,0.05802594870328903,-13.846068382263184,-1.8711873292922974
1695712581807439000,4.258439208984375,-0.07118647545576096,-14.373087882995605,-2.2396819591522217
1695712581817456400,4.268456298828125,-0.49710890650749207,-13.482358932495117,-1.2245270013809204
1695712581827474000,4.278473876953125,-1.6372889280319214,-13.008580207824707,-0.05623133108019829
1695712581837491200,4.2884912109375,-2.307279348373413,-13.26700496673584,0.8679963946342468
1695712581847508700,4.2985087890625,-3.0065815448760986,-13.539787292480469,1.6773686408996582
1695712581857526000,4.308526123046875,-3.7489547729492188,-13.008580207824707,1.4715858697891235
1695712581867543600,4.31854345703125,-3.8638103008270264,-12.122637748718262,0.48035913705825806
1695712581877574000,4.328573974609375,-1.5649060010910034,-11.385049819946289,-0.6879364848136902
1695712581887603000,4.33860302734375,2.035693883895874,-11.600403785705566,-2.2683959007263184
1695712581897632000,4.348632080078125,4.530211448669434,-12.68734359741211,-3.479762315750122
1695712581907661000,4.3586611328125,5.325226783752441,-13.98963737487793,-4.518845558166504
1695712581917690400,4.3686904296875,5.50229549407959,-14.598012924194336,-5.146363258361816
1695712581927719400,4.378719482421875,5.057230472564697,-14.301302909851074,-5.194219589233398
1695712581937748500,4.38874853515625,4.420141696929932,-13.434502601623535,-4.758127689361572
1695712581947777500,4.398777587890625,3.1752755641937256,-12.318849563598633,-4.399204254150391
1695712581957806600,4.408806640625,2.8211379051208496,-11.643474578857422,-4.346562385559082
1695712581967835600,4.418835693359375,2.63449764251709,-11.452049255371094,-4.351347923278809
1695712581977866500,4.428866455078125,1.3603196144104004,-10.959127426147461,-4.107280254364014
1695712581987900000,4.43889990234375,-0.17168502509593964,-10.905887603759766,-2.867199659347534
1695712581997933000,4.44893310546875,-0.1860419660806656,-10.915458679199219,-1.6791633367538452
1695712582007966200,4.45896630859375,1.1258230209350586,-10.657033920288086,-0.6113662123680115
1695712582017999600,4.46899951171875,2.0213370323181152,-10.570892333984375,0.35114672780036926
1695712582028032800,4.47903271484375,2.6632115840911865,-10.192826271057129,0.8584251403808594
1695712582038066000,4.48906591796875,3.13220477104187,-9.397810935974121,1.0115658044815063
1695712582048099000,4.49909912109375,3.0891339778900146,-8.497511863708496,0.6430711150169373
1695712582058132500,4.509132568359375,2.8450660705566406,-6.879364967346191,0.4372883439064026
1695712582068165600,4.51916552734375,2.538186550140381,-5.207978248596191,0.22133609652519226
1695712582078196700,4.52919677734375,2.3084757328033447,-4.00618314743042,0.24047867953777313
1695712582088228600,4.539228515625,2.050050735473633,-3.3882367610931396,0.32721850275993347
1695712582098260500,4.549260498046875,1.7724833488464355,-3.4121651649475098,0.029910283163189888
1695712582108292000,4.5592919921875,1.7533408403396606,-3.603590965270996,-0.5443671345710754
1695712582118324000,4.569323974609375,1.6719847917556763,-3.872185230255127,-0.9517452120780945
1695712582128355800,4.57935595703125,1.23589289188385,-4.144967079162598,-1.2867404222488403
1695712582138387700,4.5893876953125,0.8769695162773132,-4.322035789489746,-1.8424733877182007
1695712582148419600,4.599419677734375,0.6376872062683105,-4.168895244598389,-2.368894338607788
1695712582158451200,4.609451171875,0.37866419553756714,-3.9631125926971436,-3.077768087387085
1695712582168483000,4.619483154296875,0.37866419553756714,-3.7669010162353516,-3.5850465297698975
1695712582178517200,4.629517333984375,0.13459627330303192,-3.8530426025390625,-3.527618885040283
1695712582188566300,4.639566162109375,-0.11904292553663254,-3.8865420818328857,-3.1447670459747314
1695712582198615000,4.649614990234375,-1.0863415002822876,-3.991826295852661,-2.5842485427856445
1695712582208664000,4.6596640625,-2.7625136375427246,-4.13060998916626,-2.115255117416382
1695712582218713000,4.669713134765625,-4.759324073791504,-4.374678134918213,-1.9621145725250244
1695712582228761900,4.679761962890625,-5.682953834533691,-4.705485820770264,-2.234896421432495
1695712582238811000,4.689810791015625,-6.10468864440918,-5.2941203117370605,-2.8139593601226807
1695712582248860000,4.69985986328125,-9.940383911132812,-7.003791809082031,-3.5611183643341064
1695712582258908700,4.70990869140625,-16.116857528686523,-9.814162254333496,-5.768496990203857
1695712582268957700,4.719957763671875,-17.347963333129883,-12.840484619140625,-8.25404167175293
1695712582278988300,4.72998828125,-18.908681869506836,-17.082958221435547,-9.379266738891602
1695712582289004300,4.74000439453125,-16.95494270324707,-21.75674057006836,-9.053244590759277
1695712582299020300,4.750020263671875,-9.571290969848633,-23.399412155151367,-4.882554531097412
1695712582309036300,4.760036376953125,-5.941977024078369,-20.397018432617188,-0.46779683232307434
1695712582319052500,4.770052490234375,-6.410970211029053,-15.239887237548828,0.9397810697555542
1695712582329068500,4.780068603515625,-6.1573309898376465,-8.967103004455566,0.7052844762802124
1695712582339084500,4.79008447265625,-4.3519463539123535,-3.5365917682647705,-0.037088751792907715
1695712582349100500,4.8001005859375,-2.2307088375091553,-0.8506484627723694,-1.6169499158859253
1695712582359116500,4.810116455078125,-1.3543375730514526,-1.5690934658050537,-4.351347923278809
1695712582369132500,4.820132568359375,-1.1102696657180786,-4.331607341766357,-5.734997749328613
1695712582379163600,4.83016357421875,3.160918712615967,-7.7838521003723145,-4.633700847625732
1695712582389196800,4.84019677734375,5.095515727996826,-11.064412117004395,-3.063411235809326
1695712582399230000,4.85022998046875,2.011765718460083,-13.841282844543457,-2.746960401535034
1695712582409263000,4.86026318359375,-2.3503501415252686,-16.767107009887695,-1.8951154947280884
1695712582419296300,4.870296142578125,-1.8287147283554077,-16.901103973388672,-3.139981508255005
1695712582429329200,4.8803291015625,2.998206853866577,-13.49193000793457,-5.20379114151001
1695712582439362300,4.8903623046875,5.967101573944092,-9.670592308044434,-5.629713535308838
1695712582449395500,4.9003955078125,5.44008207321167,-7.262216567993164,-5.246861934661865
1695712582459428600,4.9104287109375,3.903291940689087,-5.318048477172852,-5.36650276184082
1695712582469461800,4.920461669921875,3.342773199081421,-3.896113395690918,-5.916851997375488
1695712582479492000,4.9304921875,4.046861171722412,-3.541377544403076,-5.897709846496582
1695712582489519400,4.940519287109375,5.119443893432617,-4.8059844970703125,-4.58584451675415
1695712582499546600,4.950546630859375,5.009374141693115,-7.080362319946289,-2.9724838733673096
1695712582509574000,4.960573974609375,3.9080774784088135,-9.804591178894043,-1.7222341299057007
1695712582519601200,4.97060107421875,2.7828526496887207,-12.31406307220459,-0.7986045479774475
1695712582529628400,4.98062841796875,2.3706889152526855,-12.893126487731934,-0.778863787651062
1695712582539655700,4.99065576171875,2.5573291778564453,-12.582059860229492,-1.3298112154006958
1695712582549683000,5.000682861328125,3.160918712615967,-11.906685829162598,-1.3298112154006958
1695712582559710200,5.010710205078125,3.7597224712371826,-11.308480262756348,-0.9373882412910461
1695712582569737500,5.020737548828125,3.7501513957977295,-10.824531555175781,-0.3720839321613312
1695712582579768300,5.030768310546875,2.667997360229492,-9.656235694885254,0.3320041298866272
1695712582589801700,5.0408017578125,2.1744775772094727,-8.86660385131836,0.7004988193511963
1695712582599835100,5.050835205078125,2.4089741706848145,-8.090731620788574,0.719641387462616
1695712582609868300,5.060868408203125,2.3563320636749268,-7.491927623748779,0.4707878530025482
1695712582619901700,5.070901611328125,1.537388563156128,-7.3675007820129395,0.4325026869773865
1695712582629935000,5.08093505859375,-0.550349235534668,-8.10987377166748,0.015553346835076809
1695712582639968300,5.09096826171875,-1.7473586797714233,-8.535796165466309,-0.23808585107326508
1695712582650001700,5.101001708984375,-1.929213285446167,-8.684151649475098,-0.4486542344093323
1695712582660034800,5.111034912109375,-1.3591232299804688,-8.81814956665039,-0.41515472531318665
1695712582670068200,5.121068115234375,-0.19561325013637543,-8.650651931762695,-0.25244277715682983
1695712582680102100,5.13110205078125,0.8817551732063293,-8.3300142288208,-0.137587308883667
1695712582690150400,5.141150390625,1.3268201351165771,-8.0955171585083,-0.25244277715682983
1695712582700198700,5.15119873046875,1.0923235416412354,-8.176873207092285,-0.745364248752594
1695712582710246700,5.16124658203125,0.8434699773788452,-9.235098838806152,-1.0474581718444824
1695712582720295000,5.171294921875,0.48873403668403625,-10.609177589416504,-0.9517452120780945
1695712582730343200,5.18134326171875,-0.12382857501506805,-11.590832710266113,-0.7549355626106262
1695712582740391400,5.191391357421875,-1.1198409795761108,-12.084352493286133,-0.31465616822242737
1695712582750439400,5.201439453125,-2.039283037185669,-11.868400573730469,0.21176479756832123
1695712582760487700,5.21148779296875,-2.968296527862549,-11.538190841674805,0.7148557901382446
1695712582770536000,5.221535888671875,-3.3846476078033447,-11.47119140625,1.1168500185012817
1695712582780569900,5.23156982421875,-2.465205430984497,-12.026925086975098,1.672582983970642
1695712582790601000,5.24160107421875,-0.6891329288482666,-12.749557495117188,2.117648124694824
1695712582800620000,5.2516201171875,1.2263215780258179,-13.061222076416016,1.7922241687774658
1695712582810638800,5.261638916015625,1.9591234922409058,-12.735199928283691,0.3415754437446594
1695712582820657700,5.27165771484375,1.231107234954834,-11.892328262329102,-1.2580264806747437
1695712582830676500,5.281676513671875,-0.15254244208335876,-11.298908233642578,-1.856830358505249
1695712582840695300,5.2916953125,-1.7425731420516968,-11.212766647338867,-1.8807586431503296
1695712582850714000,5.301714111328125,-3.245863914489746,-11.715259552001953,-2.2540390491485596
1695712582860733000,5.31173291015625,-4.127020835876465,-13.204792022705078,-3.178266763687134
1695712582870751700,5.321751708984375,-3.720241069793701,-14.200803756713867,-3.7908291816711426
1695712582880770600,5.3317705078125,-3.126222848892212,-13.58764362335205,-3.0442686080932617
1695712582890801700,5.3418017578125,-2.633301258087158,-12.8691987991333,-1.114457130432129
1695712582900831200,5.351831298828125,-1.2011969089508057,-12.792628288269043,0.7962117195129395
1695712582910860500,5.361860595703125,0.8147560954093933,-13.075579643249512,2.2325034141540527
1695712582920890000,5.37189013671875,2.145763635635376,-12.400205612182617,1.8496519327163696
1695712582930919700,5.381919677734375,3.5772697925567627,-12.242279052734375,0.6095715761184692
1695712582940949200,5.39194921875,4.051646709442139,-13.482358932495117,-0.9326026439666748
1695712582950978600,5.401978515625,3.731008768081665,-15.196816444396973,-2.5986053943634033
1695712582961008000,5.412008056640625,3.2757742404937744,-15.637096405029297,-3.3792638778686523
1695712582971037700,5.42203759765625,2.4568307399749756,-15.330814361572266,-3.360121250152588
1695712582981067300,5.4320673828125,1.944766640663147,-14.621940612792969,-3.747758388519287
1695712582991104300,5.442104248046875,2.5914268493652344,-13.535001754760742,-4.006781578063965
1695712583001187600,5.4521875,2.485544443130493,-12.720843315124512,-4.212564468383789
1695712583011271000,5.46227099609375,2.547757863998413,-11.901900291442871,-4.609772682189941
1695712583021354200,5.472354248046875,1.1353943347930908,-11.523834228515625,-4.126422882080078
1695712583031391200,5.48239111328125,-0.39182472229003906,-11.265409469604492,-3.3792638778686523
1695712583041432000,5.49243212890625,0.1585244983434677,-11.337193489074707,-1.7748762369155884
1695712583051473000,5.502472900390625,1.1306086778640747,-10.819746017456055,-0.7214360237121582
1695712583061510000,5.512510009765625,2.2749760150909424,-10.398609161376953,0.3415754437446594
1695712583071500300,5.522500244140625,2.9694929122924805,-10.025328636169434,1.0259226560592651
1695712583081544700,5.532544677734375,2.9168508052825928,-9.005388259887695,1.3663017749786377
1695712583091581700,5.542581787109375,2.8498518466949463,-7.520641803741455,0.9589236974716187
1695712583101634000,5.552634033203125,3.4193434715270996,-5.720640659332275,0.4372883439064026
1695712583111660500,5.56266064453125,3.3714871406555176,-4.302893161773682,0.4325026869773865
1695712583121667300,5.572667236328125,3.1130621433258057,-3.4552359580993652,0.06340979784727097
1695712583131704300,5.582704345703125,2.4951157569885254,-3.105883836746216,-0.3768695592880249
1695712583141746400,5.592746337890625,1.9974087476730347,-3.0628130435943604,-0.9421738982200623
1695712583151783400,5.602783447265625,1.6289139986038208,-3.359523057937622,-1.4590235948562622
1695712583161824000,5.612823974609375,1.7102699279785156,-3.517449378967285,-1.8807586431503296
1695712583171857000,5.62285693359375,1.633699655532837,-3.747758388519287,-2.3018953800201416
1695712583181871000,5.63287109375,1.6767704486846924,-3.8434712886810303,-2.867199659347534
1695712583191885300,5.64288525390625,1.5230315923690796,-3.9152560234069824,-3.360121250152588
1695712583201899500,5.6528994140625,1.6241283416748047,-3.8673996925354004,-3.968496322631836
1695712583211913700,5.662913818359375,1.470389485359192,-3.7956149578094482,-4.274777889251709
1695712583221928200,5.67292822265625,1.1162517070770264,-3.7525441646575928,-4.274777889251709
1695712583231942400,5.6829423828125,0.656829833984375,-3.809971809387207,-3.9110686779022217
1695712583241956600,5.69295654296875,-0.5306084156036377,-4.001397609710693,-3.3744781017303467
1695712583251970800,5.702970703125,-2.3982064723968506,-4.264608383178711,-3.0107691287994385
1695712583261985000,5.712985107421875,-4.0456647872924805,-4.762913703918457,-2.809173822402954
1695712583272018000,5.723017822265625,-4.974678039550781,-5.423332691192627,-2.958127021789551
1695712583282050000,5.733050048828125,-7.043273448944092,-6.438487529754639,-3.8865420818328857
1695712583292078800,5.743078857421875,-12.645469665527344,-8.282156944274902,-6.180660724639893
1695712583302107400,5.753107421875,-19.114465713500977,-10.73838996887207,-9.771689414978027
1695712583312136200,5.76313623046875,-19.09532356262207,-14.94257926940918,-10.715060234069824
1695712583322165000,5.7731650390625,-19.234106063842773,-21.306291580200195,-10.269994735717773
1695712583332193500,5.783193603515625,-15.379867553710938,-25.247270584106445,-7.138388156890869
1695712583342222300,5.793222412109375,-8.029714584350586,-22.000808715820312,-1.9764715433120728
1695712583352251100,5.803251220703125,-6.224329948425293,-16.135400772094727,0.7387840151786804
1695712583362279700,5.81327978515625,-6.0472612380981445,-10.082756042480469,1.4141582250595093
1695712583372308500,5.82330859375,-6.10468864440918,-5.710471153259277,0.039481572806835175
1695712583382341000,5.833341064453125,-5.467599868774414,-4.235894203186035,-3.1351959705352783
1695712583392375300,5.843375244140625,-5.26181697845459,-5.303691387176514,-5.400002479553223
1695712583402409700,5.85340966796875,-2.7864420413970947,-7.659425258636475,-4.566701889038086
1695712583412444200,5.863444091796875,3.625126361846924,-10.671390533447266,-2.359323024749756
1695712583422478300,5.873478271484375,8.270193099975586,-12.926626205444336,-0.8368897438049316
1695712583432512800,5.8835126953125,9.060422897338867,-13.75035572052002,0.03469592705368996
1695712583442547200,5.893547119140625,7.188039302825928,-13.415360450744629,0.8249256014823914
1695712583452581400,5.903581298828125,4.7365922927856445,-11.327622413635254,-1.0043872594833374
1695712583462615800,5.91361572265625,2.9455647468566895,-9.072386741638184,-3.1830523014068604
1695712583472650000,5.92364990234375,2.9359934329986572,-7.491927623748779,-4.676771640777588
1695712583482682600,5.9336826171875,4.813162803649902,-5.485546112060547,-5.629713535308838
1695712583492714500,5.943714599609375,5.373083114624023,-4.570889472961426,-6.056233882904053
1695712583502746400,5.953746337890625,4.587639331817627,-4.719842433929443,-6.592226505279541
1695712583512778200,5.9637783203125,3.3619158267974854,-5.902495384216309,-6.44387149810791
1695712583522810400,5.973810302734375,2.41375994682312,-8.86660385131836,-5.045864582061768
1695712583532842200,5.98384228515625,1.4081761837005615,-11.810972213745117,-3.422334671020508
1695712583542874000,5.9938740234375,1.1258230209350586,-13.511073112487793,-2.392822742462158
1695712583552906000,6.003906005859375,0.9200403094291687,-13.649856567382812,-2.00518536567688
1695712583562938000,6.013938232421875,0.9200403094291687,-12.749557495117188,-1.3250255584716797
1695712583572970000,6.023969970703125,1.4177473783493042,-11.399407386779785,-0.7938188910484314
1695712583583002600,6.034002685546875,1.207179069519043,-10.010972023010254,-0.6687939167022705
1695712583593036500,6.04403662109375,0.6951149702072144,-9.014959335327148,-0.25722843408584595
1695712583603070200,6.0540703125,0.7812566161155701,-8.598010063171387,0.08733802288770676
1695712583613104000,6.064104248046875,0.8578268885612488,-8.315656661987305,0.21655045449733734
1695712583623137800,6.0741376953125,0.7525427341461182,-8.0955171585083,0.07776673883199692
1695712583633171700,6.084171630859375,0.5324030518531799,-7.707281589508057,0.10648060590028763
1695712583643205600,6.09420556640625,0.03888336941599846,-7.7216386795043945,0.18783657252788544
1695712583653239300,6.1042392578125,-0.794417142868042,-7.793423175811768,0.0011964113218709826
1695712583663273200,6.114273193359375,-1.34476637840271,-7.875377655029297,-0.30987054109573364
1695712583673307000,6.124306884765625,-1.9770697355270386,-8.042875289916992,-0.8321040868759155
1695712583683342600,6.134342529296875,-2.235494613647461,-8.00937557220459,-1.3968101739883423
1695712583693393000,6.144392822265625,-1.7808582782745361,-8.028517723083496,-1.7174484729766846
1695712583703443000,6.15444287109375,-0.6173482537269592,-8.14815902709961,-1.6504493951797485
1695712583713493000,6.164492919921875,0.5467599630355835,-8.181658744812012,-1.6121642589569092
1695712583723543300,6.174543212890625,1.451246976852417,-8.124231338500977,-1.6983058452606201
1695712583733593600,6.184593505859375,1.8873388767242432,-8.152944564819336,-2.00518536567688
1695712583743643600,6.1946435546875,1.6049858331680298,-8.440083503723145,-2.4598217010498047
1695712583753693700,6.204693603515625,0.7046862840652466,-8.947959899902344,-2.7517459392547607
1695712583763744000,6.214743896484375,-0.4205385744571686,-9.407382011413574,-2.737389087677002
1695712583773794000,6.2247939453125,-1.6755740642547607,-9.622735977172852,-2.1200408935546875
1695712583783825400,6.234825439453125,-2.7912275791168213,-10.01575756072998,-0.8608179688453674
1695712583793839400,6.24483935546875,-3.2745778560638428,-11.131410598754883,0.7387840151786804
1695712583803853000,6.25485302734375,-2.589632272720337,-12.538989067077637,2.1032910346984863
1695712583813867000,6.264866943359375,-1.0863415002822876,-13.429717063903809,2.8456642627716064
1695712583823880700,6.274880615234375,0.2111666053533554,-13.525429725646973,2.912663459777832
1695712583833894700,6.284894775390625,0.9056833982467651,-13.118650436401367,2.7260231971740723
1695712583843908400,6.294908447265625,-0.1908276081085205,-13.04207992553711,2.5393829345703125
1695712583853922300,6.30492236328125,-2.2498514652252197,-13.802997589111328,1.6821542978286743
1695712583863936300,6.314936279296875,-4.074378967285156,-14.578869819641113,0.6909275650978088
1695712583873950000,6.324949951171875,-4.855037212371826,-15.316457748413086,-0.3194418251514435
1695712583883981300,6.334981201171875,-4.241876125335693,-15.665809631347656,-1.4590235948562622
1695712583894013200,6.34501318359375,-3.940380573272705,-14.775081634521484,-2.368894338607788
1695712583904044800,6.355044921875,-3.79681134223938,-13.35314655303955,-1.9381862878799438
1695712583914076400,6.365076416015625,-2.1206390857696533,-12.486347198486328,-0.8799605369567871
1695712583924108000,6.37510791015625,-0.18125630915164948,-11.944971084594727,-0.6400800347328186
1695712583934139600,6.3851396484375,0.7621139883995056,-12.022139549255371,-1.4590235948562622
1695712583944171300,6.395171142578125,1.9256240129470825,-12.28534984588623,-2.6560330390930176
1695712583954203000,6.405202880859375,2.8594231605529785,-13.051651000976562,-3.7956149578094482
1695712583964234500,6.415234375,2.7589244842529297,-14.48315715789795,-4.758127689361572
1695712583974266400,6.425266357421875,2.2654049396514893,-15.818950653076172,-5.199005603790283
1695712583984297700,6.435297607421875,2.002194404602051,-16.077375411987305,-5.3904314041137695
1695712583994329000,6.4453291015625,2.222334146499634,-15.464812278747559,-5.246861934661865
1695712584004360400,6.4553603515625,3.1417760848999023,-14.459229469299316,-4.691128730773926
1695712584014391800,6.465391845703125,3.074777126312256,-13.472787857055664,-4.537988185882568
1695712584024423200,6.475423095703125,1.968694806098938,-12.725628852844238,-4.676771640777588
1695712584034454500,6.48545458984375,0.6711867451667786,-12.218350410461426,-4.705485820770264
1695712584044486000,6.49548583984375,-0.7561319470405579,-12.012567520141602,-4.3178486824035645
1695712584054517200,6.505517333984375,-0.6221339106559753,-11.653046607971191,-3.0969107151031494
1695712584064548600,6.515548583984375,1.168893814086914,-10.709675788879395,-1.5690934658050537
1695712584074580000,6.525580078125,2.270190477371216,-9.958329200744629,-0.14715859293937683
1695712584084611600,6.535611572265625,2.499901533126831,-9.235098838806152,0.7052844762802124
1695712584094645000,6.54564501953125,2.318047046661377,-8.301300048828125,0.9876375198364258
1695712584104678100,6.55567822265625,2.222334146499634,-7.0995049476623535,0.6526423692703247
1695712584114711600,6.565711669921875,2.3324038982391357,-5.835496425628662,0.2745763957500458
1695712584124745000,6.575744873046875,2.6297121047973633,-4.580460548400879,0.05383851006627083
1695712584134778000,6.585778076171875,2.706282377243042,-3.857828378677368,-0.003589233849197626
1695712584144811500,6.5958115234375,2.571686029434204,-3.211168050765991,-0.02751746028661728
1695712584154844700,6.6058447265625,2.3132612705230713,-2.9288148880004883,-0.08973085135221481
1695712584164878000,6.615878173828125,2.1409780979156494,-2.967100143432617,-0.26201409101486206
1695712584174911500,6.625911376953125,2.303689956665039,-2.799602508544922,-0.6305087804794312
1695712584184946200,6.6359462890625,2.303689956665039,-2.794816732406616,-1.0713863372802734
1695712584194995200,6.6459951171875,2.3515465259552,-2.919243574142456,-1.5499508380889893
1695712584205044500,6.65604443359375,2.279761791229248,-3.10109806060791,-2.0003998279571533
1695712584215093200,6.66609326171875,2.035693883895874,-3.153740167617798,-2.550748825073242
1695712584225142500,6.676142578125,1.609771490097046,-3.239881753921509,-3.1830523014068604
1695712584235191600,6.686191650390625,1.1928220987319946,-3.3308091163635254,-3.393620729446411
1695712584245240600,6.696240478515625,0.5132604837417603,-3.5222349166870117,-3.2309088706970215
1695712584255289600,6.70628955078125,-0.7034898400306702,-3.8769710063934326,-2.9389843940734863
1695712584265338600,6.716338623046875,-2.369492530822754,-4.283750534057617,-2.6273193359375
1695712584275387600,6.7263876953125,-4.227519512176514,-4.815555572509766,-2.225325107574463
1695712584285418800,6.736418701171875,-5.711667537689209,-5.528616905212402,-1.9525432586669922
1695712584295433700,6.746433837890625,-8.192426681518555,-6.529414653778076,-2.2923240661621094
1695712584305448700,6.75644873046875,-15.312868118286133,-8.755936622619629,-3.628117322921753
1695712584315463700,6.766463623046875,-20.196619033813477,-12.237493515014648,-6.305087566375732
1695712584325478700,6.776478759765625,-17.20918083190918,-17.1403865814209,-7.573882102966309
1695712584335493600,6.78649365234375,-19.6414852142334,-22.920249938964844,-7.396812915802002
1695712584345508600,6.796508544921875,-14.714064598083496,-26.085355758666992,-4.4135613441467285
1695712584355523600,6.806523681640625,-7.062416076660156,-23.331815719604492,-0.8321040868759155
1695712584365538600,6.81653857421875,-6.655037879943848,-17.437694549560547,0.6430711150169373
1695712584375553500,6.826553466796875,-6.0711894035339355,-10.992627143859863,1.1168500185012817
1695712584385584600,6.836584716796875,-5.362315654754639,-5.897709846496582,1.0115658044815063
1695712584395615700,6.84661572265625,-5.194818019866943,-3.738187074661255,-0.5539384484291077
1695712584405647000,6.856647216796875,-4.284946918487549,-4.283750534057617,-2.809173822402954
1695712584415678200,6.86667822265625,-2.431705951690674,-6.390631198883057,-2.1056840419769287
1695712584425709300,6.876709228515625,3.610769271850586,-8.722436904907227,-0.08015955984592438
1695712584435740700,6.88674072265625,8.447261810302734,-10.01575756072998,-0.017946170642971992
1695712584445771800,6.896771728515625,8.313263893127441,-10.73838996887207,-1.578664779663086
1695712584455803000,6.906802978515625,2.5573291778564453,-12.428918838500977,-2.1439690589904785
1695712584465834000,6.916833984375,-2.292922258377075,-13.401002883911133,-4.447061061859131
1695712584475865300,6.926865234375,1.5906288623809814,-11.998210906982422,-7.258029460906982
1695712584485896700,6.936896728515625,5.368297576904297,-10.259825706481934,-7.516454219818115
1695712584495930000,6.94693017578125,6.101099491119385,-8.420941352844238,-7.315456867218018
1695712584505963500,6.956963623046875,5.9336018562316895,-6.223133563995361,-6.7310099601745605
1695712584515996700,6.96699658203125,4.625924587249756,-4.782055854797363,-6.530013084411621
1695712584526030000,6.977030029296875,2.4951157569885254,-4.336392879486084,-6.214160442352295
1695712584536063500,6.9870634765625,1.5619150400161743,-5.093122959136963,-4.83469820022583
1695712584546096600,6.9970966796875,1.451246976852417,-7.611568927764893,-2.7804598808288574
1695712584556130000,7.007130126953125,1.7198412418365479,-10.637890815734863,-1.3106685876846313
1695712584566163200,7.0171630859375,1.576271891593933,-12.500703811645508,-0.6687939167022705
1695712584576196600,7.027196533203125,1.552343726158142,-12.969696998596191,-0.9373882412910461
1695712584586228000,7.03722802734375,1.882553219795227,-12.586845397949219,-0.9134600162506104
1695712584596259000,7.047259033203125,2.1649062633514404,-12.333206176757812,-0.7645068168640137
1695712584606290200,7.057290283203125,2.155334949493408,-11.643474578857422,-0.8081758618354797
1695712584616321300,7.0673212890625,2.1026928424835205,-10.441679954528809,-0.6927221417427063
1695712584626352400,7.077352294921875,2.461616277694702,-9.340383529663086,-0.2667997181415558
1695712584636383500,7.087383544921875,2.6632115840911865,-8.45444107055664,-0.1136590763926506
1695712584646414600,7.09741455078125,2.8737800121307373,-7.813164234161377,-0.23330020904541016
1695712584656445700,7.10744580078125,2.5046870708465576,-7.195217609405518,-0.7501499056816101
1695712584666476500,7.1174765625,1.0827522277832031,-7.16650390625,-1.3058829307556152
1695712584676507600,7.127507568359375,-0.4731806814670563,-7.343572616577148,-1.8951154947280884
1695712584686542300,7.137542236328125,-1.622931957244873,-7.616354465484619,-2.651247501373291
1695712584696592000,7.147591796875,-1.7617156505584717,-8.018946647644043,-2.881556749343872
1695712584706641200,7.15764111328125,-0.6891329288482666,-8.315656661987305,-2.5698914527893066
1695712584716690400,7.1676904296875,1.144965648651123,-8.052446365356445,-1.9956140518188477
1695712584726739700,7.17773974609375,2.1984057426452637,-7.434499740600586,-1.8131613731384277
1695712584736789000,7.1877890625,2.490330219268799,-7.008577346801758,-1.94297194480896
1695712584746838300,7.19783837890625,2.279761791229248,-6.903293132781982,-2.3976082801818848
1695712584756887600,7.207887451171875,1.8921245336532593,-7.319644451141357,-3.005983352661133
1695712584766936800,7.217936767578125,1.3076776266098022,-8.229515075683594,-3.259622573852539
1695712584776986000,7.227986083984375,0.19202402234077454,-9.737591743469238,-2.8283164501190186
1695712584787017500,7.238017578125,-1.1820544004440308,-11.054841041564941,-1.4781662225723267
1695712584797034000,7.248033935546875,-2.3886351585388184,-12.117852210998535,0.15912270545959473
1695712584807050200,7.25805029296875,-3.073580741882324,-13.008580207824707,1.6821542978286743
1695712584817066500,7.26806640625,-2.724228620529175,-13.788640022277832,2.8313074111938477
1695712584827083000,7.2780830078125,-1.196411371231079,-14.09552001953125,3.3720853328704834
1695712584837099300,7.288099365234375,0.5078766345977783,-13.558929443359375,3.2859437465667725
1695712584847115500,7.298115478515625,1.1162517070770264,-12.419347763061523,2.9078776836395264
1695712584857132000,7.308132080078125,0.4456632137298584,-11.490334510803223,2.544168710708618
1695712584867148300,7.318148193359375,-0.760917603969574,-11.499905586242676,1.8783657550811768
1695712584877164800,7.328164794921875,-1.709073543548584,-12.462418556213379,0.844068169593811
1695712584887196700,7.33819677734375,-2.5226333141326904,-13.314861297607422,-0.1902294009923935
1695712584897232000,7.34823193359375,-2.7625136375427246,-14.267803192138672,-0.9996016621589661
1695712584907267000,7.35826708984375,-2.3407788276672363,-15.617953300476074,-2.091326951980591
1695712584917302300,7.36830224609375,-2.14935302734375,-15.38345718383789,-2.7565317153930664
1695712584927337500,7.37833740234375,-3.2650065422058105,-13.946566581726074,-2.306680917739868
1695712584937372700,7.38837255859375,-4.179663181304932,-13.099507331848145,-0.5682953596115112
1695712584947408000,7.398407958984375,-3.1932218074798584,-12.318849563598633,0.4612165689468384
1695712584957443000,7.408443115234375,-1.1724830865859985,-11.48076343536377,0.3128615617752075
1695712584967478300,7.418478271484375,0.9104689955711365,-11.193624496459961,-0.5970092415809631
1695712584977513500,7.428513427734375,3.6783666610717773,-11.389835357666016,-1.856830358505249
1695712584987544800,7.438544921875,4.880161762237549,-12.6347017288208,-3.2069804668426514
1695712584997574100,7.44857421875,4.281357765197754,-14.248661041259766,-4.4135613441467285
1695712585007603500,7.458603515625,3.7405800819396973,-14.770296096801758,-4.978865623474121
1695712585017632800,7.4686328125,3.084348440170288,-14.995221138000488,-5.246861934661865
1695712585027662000,7.478662109375,2.6392834186553955,-14.985650062561035,-5.5005011558532715
1695712585037691400,7.48869140625,2.4329023361206055,-14.382658958435059,-5.26600456237793
1695712585047720400,7.498720458984375,2.6153552532196045,-13.64028549194336,-5.122435092926025
1695712585057749800,7.508749755859375,2.1649062633514404,-12.878769874572754,-4.715056896209717
1695712585067779000,7.518779052734375,-0.2626122832298279,-12.620345115661621,-3.8769710063934326
1695712585077808400,7.528808349609375,-0.7657032608985901,-12.132208824157715,-2.87198543548584
1695712585087839700,7.53883984375,0.6616154313087463,-11.255837440490723,-1.7030915021896362
1695712585097869600,7.54886962890625,1.968694806098938,-10.661819458007812,-0.5539384484291077
1695712585107899600,7.558899658203125,2.523829698562622,-9.958329200744629,0.2356930375099182
1695712585117929700,7.5689296875,2.562114953994751,-9.081958770751953,0.633499801158905
1695712585127959800,7.578959716796875,2.4089741706848145,-7.597211837768555,0.5617151260375977
1695712585137990000,7.588989990234375,2.6392834186553955,-5.6099724769592285,0.4085744619369507
1695712585148020000,7.59902001953125,2.864208698272705,-4.097110748291016,0.1256231814622879
1695712585158050000,7.609050048828125,2.940778970718384,-3.1920254230499268,-0.2667997181415558
1695712585168080100,7.619080078125,2.644068956375122,-2.521436929702759,-0.6161518096923828
1695712585178110200,7.629110107421875,2.2989044189453125,-2.263011932373047,-0.8177471160888672
1695712585188145000,7.639144775390625,1.9208383560180664,-2.4640090465545654,-1.057029366493225
1695712585198197000,7.649197021484375,1.6863417625427246,-2.66560435295105,-1.3872389793395996
1695712585208249000,7.6592490234375,1.3268201351165771,-3.019742250442505,-1.7509479522705078
1695712585218301200,7.66930126953125,1.054038405418396,-3.4121651649475098,-1.9286150932312012
1695712585228353300,7.679353271484375,0.7334001660346985,-3.627519130706787,-2.282752752304077
1695712585238405400,7.6894052734375,0.6329016089439392,-3.469592809677124,-2.761317253112793
1695712585248457500,7.69945751953125,0.4169493317604065,-3.1202406883239746,-3.111267566680908
1695712585258509600,7.709509521484375,-0.0568295381963253,-2.9288148880004883,-3.3026933670043945
1695712585268561700,7.719561767578125,-0.641276478767395,-2.9288148880004883,-3.3505499362945557
1695712585278592300,7.72959228515625,-1.301695466041565,-3.0963125228881836,-3.0825538635253906
1695712585288606500,7.7396064453125,-2.431705951690674,-3.469592809677124,-2.794816732406616
1695712585298620400,7.749620361328125,-3.844667673110962,-4.073182582855225,-2.4358935356140137
1695712585308634600,7.759634521484375,-5.515456199645996,-5.030909538269043,-2.201396942138672
1695712585318648800,7.76964892578125,-10.509875297546387,-6.812366008758545,-2.550748825073242
1695712585328662800,7.779662841796875,-18.631114959716797,-9.991828918457031,-4.4997029304504395
1695712585338677000,7.789677001953125,-20.455642700195312,-14.114662170410156,-6.975078105926514
1695712585348691200,7.799691162109375,-17.01715660095215,-19.73600196838379,-8.651249885559082
1695712585358705400,7.809705322265625,-14.728421211242676,-24.998416900634766,-9.254839897155762
1695712585368719400,7.81971923828125,-10.160523414611816,-25.625934600830078,-7.205387115478516
1695712585378750200,7.829750244140625,-5.271388053894043,-21.369102478027344,-4.901697158813477
1695712585388781800,7.83978173828125,-4.505086898803711,-14.95693588256836,-2.713460922241211
1695712585398813400,7.8498134765625,-5.003392219543457,-8.162516593933105,-0.6209374666213989
1695712585408845000,7.859844970703125,-5.6207404136657715,-2.406581401824951,0.13998012244701385
1695712585418876700,7.869876708984375,-4.955535888671875,0.8111668825149536,-0.5970092415809631
1695712585428908300,7.879908203125,-1.685145378112793,0.882951557636261,-1.7988044023513794
1695712585438940200,7.889940185546875,3.2374889850616455,-2.349153518676758,-2.982055187225342
1695712585448971800,7.8999716796875,7.537391185760498,-5.303691387176514,-4.145565032958984
1695712585459003400,7.91000341796875,7.3746795654296875,-7.496713161468506,-5.591428279876709
1695712585469035000,7.920034912109375,3.366701364517212,-10.494321823120117,-6.434299945831299
1695712585479066400,7.93006640625,-4.697110652923584,-14.851652145385742,-6.151947021484375
1695712585489100800,7.940100830078125,-10.921441078186035,-19.137197494506836,-6.104090690612793
1695712585499135200,7.95013525390625,1.3555340766906738,-18.304494857788086,-6.405586242675781
1695712585509170000,7.960169921875,9.89850902557373,-15.110674858093262,-4.777270317077637
1695712585519204400,7.970204345703125,9.433703422546387,-11.782258987426758,-2.7900311946868896
1695712585529238800,7.98023876953125,6.278168201446533,-8.449654579162598,-2.5842485427856445
1695712585539273500,7.9902734375,3.060420274734497,-5.4759745597839355,-3.1686954498291016
1695712585549308000,8.000307861328125,1.1162517070770264,-4.259822368621826,-3.1543383598327637
1695712585559342300,8.01034228515625,1.552343726158142,-4.9160542488098145,-2.344966173171997
1695712585569377000,8.020376953125,3.098705291748047,-6.932007312774658,-1.3968101739883423
1695712585579409000,8.030408935546875,3.3475589752197266,-9.282955169677734,-1.277169108390808
1695712585589442800,8.04044287109375,2.2271196842193604,-11.284551620483398,-0.8943174481391907
1695712585599477000,8.05047705078125,1.2454642057418823,-12.53420352935791,-0.6017948985099792
1695712585609511000,8.060510986328126,0.9248259663581848,-13.037294387817383,-0.8033902049064636
1695712585619545000,8.070545166015625,1.3794622421264648,-12.318849563598633,-0.9900303483009338
1695712585629579000,8.0805791015625,1.456032633781433,-10.944770812988281,-1.028315544128418
1695712585639613200,8.09061328125,1.72941255569458,-9.6466646194458,-0.7070791125297546
1695712585649647000,8.100647216796874,2.207977056503296,-8.612366676330566,-0.4247260093688965
1695712585659681000,8.110680908203125,1.9208383560180664,-7.813164234161377,-0.28594231605529785
1695712585669715200,8.120715087890625,1.3698909282684326,-7.3914289474487305,-0.6640082597732544
1695712585679749400,8.130749267578125,0.5030909776687622,-7.3292155265808105,-1.4350954294204712
1695712585689795000,8.140795166015625,-0.8422735929489136,-7.295716285705566,-1.9621145725250244
1695712585699840800,8.1508408203125,-1.6564314365386963,-7.439285755157471,-2.3018953800201416
1695712585709886500,8.160886474609375,-2.000998020172119,-7.803592681884766,-2.3306093215942383
1695712585719932200,8.17093212890625,-2.1589243412017822,-8.018946647644043,-2.1104695796966553
1695712585729977900,8.180977783203126,-1.545763373374939,-7.894520282745361,-1.693520188331604
1695712585740023600,8.1910234375,-0.44446679949760437,-7.731209754943848,-1.4973087310791016
1695712585750069200,8.2010693359375,0.7094719409942627,-7.549355506896973,-1.5451651811599731
1695712585760115000,8.211114990234375,1.7102699279785156,-7.7838521003723145,-1.4446666240692139
1695712585770160400,8.221160400390625,2.255833625793457,-7.8418779373168945,-1.540379524230957
1695712585780191200,8.231191162109376,2.490330219268799,-8.033304214477539,-1.832902193069458
1695712585790207500,8.24120751953125,2.270190477371216,-8.569295883178711,-2.2205393314361572
1695712585800223700,8.2512236328125,1.456032633781433,-9.896116256713867,-2.234896421432495
1695712585810239700,8.26123974609375,0.08195417374372482,-11.461620330810547,-1.6360924243927002
1695712585820256000,8.271256103515626,-1.3830515146255493,-12.366705894470215,-0.8225327730178833
1695712585830272300,8.281272216796875,-2.8103702068328857,-12.663415908813477,0.08255238085985184
1695712585840288500,8.29128857421875,-4.074378967285156,-12.668201446533203,0.9254241585731506
1695712585850304800,8.3013046875,-4.261018753051758,-12.739986419677734,1.667797327041626
1695712585860321000,8.311321044921876,-2.882154941558838,-12.902697563171387,2.0410776138305664
1695712585870337300,8.321337158203125,-0.9810572862625122,-12.462418556213379,1.710868239402771
1695712585880367400,8.331367431640626,0.5850451588630676,-11.365907669067383,0.8297112584114075
1695712585890395000,8.341394775390626,1.470389485359192,-10.436894416809082,0.19262222945690155
1695712585900422700,8.351422607421876,1.6719847917556763,-10.470394134521484,0.22612173855304718
1695712585910450200,8.3614501953125,0.9439685344696045,-11.662617683410645,0.2069791555404663
1695712585920478000,8.37147802734375,-0.03290131315588951,-12.999009132385254,-0.23330020904541016
1695712585930505700,8.381505615234374,-1.1724830865859985,-14.272588729858398,-0.8464609980583191
1695712585940533200,8.391533203125,-1.9244276285171509,-15.440884590148926,-1.602592945098877
1695712585950561000,8.40156103515625,-2.944368362426758,-15.071791648864746,-1.7653049230575562
1695712585960588800,8.4115888671875,-4.127020835876465,-13.755141258239746,-0.8464609980583191
1695712585970616300,8.4216162109375,-4.284946918487549,-13.099507331848145,0.2356930375099182
1695712585980648000,8.43164794921875,-3.882952928543091,-12.390633583068848,0.5473581552505493
1695712585990686500,8.4416865234375,-3.1214370727539062,-11.284551620483398,-0.10408778488636017
1695712586000724700,8.451724853515625,-1.2346965074539185,-10.819746017456055,-1.669592022895813
1695712586010763000,8.461762939453125,1.9974087476730347,-11.303693771362305,-3.3170504570007324
1695712586020801300,8.47180126953125,5.047659397125244,-12.337991714477539,-4.600201606750488
1695712586030839600,8.481839599609375,5.516652584075928,-13.898710250854492,-5.5483574867248535
1695712586040878000,8.491878173828125,4.8466620445251465,-14.837294578552246,-6.1088762283325195
1695712586050916400,8.501916259765625,4.267001152038574,-14.684154510498047,-6.38165807723999
1695712586060954600,8.51195458984375,3.5054850578308105,-14.038092613220215,-6.300302028656006
1695712586070993000,8.521992919921875,2.0069799423217773,-13.348361015319824,-5.423930644989014
1695712586081023700,8.532023681640625,1.2215359210968018,-12.931411743164062,-4.241278171539307
1695712586091051000,8.542051025390625,1.6815561056137085,-12.476775169372559,-3.7716867923736572
1695712586101078000,8.552078125,0.3068794906139374,-12.53420352935791,-2.737389087677002
1695712586111105300,8.562105224609375,-1.3782658576965332,-12.342777252197266,-1.688734531402588
1695712586121132300,8.57213232421875,-0.5742774605751038,-12.165708541870117,-0.38644084334373474
1695712586131159600,8.58215966796875,0.9296116232872009,-11.7056884765625,0.7962117195129395
1695712586141186800,8.592186767578125,1.6576279401779175,-10.949556350708008,1.5481562614440918
1695712586151213800,8.6022138671875,2.083550214767456,-10.121041297912598,1.5433706045150757
1695712586161241000,8.612240966796875,2.2749760150909424,-8.655437469482422,1.1407781839370728
1695712586171268000,8.62226806640625,2.1649062633514404,-6.960721015930176,0.6909275650978088
1695712586181302300,8.63230224609375,2.3228325843811035,-5.499902725219727,0.3607180118560791
1695712586191352300,8.642352294921874,2.5914268493652344,-4.389034748077393,0.0011964113218709826
1695712586201402000,8.652402099609375,2.6392834186553955,-3.6951162815093994,-0.4342973232269287
1695712586211452200,8.6624521484375,2.523829698562622,-3.2590243816375732,-0.745364248752594
1695712586221502000,8.672501953125,2.217548370361328,-3.067598581314087,-1.2245270013809204
1695712586231552000,8.682552001953125,1.8490537405014038,-2.9383862018585205,-1.4111671447753906
1695712586241601800,8.692601806640624,1.537388563156128,-3.0628130435943604,-1.688734531402588
1695712586251651800,8.70265185546875,1.384247899055481,-3.3308091163635254,-1.8903298377990723
1695712586261701600,8.71270166015625,1.0444670915603638,-3.714258909225464,-2.1822543144226074
1695712586271751700,8.722751708984376,1.077966570854187,-3.972683906555176,-2.6368906497955322
1695712586281782300,8.7327822265625,1.1018948554992676,-4.097110748291016,-3.187838077545166
1695712586291798500,8.742798583984374,0.8099704384803772,-4.216751575469971,-3.848257064819336
1695712586301815000,8.75281494140625,0.43609192967414856,-4.140181541442871,-4.193421840667725
1695712586311831300,8.762831298828125,-0.06161518394947052,-4.135395526885986,-4.217350006103516
1695712586321847600,8.77284765625,-0.727418065071106,-4.202394962310791,-3.954139471054077
1695712586331864000,8.782864013671874,-1.594218134880066,-4.173680782318115,-3.580260992050171
1695712586341880300,8.79288037109375,-2.89172625541687,-4.312464714050293,-3.1447670459747314
1695712586351896600,8.802896484375,-4.332803726196289,-4.618745803833008,-2.761317253112793
1695712586361912800,8.812912841796875,-6.219544410705566,-5.198407173156738,-2.6943182945251465
1695712586371929300,8.822929443359374,-10.624731063842773,-6.682555675506592,-3.125624656677246
1695712586381959700,8.832959716796875,-17.596817016601562,-9.455238342285156,-5.065007209777832
1695712586391989800,8.84298974609375,-19.320846557617188,-12.960125923156738,-8.00937557220459
1695712586402020000,8.85302001953125,-17.55853271484375,-18.76870346069336,-9.230911254882812
1695712586412050200,8.86305029296875,-16.552947998046875,-24.351755142211914,-9.996614456176758
1695712586422080300,8.873080322265626,-11.204392433166504,-25.409982681274414,-7.554739475250244
1695712586432110300,8.8831103515625,-6.568896293640137,-20.708086013793945,-4.016352653503418
1695712586442140700,8.893140625,-6.7555365562438965,-14.296517372131348,-1.1575279235839844
1695712586452170800,8.903170654296876,-6.272186279296875,-7.779066562652588,0.786640465259552
1695712586462200800,8.913200927734374,-5.481956481933594,-2.833101987838745,0.7052844762802124
1695712586472231000,8.92323095703125,-3.2027931213378906,-1.01814603805542,-1.1958130598068237
1695712586482262000,8.933261962890626,-1.1629117727279663,-2.3300111293792725,-2.867199659347534
1695712586492295200,8.943295166015625,1.4464613199234009,-5.523830890655518,-2.455035924911499
1695712586502328000,8.953328125,5.387440204620361,-8.397012710571289,-1.602592945098877
1695712586512361200,8.963361328125,6.436094760894775,-10.733604431152344,-2.1104695796966553
1695712586522394400,8.973394287109375,3.476771354675293,-13.214363098144531,-3.273979663848877
1695712586532427500,8.983427490234375,-2.5800609588623047,-16.005590438842773,-3.5706896781921387
1695712586542460700,8.993460693359374,-2.197209358215332,-15.708880424499512,-5.122435092926025
1695712586552493800,9.003493896484375,4.0181474685668945,-12.88355541229248,-6.142375946044922
1695712586562527000,9.01352685546875,6.507879257202148,-10.16889762878418,-5.289932727813721
1695712586572560000,9.023559814453124,5.880959987640381,-7.932805061340332,-4.945366382598877
1695712586582591200,9.03359130859375,4.424927234649658,-5.552545070648193,-5.438287734985352
1695712586592623400,9.043623291015624,3.146561861038208,-3.9774694442749023,-5.845067501068115
1695712586602655500,9.053655517578125,2.3802602291107178,-4.010969161987305,-5.01715087890625
1695712586612687600,9.0636875,2.691925525665283,-5.662614822387695,-3.4271202087402344
1695712586622719700,9.0737197265625,2.706282377243042,-8.23430061340332,-2.1439690589904785
1695712586632751900,9.083751953125,2.0069799423217773,-10.685748100280762,-1.2819547653198242
1695712586642784000,9.093783935546876,1.968694806098938,-12.180065155029297,-0.8799605369567871
1695712586652816100,9.103816162109375,2.0309081077575684,-12.81177043914795,-0.49172505736351013
1695712586662848300,9.11384814453125,2.0931215286254883,-12.601202011108398,-0.6161518096923828
1695712586672880400,9.12388037109375,2.1266210079193115,-11.753544807434082,-0.8033902049064636
1695712586682914800,9.133914794921875,1.8394824266433716,-10.733604431152344,-0.6161518096923828
1695712586692965000,9.143965087890624,1.8203397989273071,-9.818947792053223,-0.14715859293937683
1695712586703015400,9.154015380859375,1.8634105920791626,-8.952746391296387,0.13998012244701385
1695712586713065500,9.1640654296875,1.537388563156128,-8.325227737426758,0.3320041298866272
1695712586723115800,9.17411572265625,1.2837493419647217,-7.932805061340332,0.05383851006627083
1695712586733165800,9.184165771484375,0.6807580590248108,-7.899305820465088,-0.2955136001110077
1695712586743216000,9.194216064453125,-0.3008974492549896,-8.076375007629395,-0.625723123550415
1695712586753266400,9.204266357421876,-1.5894324779510498,-8.13380241394043,-0.9421738982200623
1695712586763316500,9.21431640625,-2.671586513519287,-8.229515075683594,-1.3872389793395996
1695712586773366800,9.22436669921875,-3.174079179763794,-8.612366676330566,-1.3154542446136475
1695712586783401200,9.234401123046876,-2.101496458053589,-8.531010627746582,-0.8177471160888672
1695712586793432600,9.2444326171875,-0.6556333899497986,-8.492725372314453,-0.5730810165405273
1695712586803451100,9.254451171875,0.373878538608551,-8.521439552307129,-0.5635097622871399
1695712586813469400,9.264469482421875,1.164108157157898,-8.306085586547852,-0.6687939167022705
1695712586823487700,9.27448779296875,1.7102699279785156,-8.02373218536377,-1.186241865158081
1695712586833506300,9.28450634765625,1.968694806098938,-7.971090316772461,-1.7653049230575562
1695712586843524600,9.294524658203125,1.8873388767242432,-8.334799766540527,-2.3401806354522705
1695712586853543000,9.30454296875,1.211964726448059,-9.024530410766602,-2.737389087677002
1695712586863561200,9.314561279296875,-0.004187439568340778,-9.953543663024902,-2.5363919734954834
1695712586873579800,9.324579833984375,-1.454836130142212,-10.690533638000488,-1.8711873292922974
1695712586883598000,9.33459814453125,-2.8007988929748535,-11.093125343322754,-1.0857433080673218
1695712586893616400,9.344616455078125,-3.79681134223938,-11.499905586242676,-0.2667997181415558
1695712586903647200,9.354647216796875,-3.7872400283813477,-12.146566390991211,0.5234299302101135
1695712586913675000,9.364675048828126,-2.7912275791168213,-12.577274322509766,0.9876375198364258
1695712586923702800,9.374702880859376,-1.34476637840271,-12.189637184143066,0.8727820515632629
1695712586933730300,9.384730224609376,0.005383851006627083,-11.3180513381958,0.5617151260375977
1695712586943758000,9.394758056640624,0.7429714202880859,-11.10748291015625,0.5952146053314209
1695712586953785900,9.404785888671874,0.32602208852767944,-12.218350410461426,0.8392825126647949
1695712586963813600,9.414813720703124,-0.6460621356964111,-14.148161888122559,0.39421752095222473
1695712586973841400,9.42484130859375,-1.28255295753479,-15.933806419372559,-0.12801600992679596
1695712586983869200,9.434869140625,-1.4165509939193726,-16.867605209350586,-0.3720839321613312
1695712586993897000,9.44489697265625,-1.9435701370239258,-16.015161514282227,-0.381655216217041
1695712587003924700,9.4549248046875,-3.245863914489746,-14.6937255859375,0.18305093050003052
1695712587013956900,9.464956787109376,-3.6335012912750244,-13.898710250854492,0.9493523836135864
1695712587023994600,9.47499462890625,-3.183650493621826,-13.147363662719727,0.6622136831283569
1695712587034032600,9.48503271484375,-2.6189444065093994,-12.117852210998535,-1.1288141012191772
1695712587044070700,9.495070556640625,-1.1437692642211914,-11.452049255371094,-3.3122646808624268
1695712587054108700,9.505108642578126,2.0883359909057617,-11.447263717651367,-4.959722995758057
1695712587064146700,9.515146728515624,4.357928276062012,-12.141779899597168,-6.0466628074646
1695712587074184700,9.525184814453125,4.180859565734863,-13.089936256408691,-6.7310099601745605
1695712587084222700,9.53522265625,3.0077781677246094,-13.50150203704834,-7.315456867218018
1695712587094260700,9.5452607421875,2.002194404602051,-13.214363098144531,-7.262814998626709
1695712587104298800,9.555298828125,2.32761812210083,-12.969696998596191,-7.066603660583496
1695712587114330000,9.565330078125,3.4959139823913574,-12.495918273925781,-6.080162525177002
1695712587124358100,9.575358154296875,2.9216363430023193,-11.729616165161133,-4.700700283050537
1695712587134386400,9.585386474609376,2.279761791229248,-11.614761352539062,-3.47019100189209
1695712587144414700,9.595414794921876,0.03888336941599846,-11.91625690460205,-2.1104695796966553
1695712587154443000,9.605443115234374,-1.2921242713928223,-12.491132736206055,-0.711864709854126
1695712587164471300,9.61547119140625,-0.5455635786056519,-12.682558059692383,0.4995017349720001
1695712587174499600,9.62549951171875,0.43130627274513245,-12.644272804260254,1.7443677186965942
1695712587184528000,9.63552783203125,1.1784651279449463,-11.906685829162598,2.4436700344085693
1695712587194556200,9.64555615234375,1.906481385231018,-10.470394134521484,2.534597396850586
1695712587204584400,9.65558447265625,2.050050735473633,-8.626724243164062,2.122433662414551
1695712587214621200,9.66562109375,1.8634105920791626,-6.5389862060546875,1.672582983970642
1695712587224684300,9.675684326171876,2.184048891067505,-5.107480049133301,1.2699905633926392
1695712587234747100,9.6857470703125,2.2366909980773926,-4.073182582855225,0.666999340057373
1695712587244810200,9.695810302734374,2.7493531703948975,-3.5365917682647705,0.21655045449733734
1695712587254873000,9.705873046875,2.9838497638702393,-3.2781670093536377,-0.3768695592880249
1695712587264936200,9.715936279296875,2.754138946533203,-3.129812002182007,-0.9900303483009338
1695712587274999000,9.7259990234375,2.428116798400879,-2.933600664138794,-1.4207384586334229
1695712587285031400,9.736031494140626,2.107478618621826,-2.847458839416504,-1.7748762369155884
1695712587295043800,9.7460439453125,1.8299111127853394,-2.9383862018585205,-1.856830358505249
1695712587305056300,9.75605615234375,1.5230315923690796,-2.871387243270874,-2.1583259105682373
1695712587315068700,9.766068603515626,1.1066805124282837,-3.0101709365844727,-2.7038896083831787
1695712587325081000,9.7760810546875,1.0253244638442993,-3.139383316040039,-3.111267566680908
1695712587335093200,9.78609326171875,0.7668996453285217,-3.187239646911621,-3.5084762573242188
1695712587345105700,9.796105712890625,0.3690928816795349,-3.5222349166870117,-3.6568312644958496
1695712587355118300,9.806118408203124,-0.3966103494167328,-3.958326816558838,-3.479762315750122
1695712587365130500,9.816130615234375,-1.435693621635437,-4.408177375793457,-3.139981508255005
1695712587375143000,9.826142822265625,-2.968296527862549,-4.863411903381348,-2.7661030292510986
1695712587385175300,9.83617529296875,-4.48115873336792,-5.480760097503662,-2.273181438446045
1695712587395207400,9.84620751953125,-6.401398658752441,-6.361917018890381,-1.9956140518188477
1695712587405239800,9.85623974609375,-11.941381454467773,-8.152944564819336,-2.8624141216278076
1695712587415272000,9.86627197265625,-18.894325256347656,-11.13619613647461,-4.959722995758057
1695712587425304300,9.87630419921875,-19.359130859375,-15.110674858093262,-6.845865726470947
1695712587435336400,9.88633642578125,-19.219749450683594,-20.885154724121094,-7.4015984535217285
1695712587445368800,9.896368896484375,-16.95494270324707,-25.04627227783203,-6.735795974731445
1695712587455401000,9.90640087890625,-8.997013092041016,-23.944976806640625,-4.327419757843018
1695712587465433300,9.916433349609376,-5.706881999969482,-18.902700424194336,-2.66560435295105
1695712587475465500,9.926465576171875,-5.218746185302734,-12.390633583068848,-1.3728820085525513
1695712587485498000,9.936498046875,-4.898108005523682,-6.836294174194336,-0.003589233849197626
1695712587495532000,9.946531982421876,-5.702096462249756,-2.9144580364227295,-0.33379876613616943
1695712587505566000,9.95656591796875,-4.3998026847839355,-1.5541383028030396,-1.6504493951797485
1695712587515600100,9.96660009765625,-1.6564314365386963,-2.9288148880004883,-1.5020943880081177
1695712587525634000,9.976634033203124,5.7134623527526855,-6.093921184539795,0.4995017349720001
1695712587535668000,9.98666796875,10.788639068603516,-8.35872745513916,-0.1663011759519577
1695712587545702000,9.996701904296875,10.903494834899902,-10.121041297912598,-2.794816732406616
1695712587555736000,10.006736083984375,4.137788772583008,-13.02772331237793,-3.9014973640441895
1695712587565770000,10.01677001953125,-9.198010444641113,-16.791034698486328,-6.175875186920166
1695712587575804000,10.026803955078124,-2.292922258377075,-15.852450370788574,-10.006186485290527
1695712587585835800,10.036835693359375,7.796414375305176,-13.463216781616211,-8.837890625
1695712587595864300,10.0468642578125,9.199206352233887,-11.45683479309082,-6.56829833984375
1695712587605892900,10.056892822265626,8.011768341064453,-9.010173797607422,-5.395216941833496
1695712587615921400,10.06692138671875,6.158527374267578,-6.002993583679199,-5.26600456237793
1695712587625949700,10.07694970703125,4.070789337158203,-4.384249210357666,-5.088935375213623
1695712587635978200,10.086978271484375,2.083550214767456,-4.484747886657715,-4.514060020446777
1695712587646006800,10.0970068359375,1.2885349988937378,-5.840281963348389,-2.953341245651245
1695712587656035300,10.107035400390625,1.058824062347412,-8.669795036315918,-1.5978072881698608
1695712587666064000,10.11706396484375,0.9678967595100403,-11.251051902770996,-0.9134600162506104
1695712587676092200,10.127092041015626,1.077966570854187,-12.682558059692383,-0.6879364848136902
1695712587686127400,10.13712744140625,1.451246976852417,-13.051651000976562,-0.625723123550415
1695712587696176600,10.1471767578125,1.8346967697143555,-12.907483100891113,-0.12323036789894104
1695712587706226200,10.15722607421875,1.944766640663147,-11.887542724609375,0.3846462368965149
1695712587716275500,10.167275390625,1.7676976919174194,-10.216754913330078,0.7435696125030518
1695712587726325000,10.177324951171874,1.6863417625427246,-8.650651931762695,1.1168500185012817
1695712587736374300,10.187374267578125,1.724626898765564,-7.554141044616699,1.1359925270080566
1695712587746423800,10.197423828125,1.8969101905822754,-7.051648139953613,0.7483552694320679
1695712587756473000,10.20747314453125,1.4464613199234009,-7.190432071685791,-0.07058826833963394
1695712587766522600,10.217522705078125,0.29730820655822754,-7.856235027313232,-1.095314621925354
1695712587776572000,10.227572021484375,-1.0097711086273193,-8.34437084197998,-1.9381862878799438
1695712587786603500,10.237603515625,-2.1445672512054443,-8.62193775177002,-2.431107759475708
1695712587796621000,10.24762109375,-2.757728099822998,-8.60758113861084,-2.3641088008880615
1695712587806638300,10.257638427734374,-2.5609183311462402,-8.435297966003418,-2.0338993072509766
1695712587816655600,10.267655517578126,-1.277767300605774,-8.320442199707031,-1.5499508380889893
1695712587826673200,10.277673095703125,0.5467599630355835,-8.229515075683594,-1.1335997581481934
1695712587836690400,10.2876904296875,2.026122570037842,-7.798209190368652,-1.272383451461792
1695712587846707700,10.297707763671875,2.9790642261505127,-7.496713161468506,-1.7748762369155884
1695712587856725200,10.307725341796875,3.4719855785369873,-7.813164234161377,-1.9860427379608154
1695712587866742500,10.317742431640625,2.8498518466949463,-8.895318031311035,-2.0578274726867676
1695712587876759800,10.327759765625,1.4464613199234009,-10.164112091064453,-1.5308083295822144
1695712587886791700,10.337791748046875,0.2638086974620819,-10.72403335571289,-1.052243709564209
1695712587896824600,10.347824462890625,-0.7896314859390259,-10.757532119750977,-0.8943174481391907
1695712587906857200,10.357857177734376,-1.7473586797714233,-10.719246864318848,-0.8895317912101746
1695712587916890000,10.36789013671875,-2.345564365386963,-11.050054550170898,-0.8368897438049316
1695712587926922800,10.3779228515625,-2.431705951690674,-11.743973731994629,-0.6400800347328186
1695712587936955600,10.38795556640625,-1.800000786781311,-12.577274322509766,-0.28594231605529785
1695712587946988300,10.39798828125,-0.5934200286865234,-12.716057777404785,-0.1423729509115219
1695712587957021200,10.408021240234374,0.7668996453285217,-12.103495597839355,-0.15672987699508667
1695712587967053800,10.4180537109375,1.815554141998291,-11.117053985595703,-0.39122650027275085
1695712587977086700,10.428086669921875,2.2654049396514893,-10.65224838256836,-0.3529413342475891
1695712587987117600,10.43811767578125,1.8394824266433716,-10.886744499206543,-0.1902294009923935
1695712587997144600,10.44814453125,0.5419743061065674,-11.351551055908203,-0.4295116662979126
1695712588007171300,10.45817138671875,-1.191625714302063,-12.05085277557373,-1.0857433080673218
1695712588017198000,10.468197998046875,-3.0448668003082275,-13.343575477600098,-1.7174484729766846
1695712588027225000,10.47822509765625,-4.0217366218566895,-14.755939483642578,-2.3784656524658203
1695712588037251800,10.488251953125,-3.6580276489257812,-14.665011405944824,-2.0099709033966064
1695712588047278800,10.49827880859375,-3.2793633937835693,-13.185648918151855,-0.8177471160888672
1695712588057305600,10.5083056640625,-3.7776687145233154,-12.002996444702148,0.10648060590028763
1695712588067332400,10.518332275390625,-3.782454490661621,-11.164910316467285,0.13040883839130402
1695712588077359400,10.528359375,-2.3407788276672363,-10.29332447052002,-0.9038887619972229
1695712588087390500,10.538390380859376,-0.08554340898990631,-10.006186485290527,-2.273181438446045
1695712588097422600,10.548422607421875,2.6632115840911865,-10.585248947143555,-3.077768087387085
1695712588107454500,10.558454345703124,4.424927234649658,-11.849257469177246,-3.628117322921753
1695712588117486600,10.568486572265625,4.137788772583008,-13.592429161071777,-4.068994998931885
1695712588127518700,10.578518798828124,3.438486099243164,-15.014364242553711,-4.021138668060303
1695712588137550600,10.588550537109375,3.7645082473754883,-15.364314079284668,-3.9349968433380127
1695712588147582700,10.598582763671875,4.884947299957275,-15.120245933532715,-3.738187074661255
1695712588157614800,10.60861474609375,4.391427993774414,-14.655440330505371,-3.0107691287994385
1695712588167646700,10.618646728515625,3.668795347213745,-13.817354202270508,-2.1918256282806396
1695712588177678800,10.628678955078126,1.2837493419647217,-13.439288139343262,-1.9334007501602173
1695712588187714000,10.638714111328126,-1.3351950645446777,-13.386646270751953,-1.6169499158859253
1695712588197769700,10.648769775390624,-1.4644074440002441,-13.319646835327148,-1.5212370157241821
1695712588207825400,10.658825439453125,-0.3008974492549896,-12.92184066772461,-1.0139585733413696
1695712588217881300,10.66888134765625,0.9822536706924438,-12.328420639038086,-0.6544370055198669
1695712588227937000,10.67893701171875,1.7150555849075317,-11.313265800476074,-0.2715853750705719
1695712588237992700,10.68899267578125,2.1122641563415527,-9.991828918457031,-0.013160524889826775
1695712588248048400,10.69904833984375,2.1888344287872314,-8.239086151123047,0.039481572806835175
1695712588258104000,10.70910400390625,1.9543378353118896,-6.591628074645996,-0.1136590763926506
1695712588268159700,10.71915966796875,2.1409780979156494,-5.088337421417236,-0.30987054109573364
1695712588278190600,10.729190673828125,2.341975212097168,-4.183252334594727,-0.4630111753940582
1695712588288204500,10.73920458984375,2.3515465259552,-3.4887354373931885,-0.6352944374084473
1695712588298218500,10.749218505859375,2.3946173191070557,-3.0867412090301514,-0.8895317912101746
1695712588308232200,10.759232177734376,2.2893331050872803,-2.785245656967163,-1.2628121376037598
1695712588318246100,10.76924609375,1.700698733329773,-2.775674343109131,-1.5882359743118286
1695712588328260000,10.779260009765625,1.0492527484893799,-3.0245277881622314,-1.9381862878799438
1695712588338274000,10.789274169921875,0.7286145091056824,-3.297309637069702,-2.1343977451324463
1695712588348287700,10.799287841796875,0.4456632137298584,-3.397808074951172,-2.4502503871917725
1695712588358301700,10.8093017578125,0.13938191533088684,-3.4648072719573975,-3.1447670459747314
1695712588368315600,10.819315673828125,0.12502498924732208,-3.493520975112915,-3.7812578678131104
1695712588378346800,10.8293466796875,-0.14775680005550385,-3.359523057937622,-4.140779495239258
1695712588388379000,10.83937890625,-0.550349235534668,-3.431307554244995,-4.31306266784668
1695712588398411000,10.849410888671875,-1.0289137363433838,-3.6472599506378174,-4.246063709259033
1695712588408443100,10.859443115234376,-1.6564314365386963,-3.8865420818328857,-3.9972102642059326
1695712588418475300,10.869475341796875,-2.4843480587005615,-4.154538154602051,-3.5850465297698975
1695712588428507400,10.87950732421875,-3.4085757732391357,-4.393820762634277,-3.393620729446411
1695712588438539500,10.88953955078125,-4.074378967285156,-4.609174728393555,-3.3649067878723145
1695712588448571600,10.899571533203124,-6.568896293640137,-5.346762180328369,-3.360121250152588
1695712588458603800,10.909603759765625,-12.793824195861816,-7.482356548309326,-4.001996040344238
1695712588468636000,10.919635986328124,-18.281763076782227,-10.781460762023926,-5.380859851837158
1695712588478667300,10.929667236328125,-17.328821182250977,-15.086747169494629,-5.878567218780518
1695712588488699600,10.93969970703125,-15.98764419555664,-20.473588943481445,-6.099305152893066
1695712588498731800,10.949731689453126,-14.647065162658691,-24.73042106628418,-5.67756986618042
1695712588508764000,10.959763916015625,-9.475577354431152,-24.098115921020508,-3.2213375568389893
1695712588518796300,10.96979638671875,-5.429314613342285,-19.051055908203125,-1.0666006803512573
1695712588528828400,10.979828369140625,-5.19960355758667,-13.099507331848145,0.7722834944725037
1695712588538860500,10.989860595703124,-5.898906230926514,-7.463213920593262,1.7922241687774658
1695712588548893000,10.999892822265625,-5.099104881286621,-3.6711881160736084,1.5672988891601562
1695712588558925000,11.009925048828125,-3.183650493621826,-2.4496521949768066,-0.3242274820804596
1695712588568957400,11.01995751953125,-1.7282161712646484,-3.9870407581329346,-2.297109842300415
1695712588578989000,11.029989013671875,1.0444670915603638,-6.965506553649902,-2.2444677352905273
1695712588589022000,11.04002197265625,6.196812629699707,-10.341180801391602,-2.0578274726867676
1695712588599054800,11.050054931640625,7.700103282928467,-12.964911460876465,-3.2931220531463623
1695712588609087700,11.060087646484375,2.4185454845428467,-15.41217041015625,-4.265206336975098
1695712588619120600,11.07012060546875,-2.221137523651123,-16.719249725341797,-4.456632137298584
1695712588629153500,11.080153564453125,0.6472585201263428,-14.71765422821045,-5.782854080200195
1695712588639186400,11.0901865234375,4.961517810821533,-11.586047172546387,-6.022734642028809
1695712588649219300,11.10021923828125,6.570092678070068,-8.736793518066406,-5.510072231292725
1695712588659252200,11.110252197265625,6.450451850891113,-5.657829284667969,-5.9264235496521
1695712588669285000,11.12028515625,5.497509956359863,-3.3930225372314453,-6.5252275466918945
1695712588679320000,11.130320068359374,3.390629768371582,-2.847458839416504,-6.6592254638671875
1695712588689371100,11.14037109375,1.8394824266433716,-3.177668571472168,-6.463014125823975
1695712588699422000,11.150421875,1.8969101905822754,-4.911268711090088,-4.849055290222168
1695712588709473000,11.16047314453125,2.571686029434204,-7.880163192749023,-3.2165517807006836
1695712588719524000,11.170524169921874,3.19441819190979,-10.767104148864746,-1.9908283948898315
1695712588729575000,11.180574951171875,3.280559778213501,-12.701701164245605,-1.0761719942092896
1695712588739626000,11.1906259765625,3.2279176712036133,-13.496716499328613,-0.18065811693668365
1695712588749676800,11.2006767578125,2.8115665912628174,-13.664214134216309,-0.28115665912628174
1695712588759727900,11.210727783203126,1.877767562866211,-12.802199363708496,-0.07537391036748886
1695712588769779000,11.220779052734375,1.6002001762390137,-11.298908233642578,0.04905286431312561
1695712588779809500,11.2308095703125,1.724626898765564,-10.001399993896484,0.7004988193511963
1695712588789823200,11.2408232421875,1.4656038284301758,-9.034101486206055,0.8632107973098755
1695712588799837000,11.2508369140625,1.5810575485229492,-8.143373489379883,0.9541380405426025
1695712588809850600,11.2608505859375,1.9926230907440186,-7.8658061027526855,0.6813562512397766
1695712588819864300,11.2708642578125,2.0931215286254883,-7.9758758544921875,0.09212367236614227
1695712588829878000,11.2808779296875,1.1114661693572998,-8.105088233947754,-0.44386860728263855
1695712588839891700,11.2908916015625,-0.07597211748361588,-8.325227737426758,-1.0091729164123535
1695712588849905400,11.300905517578125,-1.2346965074539185,-8.464012145996094,-1.4015958309173584
1695712588859919000,11.310919189453125,-1.83828604221344,-8.401798248291016,-1.7796618938446045
1695712588869932800,11.320932861328124,-1.3495519161224365,-8.430512428283691,-1.6121642589569092
1695712588879962600,11.330962646484375,-0.5838487148284912,-8.487939834594727,-1.296311616897583
1695712588889989600,11.34098974609375,0.024526432156562805,-8.430512428283691,-1.2675977945327759
1695712588900016400,11.351016357421875,0.41216370463371277,-8.248658180236816,-1.6217355728149414
1695712588910043100,11.361043212890625,0.7716853022575378,-8.416155815124512,-2.053041934967041
1695712588920070100,11.371070068359375,1.0253244638442993,-9.105886459350586,-2.3162522315979004
1695712588930097000,11.381096923828125,0.833898663520813,-10.058828353881836,-1.9142581224441528
1695712588940123600,11.39112353515625,0.2638086974620819,-10.829317092895508,-1.1718848943710327
1695712588950150700,11.401150634765624,-0.5359922647476196,-11.174481391906738,-0.8129615187644958
1695712588960177400,11.411177490234374,-1.306481122970581,-11.155339241027832,-0.5443671345710754
1695712588970204400,11.421204345703124,-2.2546372413635254,-10.944770812988281,-0.38644084334373474
1695712588980235800,11.43123583984375,-3.0592236518859863,-10.881958961486816,-0.39122650027275085
1695712588990274000,11.441274169921876,-2.748156785964966,-11.308480262756348,-0.25722843408584595
1695712589000312300,11.451312255859374,-1.3830515146255493,-11.600403785705566,-0.2715853750705719
1695712589010350600,11.4613505859375,0.32602208852767944,-11.413763999938965,-0.7597211599349976
1695712589020388900,11.471388916015625,1.6767704486846924,-10.814960479736328,-1.119242787361145
1695712589030427100,11.48142724609375,2.5429723262786865,-10.27896785736084,-1.0139585733413696
1695712589040465200,11.491465087890624,2.8977081775665283,-10.700104713439941,-0.4055834412574768
1695712589050503400,11.50150341796875,2.5190439224243164,-11.877971649169922,-0.02273181453347206
1695712589060541700,11.511541748046875,1.5469598770141602,-13.099507331848145,-0.20458634197711945
1695712589070580000,11.521580078125,0.08195417374372482,-14.162519454956055,-0.7645068168640137
1695712589080612000,11.531612060546875,-1.5846468210220337,-14.81815242767334,-1.4733805656433105
1695712589090646300,11.541646240234375,-3.4468610286712646,-14.330016136169434,-1.363310694694519
1695712589100680700,11.5516806640625,-4.136591911315918,-13.630714416503906,0.010767702013254166
1695712589110715100,11.561715087890626,-2.8486554622650146,-13.424931526184082,1.2556337118148804
1695712589120749600,11.57174951171875,-1.6755740642547607,-13.329218864440918,1.4333007335662842
1695712589130784000,11.581783935546875,-2.541775941848755,-13.195219993591309,0.5952146053314209
1695712589140818400,11.591818359375,-3.001796007156372,-12.763914108276367,-0.6305087804794312
1695712589150852900,11.601852783203125,-0.511465847492218,-12.290135383605957,-1.8233308792114258
1695712589160887300,11.61188720703125,2.9359934329986572,-12.28534984588623,-3.149552822113037
1695712589170921700,11.621921630859376,4.453640937805176,-12.653843879699707,-4.380061626434326
1695712589180955600,11.63195556640625,4.463212490081787,-13.367504119873047,-5.285147190093994
1695712589190997800,11.641997802734375,3.6879379749298096,-13.554143905639648,-5.945566177368164
1695712589201040000,11.652039794921874,3.1178479194641113,-12.955340385437012,-5.4765729904174805
1695712589211082000,11.66208203125,3.060420274734497,-12.218350410461426,-4.858626365661621
1695712589221124000,11.6721240234375,3.050848960876465,-11.499905586242676,-4.202992916107178
1695712589231166500,11.68216650390625,2.461616277694702,-10.65224838256836,-4.102494239807129
1695712589241208600,11.69220849609375,2.8929226398468018,-10.322038650512695,-3.8195431232452393
1695712589251250700,11.702250732421875,1.0061819553375244,-10.475179672241211,-3.3888349533081055
1695712589261292800,11.712292724609375,-0.23389841616153717,-10.594820022583008,-2.641676187515259
1695712589271335000,11.7223349609375,0.776470959186554,-10.65224838256836,-1.5308083295822144
1695712589281365200,11.732365234375,2.1361923217773438,-10.580463409423828,-0.49651068449020386
1695712589291382300,11.74238232421875,2.5046870708465576,-10.336395263671875,0.2745763957500458
1695712589301399000,11.75239892578125,2.950350284576416,-9.550951957702637,0.7579265832901001
1695712589311416000,11.762416015625,3.2039895057678223,-8.554939270019531,0.5473581552505493
1695712589321433000,11.77243310546875,2.9551360607147217,-7.76470947265625,0.12083754688501358
1695712589331449900,11.782449951171875,2.8737800121307373,-6.798008918762207,-0.1902294009923935
1695712589341467000,11.792466796875,2.998206853866577,-5.840281963348389,-0.592223584651947
1695712589351483600,11.802483642578125,2.6249263286590576,-5.030909538269043,-0.9900303483009338
1695712589361500700,11.812500732421874,1.9016958475112915,-4.355535507202148,-1.430309772491455
1695712589371517400,11.822517333984376,1.4033905267715454,-4.101896286010742,-1.7748762369155884
1695712589381548300,11.83254833984375,1.0971091985702515,-4.073182582855225,-2.0243279933929443
1695712589391581000,11.842580810546876,1.231107234954834,-4.11625337600708,-2.3162522315979004
1695712589401613600,11.852613525390625,1.4368900060653687,-4.231108665466309,-2.6799614429473877
1695712589411646500,11.862646484375,1.470389485359192,-4.173680782318115,-3.163909673690796
1695712589421679000,11.87267919921875,1.3746765851974487,-3.9631125926971436,-3.690330743789673
1695712589431711700,11.882711669921875,1.2502498626708984,-3.723830223083496,-4.121636867523193
1695712589441744400,11.892744384765624,1.1736794710159302,-3.4648072719573975,-4.284348964691162
1695712589451777000,11.902777099609375,0.8769695162773132,-3.4025938510894775,-4.164707660675049
1695712589461809700,11.9128095703125,0.2111666053533554,-3.5748770236968994,-3.762115478515625
1695712589471842300,11.92284228515625,-0.8757730722427368,-3.7573297023773193,-3.1926236152648926
1695712589481874000,11.9328740234375,-2.048854351043701,-3.6424741744995117,-2.8624141216278076
1695712589491908400,11.942908447265625,-3.6191442012786865,-3.652045488357544,-2.6608188152313232
1695712589501942800,11.95294287109375,-5.395814895629883,-3.9487555027008057,-2.761317253112793
1695712589511977200,11.962977294921876,-12.219547271728516,-4.9878387451171875,-3.4654054641723633
1695712589522012000,11.973011962890626,-23.31386947631836,-7.8418779373168945,-5.806782245635986
1695712589532046300,11.98304638671875,-21.91107749938965,-11.552547454833984,-8.48853874206543
1695712589542080800,11.993080810546875,-22.505094528198242,-19.75035858154297,-8.679964065551758
1695712589552115200,12.003115234375,-18.717256546020508,-28.88675308227539,-7.774878978729248
1695712589562149600,12.013149658203124,-6.521039962768555,-28.498517990112305,-5.950351715087891
1695712589572184300,12.023184326171876,-3.4707891941070557,-23.082962036132812,-3.7812578678131104
1695712589582215700,12.033215576171875,-4.414159774780273,-16.470396041870117,-2.1774685382843018
1695712589592246500,12.04324658203125,-5.027320384979248,-8.602795600891113,-1.1766705513000488
1695712589602277400,12.05327734375,-5.568098068237305,-2.7086751461029053,-1.6983058452606201
1695712589612308200,12.06330810546875,-5.61116886138916,-0.046061836183071136,-3.0681967735290527
1695712589622339000,12.073339111328124,-3.8781673908233643,-1.482353687286377,-3.4749767780303955
1695712589632370200,12.0833701171875,1.3986048698425293,-5.744568824768066,-3.565903902053833
1695712589642401000,12.093401123046876,8.341978073120117,-10.144969940185547,-3.6233317852020264
1695712589652432000,12.103431884765625,9.874580383300781,-13.592429161071777,-3.872185230255127
1695712589662462700,12.113462646484376,4.999803066253662,-16.240686416625977,-1.9334007501602173
1695712589672493600,12.12349365234375,3.6155550479888916,-15.967305183410645,-0.3194418251514435
1695712589682527500,12.133527587890624,4.281357765197754,-12.42413330078125,-1.755733609199524
1695712589692572400,12.143572509765624,3.1178479194641113,-8.96231746673584,-3.8865420818328857
1695712589702617300,12.153617431640624,1.231107234954834,-6.022136211395264,-5.734997749328613
1695712589712662300,12.163662353515624,1.1545369625091553,-3.690330743789673,-6.45822811126709
1695712589722707200,12.173707275390624,2.131406784057617,-2.833101987838745,-6.697510719299316
1695712589732752400,12.18375244140625,3.160918712615967,-3.675973892211914,-6.305087566375732
1695712589742797300,12.19379736328125,4.156930923461914,-5.959922790527344,-4.9740800857543945
1695712589752842200,12.20384228515625,3.7118661403656006,-8.895318031311035,-3.393620729446411
1695712589762887200,12.21388720703125,1.8921245336532593,-11.979068756103516,-1.5643078088760376
1695712589772932000,12.22393212890625,1.058824062347412,-13.7647123336792,-0.41994038224220276
1695712589782962400,12.23396240234375,1.8011972904205322,-13.089936256408691,0.5186443328857422
1695712589792979000,12.24397900390625,1.7389838695526123,-12.68734359741211,0.2069791555404663
1695712589802995500,12.253995361328125,1.2693923711776733,-11.528619766235352,-0.6544370055198669
1695712589813012000,12.264011962890624,1.877767562866211,-9.680164337158203,-0.3290131092071533
1695712589823028500,12.274028564453126,2.3802602291107178,-8.842676162719727,-0.5730810165405273
1695712589833045000,12.284044921875,2.6009981632232666,-8.684151649475098,-0.30987054109573364
1695712589843061500,12.2940615234375,2.5286152362823486,-8.861818313598633,-0.17108681797981262
1695712589853078300,12.304078369140624,2.0452651977539062,-8.885746955871582,-0.23330020904541016
1695712589863094800,12.3140947265625,1.7198412418365479,-8.779864311218262,-0.4821537733078003
1695712589873111300,12.324111328125,1.6049858331680298,-8.722436904907227,-0.7501499056816101
1695712589883141400,12.334141357421874,1.0109676122665405,-8.751151084899902,-1.0043872594833374
1695712589893190000,12.34418994140625,-0.028115665540099144,-8.727222442626953,-1.2197413444519043
1695712589903238000,12.35423779296875,-1.0767701864242554,-8.779864311218262,-1.3106685876846313
1695712589913286400,12.364286376953125,-1.6325032711029053,-8.847461700439453,-1.6313068866729736
1695712589923334700,12.374334716796875,-1.685145378112793,-8.727222442626953,-1.7222341299057007
1695712589933383000,12.3843828125,-0.7992027401924133,-8.69372272491455,-1.4973087310791016
1695712589943431200,12.39443115234375,0.7238288521766663,-8.444869041442871,-1.2340983152389526
1695712589953479400,12.4044794921875,1.9782661199569702,-8.186444282531738,-1.114457130432129
1695712589963527700,12.414527587890625,2.7254250049591064,-8.028517723083496,-1.0091729164123535
1695712589973576000,12.424575927734375,2.8115665912628174,-7.971090316772461,-1.0761719942092896
1695712589983624200,12.434624267578124,2.294118642807007,-8.368298530578613,-1.4063814878463745
1695712589993652700,12.44465283203125,1.1928220987319946,-9.388239860534668,-1.784447431564331
1695712590003672300,12.45467236328125,-0.3248256742954254,-10.59960651397705,-1.6169499158859253
1695712590013692200,12.464692138671875,-2.0105693340301514,-11.365907669067383,-1.1718848943710327
1695712590023711700,12.474711669921875,-3.9499518871307373,-11.676974296569824,-0.46779683232307434
1695712590033731600,12.484731689453126,-5.706881999969482,-11.83011531829834,0.29850462079048157
1695712590043751200,12.494751220703124,-5.61116886138916,-12.294920921325684,1.2029916048049927
1695712590053771000,12.50477099609375,-3.67238450050354,-12.385848045349121,1.3902299404144287
1695712590063790600,12.51479052734375,-1.215553879737854,-11.83011531829834,0.7962117195129395
1695712590073810400,12.524810546875,0.388235479593277,-11.078768730163574,0.16390834748744965
1695712590083830300,12.534830322265625,1.1018948554992676,-10.810174942016602,0.09212367236614227
1695712590093849900,12.544849853515625,1.0636097192764282,-11.418549537658691,0.5856433510780334
1695712590103878400,12.55487841796875,-0.15254244208335876,-12.505489349365234,0.4612165689468384
1695712590113907500,12.564907470703124,-1.6755740642547607,-13.927424430847168,0.3415754437446594
1695712590123936500,12.5749365234375,-2.379063844680786,-15.239887237548828,0.15912270545959473
1695712590133965600,12.584965576171875,-2.441277265548706,-14.808581352233887,-0.3481557071208954
1695712590143994400,12.594994384765625,-3.269792079925537,-13.554143905639648,-0.6065805554389954
1695712590154023400,12.6050234375,-4.514657974243164,-13.152149200439453,-0.18065811693668365
1695712590164052500,12.615052490234374,-4.055236339569092,-12.78305721282959,0.18305093050003052
1695712590174081500,12.62508154296875,-1.7473586797714233,-12.184850692749023,-0.31465616822242737
1695712590184110600,12.635110595703125,0.4265206456184387,-11.729616165161133,-1.8179470300674438
1695712590194139600,12.6451396484375,2.9790642261505127,-11.91625690460205,-3.0681967735290527
1695712590204168400,12.65516845703125,4.985445976257324,-13.161721229553223,-4.04985237121582
1695712590214198300,12.6651982421875,5.272584915161133,-14.961721420288086,-5.222933769226074
1695712590224232400,12.675232421875,4.698307037353516,-15.416955947875977,-5.806782245635986
1695712590234266600,12.6852666015625,4.381856441497803,-14.971293449401855,-5.069792747497559
1695712590244300800,12.69530078125,4.070789337158203,-14.248661041259766,-4.872983455657959
1695712590254335000,12.7053349609375,2.840280532836914,-13.58764362335205,-4.399204254150391
1695712590264369200,12.715369140625,1.6145570278167725,-12.787842750549316,-4.030709743499756
1695712590274403300,12.7254033203125,1.7964116334915161,-12.280564308166504,-3.944568157196045
1695712590284437500,12.7354375,0.6616154313087463,-12.108281135559082,-3.762115478515625
1695712590294471700,12.7454716796875,-0.5407779216766357,-11.80618667602539,-3.0825538635253906
1695712590304505900,12.755505859375,0.2111666053533554,-11.054841041564941,-2.3880369663238525
1695712590314540000,12.7655400390625,1.3603196144104004,-9.982257843017578,-1.6791633367538452
1695712590324570400,12.7755703125,2.778067111968994,-9.072386741638184,-0.5635097622871399
1695712590334604000,12.78560400390625,3.2997024059295654,-8.004590034484863,0.16869398951530457
