time,seconds_elapsed,z,y,x
1695712577684117500,0.135117431640625,0.050067391246557236,-2.960500717163086,0.6942855715751648
1695712577694153000,0.145153076171875,-0.29387959837913513,-2.7486464977264404,0.760331928730011
1695712577704185300,0.155185302734375,-0.40040597319602966,-2.5984442234039307,0.8273103833198547
1695712577714220800,0.165220703125,-0.3428817391395569,-2.407762050628662,0.8741819858551025
1695712577724253000,0.1752529296875,-0.18415744602680206,-1.6335817575454712,0.6495444774627686
1695712577734433800,0.185433837890625,0.013848427683115005,-0.956207275390625,0.3491401672363281
1695712577744472600,0.19547265625,0.1832253485918045,-0.3981422781944275,0.0062584239058196545
1695712577754355500,0.20535546875,0.28442537784576416,0.06937529146671295,-0.36005911231040955
1695712577764530400,0.215530517578125,0.23648852109909058,0.29947224259376526,-0.5773729085922241
1695712577774560500,0.225560546875,0.12357058376073837,0.48256441950798035,-0.5752423405647278
1695712577784587300,0.235587158203125,0.05539371073246002,0.6103960871696472,-0.46338969469070435
1695712577794614000,0.245614013671875,0.02024000883102417,0.44847598671913147,-0.3302317261695862
1695712577804488700,0.25548876953125,-0.025566328316926956,0.06085318699479103,-0.180162712931633
1695712577814464000,0.265464111328125,-0.11385004967451096,-0.2884201407432556,-0.013981585390865803
1695712577824583200,0.275583251953125,-0.22250694036483765,-0.5355613231658936,0.14367742836475372
1695712577834619400,0.285619384765625,-0.30772802233695984,-0.6293044686317444,0.26085641980171204
1695712577844613400,0.29561328125,-0.33968594670295715,-0.6825676560401917,0.32996541261672974
1695712577854631700,0.305631591796875,-0.3226417303085327,-0.7356976866722107,0.372575968503952
1695712577864707800,0.315707763671875,-0.29387959837913513,-0.6367613673210144,0.32676962018013
1695712577874750700,0.325750732421875,-0.3098585605621338,-0.4950812757015228,0.22676800191402435
1695712577884768000,0.33576806640625,-0.3226417303085327,-0.5217128396034241,0.18522271513938904
1695712577894800000,0.3457998046875,-0.2992059290409088,-0.6314350366592407,0.15326480567455292
1695712577904835000,0.3558349609375,-0.27470487356185913,-0.7399587631225586,0.1351553201675415
1695712577914868500,0.365868408203125,-0.24700801074504852,-0.7740471959114075,0.1351553201675415
1695712577924899300,0.3758994140625,-0.22996379435062408,-0.7442198395729065,0.1628521829843521
1695712577934931500,0.385931396484375,-0.25553011894226074,-0.6665887236595154,0.20013640820980072
1695712577944955400,0.395955322265625,-0.3514038324356079,-0.5792371034622192,0.24274694919586182
1695712577954984000,0.40598388671875,-0.47710496187210083,-0.39494648575782776,0.26937854290008545
1695712577964998100,0.415998046875,-0.5506081581115723,-0.16804534196853638,0.23209431767463684
1695712577975020500,0.4260205078125,-0.6122602820396423,-0.0062584239058196545,0.05206476151943207
1695712577985084200,0.436084228515625,-0.5399554967880249,0.13116058707237244,-0.18122798204421997
1695712577995124000,0.4461240234375,-0.35459962487220764,0.26218801736831665,-0.33129698038101196
1695712578005150200,0.456150146484375,-0.1639174371957779,0.20892482995986938,-0.38456016778945923
1695712578015184400,0.466184326171875,-0.05326318368315697,-0.0456731803715229,-0.3526022732257843
1695712578025234700,0.476234619140625,-0.03728422895073891,-0.3821633458137512,-0.23768694698810577
1695712578035275500,0.486275634765625,-0.06711161136627197,-0.5408875942230225,-0.17909744381904602
1695712578045271800,0.496271728515625,-0.041545283049345016,-0.534496009349823,-0.2408827394247055
1695712578055294000,0.5062939453125,0.03621896356344223,-0.4269044101238251,-0.37284228205680847
1695712578065344500,0.516344482421875,0.12996216118335724,-0.30652961134910583,-0.5400886535644531
1695712578075378400,0.52637841796875,0.22903168201446533,-0.18402428925037384,-0.6743118762969971
1695712578085406200,0.53640625,0.3813643753528595,-0.12343742698431015,-0.7265098094940186
1695712578095437300,0.546437255859375,0.610262930393219,-0.2138516753911972,-0.6615287065505981
1695712578105471500,0.556471435546875,0.9096019864082336,-0.42264336347579956,-0.4942823350429535
1695712578115503000,0.566503173828125,1.2642016410827637,-0.593085527420044,-0.32277488708496094
1695712578125531000,0.57653076171875,1.6369107961654663,-0.5739107728004456,-0.2620548605918884
1695712578135562000,0.58656201171875,1.958620309829712,-0.4908202290534973,-0.31318750977516174
1695712578145597200,0.59659716796875,2.1907145977020264,-0.37683701515197754,-0.3920170068740845
1695712578155628800,0.60662890625,2.2301294803619385,-0.15845796465873718,-0.4410191476345062
1695712578165658400,0.616658447265625,2.183257818222046,-0.0456731803715229,-0.5177181363105774
1695712578175689700,0.626689697265625,2.148104190826416,-0.3587275445461273,-0.6945518851280212
1695712578185716500,0.636716552734375,2.256761074066162,-1.006274700164795,-0.8020103573799133
1695712578195747300,0.646747314453125,2.4815316200256348,-1.7230639457702637,-0.8510124683380127
1695712578205810000,0.656809814453125,2.8116302490234375,-2.606966495513916,-0.9117324948310852
1695712578215844000,0.666843994140625,3.22694993019104,-3.4099090099334717,-0.9948230981826782
1695712578225848800,0.676848876953125,3.64772891998291,-3.940277099609375,-1.1034799814224243
1695712578235880000,0.6868798828125,4.0886149406433105,-4.237485408782959,-1.285640001296997
1695712578245931000,0.696930908203125,4.483694553375244,-4.406862735748291,-1.5667364597320557
1695712578255964200,0.706964111328125,4.843620777130127,-4.552670478820801,-1.8149429559707642
1695712578266002200,0.717002197265625,5.2473554611206055,-4.808333873748779,-1.8723340034484863
1695712578276035600,0.72703564453125,5.607281684875488,-5.270524978637695,-1.5763238668441772
1695712578286038000,0.7370380859375,5.903291702270508,-6.152297019958496,-0.9383640885353088
1695712578296068400,0.747068359375,6.181325435638428,-7.434607982635498,-0.09920267760753632
1695712578306135000,0.757135009765625,6.460291385650635,-8.843552589416504,0.7454182505607605
1695712578316169200,0.767169189453125,6.7489776611328125,-10.024663925170898,1.45355224609375
1695712578326197000,0.777197021484375,7.214365005493164,-10.580597877502441,2.045705556869507
1695712578336373500,0.78737353515625,7.756450653076172,-10.429330825805664,2.513223171234131
1695712578346407000,0.797406982421875,8.096137046813965,-9.79896068572998,2.74118971824646
1695712578356430000,0.80743017578125,8.21012020111084,-8.87977123260498,2.8178887367248535
1695712578366462500,0.81746240234375,7.975895404815674,-7.810513019561768,2.9425244331359863
1695712578376494800,0.827494873046875,7.3954596519470215,-6.752972602844238,3.1277472972869873
1695712578386382300,0.83738232421875,6.5305986404418945,-5.88824462890625,3.3503873348236084
1695712578396402700,0.847402587890625,5.5167341232299805,-5.141628265380859,3.5143046379089355
1695712578406437400,0.857437255859375,4.4421491622924805,-4.0915446281433105,3.4345431327819824
1695712578416459300,0.867459228515625,3.3398678302764893,-2.632532835006714,3.1415956020355225
1695712578426514200,0.87751416015625,2.3004367351531982,-1.277783751487732,2.765690803527832
1695712578436539600,0.88753955078125,1.3909679651260376,-0.5195823311805725,2.4292006492614746
1695712578446577000,0.897576904296875,0.6123934388160706,-0.5025381445884705,2.2843246459960938
1695712578456603400,0.907603271484375,-0.06285055726766586,-0.9679251909255981,2.2747373580932617
1695712578466632400,0.917632568359375,-0.6356960535049438,-1.5462301969528198,2.2566277980804443
1695712578476659000,0.927658935546875,-1.1299784183502197,-1.8997645378112793,2.177798271179199
1695712578486705000,0.937704833984375,-1.5921696424484253,-1.9157434701919556,1.9817898273468018
1695712578496733700,0.947733642578125,-2.0010976791381836,-1.6644744873046875,1.671931266784668
1695712578506742300,0.9577421875,-2.2768678665161133,-1.2905669212341309,1.278982162475586
1695712578516768800,0.967768798828125,-2.148104190826416,-0.8006787896156311,0.768854022026062
1695712578526839600,0.977839599609375,-1.4057484865188599,0.17696692049503326,-0.24940484762191772
1695712578536870400,0.987870361328125,-0.21185430884361267,1.5752586126327515,-1.945837140083313
1695712578546871600,0.99787158203125,-0.08721846342086792,1.5081470012664795,-2.4975106716156006
1695712578556899600,1.007899658203125,-1.0064078569412231,0.34314805269241333,-2.048102617263794
1695712578566934500,1.0179345703125,-1.5442328453063965,-1.6261249780654907,-0.7435539960861206
1695712578576963300,1.02796337890625,-1.64862859249115,-2.3118884563446045,-0.19188061356544495
1695712578587012000,1.03801220703125,-1.333310604095459,-2.1213393211364746,-0.10346373170614243
1695712578597043000,1.04804296875,-1.0575405359268188,-1.871002435684204,0.12982900440692902
1695712578607095300,1.05809521484375,-0.9254477620124817,-1.8145434856414795,0.38642439246177673
1695712578617128200,1.068128173828125,-0.8135951161384583,-1.6357122659683228,0.626108705997467
1695712578627161300,1.078161376953125,-0.6197171211242676,-1.2735227346420288,0.7550055980682373
1695712578637194200,1.0881943359375,-0.32157647609710693,-0.7623292803764343,0.7347655892372131
1695712578647219000,1.098218994140625,0.012783164158463478,-0.4492749273777008,0.6953508257865906
1695712578657251000,1.1082509765625,0.26418536901474,-0.16804534196853638,0.7443529963493347
1695712578667281400,1.118281494140625,0.41119176149368286,0.03209106624126434,0.6815024018287659
1695712578677313300,1.128313232421875,0.5207807421684265,0.3207775056362152,0.7155908346176147
1695712578687335400,1.13833544921875,0.34514543414115906,0.1940111368894577,0.6942855715751648
1695712578697366300,1.1483662109375,-0.08615319430828094,-0.1904158741235733,0.814660370349884
1695712578707417300,1.158417236328125,-0.3269027769565582,-1.1010831594467163,0.6538055539131165
1695712578717450200,1.1684501953125,-0.45793020725250244,-1.003078818321228,0.3640538454055786
1695712578727466200,1.17846630859375,-0.3833617568016052,-0.1861548274755478,0.020106852054595947
1695712578737497600,1.18849755859375,-0.1777658760547638,0.5400886535644531,-0.2950780391693115
1695712578747533800,1.198533935546875,0.10546109825372696,0.928776741027832,-0.6796382069587708
1695712578757565400,1.2085654296875,0.38242965936660767,1.18976628780365,-1.0491515398025513
1695712578767597300,1.218597412109375,0.6571345329284668,1.485776424407959,-1.5219954252243042
1695712578777629000,1.22862890625,1.0149298906326294,1.3399684429168701,-1.9863171577453613
1695712578787673900,1.238673828125,1.540104866027832,0.7403582334518433,-2.0939087867736816
1695712578797706800,1.248706787109375,2.08951473236084,-0.20532956719398499,-2.011883497238159
1695712578807724500,1.258724609375,2.5177505016326904,-1.030775785446167,-1.7893766164779663
1695712578817756000,1.268755859375,2.9117650985717773,-1.3672659397125244,-1.4197300672531128
1695712578827799300,1.27879931640625,3.256777286529541,-1.4386385679244995,-0.9064062237739563
1695712578837832000,1.28883203125,3.361173152923584,-0.730371356010437,-0.33129698038101196
1695712578847829800,1.298829833984375,3.0491840839385986,0.8564719557762146,0.18948377668857574
1695712578857858800,1.30885888671875,2.6443839073181152,1.6594144105911255,0.48975494503974915
1695712578867897600,1.318897705078125,2.3835272789001465,1.4432990550994873,0.6207823753356934
1695712578877927700,1.328927734375,1.9511635303497314,0.1993374526500702,0.5057339072227478
1695712578887961900,1.3389619140625,1.4144037961959839,-1.0371673107147217,0.4535360038280487
1695712578897992400,1.348992431640625,0.7114629745483398,-1.5568828582763672,0.6079992055892944
1695712578908022800,1.359022705078125,0.017044218257069588,-1.4695311784744263,0.7933551073074341
1695712578918053000,1.36905322265625,-0.3130543529987335,-1.433312177658081,0.72304767370224
1695712578928121900,1.379121826171875,-0.23635536432266235,-1.4610090255737305,0.6601971387863159
1695712578938156000,1.389156005859375,0.11611373722553253,-1.2182620763778687,0.843289315700531
1695712578948180500,1.399180419921875,0.5633913278579712,-0.7016092538833618,1.3056137561798096
1695712578958213600,1.409213623046875,0.9319725036621094,-0.43329599499702454,1.5046849250793457
1695712578968218600,1.419218505859375,1.0170605182647705,-0.27776750922203064,1.391766905784607
1695712578978249000,1.4292490234375,0.9266462326049805,-0.10639320313930511,0.9700556993484497
1695712578988285000,1.439284912109375,0.865926206111908,-0.09041424840688705,0.4162517786026001
1695712578998315800,1.449315673828125,1.1502183675765991,-0.15206637978553772,-0.1993374526500702
1695712579008374800,1.459374755859375,1.3142690658569336,0.1428784877061844,-0.6402234435081482
1695712579018408700,1.46940869140625,1.4484922885894775,0.48682549595832825,-0.8712524771690369
1695712579028408000,1.479407958984375,1.4974943399429321,0.6945518851280212,-0.8819051384925842
1695712579038438400,1.4894384765625,1.7881782054901123,0.9607346653938293,-0.7456845641136169
1695712579048508200,1.499508056640625,2.6390573978424072,1.7393091917037964,-0.00013315795513335615
1695712579058542300,1.509542236328125,3.7818191051483154,1.9992334842681885,0.8496809005737305
1695712579068558000,1.51955810546875,4.956538677215576,1.2100063562393188,1.2342411279678345
1695712579078590500,1.529590576171875,5.8437700271606445,0.3814975321292877,1.7347818613052368
1695712579088632800,1.5396328125,6.218609809875488,-1.2767184972763062,2.677273750305176
1695712579098666200,1.549666259765625,6.142975807189941,-3.3013851642608643,2.990328311920166
1695712579108687600,1.5596875,6.223936080932617,-4.7625274658203125,2.662360191345215
1695712579118719700,1.5697197265625,6.169607639312744,-5.469729423522949,2.0435750484466553
1695712579128749000,1.5797490234375,6.295308589935303,-6.390915870666504,1.102148413658142
1695712579138781000,1.589781005859375,7.169623851776123,-6.819018840789795,-0.20999009907245636
1695712579148820000,1.599820068359375,7.37308931350708,-5.8115458488464355,-0.9820399284362793
1695712579158852600,1.6098525390625,6.595579624176025,-4.4994072914123535,-1.0747178792953491
1695712579168884200,1.61988427734375,5.419795036315918,-3.556915283203125,-0.6295707821846008
1695712579178916600,1.62991650390625,4.35692834854126,-2.9935240745544434,-0.0906805694103241
1695712579188958500,1.63995849609375,3.5561163425445557,-2.6996443271636963,0.45140546560287476
1695712579198992000,1.649991943359375,2.809499740600586,-2.1373183727264404,0.8709861636161804
1695712579209001000,1.6600009765625,1.540104866027832,-1.5792533159255981,0.7890940308570862
1695712579219031800,1.67003173828125,-0.32583752274513245,-1.3512868881225586,0.21185430884361267
1695712579229063000,1.68006298828125,-1.5602117776870728,-1.0371673107147217,-0.2972085475921631
1695712579239094000,1.690093994140625,-1.4132053852081299,-0.037151068449020386,-0.3579285740852356
1695712579249134800,1.700134765625,-0.7731150984764099,0.8926909565925598,-0.32703593373298645
1695712579259167000,1.7101669921875,-0.3247722387313843,1.255812644958496,-0.4463454782962799
1695712579269352200,1.720352294921875,-0.24913853406906128,1.1279810667037964,-0.6732466220855713
1695712579279397400,1.7303974609375,-0.33116382360458374,0.7733814120292664,-0.9021451473236084
1695712579289442600,1.740442626953125,-0.4600607454776764,0.31438592076301575,-1.0981537103652954
1695712579299310600,1.750310546875,-0.41958072781562805,0.027830012142658234,-1.1801789999008179
1695712579309342000,1.760342041015625,-0.11811110377311707,0.1567269116640091,-1.0693914890289307
1695712579319356400,1.7703564453125,0.09267793595790863,0.15885743498802185,-0.9713872671127319
1695712579329386000,1.780385986328125,0.17150744795799255,0.180162712931633,-0.8882967233657837
1695712579339447000,1.790447021484375,0.15339796245098114,0.2270343154668808,-0.8094671964645386
1695712579349480000,1.80047998046875,0.07669898122549057,0.21851220726966858,-0.7499455809593201
1695712579359500300,1.810500244140625,0.04793686419725418,0.20146799087524414,-0.6508761048316956
1695712579369532000,1.820531982421875,0.04048001766204834,0.22916483879089355,-0.5294360518455505
1695712579379557400,1.830557373046875,-0.0021305272821336985,0.2653838098049164,-0.42077913880348206
1695712579389588200,1.840588134765625,-0.03195790946483612,0.3548659384250641,-0.32810118794441223
1695712579399618300,1.850618408203125,-0.038349490612745285,0.4708465337753296,-0.2812296152114868
1695712579409649200,1.860649169921875,-0.025566328316926956,0.544349730014801,-0.3067959249019623
1695712579419668000,1.87066796875,0.02450106292963028,0.4665854871273041,-0.3856254518032074
1695712579429697500,1.880697509765625,0.0564589723944664,0.3687143921852112,-0.4644549489021301
1695712579439752400,1.89075244140625,0.0330231711268425,0.5081307291984558,-0.4761728346347809
1695712579449784800,1.900784912109375,-0.07550056278705597,0.6423539519309998,-0.4932170510292053
1695712579459798500,1.910798583984375,-0.04048001766204834,1.2547473907470703,-0.30892646312713623
1695712579469828900,1.920828857421875,-0.13622058928012848,3.8501291275024414,0.5163865685462952
1695712579479889400,1.930889404296875,-0.13409006595611572,2.6061675548553467,0.102132149040699
1695712579489922800,1.9409228515625,-0.06072002649307251,1.9630146026611328,0.024367906153202057
1695712579499924500,1.950924560546875,0.03515370190143585,1.2771179676055908,-0.06191844865679741
1695712579509954600,1.96095458984375,0.07137266546487808,1.1695263385772705,-0.05659212917089462
1695712579519985700,1.970985595703125,0.004261054564267397,1.5805848836898804,-0.12263847887516022
1695712579530016000,1.98101611328125,-0.050067391246557236,1.8415745496749878,-0.2131858915090561
1695712579540062000,1.99106201171875,-0.008522109128534794,1.9353177547454834,-0.13861742615699768
1695712579550093600,2.001093505859375,0.13848426938056946,2.0512983798980713,0.20013640820980072
1695712579560117500,2.011117431640625,0.19068218767642975,1.1865705251693726,0.13195952773094177
1695712579570148400,2.0211484375,0.1928127259016037,0.7030739784240723,0.03928159549832344
1695712579580177700,2.031177734375,0.2119874656200409,0.791490912437439,0.02330264262855053
1695712579590208500,2.04120849609375,0.2492716908454895,1.0289114713668823,0.07763108611106873
1695712579600261000,2.05126123046875,0.1970737725496292,0.8362319469451904,0.09574057161808014
1695712579610294300,2.061294189453125,0.14381058514118195,0.2749711871147156,-0.016112113371491432
1695712579620330500,2.07133056640625,0.09161267429590225,-0.4301002025604248,-0.25366589426994324
1695712579630364000,2.081364013671875,0.02450106292963028,-1.0275799036026,-0.4942823350429535
1695712579640394200,2.091394287109375,-0.05752423778176308,-1.4450300931930542,-0.6530066132545471
1695712579650427400,2.101427490234375,-0.058589499443769455,-1.3981585502624512,-0.6455497741699219
1695712579660467700,2.1114677734375,-0.054328445345163345,-1.1053441762924194,-0.4953475892543793
1695712579670501400,2.12150146484375,-0.061785291880369186,-0.713327169418335,-0.24301326274871826
1695712579680525000,2.131525146484375,-0.11917637288570404,-0.2905506491661072,0.022237379103899002
1695712579690557700,2.1415576171875,-0.16498270630836487,-0.16058848798274994,0.12876373529434204
1695712579700585700,2.151585693359375,-0.1820269227027893,-0.0882837250828743,0.10532794147729874
1695712579710617900,2.161617919921875,-0.13728585839271545,0.055526867508888245,0.04034686088562012
1695712579720652800,2.17165283203125,-0.10852373391389847,0.114116370677948,-0.03209106624126434
1695712579730685200,2.181685302734375,-0.08615319430828094,-0.013715269044041634,-0.10879004746675491
1695712579740690700,2.191690673828125,-0.06285055726766586,-0.2788327634334564,-0.18761955201625824
1695712579750720500,2.201720458984375,-0.04793686419725418,-0.5270391702651978,-0.21957746148109436
1695712579760776400,2.2117763671875,-0.05326318368315697,-0.7516766786575317,-0.22916483879089355
1695712579770808800,2.221808837890625,-0.06711161136627197,-0.8422240614891052,-0.20892482995986938
1695712579780818700,2.231818603515625,-0.06498108059167862,-0.7793735265731812,-0.10772478580474854
1695712579790848800,2.241848876953125,-0.06817687302827835,-0.7996135354042053,-0.05339634045958519
1695712579800911600,2.25191162109375,-0.06817687302827835,-0.9434241056442261,-0.08428898453712463
1695712579810945000,2.261945068359375,-0.08082687854766846,-1.0510157346725464,-0.14927007257938385
1695712579820974300,2.271974365234375,-0.12024163454771042,-1.1096051931381226,-0.2174469381570816
1695712579831007200,2.28200732421875,-0.14261217415332794,-1.1064094305038452,-0.24833959341049194
1695712579841048300,2.29204833984375,-0.15646059811115265,-0.977512538433075,-0.2451438009738922
1695712579851082000,2.30208203125,-0.1628521829843521,-0.7516766786575317,-0.2035985141992569
1695712579861085700,2.312085693359375,-0.18096165359020233,-0.5515402555465698,-0.1567269116640091
1695712579871116500,2.322116455078125,-0.1447426974773407,-0.2948117256164551,-0.05020054802298546
1695712579881168600,2.332168701171875,-0.0978710949420929,-0.05952160432934761,0.05419528856873512
1695712579891201300,2.342201171875,-0.042610544711351395,0.043808966875076294,0.1255679577589035
1695712579901215200,2.35221533203125,0.014913691207766533,-0.05206476151943207,0.10745847225189209
1695712579911246000,2.36224609375,0.05965476483106613,-0.1669800728559494,0.04780370742082596
1695712579921291800,2.372291748046875,0.07882951200008392,-0.20106850564479828,-0.011851058341562748
1695712579931324200,2.38232421875,0.0798947736620903,-0.1351553201675415,-0.027830012142658234
1695712579941364000,2.392364013671875,0.04900212585926056,-0.010519478470087051,-0.011851058341562748
1695712579951396900,2.40239697265625,0.018109481781721115,0.14394375681877136,0.011584741994738579
1695712579961401600,2.412401611328125,0.01597895473241806,0.31864699721336365,0.0456731803715229
1695712579971432000,2.422431884765625,0.030892645940184593,0.4612591564655304,0.08615319430828094
1695712579981487400,2.4324873046875,0.05326318368315697,0.5688507556915283,0.130894273519516
1695712579991520000,2.44252001953125,0.06498108059167862,0.6157223582267761,0.16072164475917816
1695712580001556700,2.452556640625,0.061785291880369186,0.6178529262542725,0.15752586722373962
1695712580011590000,2.46258984375,0.04793686419725418,0.5944170951843262,0.11917637288570404
1695712580021609000,2.47260888671875,0.03728422895073891,0.49215179681777954,0.057391077280044556
1695712580031640600,2.482640625,0.03941475600004196,0.3016027808189392,-0.020373167470097542
1695712580041676500,2.492676513671875,0.02769685536623001,0.12050794810056686,-0.09813741594552994
1695712580051708700,2.502708740234375,0.006391582079231739,0.02143843099474907,-0.1514005959033966
1695712580061741800,2.512741943359375,-0.0010652636410668492,-0.004127896390855312,-0.15246586501598358
1695712580071774000,2.52277392578125,0.01597895473241806,0.0033289489801973104,-0.10772478580474854
1695712580081790500,2.53279052734375,0.012783164158463478,0.08215846121311188,-0.05339634045958519
1695712580091821000,2.542821044921875,0.014913691207766533,0.17696692049503326,-0.008655266836285591
1695712580101875500,2.55287548828125,0.026631591841578484,0.24301326274871826,0.014780532568693161
1695712580111908600,2.56290869140625,0.04367581009864807,0.26644906401634216,0.005193160381168127
1695712580121932000,2.57293212890625,0.029827382415533066,0.2323606312274933,-0.020373167470097542
1695712580131964200,2.582964111328125,-0.03515370190143585,0.0043942127376794815,-0.10985531657934189
1695712580141997800,2.592997802734375,0.03195790946483612,0.016112113371491432,-0.13648690283298492
1695712580152030000,2.603030029296875,0.038349490612745285,0.16418376564979553,-0.09707214683294296
1695712580162037000,2.613037109375,0.06072002649307251,0.13648690283298492,-0.0715058222413063
1695712580172066600,2.623066650390625,0.09054741263389587,0.019307903945446014,-0.07470161467790604
1695712580182127000,2.633127197265625,0.10120004415512085,-0.01584579609334469,-0.11198583990335464
1695712580192159700,2.64315966796875,0.11930952966213226,-0.14580796658992767,-0.13435637950897217
1695712580202177000,2.653177001953125,0.1363537460565567,-0.2937464416027069,-0.11518163233995438
1695712580212208000,2.6632080078125,0.10120004415512085,-0.251135915517807,-0.09600688517093658
1695712580222266600,2.6732666015625,0.04048001766204834,-0.30972540378570557,-0.08002793043851852
1695712580232300500,2.683300537109375,0.004261054564267397,-0.47910231351852417,-0.12157320976257324
1695712580242292700,2.693292724609375,0.03941475600004196,-0.6793718934059143,-0.1428784877061844
1695712580252322600,2.703322509765625,0.07137266546487808,-0.6122602820396423,-0.14500901103019714
1695712580262364400,2.713364501953125,0.12783163785934448,-0.5366265773773193,-0.08428898453712463
1695712580272395500,2.7233955078125,0.17150744795799255,-0.6186518669128418,-0.04593949392437935
1695712580282429700,2.7334296875,0.20559588074684143,-0.6815024018287659,-0.03635212033987045
1695712580292460800,2.743460693359375,0.2205095738172531,-0.6751108169555664,-0.012916321866214275
1695712580302513000,2.753512939453125,0.1928127259016037,-0.6687192320823669,0.04673844203352928
1695712580312546300,2.76354638671875,0.1789642870426178,-0.7261103391647339,0.11278478801250458
1695712580322558500,2.773558349609375,0.18642114102840424,-0.8294408917427063,0.1543300747871399
1695712580332589600,2.783589599609375,0.20453062653541565,-0.9753820300102234,0.16072164475917816
1695712580342621000,2.793620849609375,0.2300969511270523,-1.1032136678695679,0.17457008361816406
1695712580352842800,2.8038427734375,0.22796641290187836,-1.2511521577835083,0.19800588488578796
1695712580362863400,2.81386328125,0.21092219650745392,-1.3715269565582275,0.22144168615341187
1695712580372894700,2.823894775390625,0.1981390416622162,-1.5483607053756714,0.2246374636888504
1695712580382929400,2.833929443359375,0.2833601236343384,-1.6186680793762207,0.21291956305503845
1695712580392960500,2.84396044921875,0.37497279047966003,-1.41094172000885,0.21611535549163818
1695712580402996000,2.853995849609375,0.3153180480003357,-0.7506113648414612,0.24487747251987457
1695712580412999700,2.863999755859375,-0.06072002649307251,0.1940111368894577,0.32996541261672974
1695712580423031000,2.874031005859375,-0.3332943618297577,0.8937562108039856,0.588824450969696
1695712580433073700,2.88407373046875,-0.1585911214351654,1.062999963760376,1.0414283275604248
1695712580443102200,2.894102294921875,0.12889690697193146,0.8010782599449158,1.448225975036621
1695712580453130200,2.904130126953125,0.2950780391693115,0.29095011949539185,1.550491213798523
1695712580463145200,2.914145263671875,0.27909907698631287,-0.20106850564479828,1.382179617881775
1695712580473160200,2.92416015625,0.22370536625385284,-0.4066644012928009,1.0914957523345947
1695712580483175200,2.934175048828125,0.19494324922561646,-0.4247738718986511,0.8230493068695068
1695712580493190100,2.944190185546875,0.20133483409881592,-0.439687579870224,0.6367613673210144
1695712580503205400,2.954205322265625,0.21944430470466614,-0.44714441895484924,0.5366265773773193
1695712580513220400,2.964220458984375,0.19920429587364197,-0.42903491854667664,0.5025381445884705
1695712580523235300,2.9742353515625,0.11930952966213226,-0.40879490971565247,0.5163865685462952
1695712580533250300,2.984250244140625,0.05539371073246002,-0.40559911727905273,0.5664539337158203
1695712580543265300,2.994265380859375,0.01597895473241806,-0.4013380706310272,0.6335655450820923
1695712580553294000,3.004294189453125,-0.0031957910396158695,-0.39920756220817566,0.6836329698562622
1695712580563327000,3.014326904296875,0.006391582079231739,-0.4162517786026001,0.6921550631523132
1695712580573359600,3.024359619140625,0.046871598809957504,-0.44714441895484924,0.6591318845748901
1695712580583392500,3.034392578125,0.10120004415512085,-0.469514936208725,0.5813676118850708
1695712580593425200,3.044425048828125,0.14274533092975616,-0.4354265034198761,0.45992758870124817
1695712580603458000,3.0544580078125,0.1555284857749939,-0.2937464416027069,0.2948117256164551
1695712580613491000,3.064490966796875,0.16405059397220612,-0.0552605502307415,0.1255679577589035
1695712580623523600,3.074523681640625,0.16405059397220612,0.15246586501598358,-0.02463422156870365
1695712580633556500,3.084556396484375,0.16192007064819336,0.20999009907245636,-0.16737954318523407
1695712580643589000,3.094589111328125,0.17576849460601807,0.08535424619913101,-0.31212225556373596
1695712580653619000,3.104618896484375,0.21944430470466614,-0.17550218105316162,-0.49215179681777954
1695712580663652900,3.11465283203125,0.2961432933807373,-0.43649178743362427,-0.7691203355789185
1695712580673687000,3.12468701171875,0.37816858291625977,-0.6282392144203186,-1.09708833694458
1695712580683721000,3.134720947265625,0.4378233551979065,-0.7548724412918091,-1.3377047777175903
1695712580693755000,3.1447548828125,0.442084401845932,-0.8624640703201294,-1.4378396272659302
1695712580703788800,3.154788818359375,0.39734333753585815,-0.8763124942779541,-1.4421006441116333
1695712580713822700,3.16482275390625,0.3430148959159851,-0.6804371476173401,-1.4346438646316528
1695712580723857000,3.17485693359375,0.2876211702823639,-0.4024033546447754,-1.4250564575195312
1695712580733890800,3.184890869140625,0.21837905049324036,-0.2095906287431717,-1.3739237785339355
1695712580743924700,3.1949248046875,0.1406148076057434,-0.14261217415332794,-1.281378984451294
1695712580753964800,3.20496484375,0.07456845790147781,-0.24900537729263306,-1.1737873554229736
1695712580764066300,3.21506640625,0.01597895473241806,-0.40986019372940063,-1.1258505582809448
1695712580774167600,3.22516748046875,-0.045806337147951126,-0.5952160358428955,-1.159938931465149
1695712580784202800,3.23520263671875,-0.07123950868844986,-0.8081356287002563,-1.2408989667892456
1695712580794216200,3.24521630859375,-0.066046342253685,-1.003078818321228,-1.3409006595611572
1695712580804229600,3.255229736328125,-0.08189214020967484,-1.1138663291931152,-1.4495575428009033
1695712580814243000,3.2652431640625,-0.13195952773094177,-1.1543463468551636,-1.5166691541671753
1695712580824256500,3.275256591796875,-0.2288985252380371,-1.2203927040100098,-1.5422354936599731
1695712580834270000,3.28527001953125,-0.35886070132255554,-1.3406343460083008,-1.543300747871399
1695712580844283400,3.295283447265625,-0.4888228476047516,-1.4674006700515747,-1.5315828323364258
1695712580854296800,3.305296875,-0.5836313366889954,-1.5440996885299683,-1.5134732723236084
1695712580864310300,3.315310302734375,-0.6293044686317444,-1.5899059772491455,-1.5550185441970825
1695712580874323500,3.325323486328125,-0.6378266215324402,-1.634647011756897,-1.6583491563796997
1695712580884365300,3.335365234375,-0.6049365997314453,-1.6623438596725464,-1.7670060396194458
1695712580894449700,3.34544970703125,-0.5410207509994507,-1.6186680793762207,-1.8192039728164673
1695712580904534300,3.3555341796875,-0.46645233035087585,-1.5398385524749756,-1.8170734643936157
1695712580914618600,3.36561865234375,-0.38762280344963074,-1.3651353120803833,-1.7744629383087158
1695712580924660500,3.375660400390625,-0.3226417303085327,-1.2097400426864624,-1.7084165811538696
1695712580934644200,3.385644287109375,-0.23635536432266235,-1.094691514968872,-1.5816501379013062
1695712580944560600,3.395560546875,-0.12876373529434204,-0.9572725296020508,-1.4421006441116333
1695712580954589000,3.4055888671875,-0.017044218257069588,-0.7942872047424316,-1.377119541168213
1695712580964629000,3.41562890625,0.0798947736620903,-0.6623276472091675,-1.3781847953796387
1695712580974658600,3.425658447265625,0.1789642870426178,-0.6825676560401917,-1.3579448461532593
1695712580984674000,3.435674072265625,0.2396843135356903,-0.7985482811927795,-1.2579431533813477
1695712580994702000,3.4457021484375,0.25140222907066345,-0.8145272135734558,-1.0938925743103027
1695712581004728800,3.455728759765625,0.18109482526779175,-0.6815024018287659,-0.8648608922958374
1695712582238811000,4.689810791015625,0.009587372653186321,0.5187833905220032,2.2214741706848145
1695712582248860000,4.69985986328125,0.2780338227748871,0.5858950018882751,2.2598235607147217
1695712582258908700,4.70990869140625,0.5314334034919739,0.11731215566396713,1.533447027206421
1695712582268957700,4.719957763671875,0.8605998754501343,-0.9114661812782288,0.195875346660614
1695712582278988300,4.72998828125,1.1363699436187744,-1.8454360961914062,-1.050216794013977
1695712582289004300,4.74000439453125,1.2514184713363647,-2.2172131538391113,-2.1546287536621094
1695712582299020300,4.750020263671875,1.03730046749115,-2.036118268966675,-2.3836605548858643
1695712582309036300,4.760036376953125,0.42930126190185547,-1.319329023361206,-1.8776602745056152
1695712582319052500,4.770052490234375,-0.20226693153381348,-0.593085527420044,-1.4197300672531128
1695712582329068500,4.780068603515625,-0.6060018539428711,-0.23941799998283386,-1.134372591972351
1695712582339084500,4.79008447265625,-0.777376115322113,-0.448209673166275,-0.8552735447883606
1695712582349100500,4.8001005859375,-0.8370308876037598,-1.0659294128417969,-0.6189181804656982
1695712582359116500,4.810116455078125,-0.7006771564483643,-1.3502216339111328,-0.2599243223667145
1695712582369132500,4.820132568359375,-0.4866923391819,-1.0467547178268433,0.08082687854766846
1695712582379163600,4.83016357421875,-0.4036017656326294,-0.6069339513778687,0.5792371034622192
1695712582389196800,4.84019677734375,-0.5633913278579712,-0.4641886353492737,1.4524869918823242
1695712582399230000,4.85022998046875,-0.8391614556312561,-0.3512706756591797,2.0883162021636963
1695712582409263000,4.86026318359375,-1.0362352132797241,0.06085318699479103,2.0233352184295654
1695712582419296300,4.870296142578125,-1.0724542140960693,0.9532778263092041,1.4567480087280273
1695712582429329200,4.8803291015625,-0.6953508257865906,1.3580780029296875,1.0446242094039917
1695712582439362300,4.8903623046875,-0.28322696685791016,1.0853705406188965,1.1213231086730957
1695712582449395500,4.9003955078125,-0.20226693153381348,0.8980172276496887,1.5100111961364746
1695712582459428600,4.9104287109375,-0.49095338582992554,1.0651304721832275,1.950897216796875
1695712582469461800,4.920461669921875,-0.7720498442649841,1.674328088760376,2.4802000522613525
1695712582479492000,4.9304921875,-0.663392961025238,2.4262712001800537,3.1554441452026367
1695712582489519400,4.940519287109375,-0.26511749625205994,2.9236161708831787,3.799795389175415
1695712582499546600,4.950546630859375,0.12037479132413864,3.116295576095581,4.3003363609313965
1695712582509574000,4.960573974609375,0.3472759425640106,3.220691442489624,4.563456058502197
1695712582519601200,4.97060107421875,0.32277488708496094,3.3421316146850586,4.5730438232421875
1695712582529628400,4.98062841796875,0.11504847556352615,3.467832565307617,4.355730056762695
1695712582539655700,4.99065576171875,-0.06285055726766586,3.513638973236084,4.004325866699219
1695712582549683000,5.000682861328125,-0.16711322963237762,3.4305484294891357,3.666637420654297
1695712582559710200,5.010710205078125,-0.2864227592945099,3.074883460998535,3.3898019790649414
1695712582569737500,5.020737548828125,-0.37377437949180603,2.493382692337036,3.098985195159912
1695712582579768300,5.030768310546875,-0.3748396337032318,2.0757994651794434,2.6996443271636963
1695712582589801700,5.0408017578125,-0.30666276812553406,1.870336651802063,2.253432035446167
1695712582599835100,5.050835205078125,-0.20865851640701294,1.6540881395339966,1.8839187622070312
1695712582609868300,5.060868408203125,-0.041545283049345016,1.3612737655639648,1.6804534196853638
1695712582619901700,5.070901611328125,0.11398320645093918,0.9479514956474304,1.6335817575454712
1695712582629935000,5.08093505859375,0.1267663687467575,0.8138614296913147,1.7006933689117432
1695712582639968300,5.09096826171875,-0.008522109128534794,1.227050542831421,1.8913755416870117
1695712582650001700,5.101001708984375,-0.1490037590265274,1.798964023590088,2.0776636600494385
1695712582660034800,5.111034912109375,-0.1916143000125885,2.4262712001800537,2.173537254333496
1695712582670068200,5.121068115234375,-0.18309219181537628,3.005641460418701,2.1469056606292725
1695712582680102100,5.13110205078125,-0.1820269227027893,3.2718241214752197,2.0073561668395996
1695712582690150400,5.141150390625,-0.16711322963237762,3.140796661376953,1.780588150024414
1695712582700198700,5.15119873046875,-0.07656582444906235,2.743586540222168,1.5068154335021973
1695712582710246700,5.16124658203125,0.10972215235233307,2.116279363632202,1.2672642469406128
1695712582720295000,5.171294921875,0.28549066185951233,1.3399684429168701,1.1713905334472656
1695712582730343200,5.18134326171875,0.4048001766204834,0.595482349395752,1.249154806137085
1695712582740391400,5.191391357421875,0.43569281697273254,0.180162712931633,1.3885711431503296
1695712582750439400,5.201439453125,0.3866907060146332,0.1322258561849594,1.4748575687408447
1695712582760487700,5.21148779296875,0.3387538492679596,0.31332066655158997,1.4428995847702026
1695712582770536000,5.221535888671875,0.3579285740852356,0.5976129174232483,1.2278494834899902
1695712582780569900,5.23156982421875,0.40586546063423157,0.8383625149726868,0.8411588072776794
1695712582790601000,5.24160107421875,0.3898864984512329,0.9182572364807129,0.4024033546447754
1695712582800620000,5.2516201171875,0.2077264040708542,0.8202530145645142,0.08934898674488068
1695712582810638800,5.261638916015625,-0.10319741815328598,0.657267689704895,0.057391077280044556
1695712582820657700,5.27165771484375,-0.30666276812553406,0.7009434700012207,0.24594274163246155
1695712582830676500,5.281676513671875,-0.3471427857875824,1.0651304721832275,0.4301002025604248
1695712582840695300,5.2916953125,-0.3609912097454071,1.4486254453659058,0.4162517786026001
1695712582850714000,5.301714111328125,-0.43449440598487854,1.5891070365905762,0.130894273519516
1695712582860733000,5.31173291015625,-0.5612607598304749,1.5507575273513794,-0.39840859174728394
1695712582870751700,5.321751708984375,-0.6655234694480896,1.4379727840423584,-1.0470210313796997
1695712582880770600,5.3317705078125,-0.6761760711669922,1.0864357948303223,-1.6711323261260986
1695712582890801700,5.3418017578125,-0.655936062335968,0.678572952747345,-2.275003671646118
1695712582900831200,5.351831298828125,-0.7049382328987122,0.5635244846343994,-2.832003355026245
1695712582910860500,5.361860595703125,-0.9158604145050049,0.7808382511138916,-3.1674282550811768
1695712582920890000,5.37189013671875,-1.1703252792358398,1.0246504545211792,-3.2441272735595703
1695712582930919700,5.381919677734375,-1.2321105003356934,0.9916272759437561,-3.112034559249878
1695712582940949200,5.39194921875,-1.1193257570266724,0.7435539960861206,-2.8405253887176514
1695712582950978600,5.401978515625,-0.9009467363357544,0.5890907645225525,-2.5763401985168457
1695712582961008000,5.412008056640625,-0.7060034871101379,0.5560676455497742,-2.3772690296173096
1695712582971037700,5.42203759765625,-0.617586612701416,0.3761712312698364,-2.2995047569274902
1695712582981067300,5.4320673828125,-0.6207823753356934,-0.048868969082832336,-2.365550994873047
1695712582991104300,5.442104248046875,-0.6293044686317444,-0.7772429585456848,-2.4378559589385986
1695712583001187600,5.4521875,-0.5974797606468201,-1.6357122659683228,-2.4932496547698975
1695712583011271000,5.46227099609375,-0.48562705516815186,-2.3129537105560303,-2.5635569095611572
1695712583021354200,5.472354248046875,-0.3428817391395569,-2.65596866607666,-2.6913886070251465
1695712594568106000,17.01910595703125,-1.2651337385177612,-2.736928701400757,-3.1088387966156006
1695712594578137900,17.029137939453125,-1.1321089267730713,-2.825345516204834,-2.8351991176605225
1695712594588169700,17.039169677734375,-0.9222519993782043,-2.9541091918945312,-2.5923190116882324
1695712594598201300,17.049201416015624,-0.6548708081245422,-3.113898754119873,-2.3772690296173096
1695712594608233200,17.059233154296876,-0.4089280664920807,-3.2353389263153076,-2.2025656700134277
1695712594618265000,17.06926513671875,-0.2246374636888504,-3.2566440105438232,-2.0310583114624023
1695712594628296700,17.079296630859375,-0.11704584211111069,-3.128812551498413,-1.8010945320129395
1695712594638328600,17.08932861328125,-0.06285055726766586,-2.8784754276275635,-1.4889723062515259
1695712594648360400,17.0993603515625,-0.07976161688566208,-2.651707410812378,-1.0896315574645996
1695712594658392000,17.10939208984375,-0.102132149040699,-2.4482421875,-0.5997434258460999
1695712594668424200,17.119424072265623,-0.10745847225189209,-2.1511666774749756,-0.06298371404409409
1695712594678458000,17.1294580078125,-0.11385004967451096,-1.8028255701065063,0.4780370593070984
1695712594688492000,17.139491943359374,-0.12024163454771042,-1.4844448566436768,1.003078818321228
1695712594698525700,17.149525634765624,-0.1351553201675415,-1.1852389574050903,1.4865753650665283
1695712594708559600,17.1595595703125,-0.14154690504074097,-0.8763124942779541,1.9455708265304565
1695712594718593500,17.169593505859375,-0.11491531878709793,-0.5313002467155457,2.39298152923584
1695712594728627200,17.179627197265624,-0.029827382415533066,-0.13302479684352875,2.7923223972320557
1695712594738661000,17.1896611328125,0.16192007064819336,0.33356067538261414,3.098985195159912
1695712594748695000,17.199695068359375,0.4410191476345062,0.9468862414360046,3.105376720428467
1695712594758728700,17.209728759765625,0.7913577556610107,1.590172290802002,2.143709897994995
1695712594768762600,17.2197626953125,1.2663321495056152,1.8522272109985352,0.26085641980171204
1695712594778795000,17.229794921875,1.6337149143218994,0.4463454782962799,-1.0065410137176514
1695712594788829000,17.239828857421877,1.6443675756454468,-1.2884364128112793,-1.8192039728164673
1695712594798862800,17.24986279296875,1.0234520435333252,-2.199103593826294,-2.360224723815918
1695712594808896800,17.259896728515624,0.11930952966213226,-2.1575584411621094,-2.276068925857544
1695712594818930700,17.2699306640625,-0.49947547912597656,-1.7081502676010132,-1.862879753112793
1695712594828964600,17.279964599609375,-0.8551403880119324,-1.4301164150238037,-1.4271869659423828
1695712594838998500,17.28999853515625,-0.903077244758606,-1.1554116010665894,-0.9404946565628052
1695712594849032400,17.300032470703126,-0.6154560446739197,-0.6495444774627686,-0.44421494007110596
1695712594859066400,17.31006640625,-0.11917637288570404,-0.03928159549832344,-0.25672852993011475
1695712594869100000,17.32010009765625,0.13954953849315643,0.47723811864852905,-0.1567269116640091
1695712594879132400,17.33013232421875,0.018109481781721115,0.5826992392539978,0.4119907021522522
1695712594889163300,17.340163330078123,-0.31518489122390747,0.15033532679080963,1.386440634727478
1695712594899194000,17.350194091796876,-0.6049365997314453,-0.4588623046875,2.1469056606292725
1695712594909225200,17.36022509765625,-0.8178561329841614,-0.2372874766588211,2.3450448513031006
1695712594919256000,17.370256103515626,-0.8753803968429565,0.6008086800575256,2.0979034900665283
1695712594929287000,17.380286865234375,-0.7550055980682373,1.1514167785644531,1.6357122659683228
1695712594939318000,17.390318115234376,-0.5655218362808228,1.2430294752120972,1.150085210800171
1695712594949348900,17.400348876953124,-0.31625014543533325,0.9341030716896057,0.9689904451370239
1695712594959379700,17.410379638671873,-0.0978710949420929,0.6498108506202698,1.2480895519256592
1695712594969410800,17.420410888671874,0.10972215235233307,0.7968171834945679,1.8210681676864624
1695712594979441700,17.430441650390627,0.38242965936660767,1.191896915435791,2.401503801345825
1695712594989473300,17.440473388671876,0.5804355144500732,1.6327828168869019,2.8562381267547607
1695712594999502800,17.4505029296875,0.5772397518157959,1.9800587892532349,3.1607704162597656
1695712595009532200,17.4605322265625,0.3611243665218353,2.2483720779418945,3.318429470062256
1695712595019561700,17.470561767578126,-0.030892645940184593,2.3037657737731934,3.3397345542907715
1695712595029591000,17.480591064453126,-0.34501224756240845,2.254763603210449,3.272623062133789
1695712595039620600,17.49062060546875,-0.44834282994270325,2.1248013973236084,3.1447913646698
1695712595049650000,17.50064990234375,-0.4920186400413513,1.8437050580978394,2.958503484725952
1695712595059679500,17.510679443359376,-0.5069323182106018,1.517734408378601,2.710297107696533
1695712595069708800,17.520708740234376,-0.47603967785835266,1.2355726957321167,2.421743631362915
1695712595079738400,17.53073828125,-0.4419512450695038,1.0044105052947998,2.1170783042907715
1695712595089767700,17.540767578125,-0.39614492654800415,0.8159919381141663,1.8210681676864624
1695712595099800000,17.550800048828126,-0.33435961604118347,0.6231792569160461,1.6154723167419434
1695712595109835000,17.5608349609375,-0.2384859025478363,0.27710169553756714,1.5025544166564941
1695712595119870000,17.570869873046874,-0.13728585839271545,-0.09467530250549316,1.440769076347351
1695712595129905000,17.58090478515625,-0.06391581892967224,-0.1531316488981247,1.4098764657974243
1695712595139939800,17.59093994140625,-0.061785291880369186,0.0576573945581913,1.3960280418395996
1695712595149974800,17.600974853515623,-0.1117195263504982,0.3538006842136383,1.4492912292480469
1695712595160009700,17.611009765625,-0.1447426974773407,0.678572952747345,1.5941669940948486
1695712595170044700,17.621044677734375,-0.15539532899856567,1.0917620658874512,1.7422386407852173
1695712595180079600,17.63107958984375,-0.140481635928154,1.5795196294784546,1.8040239810943604
1695712595190114600,17.641114501953126,-0.10639320313930511,1.9875156879425049,1.8125461339950562
1695712595200149500,17.6511494140625,-0.02876211889088154,2.131193161010742,1.7518260478973389
1695712595210182000,17.661181884765625,0.11824426054954529,1.9651451110839844,1.6484954357147217
1695712595220214000,17.671214111328126,0.2833601236343384,1.560344934463501,1.5366427898406982
1695712595230246100,17.68124609375,0.4324970245361328,0.9990841150283813,1.4269206523895264
1695712595240278300,17.6912783203125,0.5442165732383728,0.4516717791557312,1.3704617023468018
1695712595250310400,17.701310302734374,0.6006755232810974,0.06191844865679741,1.3875058889389038
1695712595260342500,17.711342529296875,0.5964145064353943,-0.13622058928012848,1.448225975036621
1695712595270374400,17.72137451171875,0.5463470816612244,-0.11811110377311707,1.470596432685852
1695712595280406500,17.731406494140625,0.4696480929851532,0.09387636184692383,1.3651353120803833
1695712595290438700,17.741438720703126,0.377103328704834,0.3687143921852112,1.073386311531067
1695712595300470800,17.751470703125,0.24714116752147675,0.5795034170150757,0.6804371476173401
1695712595310503000,17.7615029296875,0.09054741263389587,0.6679202914237976,0.3512706756591797
1695712595320538400,17.771538330078126,-0.07230477035045624,0.6689855456352234,0.22783325612545013
1695712595330591000,17.781591064453124,-0.195875346660614,0.7265098094940186,0.24061642587184906
1695712595340643300,17.791643310546874,-0.3141196072101593,0.8511456251144409,0.22783325612545013
1695712595350696000,17.801696044921876,-0.44940808415412903,1.0076062679290771,0.16924376785755157
1695712595360748300,17.811748291015626,-0.572978675365448,1.1450252532958984,0.0648479238152504
1695712595370800600,17.821800537109375,-0.6921550631523132,1.1269158124923706,-0.17377112805843353
1695712595380853200,17.831853271484373,-0.7262434959411621,0.9309072494506836,-0.5848297476768494
1695712595390905600,17.841905517578127,-0.6335655450820923,0.665789783000946,-1.0843052864074707
1695712595400941000,17.851941162109377,-0.5687175989151001,0.5922865867614746,-1.601890206336975
1695712595410957300,17.861957275390626,-0.638891875743866,0.8138614296913147,-2.1343889236450195
1695712595420842200,17.87184228515625,-0.7954856157302856,1.1684610843658447,-2.6178853511810303
1695712595430862300,17.8818623046875,-0.9552751779556274,1.4251896142959595,-2.963963031768799
1695712599443675100,21.894675048828127,-0.04900212585926056,1.924665093421936,1.6452996730804443
1695712599453709000,21.904708984375,0.017044218257069588,1.9363830089569092,1.5600786209106445
1695712599463743000,21.914742919921874,0.09587372839450836,1.724395513534546,1.433312177658081
1695712599473776600,21.924776611328124,0.20985694229602814,1.3548822402954102,1.32052743434906
1695712599483807700,21.934807861328125,0.33662331104278564,0.9246488213539124,1.2470242977142334
1695712599493833200,21.944833251953124,0.44528019428253174,0.5294360518455505,1.2214579582214355
1695712599503858700,21.954858642578124,0.5005407333374023,0.22916483879089355,1.2321105003356934
1695712599513884200,21.96488427734375,0.5005407333374023,0.01504684891551733,1.2630032300949097
1695712599523909600,21.97490966796875,0.46338969469070435,-0.08508793264627457,1.290700078010559
1695712599533935000,21.98493505859375,0.40693071484565735,0.05233107507228851,1.2651337385177612
1695712599543960600,21.994960693359374,0.3153180480003357,0.40799596905708313,1.1458241939544678
1695712599553986000,22.004986083984374,0.1363537460565567,0.7616634964942932,0.9178577661514282
1695712599564011500,22.015011474609373,-0.09467530250549316,0.9660609364509583,0.655936062335968
1695712599574036700,22.02503662109375,-0.24168169498443604,1.0768483877182007,0.469514936208725
1695712599584069000,22.035069091796874,-0.2896185517311096,1.1865705251693726,0.37151068449020386
1695712599594107400,22.045107421875,-0.3247722387313843,1.244094729423523,0.27790066599845886
1695712599604145400,22.0551455078125,-0.3854922652244568,1.2451599836349487,0.140481635928154
1695712599614183400,22.065183349609374,-0.5090628862380981,1.1748526096343994,-0.027830012142658234
1695712599624221400,22.075221435546876,-0.6548708081245422,1.0683262348175049,-0.20466378331184387
1695712599634259500,22.085259521484375,-0.7475487589836121,0.8862993717193604,-0.4463454782962799
1695712599644297500,22.09529736328125,-0.6921550631523132,0.6828339695930481,-0.8499472141265869
1695712599654335700,22.105335693359375,-0.6325002908706665,0.6519413590431213,-1.405881643295288
1695712599664373800,22.115373779296874,-0.6974813938140869,0.8309056162834167,-1.9873825311660767
1695712599674411800,22.125411865234376,-0.8199867010116577,1.0523473024368286,-2.4644875526428223
1695712599684443600,22.135443603515625,-0.9329046607017517,1.2100063562393188,-2.777674913406372
1695712599694473500,22.145473388671874,-0.9861677885055542,1.2579431533813477,-2.926811933517456
1695712599704503300,22.15550341796875,-0.9744499325752258,1.1311768293380737,-2.873548746109009
1695712599714532900,22.165532958984375,-0.9478183388710022,0.9820399284362793,-2.640255928039551
1695712599724562700,22.175562744140624,-0.8881635665893555,1.0310420989990234,-2.379399538040161
1695712599734592500,22.185592529296876,-0.8263782858848572,1.1684610843658447,-2.1844563484191895
1695712599744622000,22.1956220703125,-0.7784414291381836,0.987366259098053,-2.092843532562256
1695712599754652000,22.20565185546875,-0.6772413849830627,0.3250385820865631,-2.112018346786499
1695712599764681700,22.215681640625,-0.5356944799423218,-0.5387570858001709,-2.2632858753204346
1695712599774711300,22.225711181640627,-0.451538622379303,-1.3715269565582275,-2.5220117568969727
1695712599784744000,22.235743896484376,-0.3652522563934326,-2.0616846084594727,-2.733999252319336
1695712599794778600,22.245778564453126,-0.29281434416770935,-2.1575584411621094,-2.947983980178833
1695712599804813600,22.2558134765625,-0.2672480046749115,-1.599493384361267,-3.2473230361938477
1695712599814848300,22.26584814453125,-0.319445937871933,-1.0563420057296753,-3.515636444091797
1695712599824883200,22.27588330078125,-0.47284388542175293,-0.897617757320404,-3.639206886291504
1695712599834918000,22.28591796875,-0.7187866568565369,-1.2713921070098877,-3.6711647510528564
1695712599844952800,22.295952880859375,-0.9158604145050049,-1.8528929948806763,-3.649859666824341
1695712599854987500,22.305987548828124,-1.0255825519561768,-2.333193778991699,-3.5774216651916504
1695712599865022500,22.3160224609375,-1.0309089422225952,-2.6037707328796387,-3.4465272426605225
1695712599875057400,22.326057373046876,-0.9510141015052795,-2.6804697513580322,-3.255845069885254
1695712599885089000,22.336089111328125,-0.7709845304489136,-2.7347981929779053,-2.998051404953003
1695712599895117000,22.346116943359377,-0.5399554967880249,-2.856105089187622,-2.7371950149536133
1695712599905145300,22.356145263671873,-0.3237069845199585,-2.955174446105957,-2.530533790588379
1695712599915173600,22.366173583984374,-0.1735048145055771,-2.9381303787231445,-2.3335931301116943
1695712599925202000,22.376201904296874,-0.07656582444906235,-2.8678228855133057,-2.1056268215179443
1695712599935230000,22.38622998046875,0.0074568456038832664,-2.7198843955993652,-1.7947028875350952
1695712599945258200,22.39625830078125,0.06498108059167862,-2.4716780185699463,-1.3803153038024902
1695712599955286500,22.40628662109375,0.07243792712688446,-2.203364610671997,-0.8574040532112122
1695712599965314600,22.416314453125,0.046871598809957504,-1.9498319625854492,-0.2908169627189636
1695712599975342800,22.4263427734375,0.011717899702489376,-1.679388165473938,0.2672480046749115
1695712599985374700,22.436374755859376,-0.004261054564267397,-1.4258553981781006,0.8040077090263367
1695712599995406600,22.446406494140625,-0.006391582079231739,-1.1841737031936646,1.3098747730255127
1695712600005438700,22.456438720703126,0.004261054564267397,-0.9551420211791992,1.7784576416015625
1695712600015470800,22.466470947265623,0.023435799404978752,-0.737828254699707,2.1959078311920166
1695712600025503000,22.4765029296875,0.0894821435213089,-0.504668653011322,2.5409200191497803
1695712600035535000,22.48653515625,0.23861905932426453,-0.2181127369403839,2.749711751937866
1695712600045567200,22.496567138671875,0.4696480929851532,0.13861742615699768,2.821084499359131
1695712600055599400,22.506599365234376,0.7817703485488892,0.5986781716346741,2.5952484607696533
1695712600065631500,22.516631591796877,1.1576752662658691,1.1077409982681274,1.5909712314605713
1695712600075663600,22.52666357421875,1.5124080181121826,1.087501049041748,-0.02996053919196129
1695712600085695700,22.53669580078125,1.5187996625900269,-0.21278640627861023,-1.1737873554229736
1695712600095728000,22.54672802734375,1.1342394351959229,-1.6644744873046875,-1.8490313291549683
1695712600105763300,22.556763427734374,0.5495429039001465,-2.2811288833618164,-2.24198055267334
1695712600115798800,22.566798828125,0.005326318088918924,-1.9551582336425781,-2.116279363632202
1695712600125834000,22.576833984375,-0.45260387659072876,-1.3544827699661255,-1.7180039882659912
1695712600135869400,22.586869384765624,-0.7677887678146362,-0.8827040791511536,-1.3877722024917603
1695712600145904600,22.596904541015626,-0.8103992938995361,-0.372575968503952,-1.0917620658874512
1695712600155939800,22.60693994140625,-0.46219125390052795,0.1567269116640091,-0.7382277250289917
1695712600165975300,22.616975341796874,-0.0021305272821336985,0.5613939166069031,-0.4388886094093323
1695712600176010500,22.627010498046875,0.08415582776069641,0.7062698006629944,0.15752586722373962
1695712600186046000,22.6370458984375,-0.10106688737869263,0.8149266839027405,1.1436936855316162
1695712600196082000,22.64708203125,-0.33009856939315796,0.43995389342308044,1.9743330478668213
1695712600206136800,22.65713671875,-0.5623260736465454,-0.3257043659687042,2.34291410446167
1695712600216192000,22.66719189453125,-0.7944203615188599,-0.5494097471237183,2.2449100017547607
1695712600226247000,22.677246826171874,-0.8870983123779297,-0.06697845458984375,1.8583524227142334
1695712600236302000,22.687302001953125,-0.7262434959411621,0.5603286623954773,1.5984281301498413
1695712600246357200,22.697357177734375,-0.48562705516815186,0.9490167498588562,1.6144070625305176
1695712600256393200,22.707393310546873,-0.26085641980171204,1.0960230827331543,1.8221334218978882
1695712600266418400,22.71741845703125,-0.01597895473241806,1.1887010335922241,2.1256003379821777
1695712600276304100,22.72730419921875,0.21411798894405365,1.402819037437439,2.39298152923584
1695712600286322200,22.737322265625,0.39840859174728394,1.564605951309204,2.586726427078247
1695712600296386000,22.747385986328126,0.442084401845932,1.4666017293930054,2.7241454124450684
1695712600306408700,22.75740869140625,0.3717769980430603,1.3474253416061401,2.829606533050537
1695712600316466200,22.767466064453124,0.16298533976078033,1.301619052886963,2.8679559230804443
1695712600326492400,22.777492431640624,-0.12769848108291626,1.313336968421936,2.8828697204589844
1695712600336517600,22.787517578125,-0.39081859588623047,1.3644695281982422,2.879673957824707
1695712600346543900,22.7975439453125,-0.5708481669425964,1.4017537832260132,2.839193820953369
1695712600356578000,22.807578125,-0.6133255362510681,1.3442295789718628,2.74118971824646
1695712600366604800,22.817604736328125,-0.543151319026947,1.2238547801971436,2.587791681289673
1695712600376624000,22.8276240234375,-0.4600607454776764,1.0214546918869019,2.401503801345825
1695712600386650400,22.837650390625,-0.4227765202522278,0.8351666927337646,2.15010142326355
1695712600396710000,22.8477099609375,-0.3940143883228302,0.6711161136627197,1.8881797790527344
1695712600406739500,22.857739501953127,-0.327968031167984,0.5081307291984558,1.6868449449539185
1695712600416770600,22.8677705078125,-0.26405221223831177,0.2749711871147156,1.5515564680099487
1695712600426800400,22.87780029296875,-0.2150501012802124,0.08855003863573074,1.4695311784744263
1695712600436848400,22.887848388671873,-0.18096165359020233,0.08322372287511826,1.4056153297424316
1695712605974445800,28.42544580078125,-0.5506081581115723,0.950082004070282,-0.7733814120292664
1695712605984478000,28.43547802734375,-0.5484775900840759,1.3090758323669434,-0.9404946565628052
1695712605994514000,28.445513916015624,-0.5846965909004211,1.5326480865478516,-1.042759895324707
1695712606004549600,28.455549560546874,-0.6060018539428711,1.6998944282531738,-1.208941102027893
1695712606014585300,28.46558544921875,-0.5953491926193237,1.907620906829834,-1.5539532899856567
1695712606024621000,28.47562109375,-0.6442182064056396,2.101365804672241,-2.096039295196533
1695712606034656800,28.48565673828125,-0.6527402997016907,2.216414213180542,-2.659430742263794
1695712606044692500,28.4956923828125,-0.5910881757736206,2.1248013973236084,-3.135470390319824
1695712606054728400,28.505728515625,-0.49414917826652527,1.8000292778015137,-3.474224090576172
1695712606064764200,28.51576416015625,-0.4653870463371277,1.0693914890289307,-3.564638376235962
1695712606074799900,28.5257998046875,-0.4557996690273285,0.06617950648069382,-3.398590564727783
1695712606084835600,28.535835693359374,-0.34075120091438293,-0.5579318404197693,-3.120556592941284
1695712606094867500,28.545867431640627,-0.13302479684352875,-0.721849262714386,-2.7904582023620605
1695712606104898300,28.555898193359376,0.0010652636410668492,-0.5334307551383972,-2.5017716884613037
1695712606114929200,28.56592919921875,0.10865689069032669,-0.19254639744758606,-2.2995047569274902
1695712606124960000,28.5759599609375,0.1736379712820053,-0.003062632866203785,-2.216414213180542
1695712606134990800,28.585990966796874,0.1416800618171692,-0.0062584239058196545,-2.1993699073791504
1695712606145021700,28.596021728515623,0.04793686419725418,-0.2330264151096344,-2.181260347366333
1695712606155052500,28.606052490234376,-0.08721846342086792,-0.5653886795043945,-2.2025656700134277
1695712606165083400,28.61608349609375,-0.23529011011123657,-0.9114661812782288,-2.2888519763946533
1695712606175114000,28.626114013671874,-0.34927332401275635,-1.2140010595321655,-2.3825953006744385
1695712606185144800,28.636144775390626,-0.43342915177345276,-1.448225975036621,-2.4197463989257812
1695712606195175700,28.64617578125,-0.5175849795341492,-1.6080154180526733,-2.3570289611816406
1695712606205207600,28.65620751953125,-0.5655218362808228,-1.7761939764022827,-2.1887173652648926
1695712606215238100,28.666238037109373,-0.5474123358726501,-1.9093519449234009,-1.9373151063919067
1695712606225268700,28.676268798828126,-0.4824312627315521,-1.9519624710083008,-1.619999647140503
1695712606235299300,28.68629931640625,-0.4131891429424286,-1.8390445709228516,-1.2749874591827393
1695712606245330000,28.696329833984375,-0.36844804883003235,-1.6314512491226196,-0.9330378174781799
1695712606255360500,28.706360595703124,-0.31092381477355957,-1.4088112115859985,-0.5922865867614746
1695712606265391400,28.716391357421877,-0.2661827504634857,-1.2203927040100098,-0.2451438009738922
1695712606275421700,28.726421630859374,-0.2565953731536865,-1.1042789220809937,0.10852373391389847
1695712606285452500,28.73645263671875,-0.1820269227027893,-1.0755168199539185,0.49827706813812256
1695712606295483100,28.746483154296875,-0.09361004084348679,-1.0936262607574463,0.9210535883903503
1695712606305513700,28.756513671875,0.0074568456038832664,-0.9892304539680481,1.4045500755310059
1695712606315545900,28.7665458984375,0.19174745678901672,-0.7367629408836365,1.9317224025726318
1695712606325581000,28.7765810546875,0.43462756276130676,-0.40879490971565247,2.40789532661438
1695712606335616000,28.786615966796877,0.5633913278579712,-0.20319904386997223,2.7624950408935547
1695712606345651000,28.79665087890625,0.6390250325202942,-0.23089589178562164,3.0521135330200195
1695712606355686000,28.806685791015624,0.7338334918022156,-0.391750693321228,3.341865301132202
1695712606365720800,28.816720947265626,0.7945535182952881,-0.5355613231658936,3.5931341648101807
1695712606375755800,28.826755859375,0.7178545594215393,-0.6783066391944885,3.700725793838501
1695712606385790700,28.836790771484374,0.4197138845920563,-0.9945567846298218,3.5143046379089355
1695712606395825700,28.84682568359375,0.08096003532409668,-1.4173332452774048,2.9020445346832275
1695712606405860900,28.85686083984375,-0.10319741815328598,-1.8720676898956299,1.8828535079956055
1695712606415895800,28.866895751953123,-0.06072002649307251,-2.432263135910034,0.6729803085327148
1695712606425928000,28.876927978515624,0.04474107176065445,-2.9083027839660645,-0.49641284346580505
1695712606435960000,28.8869599609375,0.038349490612745285,-3.0563745498657227,-1.354749083518982
1695712606445992000,28.896991943359374,-0.02450106292963028,-2.7443854808807373,-1.7180039882659912
1695712606456023800,28.90702392578125,-0.13409006595611572,-1.889111876487732,-1.6924376487731934
1695712606466056000,28.917055908203125,-0.3599259555339813,-1.0914957523345947,-1.244094729423523
1695712606476087800,28.927087890625,-0.4217112362384796,-0.6516750454902649,-0.2547311782836914
1695712606486120000,28.937119873046875,-0.1351553201675415,0.2227732539176941,0.8486156463623047
1695712606496151800,28.94715185546875,0.07669898122549057,1.0097367763519287,1.7720661163330078
1695712606506183700,28.95718359375,0.08309056609869003,1.3836443424224854,2.3205437660217285
1695712606516215800,28.9672158203125,0.006391582079231739,1.5869765281677246,2.2960426807403564
1695712606526247400,28.977247314453123,-0.0882837250828743,1.402819037437439,1.6644744873046875
1695712606536276500,28.9872763671875,-0.05326318368315697,0.8362319469451904,0.72304767370224
1695712606546305300,28.99730517578125,0.10226531326770782,-0.016911059617996216,0.04247738793492317
1695712606556334300,29.007334228515624,0.2077264040708542,-0.7495461106300354,-0.12583427131175995
1695712606566363400,29.01736328125,0.1970737725496292,-1.2086747884750366,-0.11624689400196075
1695712606576392400,29.027392333984373,0.1129179447889328,-1.4642049074172974,-0.03848264738917351
1695712606586421200,29.037421142578125,0.0010652636410668492,-1.6431691646575928,0.13835111260414124
1695712606596450300,29.0474501953125,-0.045806337147951126,-1.82945716381073,0.44181808829307556
1695712606606479400,29.057479248046874,-0.04793686419725418,-2.024400472640991,0.8518114686012268
1695712606616508200,29.067508056640627,-0.08082687854766846,-1.9295918941497803,1.1213231086730957
1695712606626540300,29.077540283203124,-0.14793848991394043,-1.470596432685852,1.0872347354888916
1695712606636574500,29.087574462890625,-0.18309219181537628,-0.9082704186439514,0.83476722240448
1695712606646608400,29.0976083984375,-0.15646059811115265,-0.45566651225090027,0.5217128396034241
1695712606656642600,29.107642578125,-0.13195952773094177,-0.2671148478984833,0.2905506491661072
1695712606666676500,29.117676513671874,-0.12450268864631653,-0.2607232630252838,0.15219953656196594
1695712606676710700,29.127710693359376,-0.10000162571668625,-0.3086601495742798,0.06271740049123764
1695712606686744800,29.137744873046874,-0.06391581892967224,-0.3491401672363281,-0.013981585390865803
1695712606696778800,29.14777880859375,-0.038349490612745285,-0.32676962018013,-0.09281109273433685
1695712606706813000,29.15781298828125,-0.03195790946483612,-0.25326642394065857,-0.17377112805843353
1695712606716846800,29.167846923828126,-0.018109481781721115,-0.08934898674488068,-0.22490379214286804
1695712606726886000,29.177885986328125,-0.025566328316926956,0.21531641483306885,-0.21425114572048187
1695712606736985600,29.187985595703125,-0.019174745306372643,0.6103960871696472,-0.13542163372039795
1695712606747085300,29.198085205078126,-0.0564589723944664,0.8948214650154114,-0.0022636852227151394
1695712606757124000,29.2081240234375,-0.07976161688566208,0.8873646259307861,0.11065425723791122
1695712606767147800,29.218147705078124,-0.05752423778176308,0.5699160695075989,0.13728585839271545
1695712606777171500,29.22817138671875,-0.03941475600004196,0.114116370677948,0.10532794147729874
1695712606787214600,29.238214599609375,-0.011717899702489376,-0.29694223403930664,0.04354264959692955
1695712606797253400,29.24825341796875,0.0031957910396158695,-0.4918854832649231,0.0062584239058196545
1695712606807283700,29.25828369140625,0,-0.517451822757721,0.021172115579247475
1695712606817285000,29.26828515625,-0.017044218257069588,-0.48336338996887207,0.08082687854766846
1695712606827324000,29.278323974609375,-0.022370535880327225,-0.4066644012928009,0.14367742836475372
1695712606837384400,29.288384521484375,-0.041545283049345016,-0.3491401672363281,0.1873532384634018
1695712606847385000,29.298385009765624,-0.06711161136627197,-0.3470096290111542,0.19054903090000153
1695712606857424000,29.308423828125,-0.04793686419725418,-0.3470096290111542,0.16072164475917816
1695712606867453000,29.318452880859375,0.010652636177837849,-0.27244117856025696,0.12876373529434204
1695712606877502200,29.328502197265625,-0.008522109128534794,-0.17337165772914886,0.0978710949420929
1695712606887538700,29.33853857421875,0.013848427683115005,-0.16165375709533691,0.0882837250828743
1695712606897558800,29.348558837890625,0.03941475600004196,-0.21704746782779694,0.05845634266734123
1695712606907595300,29.35859521484375,0.058589499443769455,-0.28202855587005615,0.012650005519390106
1695712606917607700,29.368607666015624,0.05752423778176308,-0.270310640335083,-0.02569948509335518
1695712606927644200,29.37864404296875,0.038349490612745285,-0.22556957602500916,-0.026764748618006706
1695712606937527800,29.38852783203125,0.022370535880327225,-0.20852535963058472,-0.00013315795513335615
1695712606947552800,29.398552734375,0.02769685536623001,-0.280963271856308,0.01904158666729927
1695712606957590000,29.408590087890627,0.012783164158463478,-0.36618438363075256,-0.01504684891551733
1695712606967616300,29.4186162109375,-0.013848427683115005,-0.39920756220817566,-0.06191844865679741
1695712606977657000,29.428656982421874,-0.0564589723944664,-0.3842938542366028,-0.09387636184692383
1695712606987684600,29.4386845703125,-0.074435293674469,-0.34274858236312866,-0.11092057824134827
1695712606997719000,29.448718994140624,-0.06817687302827835,-0.2894853949546814,-0.12583427131175995
1695712607007747600,29.45874755859375,-0.06817687302827835,-0.2713759243488312,-0.13435637950897217
1695712607017790000,29.4687900390625,-0.09041424840688705,-0.2788327634334564,-0.13009531795978546
1695712607027819800,29.47881982421875,-0.14367742836475372,-0.3033338189125061,-0.1279647946357727
1695712607037852000,29.488851806640625,-0.19374482333660126,-0.3139864504337311,-0.12263847887516022
1695712607047882000,29.498882080078126,-0.20865851640701294,-0.23196116089820862,-0.12263847887516022
1695712607057907500,29.508907470703125,-0.1735048145055771,-0.07230477035045624,-0.114116370677948
1695712607067937000,29.51893701171875,-0.15326480567455292,0.01504684891551733,-0.07470161467790604
1695712607077973800,29.528973876953124,-0.15219953656196594,-0.041412122547626495,0.0009321057004854083
1695712607088003800,29.53900390625,-0.10319741815328598,-0.1351553201675415,0.0691089779138565
1695712607098037500,29.54903759765625,-0.08189214020967484,-0.23089589178562164,0.07550056278705597
1695712607108068000,29.559068115234375,-0.029827382415533066,-0.2564622163772583,0.041412122547626495
1695712607118134500,29.569134521484376,-0.012783164158463478,-0.23515695333480835,-0.0033289489801973104
1695712607128168700,29.579168701171874,0.013848427683115005,-0.15206637978553772,-0.03635212033987045
1695712607138198800,29.58919873046875,0.0031957910396158695,-0.09361004084348679,-0.05020054802298546
1695712607148232700,29.599232666015624,0.005326318088918924,-0.06058686971664429,-0.055526867508888245
1695712607158233000,29.609233154296874,-0.02876211889088154,-0.0786963477730751,-0.06937529146671295
1695712607168263400,29.619263427734374,-0.034088436514139175,-0.09893636405467987,-0.07576687633991241
1695712607178298400,29.62929833984375,0.04474107176065445,-0.03502054139971733,-0.04913528636097908
1695712607188329200,29.6393291015625,-0.0074568456038832664,-0.09574057161808014,-0.03315633162856102
1695712607198388200,29.64938818359375,-0.050067391246557236,-0.11491531878709793,-0.03209106624126434
1695712607208422000,29.659421875,-0.009587372653186321,0.023568958044052124,-0.023568958044052124
1695712607218422000,29.669422119140624,-0.06391581892967224,0.06404897570610046,-0.022503694519400597
1695712607228452400,29.679452392578124,-0.03941475600004196,0.07789740711450577,-0.01078579481691122
1695712607238492400,29.689492431640623,-0.0010652636410668492,0.05446160212159157,0.0019973693415522575
1695712607248523800,29.699523681640624,0.014913691207766533,0.06511423736810684,0.01584579609334469
1695712607258540500,29.70954052734375,0.017044218257069588,0.03209106624126434,0.013715269044041634
1695712607268570400,29.7195703125,0.03195790946483612,0.009720530360937119,0.017976323142647743
1695712607278608600,29.729608642578125,0.014913691207766533,-0.0019973693415522575,0.014780532568693161
1695712607288639200,29.73963916015625,-0.019174745306372643,-0.017976323142647743,0.009454214945435524
1695712607298689500,29.749689453125,-0.021305272355675697,0.05020054802298546,0.0318247526884079
1695712607308722200,29.75972216796875,-0.014913691207766533,0.21638168394565582,0.07550056278705597
1695712607318755600,29.769755615234374,-0.03195790946483612,0.3442133069038391,0.0978710949420929
1695712607328788200,29.779788330078127,-0.030892645940184593,0.36551859974861145,0.08189214020967484
1695712607338835700,29.789835693359375,0.008522109128534794,0.2930806577205658,0.057391077280044556
1695712607348870000,29.799869873046877,0.02876211889088154,0.19188061356544495,0.03395527973771095
1695712607358883000,29.809883056640626,0.05219791829586029,0.07363634556531906,0.01584579609334469
1695712607368915200,29.819915283203127,0.04900212585926056,-0.10426267981529236,0.0009321057004854083
1695712607378948900,29.829948974609376,0.0330231711268425,-0.24794010818004608,-0.008655266836285591
1695712607388981000,29.83998095703125,0.04793686419725418,-0.24367906153202057,0.0019973693415522575
1695712607399018800,29.850018798828124,0.03941475600004196,-0.1669800728559494,0.02756369672715664
1695712607409051600,29.8600517578125,0.054328445345163345,-0.07976161688566208,0.05845634266734123
1695712607419078100,29.870078125,0.05219791829586029,-0.07017423957586288,0.07763108611106873
1695712607429110500,29.880110595703126,0.011717899702489376,-0.17337165772914886,0.0456731803715229
1695712607439144400,29.89014453125,-0.0010652636410668492,-0.2468748539686203,-0.00013315795513335615
1695712607449176800,29.9001767578125,-0.0010652636410668492,-0.15952323377132416,-0.008655266836285591
1695712607459181300,29.910181396484376,-0.0021305272821336985,0.0033289489801973104,0.03075948730111122
1695712607469210600,29.920210693359376,0.009587372653186321,0.043808966875076294,0.05952160432934761
1695712607479269000,29.93026904296875,0.023435799404978752,-0.09041424840688705,0.048868969082832336
1695712607489301500,29.940301513671876,0.058589499443769455,-0.20106850564479828,0.0456731803715229
1695712607499331000,29.9503310546875,0.10120004415512085,-0.20532956719398499,0.0648479238152504
1695712607509363000,29.960363037109374,0.09161267429590225,-0.22556957602500916,0.06591318547725677
1695712607519399400,29.9703994140625,0.0703074038028717,-0.1808284968137741,0.07230477035045624
1695712607529431800,29.980431884765625,0.07669898122549057,-0.10852373391389847,0.0691089779138565
1695712607539461400,29.99046142578125,0.122505322098732,-0.03395527973771095,0.07656582444906235
1695712607549493500,30.000493408203123,0.11398320645093918,-0.148870587348938,0.06697845458984375
1695712607559523000,30.010523193359376,0.07563371956348419,-0.2937464416027069,0.037151068449020386
1695712607569555000,30.020554931640625,0.09054741263389587,-0.25859275460243225,0.04354264959692955
1695712607579596500,30.030596435546876,0.07669898122549057,-0.16484954953193665,0.03928159549832344
1695712607589629400,30.04062939453125,0.021305272355675697,-0.10532794147729874,0.025433169677853584
1695712607599654400,30.050654296875,-0.012783164158463478,-0.053130023181438446,-0.012916321866214275
1695712607609686500,30.0606865234375,0.019174745306372643,0.020373167470097542,-0.03209106624126434
1695712607619714300,30.07071435546875,0.009587372653186321,0.04167843982577324,-0.012916321866214275
1695712607629746000,30.080745849609375,0.005326318088918924,-0.009454214945435524,0.01584579609334469
1695712607639756800,30.0907568359375,0.0330231711268425,-0.10426267981529236,0.025433169677853584
1695712607649786000,30.1007861328125,0.0798947736620903,-0.12982900440692902,0.03608580678701401
1695712607659837700,30.110837646484374,0.10120004415512085,-0.17337165772914886,0.0648479238152504
1695712607669869600,30.12086962890625,0.10972215235233307,-0.20852535963058472,0.10000162571668625
1695712607679907600,30.130907470703125,0.12037479132413864,-0.20532956719398499,0.13835111260414124
1695712607689940000,30.14093994140625,0.11611373722553253,-0.13409006595611572,0.16498270630836487
1695712607699974000,30.150973876953124,0.07882951200008392,-0.0552605502307415,0.13728585839271545
1695712607710006300,30.16100634765625,0.03195790946483612,0.0022636852227151394,0.07017423957586288
1695712607720032000,30.171031982421876,0.021305272355675697,0.08961530029773712,0.03395527973771095
1695712607730064000,30.18106396484375,-0.0031957910396158695,0.17696692049503326,0.04247738793492317
1695712607740111000,30.191111083984374,-0.04367581009864807,0.19188061356544495,0.057391077280044556
1695712607750144500,30.20114453125,-0.0786963477730751,0.15033532679080963,0.0456731803715229
1695712607760156700,30.21115673828125,-0.09574057161808014,0.13968269526958466,0.01904158666729927
1695712607770187800,30.221187744140625,-0.11385004967451096,0.17164060473442078,-0.01078579481691122
1695712607780207600,30.23120751953125,-0.12024163454771042,0.24727432429790497,-0.03315633162856102
1695712607790237400,30.241237548828124,-0.11598058044910431,0.2984069883823395,-0.04487423226237297
1695712607800294400,30.25129443359375,-0.08721846342086792,0.2984069883823395,-0.03315633162856102
1695712607810327300,30.261327392578124,-0.05113265663385391,0.2408827394247055,-0.01078579481691122
1695712607820365800,30.27136572265625,-0.02450106292963028,0.1428784877061844,0.010519478470087051
1695712607830399200,30.281399169921876,-0.030892645940184593,0.06085318699479103,0.02756369672715664
1695712607840400100,30.291400146484374,-0.012783164158463478,0.08855003863573074,0.04460791498422623
1695712607850430200,30.30143017578125,0.03515370190143585,0.18335850536823273,0.05419528856873512
1695712607860463600,30.311463623046876,0.03941475600004196,0.2270343154668808,0.041412122547626495
1695712607870494000,30.321493896484377,0.02876211889088154,0.16844481229782104,0.007323687430471182
1695712607880554000,30.331553955078125,0.03195790946483612,0.04593949392437935,-0.01717737689614296
1695712607890587400,30.34158740234375,0.03941475600004196,-0.0648479238152504,-0.027830012142658234
1695712607900622300,30.351622314453124,0.050067391246557236,-0.130894273519516,-0.016112113371491432
1695712607910656000,30.361656005859373,0.03728422895073891,-0.1573926955461502,0.017976323142647743
1695712607920680200,30.37168017578125,0.04048001766204834,-0.15845796465873718,0.0552605502307415
1695712607930712800,30.381712890625,0.054328445345163345,-0.1531316488981247,0.08082687854766846
1695712607940715500,30.391715576171876,0.06072002649307251,-0.1627190262079239,0.09680583328008652
1695712607950745000,30.4017451171875,0.07882951200008392,-0.18828535079956055,0.102132149040699
1695712607960813600,30.4118134765625,0.09587372839450836,-0.270310640335083,0.0882837250828743
1695712607970847000,30.421846923828124,0.12144005298614502,-0.3459443747997284,0.0786963477730751
1695712607980878600,30.431878662109376,0.1597895473241806,-0.3736412227153778,0.08508793264627457
1695712607990911700,30.441911865234374,0.1789642870426178,-0.38003280758857727,0.07123950868844986
1695712608000906200,30.45190625,0.2396843135356903,-0.3736412227153778,0.0691089779138565
1695712608010935600,30.461935546875,0.32597067952156067,-0.3736412227153778,0.09574057161808014
1695712608021003500,30.47200341796875,0.39308229088783264,-0.391750693321228,0.14367742836475372
1695712608031037000,30.482036865234374,0.44421494007110596,-0.3821633458137512,0.20226693153381348
1695712608041073000,30.492072998046876,0.5048018097877502,-0.29268118739128113,0.25446486473083496
1695712608051106600,30.5021064453125,0.543151319026947,-0.2564622163772583,0.31079065799713135
1695712608061078500,30.51207861328125,0.5111933946609497,-0.2745717167854309,0.29161593317985535
1695712608071105800,30.522105712890625,0.3568633198738098,-0.3448790907859802,0.24487747251987457
1695712608081200600,30.53220068359375,0.15765902400016785,-0.43223071098327637,0.22570273280143738
1695712608091234800,30.54223486328125,0.07563371956348419,-0.6026729345321655,0.23102904856204987
1695712608101252900,30.5522529296875,0.09693899005651474,-0.7506113648414612,0.2768353819847107
1695712608111285200,30.56228515625,0.13954953849315643,-0.7921566963195801,0.3470096290111542
1695712608121321500,30.572321533203127,0.17044217884540558,-0.8038745522499084,0.39920756220817566
1695712608131354000,30.58235400390625,0.2077264040708542,-0.8358324766159058,0.4247738718986511
1695712608141386200,30.59238623046875,0.17576849460601807,-0.8880304098129272,0.4460791349411011
1695712608151419100,30.602419189453126,0.11185268312692642,-0.977512538433075,0.469514936208725
1695712608161448700,30.61244873046875,0.07669898122549057,-1.0094704627990723,0.5110602378845215
1695712608171481000,30.622481201171876,0.14913691580295563,-0.9913609623908997,0.5589970946311951
1695712608181511400,30.632511474609377,0.25140222907066345,-1.0116009712219238,0.5675191879272461
1695712608191543600,30.64254345703125,0.309991717338562,-1.1458241939544678,0.48442864418029785
1695712608201574400,30.652574462890627,0.31744855642318726,-1.319329023361206,0.40027281641960144
1695712608211606500,30.6626064453125,0.19387798011302948,-1.391766905784607,0.40027281641960144
1695712608221636000,30.672635986328125,0.014913691207766533,-1.3086763620376587,0.5067991614341736
1695712608231668000,30.68266796875,-0.21291956305503845,-1.1170620918273926,0.6878939867019653
1695712608241845500,30.692845458984376,-0.45793020725250244,-0.7932219505310059,0.859268307685852
1695712608251890200,30.70289013671875,-0.4877575933933258,-0.2713759243488312,0.8358324766159058
1695712608261935000,30.71293505859375,-0.19907113909721375,0.3016027808189392,0.40027281641960144
1695712608271755300,30.72275537109375,-0.09680583328008652,0.6966823935508728,-0.26951169967651367
1695712608281783000,30.732782958984377,-0.2288985252380371,0.9852356910705566,-0.9032104015350342
1695712608291869000,30.742868896484374,-0.395079642534256,1.5156038999557495,-1.401620626449585
1695712608301902300,30.75290234375,-0.30133646726608276,1.9033597707748413,-1.6476964950561523
1695712608311931400,30.762931396484376,-0.2672480046749115,1.8106818199157715,-1.6327828168869019
1695712608321964500,30.772964599609374,-0.1639174371957779,1.6530228853225708,-1.3941638469696045
1695712608331974400,30.782974365234374,-0.017044218257069588,1.2419642210006714,-1.0736526250839233
1695712608342005000,30.7930048828125,-0.066046342253685,0.7275750637054443,-0.8595346212387085
1695712608352035000,30.80303515625,-0.17563533782958984,0.52837073802948,-0.6807034611701965
1695712608362065700,30.813065673828124,0.022370535880327225,0.2312953621149063,-0.5869602560997009
1695712608372127700,30.823127685546876,0.2396843135356903,-0.05952160432934761,-0.5091960430145264
1695712608382161400,30.833161376953125,0.34514543414115906,-0.41412124037742615,-0.4410191476345062
1695712608392190500,30.8431904296875,0.4516717791557312,-1.0190578699111938,-0.44954127073287964
1695712608402223900,30.853223876953123,0.5804355144500732,-1.5409038066864014,-0.4506065249443054
1695712608412237300,30.8632373046875,0.5282375812530518,-1.5323817729949951,-0.2227732539176941
1695712608422268400,30.873268310546877,0.2673811614513397,-0.8155924677848816,0.2800311744213104
1695712608432293000,30.883293212890624,-0.022370535880327225,0.09600688517093658,0.777376115322113
1695712608442323700,30.89332373046875,-0.06072002649307251,0.5645897388458252,0.993491530418396
1695712608452349700,30.903349609375,0.066046342253685,0.6913561224937439,0.9711209535598755
1695712608462379800,30.9133798828125,0.16085481643676758,0.9298419952392578,0.6836329698562622
1695712608472435500,30.923435546875,0.09480846673250198,0.8905603885650635,0.40986019372940063
1695712608482468000,30.933468017578125,0.01597895473241806,0.6402234435081482,0.14580796658992767
1695712608492503800,30.94350390625,0.022370535880327225,0.4133222997188568,-0.02996053919196129
1695712608502536700,30.95353662109375,0.08096003532409668,0.24301326274871826,-0.07257108390331268
1695712608512568600,30.963568603515625,0.1459411233663559,0.051265813410282135,-0.007590003311634064
1695712608522601500,30.9736015625,0.1555284857749939,-0.07976161688566208,0.08189214020967484
1695712608532600800,30.983600830078124,0.030892645940184593,0.07257108390331268,0.11811110377311707
1695712608542630400,30.99363037109375,-0.03941475600004196,0.2515353858470917,0.12982900440692902
1695712608552665900,31.003665771484375,-0.08934898674488068,0.6647245287895203,0.07230477035045624
1695712608562696000,31.013696044921875,-0.22676800191402435,1.1961579322814941,0.014780532568693161
1695712608572762000,31.02376220703125,-0.39081859588623047,1.5347785949707031,0.04993423447012901
1695712608582795800,31.033795654296874,-0.5293028950691223,1.6764585971832275,0.09041424840688705
1695712608592812300,31.043812255859375,-0.6815024018287659,1.7499618530273438,0.10745847225189209
1695712608602844200,31.05384423828125,-0.8434224724769592,1.7180039882659912,0.13302479684352875
1695712608612880100,31.063880126953126,-1.0362352132797241,1.6626101732254028,0.2054627239704132
1695712608622912800,31.073912841796876,-1.260872721672058,1.7510271072387695,0.27790066599845886
1695712608632932400,31.083932373046874,-1.4739253520965576,1.978993535041809,0.35233595967292786
1695712608642963500,31.09396337890625,-1.5985612869262695,2.2387847900390625,0.34807488322257996
1695712608653011700,31.10401171875,-1.7230639457702637,2.4614248275756836,0.3747064769268036
1695712608663044400,31.11404443359375,-1.825329303741455,2.727607488632202,0.3704454302787781
1695712608673075500,31.124075439453126,-1.9137461185455322,2.916159152984619,0.36618438363075256
1695712608683108000,31.134108154296875,-1.9531608819961548,2.9108328819274902,0.3075948655605316
1695712608693130500,31.144130615234374,-1.9638135433197021,2.8351991176605225,0.21931114792823792
1695712608703162000,31.154162109375,-1.9670093059539795,2.738260269165039,0.10319741815328598
1695712608713184800,31.164184814453126,-2.108689308166504,2.654104471206665,0.021172115579247475
1695712608723215400,31.17421533203125,-2.5644891262054443,2.8256118297576904,-0.023568958044052124
1695712608733250000,31.18425,-2.4505057334899902,2.658365488052368,-0.3717769980430603
1695712608743281000,31.194281005859374,-2.377002716064453,2.028927803039551,-0.5944170951843262
1695712608753334000,31.204333984375,-2.5783374309539795,1.6732628345489502,-0.7446193099021912
1695712608763367200,31.2143671875,-2.914827585220337,1.862879753112793,-0.6338318586349487
1695712608773389300,31.224389404296875,-3.2003183364868164,2.5200142860412598,-0.114116370677948
1695712608783421400,31.23442138671875,-3.3844757080078125,3.045056104660034,0.9625988602638245
1695712608793455400,31.244455322265626,-3.40258526802063,3.9545249938964844,1.4024195671081543
1695712608803487500,31.254487548828124,-3.1364023685455322,3.9278934001922607,1.3768532276153564
1695712608813503700,31.264503662109377,-2.974482297897339,3.0589046478271484,1.44609534740448
1695712608823534600,31.27453466796875,-2.9872655868530273,2.8011107444763184,1.810415506362915
1695712608833589200,31.28458935546875,-2.974482297897339,3.861846923828125,2.253432035446167
1695712608843622400,31.294622314453125,-2.6827332973480225,4.024832248687744,2.1010994911193848
1695712608853658600,31.30465869140625,-2.835998058319092,2.5327975749969482,1.6207985877990723
1695712608863692300,31.3146923828125,-2.7477145195007324,0.44528019428253174,0.934902012348175
1695712609234839800,31.68583984375,-8.677638053894043,-2.552638053894043,4.078761100769043
1695712609244871700,31.69587158203125,-8.766986846923828,-1.6815186738967896,3.8370795249938965
1695712609254903600,31.705903564453124,-8.867121696472168,-0.7399587631225586,3.5888731479644775
1695712609264935400,31.715935302734376,-8.992822647094727,-0.15632744133472443,3.257709264755249
1695712609274967300,31.72596728515625,-9.255809783935547,0.1567269116640091,2.986067056655884
1695712609284999200,31.735999267578126,-9.56793212890625,0.4005391299724579,2.7891266345977783
1695712609295031000,31.746031005859376,-9.637173652648926,0.33782172203063965,2.4450464248657227
1695712609305061600,31.7560615234375,-9.530647277832031,-0.35659700632095337,1.9604846239089966
1695712609315093800,31.76609375,-9.396424293518066,-1.4322469234466553,1.3960280418395996
1695712609325126000,31.7761259765625,-9.358075141906738,-2.123469829559326,1.0020135641098022
1695712609335158000,31.786157958984376,-9.37511920928955,-2.0084214210510254,0.8560724854469299
1695712609345190100,31.796190185546877,-9.259005546569824,-1.3033500909805298,0.8560724854469299
1695712609355222300,31.80622216796875,-9.06419563293457,-0.32037803530693054,0.9455546140670776
1695712609365254400,31.81625439453125,-8.787226676940918,0.7648593187332153,1.0169273614883423
1695712609375286500,31.82628662109375,-8.388951301574707,1.3122715950012207,0.9434241056442261
1695712609385318700,31.836318603515625,-7.481612682342529,-0.011584741994738579,0.393881231546402
1695712609395350800,31.846350830078126,-6.191844940185547,-0.18402428925037384,0.4173170328140259
1695712609405383000,31.8563828125,-5.32924747467041,0.6540718674659729,0.9679251909255981
1695712609415414000,31.8664140625,-4.713658332824707,1.434777021408081,1.5792533159255981
1695712609425446100,31.876446044921874,-4.299404144287109,1.6029554605484009,1.9274613857269287
1695712609435478300,31.886478271484375,-3.849862813949585,1.343164324760437,2.0968382358551025
1695712609445510700,31.8965107421875,-3.4100420475006104,0.632766604423523,2.303499460220337
1695712609455542800,31.906542724609373,-2.914827585220337,-0.40879490971565247,2.521745443344116
1695712609465575000,31.916574951171874,-2.333326816558838,-1.0020135641098022,2.621880054473877
1695712609475607300,31.926607177734375,-1.7720661163330078,-0.9796430468559265,2.4642210006713867
1695712609485639400,31.936639404296876,-1.3066790103912354,-0.6452834606170654,2.0925772190093994
1695712609495671600,31.946671630859374,-0.8998814821243286,-0.3022685647010803,1.6101460456848145
1695712609505703700,31.95670361328125,-0.543151319026947,0.07044056057929993,1.182043194770813
1695712609515735800,31.96673583984375,-0.2661827504634857,0.5123918056488037,0.9359672665596008
1695712609525767000,31.976766845703125,-0.05113265663385391,0.6306360960006714,0.8305061459541321
1695712609535798500,31.986798583984374,0.0990695208311081,0.49108654260635376,0.8114646077156067
1695712609545830400,31.996830322265627,0.21411798894405365,0.04167843982577324,0.8167908787727356
1695712609555862000,32.00686206054687,0.3249054253101349,-0.6442182064056396,0.8050730228424072
1695712609565893600,32.0168935546875,0.3952127993106842,-1.4940322637557983,0.7294392585754395
1695712609575925200,32.02692529296875,0.32810118794441223,-2.41308856010437,0.5430181622505188
1695712609585956900,32.036956787109375,0.18748639523983002,-3.367431640625,0.27363958954811096
1695712609595988500,32.046988525390624,0.10865689069032669,-4.249203681945801,-0.019307903945446014
1695712609606020000,32.05702001953125,0.04367581009864807,-4.9020771980285645,-0.28442537784576416
1695712609616051700,32.0670517578125,-0.09254477918148041,-5.129909992218018,-0.4974781274795532
1695712609626083300,32.07708325195313,-0.2906838059425354,-4.263051986694336,-0.6647245287895203
1695712609636114700,32.08711474609375,-0.37377437949180603,-2.716688632965088,-0.49108654260635376
1695712609646147000,32.09714697265625,-0.20013640820980072,-1.2033483982086182,-0.019307903945446014
1695712609656179200,32.10717919921875,0.1970737725496292,0.1567269116640091,0.439687579870224
1695712609666211600,32.11721166992187,0.5261070728302002,0.6817687153816223,0.4918854832649231
1695712609676244000,32.12724389648437,0.5804355144500732,0.7957519292831421,0.30013802647590637
1695712609686276400,32.1372763671875,0.5474123358726501,0.7424887418746948,0.07123950868844986
1695712609696308500,32.14730859375,0.5388902425765991,0.552871823310852,-0.1428784877061844
1695712609706340900,32.1573408203125,0.551673412322998,0.2973417043685913,-0.26418536901474
1695712609716373200,32.16737329101562,0.6198502779006958,0.14820480346679688,-0.23449115455150604
1695712609726405400,32.1774052734375,0.677374541759491,0.22490379214286804,-0.07257108390331268
1695712609736436700,32.18743676757813,0.7285071611404419,0.37936702370643616,0.11065425723791122
1695712609746468400,32.19746826171875,0.6954839825630188,0.574177086353302,0.23635536432266235
1695712609756500000,32.2075,0.505867063999176,0.7371624112129211,0.26085641980171204
1695712609766531600,32.21753149414062,0.2354232668876648,0.7872298359870911,0.25020378828048706
1695712609776563200,32.22756323242187,0.023435799404978752,0.7776424288749695,0.3043990731239319
1695712609786594800,32.2375947265625,-0.03195790946483612,0.7584677338600159,0.44288337230682373
1695712609796626400,32.24762646484375,0.03621896356344223,0.9086698889732361,0.580302357673645
1695712609806657800,32.25765771484375,0.11398320645093918,1.025715708732605,0.6058686971664429
1695712609816689400,32.267689453125,0.13741901516914368,0.9108003973960876,0.5195823311805725
1695712609826721000,32.27772094726563,0.04474107176065445,0.8447540402412415,0.39494648575782776
1695712609836752600,32.28775268554688,-0.1490037590265274,0.9033435583114624,0.21824589371681213
1695712609846784000,32.297783935546875,-0.2864227592945099,1.0342378616333008,0.06697845458984375
1695712609856872200,32.3078720703125,-0.4025365114212036,1.0246504545211792,-0.11624689400196075
1695712609866960400,32.31796044921875,-0.5250418186187744,0.5326318144798279,-0.33555805683135986
1695712609877048600,32.328048583984376,-0.6346307992935181,-0.1351553201675415,-0.4090612530708313
1695712609887076600,32.33807666015625,-0.6623276472091675,-0.4247738718986511,-0.3067959249019623
1695712609897087500,32.34808740234375,-0.5538039207458496,-0.36618438363075256,-0.11731215566396713
1695712609907098400,32.35809838867188,-0.3460775315761566,-0.1712411344051361,0.07337003201246262
1695712609917109500,32.368109619140625,-0.09893636405467987,0.07044056057929993,0.2576606571674347
1695712609927120400,32.37812036132812,0.18748639523983002,0.3218427896499634,0.4013380706310272
1695712609937131300,32.38813134765625,0.5910881757736206,0.4516717791557312,0.47590652108192444
1695712609947142100,32.39814208984375,0.807336688041687,0.378301739692688,0.4631233811378479
1695712609957153300,32.4081533203125,0.6251766085624695,0.0043942127376794815,0.36618438363075256
1695712609967164200,32.4181640625,0.4005391299724579,-0.4737760126590729,0.33422645926475525
1695712609977175000,32.42817504882812,0.15446323156356812,-0.6410223841667175,0.4215780794620514
1695712609987207400,32.43820751953125,0.029827382415533066,-0.504668653011322,0.5813676118850708
1695712609997262800,32.44826293945312,0.05965476483106613,-0.3406180441379547,0.7219824194908142
1695712610007318000,32.45831811523438,0.2354232668876648,-0.21278640627861023,0.8167908787727356
1695712610017373400,32.46837353515625,0.42610546946525574,-0.06804371625185013,0.8784430027008057
1695712610027428600,32.4784287109375,0.5857618451118469,-0.029694223776459694,0.9444893598556519
1695712610037484000,32.488484130859376,0.4877575933933258,-0.08615319430828094,0.8986830115318298
1695712610047539200,32.49853930664062,0.30786117911338806,-0.2553969621658325,0.7486140131950378
1695712610057594600,32.5085947265625,0.188551664352417,-0.4492749273777008,0.5728455185890198
1695712610067649800,32.51864990234375,0.0703074038028717,-0.5430181622505188,0.3779022693634033
1695712610077682200,32.52868212890625,-0.011717899702489376,-0.4865591824054718,0.25020378828048706
1695712610087703000,32.538703125,0.05965476483106613,-0.37577176094055176,0.17457008361816406
1695712610097735400,32.5487353515625,0.09480846673250198,-0.20639483630657196,0.09147951751947403
1695712610107634200,32.55863427734375,0.0564589723944664,0.01504684891551733,0.0786963477730751
1695712610117655300,32.5686552734375,0.05113265663385391,0.10879004746675491,0.0691089779138565
1695712610127704800,32.578704833984375,0.08628635853528976,0.08641951531171799,0.012650005519390106
1695712610137728800,32.58872875976562,0.13741901516914368,0.06937529146671295,-0.03741738572716713
1695712610147762200,32.59876220703125,0.15339796245098114,0.005459476262331009,-0.07683213800191879
1695712610157787100,32.608787109375,0.13422322273254395,-0.06804371625185013,-0.10133320093154907
1695712610167807500,32.61880737304688,0.10652636736631393,-0.08934898674488068,-0.1002679392695427
1695712610177832000,32.62883203125,0.08096003532409668,-0.09361004084348679,-0.08641951531171799
1695712610187882800,32.6388828125,0.066046342253685,-0.11278478801250458,-0.0715058222413063
1695712610197909800,32.64890966796875,0.07563371956348419,-0.1712411344051361,-0.06404897570610046
1695712610207958300,32.65895825195312,0.09161267429590225,-0.3139864504337311,-0.039547912776470184
1695712610217987300,32.6689873046875,0.08202529698610306,-0.44181808829307556,0.003062632866203785
1695712610227995600,32.67899560546875,0.10226531326770782,-0.469514936208725,0.05845634266734123
1695712610238022700,32.68902270507812,0.1459411233663559,-0.4013380706310272,0.10106688737869263
1695712610248082700,32.699082763671875,0.1693769246339798,-0.3470096290111542,0.10852373391389847
1695712610258113300,32.70911328125,0.16831165552139282,-0.3512706756591797,0.09041424840688705
1695712610268142000,32.71914208984375,0.15126743912696838,-0.37577176094055176,0.06271740049123764
1695712610278172400,32.72917236328125,0.09693899005651474,-0.3683148920536041,0.053130023181438446
1695712610288209400,32.73920947265625,0.02769685536623001,-0.2607232630252838,0.04034686088562012
1695712610298240500,32.749240478515624,-0.019174745306372643,-0.07976161688566208,-0.005459476262331009
1695712610308275500,32.759275390625,-0.02876211889088154,0.0949416235089302,-0.07470161467790604
1695712610318306800,32.769306884765626,-0.02876211889088154,0.2227732539176941,-0.15885743498802185
1695712610328338700,32.779338623046876,-0.03515370190143585,0.2792322337627411,-0.24727432429790497
1695712610338370000,32.7893701171875,-0.030892645940184593,0.31012487411499023,-0.30253487825393677
1695712610348394200,32.79939428710937,-0.014913691207766533,0.3314301371574402,-0.3110569715499878
1695712610358425000,32.809425048828125,0.009587372653186321,0.3016027808189392,-0.27057695388793945
1695712610368452900,32.81945288085937,0.038349490612745285,0.23662169277668,-0.2035985141992569
1695712610378483000,32.82948291015625,0.03728422895073891,0.15885743498802185,-0.1332911103963852
1695712610388522000,32.83952197265625,0.011717899702489376,0.059787921607494354,-0.08002793043851852
1695712610398553300,32.84955322265625,-0.03728422895073891,-0.04354264959692955,-0.055526867508888245
1695712610408585200,32.859585205078126,-0.10426267981529236,-0.08189214020967484,-0.0672447681427002
1695712610418616600,32.86961645507812,-0.1543300747871399,-0.016911059617996216,-0.11198583990335464
1695712610428646000,32.87964599609375,-0.16924376785755157,0.09707214683294296,-0.1748363971710205
1695712610438677000,32.889677001953125,-0.15965639054775238,0.24301326274871826,-0.23342590034008026
1695712610448730000,32.89973022460938,-0.140481635928154,0.39734333753585815,-0.2769685387611389
1695712610458763300,32.90976318359375,-0.09680583328008652,0.49108654260635376,-0.2961432933807373
1695712610468774000,32.91977392578125,-0.05219791829586029,0.49641284346580505,-0.2950780391693115
1695712610478804700,32.9298046875,-0.018109481781721115,0.4090612530708313,-0.27909907698631287
1695712610488861400,32.939861328125,0.0021305272821336985,0.2781669795513153,-0.24301326274871826
1695712610498895000,32.94989501953125,0.038349490612745285,0.15246586501598358,-0.17696692049503326
1695712610508924000,32.959923828125,0.04793686419725418,-0.007323687430471182,-0.09707214683294296
1695712610518957000,32.96995703125,0.038349490612745285,-0.19148114323616028,-0.011851058341562748
1695712610528985900,32.97998583984375,0.030892645940184593,-0.3310306668281555,0.08189214020967484
1695712610539018500,32.9900185546875,0.03195790946483612,-0.4066644012928009,0.1628521829843521
1695712610549053700,33.0000537109375,0.03515370190143585,-0.4588623046875,0.20759324729442596
1695712610559086300,33.01008642578125,0.054328445345163345,-0.49934232234954834,0.22144168615341187
1695712610569116700,33.02011669921875,0.06924213469028473,-0.504668653011322,0.22357220947742462
1695712610579149300,33.0301494140625,0.09800425171852112,-0.45566651225090027,0.23102904856204987
1695712610589195500,33.040195556640626,0.13528847694396973,-0.39494648575782776,0.22676800191402435
1695712610599229700,33.05022973632813,0.18535587191581726,-0.3544664680957794,0.1916143000125885
1695712610609252600,33.06025268554688,0.22903168201446533,-0.3352917432785034,0.11811110377311707
1695712610619285500,33.070285400390624,0.25140222907066345,-0.3459443747997284,-0.0011984215816482902
1695712610629319200,33.08031909179687,0.2769685387611389,-0.40453386306762695,-0.16311849653720856
1695712610639352300,33.09035229492188,0.29401275515556335,-0.48975494503974915,-0.32703593373298645
1695712610649385200,33.10038525390625,0.2972085475921631,-0.4641886353492737,-0.433562308549881
1695712610659540700,33.110540771484374,0.28868645429611206,-0.2894853949546814,-0.4751075804233551
1695712610669573600,33.12057373046875,0.2588590681552887,-0.07123950868844986,-0.48256441950798035
1695712610679618800,33.13061889648438,0.2119874656200409,0.11092057824134827,-0.47830337285995483
1695712610689652000,33.14065185546875,0.17150744795799255,0.24301326274871826,-0.4665854871273041
1695712610699684900,33.15068481445312,0.15446323156356812,0.2941459119319916,-0.4474107325077057
1695712610709553000,33.160552978515625,0.15446323156356812,0.29947224259376526,-0.40799596905708313
1695712610719572200,33.170572265625,0.15765902400016785,0.26644906401634216,-0.34088435769081116
1695712610729598700,33.1805986328125,0.1555284857749939,0.20466378331184387,-0.26418536901474
1695712610739618800,33.190618896484374,0.13315795361995697,0.1471395343542099,-0.20146799087524414
1695712610749655600,33.20065551757813,0.09374319761991501,0.10665952414274216,-0.18548902869224548
1695712610759677200,33.21067724609375,0.06072002649307251,0.08748477697372437,-0.2227732539176941
1695712610769759000,33.22075903320312,0.06072002649307251,0.10346373170614243,-0.3004043400287628
1695712610779786800,33.23078686523438,0.08522108942270279,0.17164060473442078,-0.38456016778945923
1695712610789780200,33.2407802734375,0.12889690697193146,0.2792322337627411,-0.442084401845932
1695712610799804400,33.25080444335938,0.1651158630847931,0.3623228073120117,-0.4740423262119293
1695712610809835500,33.26083544921875,0.18109482526779175,0.38043227791786194,-0.4889560043811798
1695712610819860700,33.27086083984375,0.19387798011302948,0.37084490060806274,-0.4793686270713806
1695712610829911300,33.28091137695313,0.20879167318344116,0.3580617308616638,-0.452737033367157
1695712610839939000,33.29093896484375,0.22477063536643982,0.359127014875412,-0.42504018545150757
1695712610850125600,33.30112548828125,0.24074958264827728,0.3399522602558136,-0.43995389342308044
1695712610860167000,33.3111669921875,0.2737727463245392,0.32823434472084045,-0.5017392039299011
1695712610870208500,33.32120849609375,0.33555805683135986,0.32397329807281494,-0.5667202472686768
1695712610880094700,33.3310947265625,0.4101265072822571,0.348474383354187,-0.6061350107192993
1695712610890124300,33.341124267578124,0.47177863121032715,0.348474383354187,-0.6423539519309998
1695712610900154400,33.351154296875,0.527172327041626,0.3442133069038391,-0.6625939607620239
1695712610910184000,33.36118383789063,0.5388902425765991,0.3207775056362152,-0.6828339695930481
1695712610920220000,33.37121997070312,0.4866923391819,0.3079943358898163,-0.7126613855361938
1695712610930250000,33.38125,0.34514543414115906,0.3292996287345886,-0.7797729969024658
1695712610940279000,33.391279052734376,0.22690115869045258,0.3314301371574402,-0.8020103573799133
1695712610950309400,33.40130932617188,0.15872427821159363,0.36019226908683777,-0.7808382511138916
1695712610960345600,33.411345703125,0.14913691580295563,0.4090612530708313,-0.7030739784240723
1695712610970376400,33.42137646484375,0.17257271707057953,0.4090612530708313,-0.6008086800575256
1695712610980404700,33.43140478515625,0.20453062653541565,0.3410175144672394,-0.4857602119445801
1695712610990435000,33.44143505859375,0.22264009714126587,0.31012487411499023,-0.3675159513950348
1695712611000474600,33.451474609375,0.2311622053384781,0.29521119594573975,-0.25566327571868896
1695712611010506000,33.461506103515624,0.1970737725496292,0.2643185555934906,-0.1844237744808197
1695712611020543700,33.471543701171875,0.15126743912696838,0.20679430663585663,-0.12263847887516022
1695712611030575900,33.481575927734376,0.07350318878889084,0.14820480346679688,-0.048070020973682404
1695712611040606700,33.49160668945313,-0.02024000883102417,0.06191844865679741,0.05099949613213539
1695712611050638600,33.501638671875,-0.10106688737869263,-0.06058686971664429,0.14154690504074097
1695712611060659700,33.51165966796875,-0.14793848991394043,-0.15845796465873718,0.21185430884361267
1695712611070690600,33.521690673828125,-0.15646059811115265,-0.2234390527009964,0.24700801074504852
1695712611080737500,33.531737548828126,-0.13195952773094177,-0.2575274705886841,0.23742063343524933
1695712611090770000,33.54177001953125,-0.09254477918148041,-0.280963271856308,0.1873532384634018
1695712611100796000,33.5517958984375,-0.042610544711351395,-0.3033338189125061,0.11278478801250458
1695712611110827800,33.561827880859376,0.013848427683115005,-0.29694223403930664,0.05419528856873512
1695712611120843000,33.571843017578125,0.06391581892967224,-0.27670222520828247,0.017976323142647743
1695712611130873000,33.581873046875,0.10546109825372696,-0.21065588295459747,0.009454214945435524
1695712611140936200,33.591936279296874,0.12889690697193146,-0.08615319430828094,0.009454214945435524
1695712611150969600,33.60196948242187,0.1267663687467575,0.05233107507228851,-0.01504684891551733
1695712611160995800,33.61199584960937,0.10865689069032669,0.21105535328388214,-0.06191844865679741
1695712611171028500,33.622028564453124,0.09480846673250198,0.33249542117118835,-0.1471395343542099
1695712611181070000,33.632070068359376,0.10120004415512085,0.4037349224090576,-0.24194800853729248
1695712611191103700,33.642103759765625,0.12996216118335724,0.4378233551979065,-0.3153180480003357
1695712611201100500,33.6521005859375,0.1597895473241806,0.43995389342308044,-0.3430148959159851
1695712611211130400,33.66213037109375,0.17789903283119202,0.43143177032470703,-0.34514543414115906
1695712611221196300,33.6721962890625,0.188551664352417,0.3687143921852112,-0.3419496417045593
1695712611231229700,33.682229736328125,0.19068218767642975,0.2685796022415161,-0.31212225556373596
1695712611241262800,33.69226293945312,0.18535587191581726,0.1663142889738083,-0.26631590723991394
