time,seconds_elapsed,z,y,x
1696081747235497000,0.0604970703125,-0.2631072998046875,0.6045787334442139,0.029894202947616577
1696081747245497000,0.0704970703125,-0.22889041900634766,0.5344078540802002,0.10786007344722748
1696081747255497000,0.0804970703125,-0.1776580810546875,0.5117137432098389,0.08024607598781586
1696081747265497000,0.0904970703125,-0.03521728515625,0.5341715812683105,0.06198008358478546
1696081747275497000,0.1004970703125,0.04679679870605469,0.5654234886169434,-0.009396925568580627
1696081747285497000,0.1104970703125,0.05918312072753906,0.5665903091430664,-0.07367400825023651
1696081747295497000,0.1204970703125,-0.04119586944580078,0.5187735557556152,-0.07611702382564545
1696081747305497000,0.1304970703125,-0.20479774475097656,0.4815850257873535,-0.01547229290008545
1696081747315497000,0.1404970703125,-0.29372692108154297,0.44812941551208496,0.007378861308097839
1696081747325497000,0.1504970703125,-0.3930025100708008,0.44322800636291504,0.02400048077106476
1696081747335497000,0.1604970703125,-0.43608951568603516,0.4298849105834961,0.03336787223815918
1696081747345497000,0.1704970703125,-0.3872814178466797,0.45171356201171875,0.026249125599861145
1696081747355497000,0.1804970703125,-0.27762317657470703,0.467714786529541,-0.011633738875389099
1696081747365497000,0.1904970703125,-0.06839847564697266,0.47671961784362793,-0.015553399920463562
1696081747375497000,0.2004970703125,0.1237192153930664,0.4650251865386963,-0.015295341610908508
1696081747385497000,0.2104970703125,0.25147342681884766,0.4118027687072754,-0.010416761040687561
1696081747395497000,0.2204970703125,0.18622684478759766,0.3848118782043457,-0.00872078537940979
1696081747405497000,0.2304970703125,0.0051708221435546875,0.3897407054901123,-0.006038829684257507
1696081747415497000,0.2404970703125,-0.24864673614501953,0.3621175289154053,0.006499722599983215
1696081747425497000,0.2504970703125,-0.42049694061279297,0.361771821975708,-0.10305311530828476
1696081747435497000,0.2604970703125,-0.5485830307006836,0.4004671573638916,-0.10586743801832199
1696081747445497000,0.2704970703125,-0.6718664169311523,0.36752915382385254,0.01928308606147766
1696081747455497000,0.2804970703125,-0.6811285018920898,0.32041478157043457,-0.02690538763999939
1696081747465497000,0.2904970703125,-0.553009033203125,0.35141539573669434,-0.08089958131313324
1696081747475497000,0.3004970703125,-0.44324207305908203,0.3649592399597168,-0.06932123005390167
1696081747485497000,0.3104970703125,-0.3347587585449219,0.26219677925109863,-0.0323231965303421
1696081747495497000,0.3204970703125,-0.3508453369140625,0.2673807144165039,0.0025466084480285645
1696081747505497000,0.3304970703125,-0.44207191467285156,0.13471174240112305,0.15230989456176758
1696081747515497000,0.3404970703125,-0.38546085357666016,0.03807973861694336,0.05863982439041138
1696081747525497000,0.3504970703125,-0.2492380142211914,-0.2901277542114258,0.013030290603637695
1696081747535497000,0.3604970703125,0.5081853866577148,-0.7142682075500488,-0.044250503182411194
1696081747545497000,0.3704970703125,-0.11097049713134766,-0.6636378765106201,0.2788422107696533
1696081747555497000,0.3804970703125,-0.8263139724731445,-0.8191499710083008,0.26447367668151855
1696081747565497000,0.3904970703125,-1.510970115661621,-0.35492944717407227,-0.14157062768936157
1696081747575497000,0.4004970703125,-2.0896387100219727,0.0277864933013916,-0.916756272315979
1696081747585497000,0.4104970703125,-1.7165594100952148,-0.3376176357269287,-1.2788712978363037
1696081747595497000,0.4204970703125,-1.781816005706787,-1.2064321041107178,-1.5600249767303467
1696081747605497000,0.4304970703125,-1.4258041381835938,-1.2996761798858643,-1.144327163696289
1696081747615497000,0.4404970703125,-1.6111207008361816,-1.1925721168518066,-0.11038005352020264
1696081747625497000,0.4504970703125,-1.9215116500854492,-1.4868292808532715,-0.16607004404067993
1696081747635497000,0.4604970703125,-1.988196849822998,-1.5101146697998047,-0.9487789869308472
1696081747645497000,0.4704970703125,-1.855057716369629,-1.1240215301513672,-1.2446576356887817
1696081747655497000,0.4804970703125,-1.8088335990905762,-0.9970290660858154,-1.4192004203796387
1696081747665497000,0.4904970703125,-1.7407197952270508,-0.905951976776123,-1.6026129722595215
1696081747675497000,0.5004970703125,-2.009634017944336,-1.0207669734954834,-2.0888123512268066
1696081747685497000,0.5104970703125,-2.514005661010742,-0.6717441082000732,-2.1157281398773193
1696081747695497000,0.5204970703125,-2.3035812377929688,-0.4808831214904785,-1.8231569528579712
1696081747705497000,0.5304970703125,-1.454786777496338,-0.6996426582336426,-1.1396733522415161
1696081747715497000,0.5404970703125,-0.39783334732055664,-1.1380348205566406,-0.6645638942718506
1696081747725497000,0.5504970703125,0.3759918212890625,-1.2063040733337402,-0.6798760890960693
1696081747735497000,0.5604970703125,0.4828529357910156,-1.0240256786346436,-1.0001665353775024
1696081747745497000,0.5704970703125,0.41628551483154297,-0.9534127712249756,-0.9938192367553711
1696081747755497000,0.5804970703125,0.26175403594970703,-0.8140678405761719,-0.41432809829711914
1696081747765497000,0.5904970703125,0.4517812728881836,-0.5518779754638672,0.03447270393371582
1696081747775497000,0.6004970703125,0.5385293960571289,-0.1516246795654297,-0.1050715446472168
1696081747785497000,0.6104970703125,0.4126095771789551,0.18721532821655273,-0.6614711284637451
1696081747795497000,0.6204970703125,0.44339609146118164,0.1897573471069336,-1.3349394798278809
1696081747805497000,0.6304970703125,0.12295913696289062,-0.027509689331054688,-1.6127843856811523
1696081747815497000,0.6404970703125,0.0055751800537109375,-0.04609537124633789,-1.4249897003173828
1696081747825497000,0.6504970703125,0.5060667991638184,-0.3270840644836426,-1.3261210918426514
1696081747835497000,0.6604970703125,0.05092620849609375,-0.2939763069152832,-0.9446310997009277
1696081747845497000,0.6704970703125,-0.21181011199951172,0.09336614608764648,-0.7751903533935547
1696081747855497000,0.6804970703125,-0.5074267387390137,0.3521723747253418,-1.3093504905700684
1696081747865497000,0.6904970703125,1.3371515274047852,-0.7481164932250977,1.466263771057129
1696081747875497000,0.7004970703125,1.4952116012573242,-0.6179447174072266,1.1943254470825195
1696081747885497000,0.7104970703125,1.6303997039794922,-0.5005397796630859,0.9726667404174805
1696081747895496200,0.72049609375,1.3083877563476562,-0.4151120185852051,-1.0179548263549805
1696081747905496000,0.73049609375,0.6996798515319824,-1.280677080154419,-1.4065608978271484
1696081747915496200,0.74049609375,0.2875375747680664,-1.9563555717468262,-1.8000197410583496
1696081747925496000,0.75049609375,-0.1765909194946289,-2.3266162872314453,-2.0175557136535645
1696081747935496200,0.76049609375,-0.7959194183349609,-2.598508358001709,-2.460385799407959
1696081747945496000,0.77049609375,-1.4643831253051758,-3.049278497695923,-2.7474560737609863
1696081747955496000,0.780495849609375,-1.9629569053649902,-4.302209854125977,-2.1341471672058105
1696081747965496000,0.79049609375,-2.655117988586426,-5.637543678283691,-1.5139970779418945
1696081747975496000,0.800495849609375,-3.074455738067627,-6.30381965637207,-1.9799418449401855
1696081747985496000,0.81049609375,-3.796586751937866,-6.341069221496582,-2.9311351776123047
1696081747995495700,0.82049560546875,-4.270682334899902,-6.160393714904785,-3.9479477405548096
1696081748005495800,0.830495849609375,-4.548612594604492,-5.494444370269775,-4.4794769287109375
1696081748015495700,0.84049560546875,-4.916594982147217,-6.038028240203857,-4.912431716918945
1696081748025495800,0.850495849609375,-4.870970726013184,-7.122231483459473,-5.192257881164551
1696081748035495700,0.86049560546875,-4.252250671386719,-7.540501594543457,-5.049945831298828
1696081748045495800,0.870495849609375,-3.8529584407806396,-7.52766752243042,-5.038939476013184
1696081748055495700,0.88049560546875,-3.5343408584594727,-6.970433235168457,-3.6633729934692383
1696081748065495800,0.890495849609375,-3.1772913932800293,-6.0821027755737305,-1.9398140907287598
1696081748075495700,0.90049560546875,-2.783761978149414,-5.479011058807373,-0.1094961166381836
1696081748085495800,0.910495849609375,-2.5736165046691895,-5.5078020095825195,1.7145428657531738
1696081748095495700,0.92049560546875,-2.355543851852417,-5.684000492095947,3.8396458625793457
1696081748105495800,0.930495849609375,-1.7923951148986816,-5.312819004058838,6.233860969543457
1696081748115495700,0.94049560546875,-0.4266176223754883,-3.8810291290283203,8.472902297973633
1696081748125495800,0.950495849609375,2.194131374359131,-2.2822377681732178,10.437321662902832
1696081748135495700,0.96049560546875,5.158236026763916,-1.5690982341766357,11.438440322875977
1696081748145495800,0.970495849609375,7.464118003845215,-2.2735514640808105,11.940210342407227
1696081748155495700,0.98049560546875,8.339309692382812,-3.066740036010742,12.686789512634277
1696081748165495800,0.990495849609375,7.704881191253662,-2.5050876140594482,13.784411430358887
1696081748175495700,1.00049560546875,6.271492958068848,-1.0025372505187988,14.90859603881836
1696081748185495800,1.010495849609375,5.098147392272949,0.34430766105651855,15.48531723022461
1696081748195496400,1.020496337890625,4.633112907409668,0.87674880027771,15.371902465820312
1696081748205496300,1.030496337890625,4.843983173370361,0.7262942790985107,14.949576377868652
1696081748215496400,1.040496337890625,4.8389892578125,0.3988785743713379,14.306589126586914
1696081748225496300,1.050496337890625,4.104426860809326,0.3881359100341797,13.655710220336914
1696081748235496400,1.060496337890625,2.9928719997406006,0.5943350791931152,12.84382152557373
1696081748245496000,1.07049609375,2.3937649726867676,0.706596851348877,11.972766876220703
1696081748255496200,1.08049609375,2.7032039165496826,1.1419878005981445,11.703420639038086
1696081748265496000,1.09049609375,3.0577995777130127,1.1537237167358398,12.023537635803223
1696081748275496200,1.10049609375,1.3419667482376099,1.0426068305969238,11.908872604370117
1696081748285496000,1.11049609375,1.1635431051254272,0.5786027908325195,10.877472877502441
1696081748295496000,1.120495849609375,0.6548833847045898,0.42208337783813477,10.158467292785645
1696081748305496000,1.13049609375,0.5179960131645203,0.2382826805114746,9.315321922302246
1696081748315496000,1.140495849609375,0.40250468254089355,-0.3297605514526367,7.632299423217773
1696081748325496000,1.15049609375,-0.6702181100845337,-0.7786731719970703,5.594485282897949
1696081748335496000,1.160495849609375,-1.72798752784729,-0.5558929443359375,3.5169944763183594
1696081748345496300,1.170496337890625,-2.083636999130249,-0.15128469467163086,1.1341333389282227
1696081748355496400,1.180496337890625,-1.7771170139312744,0.27716922760009766,-0.595301628112793
1696081748365496300,1.190496337890625,-1.0033668279647827,0.5909276008605957,-2.0120162963867188
1696081748375496400,1.200496337890625,-0.028383255004882812,1.0337178707122803,-3.181016445159912
1696081748385496300,1.210496337890625,1.3206517696380615,1.018937349319458,-4.987983226776123
1696081748395497000,1.2204970703125,2.6823346614837646,1.0898313522338867,-7.234537601470947
1696081748405496800,1.230496826171875,3.9974942207336426,1.5609947443008423,-9.570680618286133
1696081748415497000,1.2404970703125,5.164677619934082,2.12693190574646,-11.353859901428223
1696081748425496800,1.250496826171875,6.0209245681762695,2.499969482421875,-12.57199478149414
1696081748435497000,1.2604970703125,6.456606864929199,2.6332902908325195,-13.308004379272461
1696081748445496800,1.270496826171875,6.496123790740967,2.5645816326141357,-13.671481132507324
1696081748455497000,1.2804970703125,6.110149383544922,2.330350160598755,-13.910282135009766
1696081748465496800,1.290496826171875,5.3804731369018555,2.216341257095337,-13.955121994018555
1696081748475497000,1.3004970703125,4.5539374351501465,2.2411015033721924,-13.590081214904785
1696081748485496800,1.310496826171875,4.093201160430908,2.4947879314422607,-12.869553565979004
1696081748495497200,1.320497314453125,3.6962974071502686,1.9947384595870972,-12.252050399780273
1696081748505497000,1.3304970703125,3.2920424938201904,1.4703781604766846,-11.485726356506348
1696081748515497200,1.340497314453125,2.7882027626037598,1.028876543045044,-10.77517318725586
1696081748525497000,1.3504970703125,2.0783681869506836,0.7345496416091919,-9.856258392333984
1696081748535497200,1.360497314453125,1.2627723217010498,0.6362901926040649,-8.93813705444336
1696081748545497600,1.37049755859375,0.3631598949432373,0.5965008735656738,-7.512105464935303
1696081748555497700,1.380497802734375,-0.6437866687774658,0.9015219211578369,-5.876979827880859
1696081748565497900,1.390497802734375,-1.5565884113311768,1.2902923822402954,-4.254367828369141
1696081748575497700,1.400497802734375,-2.48064923286438,1.0922532081604004,-3.387547492980957
1696081748585497900,1.410497802734375,-3.473409414291382,0.7304668426513672,-2.998816967010498
1696081748595498200,1.420498291015625,-4.136254787445068,1.2755358219146729,-0.9593186378479004
1696081748605497900,1.430497802734375,-4.308971405029297,1.4663128852844238,1.856032371520996
1696081748615497700,1.440497802734375,-3.908726453781128,1.4310710430145264,4.497553825378418
1696081748625497900,1.450497802734375,-3.546189069747925,1.4662330150604248,5.945440292358398
1696081748635497700,1.460497802734375,-3.48657488822937,1.5908477306365967,5.832179069519043
1696081748645497300,1.470497314453125,-3.5952327251434326,1.8130903244018555,6.484610557556152
1696081748655497000,1.4804970703125,-4.091072082519531,1.033907413482666,6.547406196594238
1696081748665497000,1.4904970703125,-4.907965660095215,0.7295382022857666,7.611917495727539
1696081748675497000,1.5004970703125,-5.280750751495361,1.1306228637695312,9.003836631774902
1696081748685497000,1.5104970703125,-4.961492538452148,1.5894899368286133,10.263700485229492
1696081748695496400,1.520496337890625,-4.092415809631348,1.9236550331115723,11.645604133605957
1696081748705497300,1.530497314453125,-2.8448610305786133,1.5184526443481445,11.559551239013672
1696081748715497500,1.54049755859375,-1.1968457698822021,1.3411383628845215,11.047361373901367
1696081748725497300,1.550497314453125,-0.8956027030944824,1.2906723022460938,8.655795097351074
1696081748735497500,1.56049755859375,-1.2549049854278564,1.2474980354309082,6.4502973556518555
1696081748745497300,1.570497314453125,-1.219069242477417,1.3031394481658936,4.7434892654418945
1696081748755498500,1.58049853515625,5.697558403015137,-0.08515310287475586,2.3762311935424805
1696081748765498600,1.59049853515625,10.413381576538086,-1.0919439792633057,1.668039321899414
1696081748775498500,1.60049853515625,10.852215766906738,-2.4280004501342773,-0.4091339111328125
1696081748785498600,1.61049853515625,6.031765937805176,-0.2785630226135254,0.8335790634155273
1696081748795498500,1.62049853515625,2.816760778427124,-0.2378249168395996,3.653646469116211
1696081748805498000,1.630498046875,0.9883847236633301,-1.5659973621368408,4.61871337890625
1696081748815498200,1.640498291015625,0.8942339420318604,-2.0415701866149902,4.469356536865234
1696081748825498000,1.650498046875,1.4057492017745972,-1.5524265766143799,2.9524126052856445
1696081748835498200,1.660498291015625,2.125117778778076,-1.282015085220337,-0.34394359588623047
1696081748845498000,1.670498046875,1.831648588180542,2.82419490814209,4.103200912475586
1696081748855498000,1.680498046875,2.4697017669677734,2.7794060707092285,1.9251651763916016
1696081748865498000,1.690498046875,3.682232141494751,2.1588993072509766,2.0138072967529297
1696081748875498000,1.700498046875,3.3275747299194336,2.4049253463745117,3.365584373474121
1696081748885498000,1.710498046875,3.638921022415161,1.7456635236740112,8.273723602294922
1696081748895498000,1.720498046875,1.3490327596664429,-0.3432464599609375,11.527254104614258
1696081748905498400,1.730498291015625,-3.4286255836486816,-0.6730484962463379,11.87389087677002
1696081748915498500,1.74049853515625,-8.589362144470215,-0.19001269340515137,6.305398941040039
1696081748925498000,1.750498046875,-10.508216857910156,-1.3969035148620605,-0.9507255554199219
1696081748935498000,1.760498046875,-9.013785362243652,-1.54255211353302,-8.283609390258789
1696081748945498000,1.770498046875,-6.469305515289307,-1.5864063501358032,-12.157073020935059
1696081748955498500,1.78049853515625,-3.707632541656494,-1.5633834600448608,-11.163583755493164
1696081748965498400,1.790498291015625,-1.375435471534729,-1.156630516052246,-10.594132423400879
1696081748975498500,1.80049853515625,-1.6617013216018677,-0.10938334465026855,-9.614450454711914
1696081748985498600,1.81049853515625,-1.8070317506790161,0.669157087802887,-10.041790008544922
1696081748995498500,1.82049853515625,-1.9990835189819336,1.4122759103775024,-10.629190444946289
1696081749005497600,1.83049755859375,-1.2883129119873047,0.763451337814331,-9.689702987670898
1696081749015497700,1.840497802734375,-1.2154910564422607,0.8377578258514404,-9.462079048156738
1696081749025497600,1.85049755859375,-1.0679233074188232,1.501645803451538,-9.33804988861084
1696081749035497700,1.860497802734375,-0.43643707036972046,1.6760495901107788,-10.097090721130371
1696081749049309000,1.874308837890625,0.06263560056686401,1.506566047668457,-10.21890640258789
1696081749059307800,1.884307861328125,0.7843120098114014,1.2260618209838867,-11.029102325439453
1696081749069307600,1.8943076171875,-0.0325319766998291,0.919977068901062,-12.521461486816406
1696081749079307800,1.904307861328125,-0.2364262342453003,-1.170363187789917,-11.88587474822998
1696081749089307600,1.9143076171875,0.8386101722717285,-2.9815475940704346,-10.595645904541016
1696081749099308000,1.92430810546875,2.001311779022217,-5.059394836425781,-6.567160129547119
1696081749109308400,1.934308349609375,2.3615479469299316,-7.008056163787842,-1.0932354927062988
1696081749119308300,1.944308349609375,1.4852527379989624,-7.854462623596191,4.622509956359863
1696081749129308200,1.95430810546875,0.7766467332839966,-8.647918701171875,7.824155807495117
1696081749139308300,1.964308349609375,1.795640468597412,-10.308780670166016,10.517372131347656
1696081749149308200,1.97430810546875,4.258100509643555,-12.182930946350098,12.421674728393555
1696081749159308300,1.984308349609375,5.86695671081543,-13.68270492553711,13.316988945007324
1696081749169308200,1.99430810546875,8.255592346191406,-13.28024673461914,14.395023345947266
1696081749179308000,2.00430810546875,8.414902687072754,-8.641855239868164,12.989385604858398
1696081749189308000,2.014307861328125,7.142066955566406,-4.0878005027771,8.43227767944336
1696081749199308000,2.02430810546875,5.482233047485352,-0.49652910232543945,3.4955387115478516
1696081749209308000,2.034307861328125,2.889774799346924,1.5148110389709473,0.3690524101257324
1696081749219308000,2.04430810546875,1.5684880018234253,1.1442675590515137,-1.0898499488830566
1696081749229308400,2.054308349609375,0.3075147867202759,0.5763602256774902,-1.639814853668213
1696081749239308300,2.064308349609375,-1.6910145282745361,0.20526361465454102,-2.0641398429870605
1696081749249308400,2.074308349609375,-3.646780490875244,0.11486577987670898,-1.7864694595336914
1696081749259308300,2.084308349609375,-4.90766716003418,0.41282033920288086,-1.6337714195251465
1696081749269308400,2.094308349609375,-5.268841743469238,0.8678369522094727,-1.4266352653503418
1696081749279308300,2.104308349609375,-4.97170352935791,1.6232185363769531,-0.7464237213134766
1696081749289308200,2.11430810546875,-4.384952545166016,2.3598580360412598,0.09634733200073242
1696081749299308300,2.124308349609375,-2.9322640895843506,3.194977283477783,0.6219286918640137
1696081749309308200,2.13430810546875,-1.131373643875122,3.392932891845703,0.5662746429443359
1696081749319308300,2.144308349609375,0.6414986848831177,3.0540013313293457,0.18741369247436523
1696081749329308200,2.15430810546875,2.6868033409118652,1.9595308303833008,-0.44087839126586914
1696081749339308300,2.164308349609375,4.685426235198975,0.8652286529541016,-0.7849597930908203
1696081749349308200,2.17430810546875,4.676509857177734,0.5649313926696777,-0.9695672988891602
1696081749359308300,2.184308349609375,3.1031641960144043,0.3014669418334961,-1.4878931045532227
1696081749369308200,2.19430810546875,1.0256502628326416,-0.38101768493652344,-1.2560265064239502
1696081749379308300,2.204308349609375,0.03605151176452637,1.0377211570739746,0.3259434700012207
1696081749389308200,2.21430810546875,0.42676806449890137,2.550340175628662,0.13745546340942383
1696081749399308000,2.22430810546875,0.6085436344146729,2.9230637550354004,-0.4750223159790039
1696081749409308200,2.23430810546875,0.42376708984375,2.4377832412719727,-0.019596576690673828
1696081749419308000,2.24430810546875,-0.39296621084213257,2.475414752960205,0.43669986724853516
1696081749429308200,2.25430810546875,-2.0105276107788086,2.9824419021606445,0.24445056915283203
1696081749439308000,2.26430810546875,-0.8057454824447632,3.923922061920166,-0.13096952438354492
1696081749449308200,2.27430810546875,-1.3697102069854736,2.4629268646240234,1.8340692520141602
1696081749459307800,2.284307861328125,-2.1357860565185547,3.0943193435668945,0.6145884990692139
1696081749469308000,2.294307861328125,-2.711965560913086,3.345702648162842,-0.45453691482543945
1696081749479308000,2.30430810546875,-2.6949172019958496,3.817629814147949,-1.0993247032165527
1696081749489308200,2.31430810546875,-2.1061863899230957,4.081174850463867,-1.6683599948883057
1696081749499308000,2.32430810546875,-1.5869570970535278,4.270727634429932,-1.9972647428512573
1696081749509308200,2.33430810546875,-2.1276891231536865,4.1671648025512695,-2.2847588062286377
1696081749519308000,2.34430810546875,-3.7079429626464844,3.9199962615966797,-2.1680402755737305
1696081749529308200,2.35430810546875,-2.9050891399383545,3.401897430419922,-1.7871007919311523
1696081749539308000,2.36430810546875,-0.8714221715927124,0.087860107421875,2.050240993499756
1696081749549308200,2.37430810546875,-0.3746722340583801,-3.989680290222168,5.1065473556518555
1696081749559308000,2.38430810546875,-1.172338843345642,-6.201167106628418,4.329358100891113
1696081749569308200,2.39430810546875,2.0243349075317383,-10.31519889831543,1.4830899238586426
1696081749579307800,2.404307861328125,4.205818176269531,-15.368877410888672,0.19058847427368164
1696081749589308000,2.414307861328125,5.293152809143066,-15.587922096252441,2.079810619354248
1696081749599307800,2.424307861328125,3.125401735305786,-10.433244705200195,5.945719242095947
1696081749609308000,2.434307861328125,0.8775246143341064,-5.480051040649414,6.544135093688965
1696081749619307800,2.444307861328125,-0.1476442813873291,-2.2597999572753906,6.084902763366699
1696081749629308000,2.454307861328125,-0.6446415185928345,-1.6572484970092773,4.188941478729248
1696081749639307800,2.464307861328125,-0.2384343147277832,-0.27532482147216797,2.6193833351135254
1696081749649308000,2.474307861328125,-0.7699694037437439,-0.31361961364746094,0.5160702466964722
1696081749659307800,2.484307861328125,-1.9058465957641602,-0.6338691711425781,-0.7648153305053711
1696081749669308000,2.494307861328125,-2.0731732845306396,-0.8560924530029297,-1.607477068901062
1696081749679307800,2.504307861328125,-2.3464696407318115,-1.1960620880126953,-2.615635871887207
1696081749689308000,2.514307861328125,-1.2102092504501343,-2.001894950866699,-4.618961334228516
1696081749699307800,2.524307861328125,-0.2354242205619812,-0.7867660522460938,-5.661124229431152
1696081749709308000,2.534307861328125,-0.2591478228569031,1.1348199844360352,-5.593132495880127
1696081749719307800,2.544307861328125,0.0002110898494720459,2.37855863571167,-5.241279125213623
1696081749729308000,2.554307861328125,0.6817468404769897,2.8458971977233887,-4.875010013580322
1696081749739308500,2.56430859375,1.645055890083313,2.906805992126465,-4.170246601104736
1696081749749308400,2.574308349609375,2.6405627727508545,2.7430405616760254,-2.9627764225006104
1696081749759308800,2.584308837890625,3.3661341667175293,2.181766986846924,-1.9558582305908203
1696081749769308700,2.59430859375,4.206018924713135,1.4468564987182617,-0.5160367488861084
1696081749779308800,2.604308837890625,3.5133824348449707,0.6814413070678711,-1.4385223388671875
1696081749789308700,2.61430859375,2.027343273162842,0.49510860443115234,-2.3386635780334473
1696081749799308800,2.624308837890625,0.4967273771762848,0.3373756408691406,-2.238370418548584
1696081749809308700,2.63430859375,-0.7586824893951416,0.42027854919433594,-1.6927525997161865
1696081749819308800,2.644308837890625,-1.509636402130127,0.35549354553222656,-1.1664698123931885
1696081749829308700,2.65430859375,-1.9120004177093506,0.36963653564453125,-0.6892895102500916
1696081749839308800,2.664308837890625,-2.192713975906372,0.32782745361328125,-0.4119243025779724
1696081749849308700,2.67430859375,-2.806988477706909,0.12420845031738281,0.010468840599060059
1696081749859308800,2.684308837890625,-2.46842885017395,-0.14492511749267578,0.6005057096481323
1696081749869308700,2.69430859375,-1.0683064460754395,-0.39394664764404297,1.231258511543274
1696081749879309000,2.70430908203125,0.4986726641654968,-0.12685108184814453,2.210489511489868
1696081749889309000,2.714308837890625,1.767488956451416,-0.007912635803222656,2.8850231170654297
1696081749899309000,2.72430908203125,2.5715243816375732,0.026648521423339844,3.14677095413208
1696081749909309000,2.734308837890625,2.3990979194641113,-0.6448764801025391,3.3705191612243652
1696081749919309000,2.74430908203125,0.9789860248565674,-0.5709123611450195,4.232596397399902
1696081749929309000,2.754308837890625,0.08834993839263916,-0.4443187713623047,5.194003105163574
1696081749939309000,2.76430908203125,-0.034275561571121216,-0.2365550994873047,5.528553485870361
1696081749949309000,2.774308837890625,0.14144307374954224,0.036212921142578125,5.569767951965332
1696081749959309000,2.78430908203125,0.839468240737915,0.2514057159423828,5.272710800170898
1696081749969309200,2.79430908203125,1.3655858039855957,0.31580066680908203,4.419449806213379
1696081749979309000,2.80430908203125,1.483646273612976,0.28530406951904297,3.14536190032959
1696081749989309200,2.81430908203125,1.3089931011199951,0.24705219268798828,1.8633534908294678
1696081749999309000,2.82430908203125,0.8747800588607788,0.19914722442626953,0.790755569934845
1696081750009309200,2.83430908203125,0.3335753083229065,0.14173412322998047,-0.10573917627334595
1696081750019309000,2.84430908203125,-0.12582260370254517,0.1034688949584961,-0.831142783164978
1696081750029309000,2.854308837890625,-0.46009349822998047,0.036449432373046875,-1.267200231552124
1696081750039308300,2.864308349609375,-0.46645110845565796,0.03412818908691406,-1.2933484315872192
1696081750049308400,2.874308349609375,-0.4248124361038208,-0.025437355041503906,-1.48664128780365
1696081750059308300,2.884308349609375,-0.15011560916900635,-0.020357131958007812,-1.1797194480895996
1696081750069308400,2.894308349609375,0.14159327745437622,0.028631210327148438,-0.6637142896652222
1696081750079308300,2.904308349609375,0.4056990146636963,0.078094482421875,-0.16288012266159058
1696081750089308400,2.914308349609375,0.6682645678520203,0.10871028900146484,0.23376572132110596
1696081750099308300,2.924308349609375,0.8265504240989685,0.11087608337402344,0.6465601921081543
1696081750109308400,2.934308349609375,0.8504736423492432,0.14195632934570312,1.0023256540298462
1696081750119308300,2.944308349609375,0.8435754179954529,0.19695377349853516,1.1363074779510498
1696081750129308400,2.954308349609375,0.8182464838027954,0.3163881301879883,1.1549561023712158
1696081750139308300,2.964308349609375,0.7363849878311157,0.4283781051635742,1.007387399673462
1696081750149308400,2.974308349609375,0.5910657048225403,0.42520999908447266,0.7995684146881104
1696081750159308300,2.984308349609375,0.47823262214660645,0.3356437683105469,0.5702036619186401
1696081750169308400,2.994308349609375,0.41032007336616516,0.22678756713867188,0.32483720779418945
1696081750179308300,3.004308349609375,0.33025863766670227,0.20405292510986328,0.10779166221618652
1696081750189308400,3.014308349609375,0.3102138042449951,0.19336223602294922,-0.01025235652923584
1696081750199308300,3.024308349609375,0.34402599930763245,0.22352027893066406,-0.006641507148742676
1696081750209308400,3.034308349609375,0.4536047577857971,0.28726768493652344,-0.10208737850189209
1696081750219308300,3.044308349609375,0.5429965853691101,0.24561786651611328,-0.08450424671173096
1696081750229308400,3.054308349609375,0.5462809801101685,0.2448558807373047,-0.08942937850952148
1696081750239308000,3.06430810546875,0.6136797666549683,-0.0048274993896484375,0.02362072467803955
1696081750249308000,3.074307861328125,0.6543698310852051,0.00888824462890625,0.01221013069152832
1696081750259308000,3.08430810546875,0.6904467940330505,0.13277435302734375,0.041852712631225586
1696081750269308000,3.094307861328125,0.7296162843704224,0.26386260986328125,0.012265443801879883
1696081750279307800,3.104307861328125,0.7819657921791077,0.2991752624511719,-0.06215047836303711
1696081750289308000,3.114307861328125,0.9021468758583069,0.23632240295410156,-0.0643237829208374
1696081750299307800,3.124307861328125,0.9963585138320923,0.12322807312011719,0.010666251182556152
1696081750309308000,3.134307861328125,0.9970575571060181,0.09396648406982422,0.10028445720672607
1696081750319307800,3.144307861328125,0.9184035658836365,0.17253494262695312,0.23603546619415283
1696081750329308000,3.154307861328125,0.9272809028625488,0.2513160705566406,0.39918577671051025
1696081750339307800,3.164307861328125,0.885040283203125,0.29669189453125,0.5318775177001953
1696081750349308000,3.174307861328125,0.387827068567276,0.3440666198730469,0.48432230949401855
1696081750359307800,3.184307861328125,0.15965625643730164,0.40792179107666016,0.39776408672332764
1696081750369308000,3.194307861328125,-0.018642231822013855,0.4525871276855469,0.46521079540252686
1696081750379307800,3.204307861328125,-0.14217935502529144,0.45573997497558594,0.645408034324646
1696081750389308000,3.214307861328125,-0.2666935920715332,0.44475650787353516,0.7843948602676392
1696081750399307800,3.224307861328125,-0.3017618954181671,0.5037422180175781,0.7794665098190308
1696081750409308000,3.234307861328125,-0.33240824937820435,0.5883636474609375,0.6698468923568726
1696081750419307800,3.244307861328125,-0.3815256953239441,0.7159624099731445,0.4530731439590454
1696081750429308000,3.254307861328125,-0.4486086666584015,0.7793827056884766,0.3405725955963135
1696081750439308000,3.26430810546875,-0.5766740441322327,0.8736152648925781,0.1943349838256836
1696081750449308000,3.274307861328125,-0.6377370357513428,0.9909076690673828,0.02317333221435547
1696081750459308000,3.28430810546875,-0.6414458155632019,0.9387388229370117,-0.04468846321105957
1696081750469308000,3.294307861328125,-0.6175905466079712,0.5523309707641602,0.10811746120452881
1696081750479308000,3.30430810546875,-0.66279137134552,0.05900764465332031,0.35681378841400146
1696081750489308200,3.31430810546875,-0.9327232837677002,-0.2496013641357422,0.5265780687332153
1696081750499308000,3.32430810546875,-1.2878456115722656,-0.3315696716308594,0.6801525354385376
1696081750509308200,3.33430810546875,-1.604715347290039,-0.15011215209960938,0.8703019618988037
1696081750519308000,3.34430810546875,-1.7675893306732178,0.23448562622070312,1.0044060945510864
1696081750529308200,3.35430810546875,-1.7316703796386719,0.4722414016723633,1.1573920249938965
1696081750539308500,3.36430859375,-1.5031574964523315,0.44315624237060547,1.1987049579620361
1696081750549308400,3.374308349609375,-1.3008744716644287,0.2689552307128906,0.9678767919540405
1696081750559308500,3.38430859375,-1.0002450942993164,0.12157726287841797,0.41890525817871094
1696081750569308400,3.394308349609375,-0.49470144510269165,0.2381887435913086,-0.3345813751220703
1696081750579308500,3.40430859375,0.06072548031806946,0.5189332962036133,-1.0220987796783447
1696081750589308400,3.414308349609375,0.5166130661964417,0.5827960968017578,-1.3973912000656128
1696081750599308500,3.42430859375,0.8707989454269409,0.5009651184082031,-1.6279083490371704
1696081750609308400,3.434308349609375,0.9543436169624329,0.3600349426269531,-1.5714924335479736
1696081750619308500,3.44430859375,0.694743275642395,0.1227569580078125,-1.0568268299102783
1696081750629308400,3.454308349609375,0.38165128231048584,0.05497550964355469,-0.6961649656295776
1696081750639308500,3.46430859375,0.3275192379951477,0.09319019317626953,-0.48992133140563965
1696081750649308400,3.474308349609375,0.5678008794784546,-0.07684516906738281,0.03546905517578125
1696081750659308500,3.48430859375,1.0609402656555176,-0.11043167114257812,0.5293422937393188
1696081750669308400,3.494308349609375,1.3136883974075317,0.20287609100341797,1.1017942428588867
1696081750679308500,3.50430859375,1.1289594173431396,0.7841224670410156,1.5471076965332031
1696081750689308400,3.514308349609375,0.5615233182907104,1.0300321578979492,2.097053050994873
1696081750699308500,3.52430859375,0.1947229504585266,0.9047098159790039,2.6614670753479004
1696081750709308400,3.534308349609375,-0.0008689165115356445,0.7282485961914062,2.9321160316467285
1696081750719308500,3.54430859375,-0.09286254644393921,0.5527734756469727,2.8592662811279297
1696081750729308400,3.554308349609375,-0.08708113431930542,0.5432291030883789,2.592390537261963
1696081750739308500,3.56430859375,-0.09170657396316528,0.6396923065185547,2.270092487335205
1696081750749308400,3.574308349609375,-0.06837183237075806,0.7966775894165039,1.88418447971344
1696081750759308500,3.58430859375,0.0016865730285644531,0.9041738510131836,1.6231609582901
1696081750769308400,3.594308349609375,0.17421883344650269,0.8379859924316406,1.5502979755401611
1696081750779308300,3.604308349609375,0.5195704698562622,0.6700868606567383,1.4652931690216064
1696081750789308400,3.614308349609375,1.0534192323684692,0.4412269592285156,1.2353464365005493
1696081750799308300,3.624308349609375,1.7667216062545776,0.20653820037841797,0.7720142602920532
1696081750809308400,3.634308349609375,2.5353734493255615,-0.01679706573486328,0.1796656847000122
1696081750819308300,3.644308349609375,3.225327491760254,-0.2876310348510742,-0.4356440305709839
1696081750829308400,3.654308349609375,3.480015754699707,-0.6225881576538086,-0.9407021403312683
1696081750839308300,3.664308349609375,3.3128933906555176,-0.936614990234375,-1.123920202255249
1696081750849308400,3.674308349609375,2.9334139823913574,-1.1435461044311523,-1.1338727474212646
1696081750859308300,3.684308349609375,2.4918861389160156,-1.3931493759155273,-0.9374597072601318
1696081750869308400,3.694308349609375,1.9393494129180908,-1.910573959350586,-0.4073401689529419
1696081750879308300,3.704308349609375,1.4740043878555298,-2.4183578491210938,0.3944823741912842
1696081750889308400,3.714308349609375,1.1392911672592163,-2.933683395385742,1.3703691959381104
1696081750899308300,3.724308349609375,0.9669608473777771,-3.3370113372802734,2.3768672943115234
1696081750909308400,3.734308349609375,1.077237606048584,-3.583136558532715,3.2576651573181152
1696081750919308300,3.744308349609375,1.5381486415863037,-3.7039661407470703,4.02439546585083
1696081750929308400,3.754308349609375,2.534968137741089,-3.4230709075927734,4.378307342529297
1696081750939308300,3.764308349609375,4.078075408935547,-2.645963668823242,4.210058689117432
1696081750949308400,3.774308349609375,5.223515510559082,-1.9950637817382812,4.066945552825928
1696081750959308300,3.784308349609375,5.5307698249816895,-2.0956363677978516,4.425750255584717
1696081750969308400,3.794308349609375,4.706356048583984,-2.4589920043945312,4.836334228515625
1696081750979308300,3.804308349609375,3.7821035385131836,-2.461564064025879,4.773751258850098
1696081750989308400,3.814308349609375,3.4859049320220947,-2.066178321838379,4.363826751708984
1696081750999308300,3.824308349609375,3.88016414642334,-1.60772705078125,3.9463448524475098
1696081751009308400,3.834308349609375,4.461226940155029,-1.1528396606445312,3.468722105026245
1696081751019308300,3.844308349609375,4.813056468963623,-0.5898303985595703,2.6955018043518066
1696081751029308400,3.854308349609375,4.890760898590088,-0.009983062744140625,1.6588561534881592
1696081751039308300,3.864308349609375,4.600433826446533,0.38054656982421875,0.2693023681640625
1696081751049308400,3.874308349609375,3.6254701614379883,0.23604488372802734,-0.9685752987861633
1696081751059308300,3.884308349609375,2.11673641204834,-0.559544563293457,-1.7990410327911377
1696081751069308400,3.894308349609375,0.3228309154510498,-1.5336170196533203,-2.277376413345337
1696081751079308300,3.904308349609375,-1.200671911239624,-2.7048234939575195,-2.041537284851074
1696081751089308400,3.914308349609375,-2.536562204360962,-3.8762893676757812,-1.5267753601074219
1696081751099308300,3.924308349609375,-4.278087615966797,-4.470300674438477,-1.056103229522705
1696081751109308400,3.934308349609375,-5.756546974182129,-4.209693908691406,-0.8464236259460449
1696081751119308300,3.944308349609375,-7.029069423675537,-3.800281524658203,-0.7542397975921631
1696081751129308400,3.954308349609375,-7.2282023429870605,-3.3075666427612305,-0.5273681879043579
1696081751139308300,3.964308349609375,-5.686044692993164,-2.952455520629883,0.7273921966552734
1696081751149308400,3.974308349609375,-2.5731167793273926,-2.7264490127563477,1.6409976482391357
1696081751159308300,3.984308349609375,0.3630942106246948,-2.529829978942871,2.300602674484253
1696081751169308400,3.994308349609375,2.0766427516937256,-2.261378288269043,2.2513539791107178
1696081751179308300,4.004308349609375,1.9325764179229736,-1.883096694946289,1.8646962642669678
1696081751189308400,4.014308349609375,0.07527625560760498,-1.3829545974731445,0.798551082611084
1696081751199308300,4.024308349609375,-1.8990814685821533,-1.0537481307983398,-0.5165011882781982
1696081751209308400,4.034308349609375,-3.0153088569641113,-0.5770130157470703,-1.6841912269592285
1696081751219308300,4.044308349609375,-3.4444358348846436,-0.174530029296875,-2.8814430236816406
1696081751229308400,4.054308349609375,-3.0246410369873047,0.22708797454833984,-3.909233808517456
1696081751239308300,4.064308349609375,-2.6817712783813477,0.699127197265625,-4.497522830963135
1696081751249308400,4.074308349609375,-2.7340543270111084,1.338242530822754,-4.54951810836792
1696081751259308300,4.084308349609375,-3.1808860301971436,1.8377904891967773,-4.57941198348999
1696081751269308400,4.094308349609375,-3.6000688076019287,2.212681293487549,-4.762514591217041
1696081751279308300,4.104308349609375,-3.8275742530822754,2.3068723678588867,-4.826481819152832
1696081751289308400,4.114308349609375,-3.842766523361206,2.1726255416870117,-4.819460391998291
1696081751299308300,4.124308349609375,-3.935830593109131,1.857645034790039,-4.988980770111084
1696081751309308400,4.134308349609375,-3.9467086791992188,1.4631471633911133,-4.84745979309082
1696081751319308300,4.144308349609375,-3.9266982078552246,1.158200740814209,-4.647479057312012
1696081751329308400,4.154308349609375,-3.893685817718506,0.9435257911682129,-4.355429649353027
1696081751339308300,4.164308349609375,-3.8930270671844482,0.9427056312561035,-4.294407367706299
1696081751349308400,4.174308349609375,-4.028713226318359,1.0751686096191406,-4.449731349945068
1696081751359308300,4.184308349609375,-4.199649810791016,1.391873836517334,-4.9522199630737305
1696081751369308400,4.194308349609375,-4.3973870277404785,1.779249668121338,-5.398914813995361
1696081751379308300,4.204308349609375,-4.46079683303833,2.1889729499816895,-5.811296463012695
1696081751389308400,4.214308349609375,-4.323266506195068,2.622359275817871,-6.158334732055664
1696081751399308300,4.224308349609375,-3.961540937423706,3.068009376525879,-6.43933629989624
1696081751409308400,4.234308349609375,-3.2095062732696533,3.5456342697143555,-6.786905288696289
1696081751419308300,4.244308349609375,-2.1764047145843506,3.7341256141662598,-6.817296028137207
1696081751429308400,4.254308349609375,-1.295325517654419,3.47560453414917,-5.660614013671875
1696081751439308300,4.264308349609375,-0.6577310562133789,3.135118007659912,-3.0997588634490967
1696081751449308400,4.274308349609375,0.2046222686767578,2.7954788208007812,-0.13088226318359375
1696081751459308300,4.284308349609375,2.1785686016082764,2.143993854522705,2.833282470703125
1696081751469308400,4.294308349609375,5.651821136474609,0.9006867408752441,6.311920166015625
1696081751479308500,4.30430859375,7.9505157470703125,-0.860173225402832,9.217729568481445
1696081751489308400,4.314308349609375,8.370018005371094,-2.918642997741699,10.133316040039062
1696081751499308500,4.32430859375,8.677253723144531,-4.992119789123535,10.431215286254883
1696081751509308400,4.334308349609375,8.939373016357422,-6.9503326416015625,10.690825462341309
1696081751519308300,4.344308349609375,7.949932098388672,-8.075810432434082,9.861973762512207
1696081751529308400,4.354308349609375,5.361077308654785,-6.681299209594727,6.227879524230957
1696081751539308300,4.364308349609375,3.483576774597168,-2.706997871398926,1.3544857501983643
1696081751549308400,4.374308349609375,2.550806999206543,1.3120765686035156,-1.1015996932983398
1696081751559308300,4.384308349609375,1.8697314262390137,4.316107749938965,-3.271630048751831
1696081751569308400,4.394308349609375,0.2606968879699707,4.00844144821167,-5.637988090515137
1696081751579308300,4.404308349609375,-0.8984248638153076,0.9484529495239258,-7.558633804321289
1696081751589308400,4.414308349609375,-0.42175722122192383,-2.471057891845703,-9.262155532836914
1696081751599308800,4.424308837890625,-1.6319950819015503,-5.266928672790527,-10.014616012573242
1696081751609309000,4.434308837890625,-2.1334943771362305,-7.213445663452148,-8.974072456359863
1696081751619308800,4.444308837890625,-1.6666960716247559,-7.795632362365723,-4.661733150482178
1696081751629309000,4.454308837890625,-4.886084079742432,-5.036262512207031,-1.9031457901000977
1696081751639308800,4.464308837890625,-5.783564567565918,-1.4088611602783203,-1.5219471454620361
1696081751649309000,4.474308837890625,-4.646602630615234,1.7253122329711914,-1.6198132038116455
1696081751659308800,4.484308837890625,-5.047111511230469,3.6400723457336426,-1.3965213298797607
1696081751669309000,4.494308837890625,-7.528819561004639,3.0716824531555176,-0.7374086380004883
1696081751679308800,4.504308837890625,-8.53171157836914,1.1223759651184082,-0.7190802097320557
1696081751689309000,4.514308837890625,-7.646442413330078,-0.7096233367919922,-1.3071095943450928
1696081751699308800,4.524308837890625,-6.767550468444824,-2.0584774017333984,-2.045799732208252
1696081751709309000,4.534308837890625,-6.309108734130859,-2.9864330291748047,-2.567246437072754
1696081751719308800,4.544308837890625,-6.22506046295166,-3.4117698669433594,-2.4534077644348145
1696081751729309000,4.554308837890625,-6.286569595336914,-3.449512481689453,-2.1002674102783203
1696081751739308800,4.564308837890625,-6.306703567504883,-3.0381174087524414,-1.831414818763733
1696081751749309000,4.574308837890625,-5.827096939086914,-2.2877235412597656,-1.6525235176086426
1696081751759308800,4.584308837890625,-3.9749813079833984,-1.2567949295043945,-1.5554864406585693
1696081751769308700,4.59430859375,-1.4558472633361816,-0.2583932876586914,-1.2984387874603271
1696081751779308800,4.604308837890625,0.32104456424713135,0.39900684356689453,-1.1593780517578125
1696081751789308700,4.61430859375,1.0233560800552368,0.6227340698242188,-1.1705875396728516
1696081751799308800,4.624308837890625,0.8850703239440918,0.6451616287231445,-1.1752572059631348
1696081751809308700,4.63430859375,0.440731406211853,0.5105009078979492,-1.0641186237335205
1696081751819308800,4.644308837890625,-0.09867322444915771,0.3667726516723633,-0.894240140914917
1696081751829308700,4.65430859375,-0.5497844815254211,0.4559440612792969,-0.8207588195800781
1696081751839308800,4.664308837890625,-1.0492534637451172,0.6983041763305664,-1.0055489540100098
1696081751849308700,4.67430859375,-1.1055827140808105,0.920130729675293,-1.1793687343597412
1696081751859308800,4.684308837890625,-0.9651180505752563,1.102004051208496,-1.19991934299469
1696081751869308700,4.69430859375,-0.9488275051116943,1.1545286178588867,-1.1583857536315918
1696081751879308800,4.704308837890625,-1.1068962812423706,1.0822458267211914,-1.129666805267334
1696081751889308700,4.71430859375,-1.2675154209136963,1.007237434387207,-0.8240582942962646
1696081751899308300,4.724308349609375,-1.373661756515503,1.0159378051757812,-0.6916482448577881
1696081751909308200,4.73430810546875,-1.4818533658981323,1.134718894958496,-0.4793281555175781
1696081751919308300,4.744308349609375,-1.3154507875442505,1.318985939025879,0.05740499496459961
1696081751929308200,4.75430810546875,-0.9760111570358276,1.4859647750854492,0.5747461318969727
1696081751939308300,4.764308349609375,-0.3148333430290222,1.2691535949707031,0.9257473945617676
1696081751949308200,4.77430810546875,0.5690411329269409,0.6158647537231445,1.302673101425171
1696081751959308300,4.784308349609375,1.2758454084396362,-0.2129383087158203,1.666125774383545
1696081751969308400,4.794308349609375,1.4088438749313354,-0.6522960662841797,1.7754852771759033
1696081751979308300,4.804308349609375,1.3752562999725342,-0.736058235168457,1.630554437637329
1696081751989308400,4.814308349609375,0.6729724407196045,-0.3372154235839844,1.208981990814209
1696081751999308300,4.824308349609375,0.1627330183982849,0.05659008026123047,0.6971755027770996
1696081752009308400,4.834308349609375,0.38605359196662903,0.2630167007446289,0.06223571300506592
1696081752019308300,4.844308349609375,1.2696950435638428,0.18023014068603516,-0.4360560178756714
1696081752029308200,4.85430810546875,2.544759511947632,-0.20540142059326172,-0.6204546689987183
1696081752039308300,4.864308349609375,3.743525743484497,-0.6138086318969727,-0.49882423877716064
1696081752049308200,4.87430810546875,4.535856246948242,-1.10009765625,0.052541494369506836
1696081752059308300,4.884308349609375,4.724513530731201,-1.419285774230957,1.0329943895339966
1696081752069308200,4.89430810546875,4.3314290046691895,-1.3088951110839844,1.9623956680297852
1696081752079308300,4.904308349609375,3.177945613861084,-0.8323001861572266,2.6398072242736816
1696081752089308200,4.91430810546875,2.0042076110839844,-0.43661975860595703,3.227067470550537
1696081752099308300,4.924308349609375,0.9270352721214294,-0.36405181884765625,3.9338815212249756
1696081752109308200,4.93430810546875,0.20453143119812012,-0.5076923370361328,4.8001203536987305
1696081752119308300,4.944308349609375,0.004023909568786621,-0.7968568801879883,5.670555114746094
1696081752129308200,4.95430810546875,0.23749393224716187,-1.1945667266845703,6.5228190422058105
1696081752139308300,4.964308349609375,1.1119019985198975,-1.4367876052856445,7.030228614807129
1696081752149308200,4.97430810546875,2.5212130546569824,-1.3431625366210938,6.7760138511657715
1696081752159308300,4.984308349609375,3.7780776023864746,-1.3568906784057617,6.303195476531982
1696081752169308200,4.99430810546875,4.305884838104248,-1.7584924697875977,6.039084434509277
1696081752179308300,5.004308349609375,4.1938862800598145,-2.138050079345703,5.753913879394531
1696081752189308200,5.01430810546875,3.839540958404541,-2.4822998046875,5.44327449798584
1696081752199308300,5.024308349609375,3.991147518157959,-3.0004005432128906,4.843314170837402
1696081752209308200,5.03430810546875,4.768066883087158,-3.0122814178466797,3.646984577178955
1696081752219308300,5.044308349609375,5.386836051940918,-2.4981918334960938,2.1864137649536133
1696081752229308400,5.054308349609375,4.775702476501465,-2.201645851135254,0.713016152381897
1696081752239308300,5.064308349609375,2.7588539123535156,-2.2656307220458984,-0.7699049115180969
1696081752249308400,5.074308349609375,0.42727717757225037,-2.4697437286376953,-1.6429007053375244
1696081752259308300,5.084308349609375,-0.3953559398651123,-3.2396240234375,-2.131343364715576
1696081752269308200,5.09430810546875,-0.21838083863258362,-4.670252799987793,-2.8032333850860596
1696081752279308300,5.104308349609375,-1.4239070415496826,-6.190652847290039,-2.8656578063964844
1696081752289308200,5.11430810546875,-4.123437404632568,-7.302366256713867,-3.204148292541504
1696081752299308300,5.124308349609375,-6.525969982147217,-7.035704612731934,-3.751223564147949
1696081752309308200,5.13430810546875,-7.272517204284668,-6.032454490661621,-3.7936463356018066
1696081752319308300,5.144308349609375,-6.96520471572876,-4.651386260986328,-3.0867321491241455
1696081752329308200,5.15430810546875,-3.935026168823242,-3.4808349609375,-1.9118419885635376
1696081752339308300,5.164308349609375,0.14581918716430664,-2.6272106170654297,-0.26761436462402344
1696081752349308200,5.17430810546875,2.7979865074157715,-2.0465478897094727,1.5863070487976074
1696081752359308300,5.184308349609375,2.6695339679718018,-1.6918973922729492,2.359645366668701
1696081752369308200,5.19430810546875,0.02142620086669922,-1.5205078125,1.3954944610595703
1696081752379308300,5.204308349609375,-2.2847657203674316,-1.1760597229003906,-0.03920173645019531
1696081752389308200,5.21430810546875,-3.2780511379241943,-0.7201871871948242,-1.5746033191680908
1696081752399308300,5.224308349609375,-3.3689286708831787,-0.1271047592163086,-2.7066147327423096
1696081752409308200,5.23430810546875,-3.4883036613464355,0.4683980941772461,-3.44602108001709
1696081752419308300,5.244308349609375,-3.8727684020996094,0.9750285148620605,-3.5146899223327637
1696081752429308200,5.25430810546875,-3.6765570640563965,1.4287147521972656,-3.9157326221466064
1696081752439308300,5.264308349609375,-3.5173768997192383,1.9844789505004883,-4.299388885498047
1696081752449308400,5.274308349609375,-3.621084451675415,2.4734859466552734,-4.62137508392334
1696081752459308300,5.284308349609375,-3.715099334716797,2.861382484436035,-4.791085720062256
1696081752469308400,5.294308349609375,-4.007920265197754,2.93849515914917,-4.879321098327637
1696081752479308500,5.30430859375,-4.464456558227539,2.6496939659118652,-5.050475597381592
1696081752489308700,5.31430859375,-4.535935878753662,2.233821392059326,-5.042381763458252
1696081752499308500,5.32430859375,-4.383314609527588,1.8956499099731445,-5.047519207000732
1696081752509308700,5.33430859375,-4.624774932861328,1.7966504096984863,-5.089727878570557
1696081752519308500,5.34430859375,-5.068411827087402,1.8296747207641602,-5.339172840118408
1696081752529308700,5.35430859375,-5.347023963928223,1.899806022644043,-5.818722724914551
1696081752539308500,5.36430859375,-5.474409580230713,2.0624876022338867,-6.324946403503418
1696081752549308700,5.37430859375,-5.402860641479492,2.185615062713623,-6.695428371429443
1696081752559308500,5.38430859375,-5.0710320472717285,2.422619342803955,-7.104484558105469
1696081752569308700,5.39430859375,-4.5406084060668945,2.753164768218994,-7.354272365570068
1696081752579308500,5.40430859375,-3.6821560859680176,3.1583313941955566,-7.607872009277344
1696081752589308700,5.41430859375,-2.5067150592803955,3.5292534828186035,-7.808071136474609
1696081752599308500,5.42430859375,-1.72672700881958,3.590428352355957,-7.291644096374512
1696081752609308700,5.43430859375,-1.545452356338501,3.22999906539917,-5.366147994995117
1696081752619308500,5.44430859375,-0.8053758144378662,2.871419906616211,-2.7161545753479004
1696081752629308700,5.45430859375,1.112220048904419,2.416402816772461,0.24757146835327148
1696081752639308500,5.46430859375,4.520633697509766,1.4785046577453613,3.378225803375244
1696081752649308700,5.47430859375,8.472081184387207,0.0633392333984375,6.7657670974731445
1696081752659308500,5.48430859375,10.054512977600098,-1.879669189453125,9.832561492919922
1696081752669308700,5.49430859375,10.406396865844727,-4.827929496765137,10.865486145019531
1696081752679308500,5.50430859375,12.754164695739746,-9.25480842590332,11.565643310546875
1696081752689308700,5.51430859375,12.01689624786377,-13.184465408325195,10.628376007080078
1696081752699308500,5.52430859375,5.550439357757568,-13.073819160461426,7.078903675079346
1696081752709308700,5.53430859375,2.560903549194336,-8.233879089355469,2.897653579711914
1696081752719308800,5.544308837890625,1.374772310256958,-2.063190460205078,-0.07322502136230469
1696081752729308700,5.55430859375,1.696953535079956,2.868248462677002,-2.1496646404266357
1696081752739308500,5.56430859375,2.0078940391540527,5.96296501159668,-4.509724140167236
1696081752749308700,5.57430859375,0.5238544940948486,5.330952167510986,-6.4804229736328125
1696081752759308500,5.58430859375,-1.0209039449691772,1.6120233535766602,-7.347358703613281
1696081752769308700,5.59430859375,-5.9361724853515625,-2.6316261291503906,-5.957156658172607
1696081752779308300,5.604308349609375,-12.288476943969727,-5.587676048278809,-2.9933204650878906
1696081752789308400,5.614308349609375,-10.020271301269531,-7.499142646789551,0.37934064865112305
1696081752799308300,5.624308349609375,-4.976448059082031,-7.4448394775390625,5.023797512054443
1696081752809308400,5.634308349609375,-1.3598700761795044,-4.132719039916992,6.374204158782959
1696081752819308300,5.644308349609375,-0.16835808753967285,-0.5797958374023438,2.875697612762451
1696081752829308400,5.654308349609375,-2.861476182937622,1.8391809463500977,-0.9575152397155762
1696081752839308300,5.664308349609375,-5.247391700744629,2.4882216453552246,-4.103065013885498
1696081752849308400,5.674308349609375,-5.726836204528809,1.6193041801452637,-6.146834850311279
1696081752859308300,5.684308349609375,-5.194182395935059,-0.06573486328125,-7.911538124084473
1696081752869308400,5.694308349609375,-4.840741157531738,-1.4328927993774414,-9.296590805053711
1696081752879308300,5.704308349609375,-4.894647598266602,-2.431410789489746,-9.374088287353516
1696081752889308400,5.714308349609375,-5.091451168060303,-3.0218162536621094,-8.77077579498291
1696081752899308300,5.724308349609375,-5.5360002517700195,-3.299470901489258,-7.704934597015381
1696081752909308400,5.734308349609375,-6.466493606567383,-3.1204986572265625,-6.714438438415527
1696081752919308300,5.744308349609375,-6.641927719116211,-2.1343307495117188,-5.632465362548828
1696081752929308400,5.754308349609375,-6.277468681335449,-1.0752077102661133,-4.518381118774414
1696081752939308300,5.764308349609375,-5.184187889099121,-0.3055438995361328,-3.61175799369812
1696081752949308200,5.77430810546875,-2.9779767990112305,0.34647083282470703,-2.730590343475342
1696081752959308300,5.784308349609375,-0.10008156299591064,0.8215398788452148,-1.935234546661377
1696081752969308400,5.794308349609375,1.6277027130126953,0.8916587829589844,-1.2310833930969238
1696081752979308300,5.804308349609375,2.0571746826171875,0.6762714385986328,-0.6358644962310791
1696081752989308400,5.814308349609375,1.409122347831726,0.4356517791748047,-0.25681495666503906
1696081752999308300,5.824308349609375,0.3941148519515991,0.24562644958496094,0.0030248165130615234
1696081753009308400,5.834308349609375,-0.1380082666873932,0.18568706512451172,0.3567335605621338
1696081753019308300,5.844308349609375,-0.41996532678604126,0.18201255798339844,0.5777468681335449
1696081753029308200,5.85430810546875,-0.6822113990783691,0.3778400421142578,0.6694624423980713
1696081753039308300,5.864308349609375,-1.0231590270996094,0.598475456237793,0.7689011096954346
1696081753049308200,5.87430810546875,-1.2530251741409302,0.9087934494018555,0.8462841510772705
1696081753059308300,5.884308349609375,-1.2533103227615356,1.240168571472168,0.8295977115631104
1696081753069308200,5.89430810546875,-1.2036840915679932,1.5469708442687988,0.6297736167907715
1696081753079308300,5.904308349609375,-1.0784541368484497,1.7465171813964844,0.5842044353485107
1696081753089308200,5.91430810546875,-0.545013964176178,1.6829185485839844,0.8146967887878418
1696081753099308300,5.924308349609375,-0.11709589511156082,1.1349916458129883,1.448692798614502
1696081753109308200,5.93430810546875,0.33006250858306885,0.19634437561035156,2.059053421020508
1696081753119308300,5.944308349609375,0.6174583435058594,-0.46634960174560547,2.253756046295166
1696081753129308200,5.95430810546875,0.9102257490158081,-0.6756162643432617,2.1457948684692383
1696081753139308300,5.964308349609375,0.7126432061195374,-0.33409595489501953,1.8410260677337646
1696081753149308200,5.97430810546875,0.3492029905319214,0.27916717529296875,1.3504953384399414
1696081753159308300,5.984308349609375,0.21050220727920532,0.88275146484375,0.8181185722351074
1696081753169308200,5.99430810546875,0.7877466082572937,1.0145130157470703,0.27199792861938477
1696081753179308300,6.004308349609375,2.0403590202331543,0.6230564117431641,-0.40341389179229736
1696081753189308200,6.01430810546875,3.7501344680786133,-0.1341419219970703,-0.9835716485977173
1696081753199308300,6.024308349609375,5.268555641174316,-0.9603023529052734,-1.2201879024505615
1696081753209308200,6.03430810546875,5.961690902709961,-1.677607536315918,-0.8777462840080261
1696081753219308300,6.044308349609375,5.545701026916504,-2.025824546813965,0.09180033206939697
1696081753229308400,6.054308349609375,4.161825656890869,-1.8203239440917969,1.4053397178649902
1696081753239308300,6.064308349609375,2.449434995651245,-1.1575546264648438,2.5899081230163574
1696081753249308400,6.074308349609375,0.9176995158195496,-0.3610248565673828,3.5809788703918457
1696081753259308300,6.084308349609375,-0.2597142457962036,0.23935413360595703,4.3524370193481445
1696081753269308200,6.09430810546875,-0.933696985244751,0.42105674743652344,5.314726829528809
1696081753279308300,6.104308349609375,-1.222387433052063,0.2637195587158203,6.43546199798584
1696081753289308200,6.11430810546875,-1.1097986698150635,-0.07112979888916016,7.463890075683594
1696081753299308300,6.124308349609375,-0.5133877992630005,-0.2663545608520508,8.294370651245117
1696081753309308200,6.13430810546875,0.7076602578163147,-0.4283132553100586,8.687941551208496
1696081753319308300,6.144308349609375,2.3576204776763916,-0.8035249710083008,8.645068168640137
1696081753329308200,6.15430810546875,4.269583702087402,-1.2398309707641602,8.060033798217773
1696081753339308300,6.164308349609375,6.225078582763672,-1.5174970626831055,6.779851913452148
1696081753349308200,6.17430810546875,6.750011920928955,-1.9410037994384766,5.463512420654297
1696081753359308300,6.184308349609375,6.462571144104004,-2.566812515258789,4.168233871459961
1696081753369308200,6.19430810546875,5.726858615875244,-3.436677932739258,3.2671995162963867
1696081753379308300,6.204308349609375,4.0506911277771,-4.000268936157227,2.4575085639953613
1696081753389308200,6.21430810546875,2.2226197719573975,-4.178534507751465,1.6269179582595825
1696081753399308300,6.224308349609375,0.760924756526947,-4.292694091796875,0.48611700534820557
1696081753409308200,6.23430810546875,0.26823824644088745,-4.717484474182129,-0.943562388420105
1696081753419308300,6.244308349609375,0.2864198684692383,-5.604496002197266,-2.1974456310272217
1696081753429308200,6.25430810546875,-0.6633561253547668,-6.807806968688965,-3.093363046646118
1696081753439308300,6.264308349609375,-2.965615749359131,-7.841405868530273,-3.8094186782836914
1696081753449308400,6.274308349609375,-5.124576091766357,-8.443007469177246,-4.495500087738037
1696081753459308300,6.284308349609375,-5.439178943634033,-8.402429580688477,-5.0633134841918945
1696081753469308400,6.294308349609375,-5.001551628112793,-7.697808265686035,-5.013747692108154
1696081753479308300,6.304308349609375,-3.847074270248413,-6.097092628479004,-4.739219665527344
1696081753489308200,6.31430810546875,-1.3931297063827515,-4.216813087463379,-3.7756221294403076
1696081753499308300,6.324308349609375,0.2134089469909668,-2.7936019897460938,-2.490230083465576
1696081753509308200,6.33430810546875,0.5090577602386475,-1.8410091400146484,-0.8306646347045898
1696081753519308300,6.344308349609375,-0.557252824306488,-1.245835304260254,-0.14418888092041016
1696081753529308200,6.35430810546875,-2.0146632194519043,-0.7685928344726562,-0.6742258071899414
1696081753539308300,6.364308349609375,-3.2423367500305176,-0.24657154083251953,-1.2780122756958008
1696081753549308200,6.37430810546875,-3.70530366897583,0.4931221008300781,-1.8115582466125488
1696081753559308300,6.384308349609375,-4.013603210449219,1.213243007659912,-2.1592233180999756
1696081753569308200,6.39430810546875,-3.8143200874328613,1.8138651847839355,-2.0593371391296387
1696081753579308300,6.404308349609375,-3.4877400398254395,2.448561668395996,-2.249215841293335
1696081753589308200,6.41430810546875,-3.3775582313537598,2.9833130836486816,-2.4518964290618896
1696081753599308300,6.424308349609375,-3.509126663208008,3.3900842666625977,-2.7405619621276855
1696081753609308200,6.43430810546875,-3.8355045318603516,3.4795432090759277,-3.267139434814453
1696081753619308300,6.444308349609375,-4.1271867752075195,3.2030186653137207,-4.017813682556152
1696081753629308200,6.45430810546875,-4.351729393005371,2.7046422958374023,-4.833952903747559
1696081753639308300,6.464308349609375,-4.545516490936279,2.221954822540283,-5.721200942993164
1696081753649308200,6.47430810546875,-4.62580680847168,1.8255095481872559,-6.648150444030762
1696081753659308300,6.484308349609375,-4.792967319488525,1.5960955619812012,-7.390865325927734
1696081753669308200,6.49430810546875,-4.994389057159424,1.525519847869873,-7.877166748046875
1696081753679308300,6.504308349609375,-5.147011756896973,1.6474461555480957,-8.09184455871582
1696081753689308200,6.51430810546875,-5.2514424324035645,1.9916014671325684,-8.251277923583984
1696081753699308300,6.524308349609375,-5.266178607940674,2.4522266387939453,-8.367690086364746
1696081753709308200,6.53430810546875,-5.0241875648498535,2.8449716567993164,-8.453459739685059
1696081753719308300,6.544308349609375,-4.496121406555176,3.174042224884033,-8.46768569946289
1696081753729308200,6.55430810546875,-3.8217356204986572,3.3920493125915527,-8.170333862304688
1696081753739308300,6.564308349609375,-2.9644103050231934,3.559464931488037,-7.598247051239014
1696081753749308200,6.57430810546875,-2.267890691757202,3.5990962982177734,-6.638716697692871
1696081753759308300,6.584308349609375,-1.8019462823867798,3.3364691734313965,-4.574060440063477
1696081753769308200,6.59430810546875,-0.6908059120178223,2.9091830253601074,-1.696167230606079
1696081753779308300,6.604308349609375,2.5145883560180664,1.9655613899230957,1.1621818542480469
1696081753789308200,6.61430810546875,8.298945426940918,0.1655740737915039,4.993791580200195
1696081753799308300,6.624308349609375,11.055097579956055,-1.8984994888305664,9.642099380493164
1696081753809308200,6.63430810546875,11.000223159790039,-3.973668098449707,14.879474639892578
1696081753819308300,6.644308349609375,8.293478012084961,-6.683265686035156,17.907312393188477
1696081753829308200,6.65430810546875,7.809834957122803,-9.49129581451416,16.73932647705078
1696081753839307800,6.664307861328125,6.372674942016602,-10.258995056152344,12.447450637817383
1696081753849308000,6.674307861328125,2.972900867462158,-7.57187557220459,5.942392826080322
1696081753859307800,6.684307861328125,1.6008679866790771,-3.276993751525879,1.491727352142334
1696081753869308000,6.694307861328125,1.2637758255004883,1.0303750038146973,-1.613955020904541
1696081753879307800,6.704307861328125,0.4745001792907715,4.24560546875,-4.355409145355225
1696081753889308000,6.714307861328125,-0.5921177864074707,4.998611927032471,-7.209128379821777
1696081753899307800,6.724307861328125,-0.4216892719268799,1.82035493850708,-9.621206283569336
1696081753909308000,6.734307861328125,-0.5844987630844116,-2.4678945541381836,-10.352571487426758
1696081753919307800,6.744307861328125,-5.327625751495361,-5.563650131225586,-8.43324089050293
1696081753929308000,6.754307861328125,-7.142511367797852,-8.306835174560547,-5.134182453155518
1696081753939307800,6.764307861328125,-1.4820321798324585,-10.378702163696289,0.8641715049743652
1696081753949308000,6.774307861328125,-1.8702017068862915,-8.358019828796387,3.3068032264709473
1696081753959307800,6.784307861328125,-0.26308321952819824,-5.116889953613281,1.5360450744628906
1696081753969308000,6.794307861328125,-2.125166177749634,-1.7824821472167969,-2.03765869140625
1696081753979308000,6.80430810546875,-6.211170196533203,0.26822853088378906,-5.1819610595703125
1696081753989308000,6.814307861328125,-6.806966781616211,0.8744864463806152,-7.583839416503906
1696081753999308000,6.82430810546875,-6.010473251342773,0.7241988182067871,-8.333816528320312
1696081754009308000,6.834307861328125,-5.726734161376953,-0.00148773193359375,-8.168691635131836
1696081754019307800,6.844307861328125,-5.678857326507568,-1.0468387603759766,-7.5383148193359375
1696081754029308000,6.854307861328125,-5.541097640991211,-1.8710250854492188,-7.113417148590088
1696081754039307800,6.864307861328125,-5.747251510620117,-2.417973518371582,-6.272137641906738
1696081754049308000,6.874307861328125,-6.147117614746094,-2.4876537322998047,-4.980734348297119
1696081754059307800,6.884307861328125,-6.586697578430176,-1.9351978302001953,-4.004451751708984
1696081754069308000,6.894307861328125,-6.520974159240723,-1.2769384384155273,-3.1930251121520996
1696081754079308000,6.90430810546875,-5.869049072265625,-0.6860389709472656,-2.608302593231201
1696081754089308000,6.914307861328125,-4.180750370025635,-0.1340465545654297,-2.0275931358337402
1696081754099308000,6.92430810546875,-1.9144396781921387,0.28168487548828125,-1.3644671440124512
1696081754109308000,6.934307861328125,0.2086641788482666,0.5827627182006836,-0.5116846561431885
1696081754119308000,6.94430810546875,1.7604355812072754,0.6684494018554688,0.37750816345214844
1696081754129308000,6.954307861328125,2.415619134902954,0.590174674987793,1.0376687049865723
1696081754139308300,6.964308349609375,2.0879619121551514,0.5595626831054688,1.4517502784729004
1696081754149308400,6.974308349609375,1.2212016582489014,0.6839151382446289,1.6507692337036133
1696081754159308300,6.984308349609375,0.3749467432498932,0.9161996841430664,1.4629971981048584
1696081754169308400,6.994308349609375,-0.17589473724365234,1.219766616821289,0.8460562229156494
1696081754179308300,7.004308349609375,-0.6312898993492126,1.4395761489868164,0.1264207363128662
1696081754189308400,7.014308349609375,-0.9339762926101685,1.4161972999572754,0.5138006210327148
1696081754199308300,7.024308349609375,-0.8924130201339722,1.443789005279541,0.6070032119750977
1696081754209308400,7.034308349609375,-1.616389513015747,1.4252166748046875,-0.09621477127075195
1696081754219308300,7.044308349609375,-1.6247564554214478,1.659611701965332,-0.43296241760253906
1696081754229308400,7.054308349609375,-1.275307059288025,1.6267333030700684,-0.42142510414123535
1696081754239308300,7.064308349609375,-0.6687052845954895,1.1099367141723633,-0.19780755043029785
1696081754249308400,7.074308349609375,0.09033279120922089,0.3009767532348633,0.10846686363220215
1696081754259308000,7.08430810546875,0.6845594644546509,-0.35111045837402344,0.22765326499938965
1696081754269308000,7.094307861328125,0.8936971426010132,-0.5738420486450195,0.2698996067047119
1696081754279308000,7.10430810546875,0.7672855854034424,-0.33117198944091797,0.42414307594299316
1696081754289307100,7.11430712890625,0.38979625701904297,0.27875804901123047,0.8887708187103271
1696081754299307300,7.124307373046875,0.3984658718109131,0.5889358520507812,1.245713710784912
1696081754309307100,7.13430712890625,0.959578812122345,0.7712392807006836,1.5910754203796387
1696081754319307300,7.144307373046875,2.2839927673339844,0.5090065002441406,1.616683006286621
1696081754329307100,7.15430712890625,4.193480491638184,0.03847789764404297,1.270151972770691
1696081754339307300,7.164307373046875,5.969115734100342,-0.32633209228515625,0.831017017364502
1696081754349307100,7.17430712890625,6.371613502502441,-0.5656938552856445,0.665447473526001
1696081754359307300,7.184307373046875,5.225295066833496,-0.8015775680541992,0.9849475622177124
1696081754369307100,7.19430712890625,3.4578359127044678,-1.0914812088012695,1.9346979856491089
1696081754379307000,7.20430712890625,1.9180108308792114,-1.042393684387207,2.848544120788574
1696081754389307100,7.21430712890625,0.9830407500267029,-0.7084064483642578,3.557605743408203
1696081754399307000,7.22430712890625,0.5673168897628784,-0.3664236068725586,4.30996036529541
1696081754409307100,7.23430712890625,0.46873944997787476,-0.25221824645996094,5.175232410430908
1696081754419307000,7.24430712890625,0.4195142388343811,-0.47205638885498047,6.114161968231201
1696081754429307100,7.25430712890625,0.569196343421936,-0.8589134216308594,7.112582206726074
1696081754439307000,7.26430712890625,1.0694605112075806,-1.0756521224975586,7.583207607269287
1696081754449307100,7.27430712890625,1.7023411989212036,-1.203765869140625,7.859482288360596
1696081754459307000,7.28430712890625,1.8506381511688232,-1.8677759170532227,8.582740783691406
1696081754469307100,7.29430712890625,2.4864563941955566,-2.7029943466186523,8.782575607299805
1696081754479307000,7.30430712890625,4.156470775604248,-2.871188163757324,8.064353942871094
1696081754489307100,7.31430712890625,4.961256980895996,-2.640878677368164,6.977348804473877
1696081754499307000,7.32430712890625,4.705846786499023,-2.661264419555664,6.160386085510254
1696081754509307100,7.33430712890625,3.9943716526031494,-2.8781070709228516,5.359317779541016
1696081754519307000,7.34430712890625,2.938323974609375,-3.0522642135620117,4.069005966186523
1696081754529307100,7.35430712890625,1.4488528966903687,-3.258453369140625,2.011688709259033
1696081754539307000,7.36430712890625,0.2762244939804077,-3.791275978088379,0.2152799367904663
1696081754549307100,7.37430712890625,0.06891424208879471,-4.707159996032715,-1.3352117538452148
1696081754559307500,7.3843076171875,0.16772550344467163,-6.047228813171387,-2.9939262866973877
1696081754569307400,7.394307373046875,-0.9273485541343689,-8.005209922790527,-4.023673057556152
1696081754579307500,7.4043076171875,-4.591799736022949,-8.89002513885498,-4.447370529174805
1696081754589308200,7.41430810546875,-7.774878025054932,-8.801619529724121,-4.843083381652832
1696081754599308300,7.424308349609375,-7.8228912353515625,-8.0402250289917,-5.218379974365234
1696081754609308200,7.43430810546875,-6.337578296661377,-6.517393112182617,-5.178135395050049
1696081754619308300,7.444308349609375,-3.8435800075531006,-4.710566520690918,-4.105120658874512
1696081754629308200,7.45430810546875,0.3565232753753662,-3.2401771545410156,-3.1312389373779297
1696081754639308300,7.464308349609375,3.615631103515625,-2.4459362030029297,-1.5909018516540527
1696081754649308200,7.47430810546875,2.5740222930908203,-2.0129566192626953,-0.8460631370544434
1696081754659308300,7.484308349609375,-0.8235016465187073,-1.868971824645996,-1.2818148136138916
1696081754669308200,7.49430810546875,-3.191981792449951,-1.722513198852539,-1.5690598487854004
1696081754679308300,7.504308349609375,-4.484319686889648,-1.1662330627441406,-2.102559804916382
1696081754689308200,7.51430810546875,-4.317806243896484,-0.4046602249145508,-2.5905792713165283
1696081754699308300,7.524308349609375,-3.366821050643921,0.43931102752685547,-3.076664924621582
1696081754709308200,7.53430810546875,-3.00616455078125,1.1286606788635254,-3.445279598236084
1696081754719308300,7.544308349609375,-3.332481622695923,1.8344645500183105,-3.549328327178955
1696081754729308400,7.554308349609375,-3.6295714378356934,2.3957877159118652,-3.713277816772461
1696081754739308300,7.564308349609375,-3.656250476837158,2.64199161529541,-4.09775447845459
1696081754749308400,7.574308349609375,-3.844943046569824,2.595150947570801,-4.7548651695251465
1696081754759308300,7.584308349609375,-4.044289588928223,2.3791584968566895,-5.603894233703613
1696081754769308400,7.594308349609375,-4.001951694488525,2.1130056381225586,-6.430494785308838
1696081754779308300,7.604308349609375,-4.096401691436768,1.9136481285095215,-7.163492202758789
1696081754789308400,7.614308349609375,-4.35410737991333,1.8147735595703125,-7.6612443923950195
1696081754799308300,7.624308349609375,-4.43754243850708,1.8330039978027344,-8.118475914001465
1696081754809308400,7.634308349609375,-4.46712589263916,1.9575648307800293,-8.374409675598145
1696081754819308300,7.644308349609375,-4.562930583953857,2.184093475341797,-8.524805068969727
1696081754829308400,7.654308349609375,-4.7271504402160645,2.5326900482177734,-8.739474296569824
1696081754839308300,7.664308349609375,-4.610865592956543,3.0765433311462402,-9.002559661865234
1696081754849308400,7.674308349609375,-4.123410224914551,3.6894233226776123,-9.229406356811523
1696081754859308300,7.684308349609375,-3.635603666305542,4.291719436645508,-9.341256141662598
1696081754869308200,7.69430810546875,-3.390651226043701,4.703130722045898,-8.953682899475098
1696081754879308300,7.704308349609375,-3.4416894912719727,4.579258441925049,-7.351106643676758
1696081754889308200,7.71430810546875,-3.124307155609131,4.330599308013916,-4.337775230407715
1696081754899308300,7.724308349609375,-0.3327953815460205,3.881239414215088,-1.0349297523498535
1696081754909308200,7.73430810546875,6.597806930541992,2.5649218559265137,3.341784954071045
1696081754919308300,7.744308349609375,8.099311828613281,0.5851750373840332,8.299829483032227
1696081754929308200,7.75430810546875,4.825526237487793,-1.6103296279907227,13.548294067382812
1696081754939308300,7.764308349609375,2.127107620239258,-3.895279884338379,16.366716384887695
1696081754949308200,7.77430810546875,5.509824275970459,-5.999619483947754,14.479598999023438
1696081754959308300,7.784308349609375,13.533522605895996,-9.0067720413208,13.065969467163086
1696081754969308400,7.794308349609375,10.887359619140625,-10.41573429107666,9.722525596618652
1696081754979308300,7.804308349609375,4.991939067840576,-7.2901716232299805,3.4292845726013184
1696081754989308400,7.814308349609375,1.888441801071167,-2.332002639770508,-0.9829144477844238
1696081754999308300,7.824308349609375,0.90920090675354,2.3759560585021973,-3.172114849090576
1696081755009308400,7.834308349609375,1.6176233291625977,5.9515533447265625,-5.403919219970703
1696081755019308300,7.844308349609375,1.9277820587158203,7.482555866241455,-7.35734748840332
1696081755029308200,7.85430810546875,-3.6256208419799805,4.256817817687988,-8.530800819396973
1696081755039308300,7.864308349609375,-8.298371315002441,-2.0759458541870117,-7.7574357986450195
1696081755049308200,7.87430810546875,-12.091692924499512,-6.505093574523926,-5.761889457702637
1696081755059308300,7.884308349609375,-10.324411392211914,-10.430584907531738,-3.2122793197631836
1696081755069308200,7.89430810546875,-4.109061241149902,-13.862834930419922,2.881035327911377
1696081755079308300,7.904308349609375,0.7315807342529297,-12.596628189086914,6.432718276977539
1696081755089308200,7.91430810546875,0.7323360443115234,-8.44706916809082,3.8113274574279785
1696081755099308300,7.924308349609375,-4.544731140136719,-3.288238525390625,-1.916865348815918
1696081755109308200,7.93430810546875,-3.094148635864258,-0.012449264526367188,-6.708700180053711
1696081755119307800,7.944307861328125,-1.0186583995819092,1.4703178405761719,-9.81175422668457
1696081755129308000,7.954307861328125,-3.3062992095947266,1.5170421600341797,-10.416690826416016
1696081755139307800,7.964307861328125,-5.852933406829834,0.29659366607666016,-10.051558494567871
1696081755149308000,7.974307861328125,-7.279013156890869,-1.0784759521484375,-9.317005157470703
1696081755159307800,7.984307861328125,-7.744294166564941,-2.301175117492676,-8.863401412963867
1696081755169308000,7.994307861328125,-7.402322292327881,-3.1793737411499023,-8.323208808898926
1696081755179307800,8.004307861328124,-7.306328296661377,-3.2979393005371094,-6.984981536865234
1696081755189308000,8.014307861328126,-7.182071685791016,-2.813779830932617,-5.207216262817383
1696081755199307800,8.024307861328126,-6.409235000610352,-2.15566349029541,-3.840066909790039
1696081755209308000,8.034307861328125,-4.4983344078063965,-1.1226186752319336,-2.7632288932800293
1696081755219307800,8.044307861328125,-2.1310110092163086,-0.09537601470947266,-2.1515350341796875
1696081755229308000,8.054307861328125,-0.04471147060394287,0.6274194717407227,-1.5464484691619873
1696081755239307800,8.064307861328125,1.5300005674362183,1.0815229415893555,-0.7835700511932373
1696081755249308000,8.074307861328125,2.279711961746216,1.3529634475708008,-0.06304931640625
1696081755259307800,8.084307861328124,2.246164321899414,1.4115548133850098,0.385784387588501
1696081755269308000,8.094307861328126,1.654087781906128,1.456639289855957,0.6151399612426758
1696081755279307800,8.104307861328126,0.8119931221008301,1.38716459274292,0.7742645740509033
1696081755289308000,8.114307861328125,0.8903833627700806,1.4351859092712402,0.9027376174926758
1696081755299307800,8.124307861328125,-1.225813388824463,1.0328712463378906,0.8044476509094238
1696081755309308000,8.134307861328125,-1.9749958515167236,0.8946084976196289,0.9501357078552246
1696081755319307800,8.144307861328125,-1.8991953134536743,1.0394716262817383,1.1739625930786133
1696081755329308000,8.154307861328125,-1.8716679811477661,1.0692501068115234,1.2727539539337158
1696081755339307800,8.164307861328124,-1.0102171897888184,1.4881620407104492,0.6649782657623291
1696081755349308000,8.174307861328124,-0.01813466101884842,1.4641504287719727,0.6528782844543457
1696081755359307800,8.184307861328126,0.9830300807952881,1.06170654296875,0.784252405166626
1696081755369308000,8.194307861328125,1.656284213066101,0.4761943817138672,0.956592321395874
1696081755379307800,8.204307861328125,1.6577320098876953,-0.026681900024414062,1.2233185768127441
1696081755389308000,8.214307861328125,1.0915244817733765,-0.12098407745361328,1.5886518955230713
1696081755399307800,8.224307861328125,0.301205575466156,0.19927406311035156,1.6329574584960938
1696081755409308000,8.234307861328125,-0.5615612268447876,0.523930549621582,1.6354873180389404
1696081755419308300,8.244308349609375,-1.351407766342163,0.5919351577758789,1.5730385780334473
1696081755429308200,8.25430810546875,-1.4514656066894531,0.25009822845458984,1.1521294116973877
1696081755439308300,8.264308349609376,-0.5860524773597717,-0.43350791931152344,0.5784440040588379
1696081755449308200,8.27430810546875,1.1678941249847412,-1.107314109802246,-0.021837711334228516
1696081755459308300,8.284308349609375,3.464411497116089,-1.397568702697754,-0.4261089563369751
1696081755469308400,8.294308349609375,5.413122653961182,-1.2771568298339844,-0.27429139614105225
1696081755479308300,8.304308349609375,6.260586261749268,-1.0898351669311523,0.5543287992477417
1696081755489308400,8.314308349609375,5.371531009674072,-0.891261100769043,1.8885794878005981
1696081755499308300,8.324308349609375,3.047424793243408,-0.4235248565673828,2.9079666137695312
1696081755509308400,8.334308349609374,0.6432868838310242,0.08346176147460938,3.6533055305480957
1696081755519308300,8.344308349609374,-0.732306957244873,0.3461141586303711,4.2632646560668945
1696081755529308200,8.35430810546875,-0.9990187883377075,0.24331188201904297,5.362590789794922
1696081755539308300,8.364308349609376,-0.9456161260604858,-0.07317352294921875,6.634002208709717
1696081755549308200,8.37430810546875,-1.0698111057281494,-0.29358768463134766,7.91178560256958
1696081755559308300,8.384308349609375,-0.8958698511123657,-0.2130756378173828,8.810247421264648
1696081755569308200,8.39430810546875,0.4265206754207611,0.4045753479003906,8.983089447021484
1696081755579308300,8.404308349609375,2.391244411468506,0.8168573379516602,8.644821166992188
1696081755589308200,8.41430810546875,4.9116315841674805,0.9453926086425781,7.533168792724609
1696081755599308300,8.424308349609374,6.854479789733887,0.5319318771362305,6.525413513183594
1696081755609308200,8.43430810546875,7.794336318969727,-0.29485321044921875,5.678107261657715
1696081755619308300,8.444308349609376,6.746929168701172,-1.021021842956543,4.731075763702393
1696081755629308200,8.45430810546875,4.312624454498291,-1.3820524215698242,3.704446315765381
1696081755639308300,8.464308349609375,1.4299378395080566,-2.048550605773926,3.030912399291992
1696081755649308200,8.47430810546875,-1.6519211530685425,-2.915947914123535,2.8215036392211914
1696081755659308300,8.484308349609375,-3.825892210006714,-4.28420352935791,2.952528238296509
1696081755669308200,8.49430810546875,-3.3882579803466797,-6.067133903503418,2.357793092727661
1696081755679308300,8.504308349609374,-1.1963376998901367,-8.253716468811035,0.8324191570281982
1696081755689308200,8.51430810546875,-0.007849276065826416,-10.607670783996582,-1.206876516342163
1696081755699308300,8.524308349609376,-1.081451654434204,-12.112960815429688,-3.476402521133423
1696081755709308200,8.53430810546875,-3.2493443489074707,-12.748366355895996,-5.3186798095703125
1696081755719308300,8.544308349609375,-4.514117240905762,-12.672932624816895,-6.897396564483643
1696081755729308400,8.554308349609375,-4.217833518981934,-10.906759262084961,-7.328365802764893
1696081755739308300,8.564308349609375,-3.179281234741211,-7.960109710693359,-6.315282821655273
1696081755749308400,8.574308349609375,-1.094841480255127,-5.483301162719727,-4.670464992523193
1696081755759308300,8.584308349609374,0.7057629823684692,-3.6928396224975586,-3.825793504714966
1696081755769308200,8.59430810546875,0.36091554164886475,-2.4440269470214844,-3.0163512229919434
1696081755779308300,8.604308349609376,-0.9183692932128906,-1.7784433364868164,-2.311150074005127
1696081755789308200,8.61430810546875,-0.9919426441192627,-1.8577022552490234,-2.4270052909851074
1696081755799308300,8.624308349609375,-3.3345861434936523,-0.7301292419433594,-2.196467161178589
1696081755809308200,8.63430810546875,-3.107928991317749,0.15935707092285156,-2.191837787628174
1696081755819308300,8.644308349609375,-2.4201457500457764,1.3383293151855469,-2.4227030277252197
1696081755829308200,8.65430810546875,-1.968826413154602,2.541680335998535,-2.5159761905670166
1696081755839308300,8.664308349609374,-2.381603717803955,3.2815041542053223,-2.6230828762054443
1696081755849308200,8.67430810546875,-3.0483651161193848,3.8480515480041504,-2.7897489070892334
1696081755859308300,8.684308349609376,-3.39349365234375,4.271951675415039,-3.3779187202453613
1696081755869308200,8.69430810546875,-3.9259860515594482,4.205447673797607,-3.996670722961426
1696081755879308300,8.704308349609375,-4.406869888305664,3.5902700424194336,-4.773625373840332
1696081755889308200,8.71430810546875,-4.835010528564453,2.983708381652832,-5.829993724822998
1696081755899308300,8.724308349609375,-5.132184982299805,2.229801654815674,-6.657331466674805
1696081755909308200,8.73430810546875,-5.2318878173828125,1.511199951171875,-7.28058385848999
1696081755919308300,8.744308349609375,-5.128352165222168,1.0110607147216797,-7.709047317504883
1696081755929308200,8.75430810546875,-4.956443786621094,0.8183832168579102,-8.005308151245117
1696081755939308300,8.764308349609376,-5.170990943908691,0.8670177459716797,-8.13955307006836
1696081755949308200,8.77430810546875,-5.371560573577881,1.1696743965148926,-8.268664360046387
1696081755959308300,8.784308349609375,-5.255156993865967,1.605452060699463,-8.376974105834961
1696081755969308400,8.794308349609375,-5.3110151290893555,1.6057138442993164,-8.341459274291992
1696081755979308300,8.804308349609375,-4.3027191162109375,2.385990619659424,-8.411431312561035
1696081755989308400,8.814308349609375,-3.7940826416015625,2.7394466400146484,-8.209346771240234
1696081755999308300,8.824308349609375,-3.28682804107666,3.176891803741455,-7.7812042236328125
1696081756009308400,8.834308349609374,-2.878810167312622,3.5313854217529297,-7.023795127868652
1696081756019308300,8.844308349609374,-2.200040340423584,3.5851826667785645,-5.66761589050293
1696081756029308200,8.85430810546875,-1.3299381732940674,3.333644390106201,-3.43729829788208
1696081756039308300,8.864308349609376,0.5365846157073975,2.9025378227233887,-0.6839714050292969
1696081756049308200,8.87430810546875,4.9875054359436035,1.8061671257019043,2.9443726539611816
1696081756059308300,8.884308349609375,8.05809211730957,0.15008974075317383,6.988268852233887
1696081756069308200,8.89430810546875,8.35933780670166,-2.055689811706543,10.783988952636719
1696081756079308300,8.904308349609375,7.786848545074463,-4.808534622192383,14.740234375
1696081756089308200,8.91430810546875,7.846086502075195,-4.776110649108887,14.761701583862305
1696081756099308300,8.924308349609374,6.9253740310668945,-11.325339317321777,14.557500839233398
1696081756109308200,8.93430810546875,5.617806434631348,-10.768512725830078,9.840818405151367
1696081756119308300,8.944308349609376,3.1288678646087646,-6.5031232833862305,4.298201560974121
1696081756129308200,8.95430810546875,1.953813076019287,-1.1468400955200195,0.5066742897033691
1696081756139308300,8.964308349609375,1.6410627365112305,3.4094643592834473,-2.302741289138794
1696081756149308200,8.97430810546875,0.6675910949707031,6.155447483062744,-4.830416202545166
1696081756159308300,8.984308349609375,-0.7657769918441772,4.729510307312012,-6.67919921875
1696081756169308200,8.99430810546875,-0.6392590999603271,-0.27451372146606445,-8.019830703735352
1696081756179308300,9.004308349609374,-4.833176136016846,-5.0230512619018555,-7.245461463928223
1696081756189308400,9.014308349609376,-11.050132751464844,-8.16154956817627,-4.7017598152160645
1696081756199308500,9.02430859375,-6.91024923324585,-10.889897346496582,0.010205745697021484
1696081756209308400,9.034308349609375,-3.3289432525634766,-10.406098365783691,3.7434310913085938
1696081756219308500,9.04430859375,-0.19717204570770264,-5.840577125549316,2.097078800201416
1696081756229308400,9.054308349609375,0.3443143367767334,-2.041050910949707,-2.4131205081939697
1696081756239308500,9.06430859375,-4.90998649597168,0.25210142135620117,-5.653460502624512
1696081756249308400,9.074308349609375,-5.38442325592041,0.660027027130127,-7.919441223144531
1696081756259308500,9.08430859375,-4.834568023681641,-0.1298666000366211,-8.903553009033203
1696081756269308400,9.094308349609374,-5.724306583404541,-1.3032426834106445,-9.558893203735352
1696081756279308500,9.10430859375,-6.6362199783325195,-2.2287607192993164,-9.308815002441406
1696081756289308400,9.114308349609376,-7.1504740715026855,-2.8966779708862305,-8.601066589355469
1696081756299308500,9.12430859375,-7.301419734954834,-3.4690561294555664,-7.825416564941406
1696081756309308400,9.134308349609375,-7.371652603149414,-3.3137454986572266,-6.609153747558594
1696081756319308500,9.14430859375,-7.1536407470703125,-2.659017562866211,-5.550536155700684
1696081756329308400,9.154308349609375,-6.515663146972656,-1.8430423736572266,-4.588805198669434
1696081756339308500,9.16430859375,-4.959761619567871,-0.8878650665283203,-3.788377523422241
1696081756349308400,9.174308349609374,-2.6515884399414062,0.09059906005859375,-2.9543514251708984
1696081756359308500,9.18430859375,-0.46229755878448486,0.7214069366455078,-2.064884901046753
1696081756369308400,9.194308349609376,0.8993827104568481,1.0219082832336426,-1.2705116271972656
1696081756379308500,9.20430859375,1.3267947435379028,1.0774149894714355,-0.6843976974487305
1696081756389308400,9.214308349609375,1.4325696229934692,1.009225845336914,-0.3302757740020752
1696081756399308500,9.22430859375,1.2589383125305176,0.8165121078491211,0.16034197807312012
1696081756409308400,9.234308349609375,0.6828365325927734,0.6719455718994141,0.49176764488220215
1696081756419308500,9.24430859375,0.18407252430915833,0.761962890625,0.697526216506958
1696081756429308400,9.254308349609374,-0.18854863941669464,0.9146318435668945,0.8060715198516846
1696081756439308500,9.26430859375,-0.5813034772872925,1.0007619857788086,0.8604600429534912
1696081756449308400,9.274308349609376,-0.9684712290763855,1.0353984832763672,1.0286617279052734
1696081756459308500,9.28430859375,-0.9639496207237244,1.1337404251098633,1.513601541519165
1696081756469308400,9.294308349609375,-0.9080539345741272,1.320094108581543,1.1601781845092773
1696081756479308500,9.30430859375,-0.4637390375137329,1.3449373245239258,0.6223642826080322
1696081756489308400,9.314308349609375,0.3843654692173004,1.1700754165649414,0.48587775230407715
1696081756499308300,9.324308349609375,1.3970122337341309,0.6403932571411133,0.7191245555877686
1696081756509308400,9.334308349609374,1.964074969291687,-0.11741065979003906,1.0457348823547363
1696081756519308300,9.344308349609374,1.5569353103637695,-0.5988168716430664,1.4599101543426514
1696081756529308200,9.35430810546875,0.7464360594749451,-0.4034128189086914,1.691347360610962
1696081756539308300,9.364308349609376,-0.0795179009437561,0.2595033645629883,1.7173969745635986
1696081756549308200,9.37430810546875,-0.7567258477210999,1.124734878540039,1.3986566066741943
1696081756559308300,9.384308349609375,-0.9015152454376221,1.5795068740844727,1.0456478595733643
1696081756569308200,9.39430810546875,-0.05338400602340698,1.5388178825378418,0.38608670234680176
1696081756579308300,9.404308349609375,1.533698558807373,1.0535154342651367,-0.3250776529312134
1696081756589308200,9.41430810546875,3.1717188358306885,0.2545757293701172,-0.6090197563171387
1696081756599308300,9.424308349609374,4.003261089324951,-0.5538263320922852,-0.3808605670928955
1696081756609308200,9.43430810546875,3.688389539718628,-1.344294548034668,0.2849992513656616
1696081756619308300,9.444308349609376,2.5449516773223877,-1.73590087890625,1.4469451904296875
1696081756629308200,9.45430810546875,1.6496648788452148,-1.568528175354004,2.4922680854797363
1696081756639308300,9.464308349609375,1.136906385421753,-0.9839029312133789,3.1972837448120117
1696081756649308200,9.47430810546875,0.5008494853973389,-0.35951900482177734,3.798231601715088
1696081756659308300,9.484308349609375,-0.3652729392051697,-0.04631519317626953,4.456778049468994
1696081756669308200,9.49430810546875,-1.0920991897583008,0.11799049377441406,5.342502593994141
1696081756679308300,9.504308349609374,-1.2138965129852295,0.2715463638305664,6.2012739181518555
1696081756689308200,9.51430810546875,-0.6495908498764038,0.6502056121826172,6.7141642570495605
1696081756699308300,9.524308349609376,0.28101688623428345,1.0257415771484375,6.88298225402832
1696081756709308200,9.53430810546875,1.7547274827957153,1.0772714614868164,6.8263959884643555
1696081756719308300,9.544308349609375,3.5718746185302734,0.9242486953735352,6.2973785400390625
1696081756729308400,9.554308349609375,5.227875709533691,0.2578897476196289,5.709517478942871
1696081756739308300,9.564308349609375,6.39064359664917,-1.0784997940063477,5.569650650024414
1696081756749308400,9.574308349609375,7.200063705444336,-2.4704370498657227,5.571739673614502
1696081756759308300,9.584308349609374,6.389272689819336,-3.015369415283203,5.137742519378662
1696081756769308200,9.59430810546875,4.275148391723633,-2.5261363983154297,4.0371880531311035
1696081756779308300,9.604308349609376,1.3876781463623047,-1.8797922134399414,3.347154140472412
1696081756789308200,9.61430810546875,-1.351224422454834,-1.5146551132202148,3.5003209114074707
1696081756799308300,9.624308349609375,-3.2371063232421875,-1.834151268005371,3.809878349304199
1696081756809308200,9.63430810546875,-3.1468911170959473,-3.1996755599975586,3.6271140575408936
1696081756819308300,9.644308349609375,-1.3261921405792236,-5.4404497146606445,2.5828864574432373
1696081756829308200,9.65430810546875,-0.7550989985466003,-7.852145195007324,0.9249916076660156
1696081756839308300,9.664308349609374,-1.9005160331726074,-9.869982719421387,-1.3142659664154053
1696081756849308200,9.67430810546875,-3.5728094577789307,-11.549506187438965,-3.516286849975586
1696081756859308300,9.684308349609376,-5.167006492614746,-12.317790031433105,-5.387264728546143
1696081756869308200,9.69430810546875,-5.630331039428711,-12.013752937316895,-6.062172889709473
1696081756879308300,9.704308349609375,-5.011192321777344,-9.972620964050293,-5.34661865234375
1696081756889308200,9.71430810546875,-2.181274652481079,-6.950192451477051,-4.355467319488525
1696081756899308300,9.724308349609375,2.7062501907348633,-4.4476470947265625,-3.640532970428467
1696081756909308200,9.73430810546875,3.7671828269958496,-2.567742347717285,-2.56087327003479
1696081757204855000,10.02985498046875,10.694499015808105,-4.582305908203125,12.439395904541016
1696081757214855200,10.039855224609376,6.894043922424316,-8.010946273803711,17.358436584472656
1696081757224855000,10.04985498046875,3.2964632511138916,-10.682316780090332,19.46947479248047
1696081757234855200,10.059855224609375,7.836680889129639,-10.890949249267578,19.148508071899414
1696081757244855000,10.06985498046875,5.771136283874512,-8.19852066040039,14.928445816040039
1696081757254855200,10.079855224609375,2.3095414638519287,-3.606167793273926,6.408850193023682
1696081757264855000,10.08985498046875,0.2080531120300293,0.7974777221679688,1.4979248046875
1696081757274855200,10.099855224609374,-0.6200233697891235,4.797797203063965,-1.869896411895752
1696081757284855000,10.10985498046875,-0.5606684684753418,7.689303874969482,-5.226428031921387
1696081757294855200,10.119855224609376,-2.483938694000244,8.281275749206543,-8.360631942749023
1696081757304855000,10.12985498046875,-5.077661514282227,4.487541675567627,-9.378644943237305
1696081757314855200,10.139855224609375,-5.1174211502075195,-0.3513507843017578,-8.466752052307129
1696081757324855000,10.14985498046875,-5.306221008300781,-4.234635353088379,-6.958169937133789
1696081757334855200,10.159855224609375,2.023230791091919,-9.288459777832031,-5.943885326385498
1696081757344855000,10.16985498046875,3.1362154483795166,-14.638778686523438,0.3647193908691406
1696081757354855200,10.179855224609375,-5.808680534362793,-15.035194396972656,0.9183297157287598
1696081757364855000,10.18985498046875,-0.7902499437332153,-12.162775039672852,-1.991734266281128
1696081757374855200,10.199855224609376,-1.254249095916748,-6.518847465515137,-6.147613048553467
1696081757384855000,10.20985498046875,-5.406333923339844,-1.7499914169311523,-8.730329513549805
1696081757394855200,10.219855224609375,-4.9538187980651855,1.4896888732910156,-10.232818603515625
1696081757404855000,10.22985498046875,-4.874166488647461,2.565774917602539,-9.873281478881836
1696081757414855200,10.239855224609375,-6.801084995269775,1.4097380638122559,-8.341449737548828
1696081757424855000,10.24985498046875,-7.574044227600098,-0.5703153610229492,-7.968767166137695
1696081757434855200,10.259855224609375,-6.947103977203369,-2.6836299896240234,-8.010115623474121
1696081757444855000,10.26985498046875,-6.458427429199219,-4.1609039306640625,-7.069828987121582
1696081757454855200,10.279855224609374,-6.675939559936523,-4.6089277267456055,-5.932754039764404
1696081757464855300,10.289855224609376,-7.320132732391357,-4.153474807739258,-4.634390830993652
1696081757474855200,10.299855224609376,-7.900026798248291,-3.431365966796875,-3.520909309387207
1696081757484855300,10.309855224609375,-7.442494869232178,-2.615689277648926,-2.8279643058776855
1696081757494855200,10.319855224609375,-5.4473161697387695,-1.605484962463379,-2.4030814170837402
1696081757504855300,10.329855224609375,-2.7220191955566406,-0.7094182968139648,-1.697728157043457
1696081757514855200,10.339855224609375,-0.4869311451911926,-0.09424495697021484,-0.6965923309326172
1696081757524855300,10.349855224609374,1.343546748161316,0.45294952392578125,0.383345365524292
1696081757534855200,10.359855224609374,2.5771372318267822,0.9718036651611328,1.1423871517181396
1696081757544855300,10.369855224609376,3.057837963104248,1.495269775390625,1.6789517402648926
1696081757554855200,10.379855224609376,2.5498838424682617,1.675656795501709,2.076282501220703
1696081757564855300,10.389855224609375,1.4540083408355713,1.538771152496338,2.2424113750457764
1696081757574855200,10.399855224609375,0.30725225806236267,1.3583273887634277,2.108842134475708
1696081757584855300,10.409855224609375,-0.4952241778373718,1.243642807006836,1.5804507732391357
1696081757594855200,10.419855224609375,-0.967108428478241,1.184861183166504,1.0150723457336426
1696081757604855300,10.429855224609375,-0.9434436559677124,1.213973045349121,1.1070258617401123
1696081757614855200,10.439855224609374,-1.5753953456878662,1.18841552734375,-0.6008529663085938
1696081757624855300,10.449855224609376,-1.6947592496871948,1.3564796447753906,-0.6658363342285156
1696081757634855200,10.459855224609376,-1.1837466955184937,1.811255931854248,-0.3667480945587158
1696081757644855300,10.469855224609375,-0.6097931861877441,2.2413487434387207,-0.3959472179412842
1696081757654855200,10.479855224609375,-0.08682294934988022,2.2231202125549316,-0.20207953453063965
1696081757664855300,10.489855224609375,-0.04636774957180023,2.2434744834899902,-0.12343859672546387
1696081757674855200,10.499855224609375,0.537786066532135,0.5717554092407227,0.6118063926696777
1696081757684855300,10.509855224609375,0.5885574221611023,-0.08929729461669922,1.137779712677002
1696081757694855200,10.519855224609374,0.48239824175834656,-0.22446727752685547,1.52982497215271
1696081757704855300,10.529855224609374,0.186709463596344,-0.1021261215209961,2.0898170471191406
1696081757714855200,10.539855224609376,0.13011741638183594,0.07079029083251953,2.7318105697631836
1696081757724855300,10.549855224609376,0.44081252813339233,0.19460582733154297,3.467912197113037
1696081757734855200,10.559855224609375,1.7111525535583496,0.32391929626464844,4.185290336608887
1696081757744855300,10.569855224609375,3.6719701290130615,0.41158580780029297,4.636329650878906
1696081757754855200,10.579855224609375,5.392390727996826,0.24411582946777344,4.791256427764893
1696081770575510300,23.40051025390625,0.24520301818847656,1.0323452949523926,-1.688406229019165
1696081770585483300,23.410483154296877,-0.23681640625,0.7189185619354248,-1.5470473766326904
1696081770595524000,23.420524169921876,-1.0423765182495117,0.36169910430908203,-1.295006513595581
1696081770605537800,23.430537841796873,-1.8680825233459473,0.05422353744506836,-0.8366053104400635
1696081770615546600,23.440546630859377,-2.3517823219299316,-0.12193012237548828,-0.04980736970901489
1696081770625553400,23.450553466796876,-2.3861918449401855,-0.487562894821167,0.7665785551071167
1696081770635559000,23.460558837890623,-2.170471668243408,-0.5462257862091064,0.919131338596344
1696081770645558800,23.470558837890625,-1.2252321243286133,-0.7252967357635498,0.7390722036361694
1696081770655562800,23.480562744140624,0.0821685791015625,-1.2523796558380127,0.3161388039588928
1696081770665566200,23.490566162109374,-0.014421463012695312,-1.6443047523498535,-0.07171864062547684
1696081770675569200,23.500569091796876,0.0856008529663086,-1.560551404953003,-0.1333458125591278
1696081770685571800,23.51057177734375,-0.6692962646484375,-0.7116737365722656,-0.4520617723464966
1696081770695574300,23.52057421875,-0.6648674011230469,-0.7208952903747559,-0.4496145248413086
1696081770705576400,23.530576416015624,-0.6697235107421875,-0.7109513282775879,-0.4556393623352051
1696081770715576600,23.54057666015625,-0.20697975158691406,-0.6200661659240723,-0.5112783908843994
1696081770725578500,23.55057861328125,0.533808708190918,-0.5768158435821533,-0.7501662373542786
1696081770735580200,23.560580078125,0.5225048065185547,-0.5517990589141846,-0.7377628087997437
1696081770745582300,23.570582275390624,0.6020631790161133,-0.404712438583374,-1.0022355318069458
1696081770755584000,23.580583984375,0.335113525390625,-0.48966431617736816,-1.2223260402679443
1696081770765585400,23.59058544921875,0.33789634704589844,-0.49526381492614746,-1.2153093814849854
1696081770775586800,23.6005869140625,-0.0625162124633789,-0.7441320419311523,-0.8612253665924072
1696081770785588200,23.610588134765624,-0.0011510848999023438,-1.100600242614746,-0.31741201877593994
1696081770795588400,23.62058837890625,0.0014390945434570312,-1.1073241233825684,-0.3370543122291565
1696081770805589500,23.630589599609376,0.0009546279907226562,-1.1077451705932617,-0.3653426766395569
1696081770815590700,23.640590576171874,-0.08894920349121094,-1.065417766571045,0.38845545053482056
1696081770825591800,23.650591796875,-0.09476757049560547,-1.0540685653686523,0.3537020981311798
1696081770835593000,23.660593017578126,0.13573837280273438,-0.6767549514770508,-0.3414444923400879
1696081770845593900,23.67059375,-9.769081115722656,-13.38288402557373,3.945162296295166
1696081770855595000,23.680594970703126,-9.775724411010742,-13.368639945983887,3.9281811714172363
1696081770865596000,23.690595947265624,-9.781471252441406,-13.356231689453125,3.9119420051574707
1696081770875596800,23.7005966796875,-6.5823073387146,-14.618265151977539,4.783071041107178
1696081770885598200,23.71059814453125,-0.09632396697998047,-0.20876407623291016,-0.2839490473270416
1696081770895597800,23.720597900390626,-0.09720420837402344,-0.2068500518798828,-0.2906361222267151
1696081770905598000,23.730597900390624,-0.0967264175415039,-0.20792770385742188,-0.29714420437812805
1696081770915597800,23.740597900390625,-0.2615852355957031,-0.2829163074493408,0.1256410777568817
1696081770925598000,23.750597900390623,-0.2627677917480469,-0.2563436031341553,0.2465764582157135
1696081770935597800,23.760597900390625,-16.626008987426758,-15.043582916259766,0.8940784335136414
1696081770945598700,23.7705986328125,-0.25336742401123047,-0.32131028175354004,0.29543784260749817
1696081770955598800,23.780598876953125,-0.17951679229736328,-0.345628023147583,0.38937312364578247
1696081770965598700,23.7905986328125,-0.14946746826171875,-0.32751035690307617,0.5807508230209351
1696081770975598800,23.800598876953124,-0.05302715301513672,-0.32921671867370605,0.7265251874923706
1696081770985598700,23.8105986328125,-3.993743896484375,-10.287124633789062,7.328848838806152
1696081770995598800,23.820598876953124,0.2174520492553711,-0.26835107803344727,0.6333306431770325
1696081771005598700,23.8305986328125,0.3465452194213867,-0.27382826805114746,0.6473356485366821
1696081771015599600,23.840599609375,0.43039512634277344,-0.29131317138671875,0.6748160123825073
1696081771025599700,23.850599853515625,0.4479341506958008,-0.3340482711791992,0.718629002571106
1696081771035599600,23.860599609375,-9.656415939331055,-10.138242721557617,0.5724146962165833
1696081771045599500,23.870599609375,-6.746845245361328,-6.754850387573242,5.813090801239014
1696081771055599400,23.880599365234374,0.21719646453857422,-0.43618011474609375,0.9458995461463928
1696081771065599500,23.890599609375,0.20669269561767578,-0.5035583972930908,0.8870391249656677
1696081771075599400,23.900599365234374,0.2271585464477539,-0.5209856033325195,0.869681179523468
1696081771085599500,23.910599609375,-6.338791847229004,0.710014820098877,6.46589469909668
1696081771095600400,23.920600341796874,0.2286510467529297,-0.46450376510620117,0.7524425387382507
1696081771105600300,23.930600341796875,0.2672414779663086,-0.32819247245788574,0.6005189418792725
1696081771115600400,23.940600341796873,-6.524971008300781,2.187931537628174,7.111593246459961
1696081771125600300,23.950600341796875,0.7707767486572266,-0.26892638206481934,0.5321270227432251
1696081771135600400,23.960600341796876,0.8032121658325195,-0.16362500190734863,0.21118247509002686
1696081771145600300,23.970600341796874,-6.431937217712402,2.405524730682373,6.728311538696289
1696081771155600400,23.980600341796876,0.22021198272705078,-0.1770482063293457,0.540723443031311
1696081771165600300,23.990600341796874,-0.07583236694335938,-0.2740213871002197,0.6369484066963196
1696081771175600400,24.000600341796876,-0.14957618713378906,-0.33685302734375,0.5518344640731812
1696081771185599700,24.010599853515625,-0.08851146697998047,-0.3482375144958496,0.38066673278808594
1696081771195599600,24.020599609375,-0.0074176788330078125,-0.24092817306518555,0.23492088913917542
1696081771205599700,24.030599853515625,0.15889358520507812,-0.1498408317565918,0.20411014556884766
1696081771215599600,24.040599609375,0.2741994857788086,-0.18581223487854004,0.20582053065299988
1696081771225599700,24.050599853515624,-6.497011184692383,2.3583176136016846,6.3733086585998535
1696081771235599600,24.060599609375,-6.471221923828125,2.3339881896972656,6.4234700202941895
1696081771245599700,24.070599853515624,-6.463036060333252,2.363811492919922,6.4249138832092285
1696081771255599600,24.080599609375,-6.546280860900879,2.411025047302246,6.444077014923096
1696081771265599700,24.090599853515624,0.16750144958496094,-0.2515528202056885,0.2133861780166626
1696081771275599600,24.100599609375,0.10054874420166016,-0.2346510887145996,0.1536177396774292
1696081771285599700,24.110599853515627,-6.471768856048584,2.3923821449279785,6.376084327697754
1696081771295599600,24.120599609375,0.07631111145019531,-0.3527109622955322,0.24819254875183105
1696081771305599700,24.130599853515626,0.08255767822265625,-0.3164050579071045,0.27765947580337524
1696081771315599600,24.140599609375,0.13377952575683594,-0.27155566215515137,0.274785578250885
1696081771325599700,24.150599853515626,-6.407087326049805,2.461139678955078,6.138005256652832
1696081771335599600,24.160599609375,0.07174968719482422,-0.2667837142944336,0.23867619037628174
1696081771345599700,24.170599853515625,0.10433578491210938,-0.2874438762664795,0.2544514536857605
1696081771355599600,24.180599609375,0.1788778305053711,-0.3250291347503662,0.2432612180709839
1696081771365599700,24.190599853515625,0.2646026611328125,-0.33947157859802246,0.1515318751335144
1696081771375599600,24.200599609375,0.28326892852783203,-0.33710646629333496,0.12455582618713379
1696081771385599700,24.210599853515625,0.24029541015625,-0.30724072456359863,0.14494174718856812
1696081771395599600,24.220599609375,0.08552742004394531,-0.2860572338104248,0.18638545274734497
1696081771405599700,24.230599853515624,-0.03553009033203125,-0.313307523727417,0.20475584268569946
1696081771415599600,24.240599609375,-0.19068336486816406,-0.15247583389282227,0.08702045679092407
1696081771425599700,24.250599853515624,-0.20817089080810547,-0.10788798332214355,0.0233309268951416
1696081771435599600,24.260599609375,-6.4901204109191895,-4.69686222076416,7.732810974121094
1696081771445599700,24.270599853515623,-0.1386699676513672,-0.12923145294189453,0.009588360786437988
1696081771455599600,24.280599609375,-0.058429718017578125,-0.09513974189758301,0.03706324100494385
1696081771465599700,24.290599853515626,0.03325653076171875,-0.07966446876525879,-0.011571228504180908
1696081771475599600,24.300599609375,0.18958091735839844,-0.09086871147155762,-0.05118173360824585
1696081771485599700,24.310599853515626,0.2902069091796875,-0.08398127555847168,-0.03485071659088135
1696081771495599600,24.320599609375,0.2493896484375,-0.06206965446472168,-0.04090696573257446
1696081771505599700,24.330599853515626,-7.131662368774414,-13.66716194152832,0.08350640535354614
1696081771515599600,24.340599609375,-0.04367637634277344,-0.12434148788452148,-0.0462380051612854
1696081771525599700,24.350599853515625,-1.8569135665893555,-0.45773792266845703,2.9142632484436035
1696081771535599600,24.360599609375,-5.180033206939697,1.7949459552764893,4.312387943267822
1696081771545599700,24.370599853515625,-0.30852508544921875,0.017763137817382812,0.11813902854919434
1696081771555599600,24.380599609375,-0.3050651550292969,0.07509207725524902,-0.0008126497268676758
1696081771565599700,24.390599853515624,-0.3095874786376953,0.06896042823791504,-0.0854448676109314
1696081771575599600,24.400599609375,-0.28119945526123047,-0.005648612976074219,-0.09841161966323853
1696081771585599700,24.410599853515624,-0.2512960433959961,-0.030664920806884766,-0.12636691331863403
1696081771595599600,24.420599609375,-0.1768655776977539,-0.03683900833129883,-0.12205898761749268
1696081771605599700,24.430599853515623,0.013720512390136719,-0.0020780563354492188,-0.07851618528366089
1696081771615599600,24.440599609375,0.29641056060791016,0.004600048065185547,-0.0680052638053894
1696081771625599700,24.450599853515627,0.6114110946655273,0.021305322647094727,-0.030317306518554688
1696081771635599600,24.460599609375,0.7747306823730469,0.08318495750427246,-0.004020094871520996
1696081771645599700,24.470599853515626,0.7634744644165039,0.1898660659790039,-0.052885353565216064
1696081771655599600,24.480599609375,0.6864261627197266,0.036748647689819336,-0.04630172252655029
1696081771665599700,24.490599853515626,0.5732040405273438,-0.012061834335327148,-0.01079261302947998
1696081771675599600,24.500599609375,0.30002307891845703,0.03133273124694824,-0.02475041151046753
1696081771685599700,24.510599853515625,-0.02657318115234375,0.04949188232421875,0.0008827447891235352
1696081771695599600,24.520599609375,-0.21363449096679688,0.0673367977142334,-0.004663050174713135
1696081771705599700,24.530599853515625,-0.148101806640625,0.04163074493408203,0.13612771034240723
1696081771715599600,24.540599609375,-0.008411407470703125,-0.054190635681152344,0.22720199823379517
1696081771725599700,24.550599853515624,0.10745716094970703,-0.11484479904174805,0.22166186571121216
1696081771735599600,24.560599609375,0.17363739013671875,-0.1316242218017578,0.12337899208068848
1696081771745599700,24.570599853515624,0.21167278289794922,-0.06830120086669922,-0.01129913330078125
1696081771755599600,24.580599609375,0.14964771270751953,-0.003338336944580078,0.0027504563331604004
1696081771765599700,24.590599853515624,-0.0031480789184570312,0.013986825942993164,0.010358095169067383
1696081771775599600,24.600599609375,-0.09634876251220703,0.02514028549194336,-0.11568638682365417
1696081771785599700,24.610599853515627,-0.1784992218017578,-0.0018651485443115234,-0.26743948459625244
1696081771795599600,24.620599609375,-0.21660327911376953,0.020624399185180664,-0.28439992666244507
1696081771805599700,24.630599853515626,-0.18185138702392578,0.0587468147277832,-0.2857622504234314
1696081771815599600,24.640599609375,-0.06229114532470703,0.08355998992919922,-0.34859684109687805
1696081771825599700,24.650599853515626,0.17597103118896484,0.11811685562133789,-0.3387352526187897
1696081771835599600,24.660599609375,0.050368309020996094,-0.07192087173461914,-0.2220904678106308
1696081771845599700,24.670599853515625,0.1534271240234375,-0.18274497985839844,-0.002565830945968628
1696081771855599600,24.680599609375,0.11937236785888672,-0.16030573844909668,0.02206343412399292
1696081771865599700,24.690599853515625,-0.010663986206054688,-0.12493443489074707,-0.02232275903224945
1696081771875599600,24.700599609375,-0.1909780502319336,-0.09142136573791504,-0.001452028751373291
1696081771885599700,24.710599853515625,-0.2733631134033203,-0.06905007362365723,0.00830291211605072
1696081771895599600,24.720599609375,-0.11690425872802734,0.03607511520385742,-0.01759585738182068
1696081771905599700,24.730599853515624,0.14634418487548828,0.22477030754089355,-0.28658145666122437
1696081771915599600,24.740599609375,0.4541797637939453,0.42770934104919434,-0.6401119232177734
1696081771925599700,24.750599853515624,0.49332618713378906,0.6153972148895264,-0.6996772885322571
1696081771935599600,24.760599609375,0.28574085235595703,0.6048429012298584,-0.4252600073814392
1696081771945599700,24.770599853515623,-0.020021438598632812,0.5009253025054932,-0.29152533411979675
1696081771955599600,24.780599609375,-0.1753406524658203,0.4169273376464844,-0.3102499842643738
1696081771965599700,24.790599853515626,-0.07073783874511719,0.3808271884918213,-0.3810177445411682
1696081771975599600,24.800599609375,0.12599468231201172,0.3024177551269531,-0.40535926818847656
1696081771985599700,24.810599853515626,0.27403736114501953,0.27433323860168457,-0.3816102147102356
1696081771995599600,24.820599609375,0.26872920989990234,0.28795623779296875,-0.4061647057533264
1696081772005599700,24.830599853515626,0.39066314697265625,0.38529157638549805,-0.1542508602142334
1696081772015599600,24.840599609375,0.3718452453613281,0.4412810802459717,-0.2549423575401306
1696081772025599700,24.850599853515625,0.3175535202026367,0.4750185012817383,-0.33341845870018005
1696081772035599600,24.860599609375,0.13911151885986328,0.48186254501342773,-0.33890262246131897
1696081772045599700,24.870599853515625,0.0017070770263671875,0.40916895866394043,-0.25744929909706116
1696081772055599600,24.880599609375,-0.12847042083740234,0.32224488258361816,-0.10574117302894592
1696081772065599700,24.890599853515624,-0.24211406707763672,0.20270085334777832,0.012088894844055176
1696081772075599600,24.900599609375,-0.3014192581176758,0.11641836166381836,0.13916140794754028
1696081772085599700,24.910599853515624,-0.3330545425415039,0.0929267406463623,0.07461130619049072
1696081772095599600,24.920599609375,-0.32039833068847656,0.1803264617919922,-0.11575764417648315
1696081772105599700,24.930599853515623,-0.10518836975097656,0.2795724868774414,-0.10912260413169861
1696081772115599600,24.940599609375,0.02115917205810547,0.33346033096313477,-0.14697393774986267
1696081772125599700,24.950599853515627,0.025926589965820312,0.3230290412902832,-0.2048051655292511
1696081772135599600,24.960599609375,-0.17203235626220703,0.35293054580688477,-0.2255813181400299
1696081772145599700,24.970599853515626,-0.36690330505371094,0.3803596496582031,-0.22706595063209534
1696081772155599600,24.980599609375,-0.5496129989624023,0.4328954219818115,-0.2237967550754547
1696081772165599700,24.990599853515626,-0.6513271331787109,0.3009302616119385,-0.15115121006965637
1696081772175599600,25.000599609375,-0.635986328125,0.10457181930541992,-0.0374029278755188
1696081772185599700,25.010599853515625,-0.5159530639648438,-0.05965232849121094,0.0951351523399353
1696081772195599600,25.020599609375,-0.2789945602416992,-0.22532081604003906,0.2383372187614441
1696081772205599700,25.030599853515625,-0.034897804260253906,-0.32073211669921875,0.37332624197006226
1696081772215599600,25.040599609375,0.3937997817993164,-0.3964416980743408,0.4874269962310791
1696081772225599700,25.050599853515624,0.41578102111816406,-0.40973401069641113,0.43361061811447144
1696081772235599600,25.060599609375,0.21620559692382812,-0.3262934684753418,0.4099082946777344
1696081772245599700,25.070599853515624,0.11587715148925781,-0.29022741317749023,0.4265994429588318
1696081772255599600,25.080599609375,0.061168670654296875,-0.30738353729248047,0.4331907629966736
1696081772265599700,25.090599853515624,0.0325469970703125,-0.29320549964904785,0.41894882917404175
1696081772275599600,25.100599609375,0.1569204330444336,-0.295316219329834,0.3461816906929016
1696081772285599700,25.110599853515627,0.3027219772338867,-0.2704169750213623,0.2792361378669739
1696081772295599600,25.120599609375,0.18789005279541016,-0.1853189468383789,0.20152926445007324
1696081772305599700,25.130599853515626,0.23659038543701172,-0.06694841384887695,0.13987350463867188
1696081772315599600,25.140599609375,0.34522056579589844,0.023041963577270508,0.09345591068267822
1696081772325599700,25.150599853515626,0.45604610443115234,0.053438425064086914,0.06154167652130127
1696081772335599600,25.160599609375,0.5045433044433594,0.05689382553100586,-0.006387591361999512
1696081772345599700,25.170599853515625,0.46687793731689453,0.0806589126586914,-0.0828813910484314
1696081772355599600,25.180599609375,0.3483104705810547,0.1096644401550293,-0.13022643327713013
1696081772365599700,25.190599853515625,0.2378864288330078,0.14824128150939941,-0.1617456078529358
1696081772375599600,25.200599609375,0.18097400665283203,0.1682450771331787,-0.1761212944984436
1696081772385599700,25.210599853515625,0.1390237808227539,0.19620347023010254,-0.22160762548446655
1696081772395599600,25.220599609375,0.10956764221191406,0.22469019889831543,-0.24135524034500122
1696081772405599700,25.230599853515624,0.3369283676147461,0.16693973541259766,-0.30626124143600464
1696081772415599600,25.240599609375,0.3160581588745117,0.12332677841186523,-0.19929736852645874
1696081772425599700,25.250599853515624,0.17200469970703125,0.05252790451049805,0.018396973609924316
1696081772435599600,25.260599609375,0.043374061584472656,-0.018680572509765625,0.0631556510925293
1696081772445599700,25.270599853515623,-0.11386966705322266,-0.007294893264770508,-0.017870664596557617
1696081772455599600,25.280599609375,-0.19251728057861328,0.032988548278808594,-0.09251713752746582
1696081772465599700,25.290599853515626,-0.17856311798095703,0.08455324172973633,-0.16774064302444458
1696081772475599600,25.300599609375,-0.1630535125732422,0.13869619369506836,-0.2462494969367981
1696081772485599700,25.310599853515626,-0.0834665298461914,0.15209555625915527,-0.25597894191741943
1696081772495599600,25.320599609375,0.04166889190673828,0.12810683250427246,-0.10746359825134277
1696081772505599700,25.330599853515626,0.13724994659423828,0.0506439208984375,-0.022490859031677246
1696081772515599600,25.340599609375,0.08310508728027344,0.022285938262939453,0.04767799377441406
1696081772525599700,25.350599853515625,-0.014490127563476562,-0.008417129516601562,0.05899316072463989
1696081772535599600,25.360599609375,-0.1790304183959961,-0.03623056411743164,0.13415569067001343
1696081772545599700,25.370599853515625,-0.28818511962890625,-0.06180715560913086,0.21105563640594482
1696081772555599600,25.380599609375,-0.2941579818725586,-0.09973359107971191,0.19112259149551392
1696081772565599700,25.390599853515624,-0.2998800277709961,0.0008721351623535156,0.054822325706481934
1696081772575599600,25.400599609375,-0.21440601348876953,0.10802412033081055,-0.06685352325439453
1696081772585599700,25.410599853515624,-0.11677360534667969,0.1709146499633789,-0.09719932079315186
