time,seconds_elapsed,z,y,x
1696081747225497000,0.0504970703125,-0.032452214509248734,0.1837940812110901,0.2309834212064743
1696081747239150300,0.064150390625,-0.032452214509248734,0.1837940812110901,0.2309834212064743
1696081747249150200,0.074150146484375,-0.032452214509248734,0.1837940812110901,0.2309834212064743
1696081747259150300,0.084150390625,-0.032452214509248734,0.1837940812110901,0.2309834212064743
1696081747269150200,0.094150146484375,0.009086620062589645,-0.03978259861469269,-0.07933612167835236
1696081747279150300,0.104150390625,0.006643159314990044,0.035964690148830414,-0.01702786795794964
1696081747289150200,0.114150146484375,0.008475755341351032,0.08361218124628067,0.04589125141501427
1696081747299150300,0.124150390625,0.009697485715150833,0.0921642929315567,0.08620835840702057
1696081747309150200,0.134150146484375,0.010919216088950634,0.07261660695075989,0.09598220139741898
1696081747319150300,0.144150390625,0.007254024967551231,0.029245173558592796,0.06910412758588791
1696081747329150200,0.154150146484375,0.002367102773860097,-0.025732697919011116,0.02695442922413349
1696081747339150300,0.164150390625,-0.0019089538836851716,-0.07704538106918335,-0.021303925663232803
1696081747349150200,0.174150146484375,-0.00618501054123044,-0.10147999227046967,-0.06345362961292267
1696081747359150300,0.184150390625,-0.00862847175449133,-0.09903652966022491,-0.09338602423667908
1696081747369150200,0.194150146484375,-0.00618501054123044,-0.0794888436794281,-0.10438159853219986
1696081747379150300,0.204150390625,-0.00007635815563844517,-0.05322163552045822,-0.0921642929315567
1696081747389150200,0.214150146484375,0.004199698567390442,-0.0342848114669323,-0.059177570044994354
1696081747399150300,0.224150390625,0.006643159314990044,-0.022678371518850327,-0.011530081741511822
1696081747409150200,0.234150146484375,0.006643159314990044,-0.019624045118689537,0.031841352581977844
1696081747419150300,0.244150390625,0.005421428941190243,-0.019624045118689537,0.046502117067575455
1696081747429150200,0.254150146484375,0.0029779679607599974,-0.03306308016180992,0.06177374720573425
1696081747439150300,0.264150390625,-0.0012980886967852712,-0.07765624672174454,0.055054228752851486
1696081747449150200,0.274150146484375,-0.0031306843739002943,-0.11858421564102173,0.028176158666610718
1696081747459150300,0.284150390625,-0.00985020212829113,-0.12835806608200073,-0.013362676836550236
1696081747469150200,0.294150146484375,-0.019624045118689537,-0.12286027520895004,-0.05795583873987198
1696081747479150300,0.304150390625,-0.026343563571572304,-0.13629931211471558,-0.09582948684692383
1696081747489150200,0.314150146484375,-0.031841352581977844,-0.1356884390115738,-0.0970512181520462
1696081747499150300,0.324150390625,-0.05871942266821861,-0.1460731476545334,-0.055512379854917526
1696081747509150200,0.334150146484375,-0.064217209815979,-0.13691017031669617,-0.0011453722836449742
1696081747519150300,0.344150390625,-0.10575604438781738,-0.12408200651407242,0.020845776423811913
1696081747529150200,0.354150146484375,-0.1460731476545334,-0.15767958760261536,0.09048441797494888
1696081747539150300,0.364150390625,-0.20960313081741333,-0.2963460087776184,0.19982929527759552
1696081747549150200,0.374150146484375,-0.2816852331161499,-0.5626832246780396,0.3617085814476013
1696081747559150300,0.384150390625,-0.36537376046180725,-0.6946301460266113,0.5272530913352966
1696081747569150200,0.394150146484375,-0.458836168050766,-0.690964937210083,0.65248042345047
1696081747579150300,0.404150390625,-0.5028184652328491,-0.7239516973495483,0.6549239158630371
1696081747589150200,0.414150146484375,-0.48143815994262695,-1.1509464979171753,0.4484514594078064
1696081747599150300,0.424150390625,-0.4331798255443573,-1.774029016494751,0.368428111076355
1696081747609150200,0.434150146484375,-0.45578181743621826,-2.267608165740967,0.368428111076355
1696081747619150300,0.444150390625,-0.5309182405471802,-2.7196483612060547,0.4221842288970947
1696081747629150200,0.454150146484375,-0.7166212797164917,-3.002479076385498,0.46127963066101074
1696081747639150300,0.464150390625,-0.8925504684448242,-3.0452396869659424,0.47105345129966736
1696081747649150200,0.474150146484375,-1.0275516510009766,-2.8998537063598633,0.4594470262527466
1696081747659150300,0.484150390625,-1.137507438659668,-2.6988790035247803,0.47105345129966736
1696081747669150200,0.494150146484375,-1.2199742794036865,-2.505234718322754,0.5156466364860535
1696081747679150300,0.504150390625,-1.292667269706726,-2.383061647415161,0.5712353587150574
1696081747689150200,0.514150146484375,-1.2462414503097534,-2.1808652877807617,0.5700136423110962
1696081747699150300,0.524150390625,-1.1607203483581543,-1.8699349164962769,0.44173192977905273
1696081747709150200,0.534150146484375,-1.0611492395401,-1.6940057277679443,0.2816852331161499
1696081747719150300,0.544150390625,-1.0031170845031738,-1.7318793535232544,0.15645785629749298
1696081747729150200,0.554150146484375,-1.0128909349441528,-2.028148889541626,0.06360634416341782
1696081747739150300,0.564150390625,-1.0361038446426392,-2.461252450942993,-0.030466904863715172
1696081747749150200,0.574150146484375,-1.0128909349441528,-2.848541021347046,-0.15386168658733368
1696081747759150300,0.584150390625,-0.9493609666824341,-3.040963649749756,-0.2528218626976013
1696081747769150200,0.594150146484375,-0.891328752040863,-2.973768472671509,-0.3340669274330139
1696081747779150300,0.604150390625,-0.8314639329910278,-2.8754191398620605,-0.391488254070282
1696081747789150200,0.614150146484375,-0.7312820553779602,-2.862590789794922,-0.4501313269138336
1696081747799150300,0.624150390625,-0.5706244707107544,-2.9597184658050537,-0.5197699666023254
1696081747809150200,0.634150146484375,-0.35498905181884766,-3.103271722793579,-0.5845217108726501
1696081747819150300,0.644150390625,-0.1558469980955124,-3.1845169067382812,-0.7598400115966797
1696081747829150200,0.654150146484375,0.08605564385652542,-3.4423019886016846,-0.9907470941543579
1696081747839150300,0.664150390625,0.3511711657047272,-3.954207181930542,-1.1245265007019043
1696081747849150200,0.674150146484375,0.5643631219863892,-4.280409336090088,-1.2625820636749268
1696081747859150300,0.684150390625,0.7445683479309082,-4.22970724105835,-1.3462706804275513
1696081747869150200,0.694150146484375,0.9522625803947449,-3.4758996963500977,-1.1104766130447388
1696081747879150300,0.704150390625,1.0646617412567139,-2.7355308532714844,-0.7995462417602539
1696081747889150200,0.714150146484375,1.007851243019104,-2.164982795715332,-0.5264894962310791
1696081747899149300,0.7241494140625,1.027398943901062,-1.7453184127807617,-0.21616993844509125
1696081747909149400,0.7341494140625,1.0768790245056152,-1.4441617727279663,-0.0017562375869601965
1696081747919149300,0.7441494140625,1.133078694343567,-1.196150541305542,0.09842566400766373
1696081747929149400,0.7541494140625,1.2021064758300781,-0.9102655649185181,0.15462526679039001
1696081747939149300,0.7641494140625,1.3108404874801636,-0.548633337020874,0.20838139951229095
1696081747949149200,0.774149169921875,1.475163221359253,-0.07093672454357147,0.25786149501800537
1696081747959149300,0.7841494140625,1.6596444845199585,0.27847820520401,0.22304217517375946
1696081747969149200,0.794149169921875,1.740278720855713,0.06895141303539276,-0.007864889688789845
1696081747979149300,0.8041494140625,1.703015923500061,-0.2114357352256775,-0.3053562641143799
1696081747989149200,0.814149169921875,1.6071101427078247,-0.3617085814476013,-0.5643631219863892
1696081747999149000,0.824149169921875,1.5429692268371582,-0.40630173683166504,-0.8135961294174194
1696081748009149000,0.83414892578125,1.5344171524047852,-0.36598464846611023,-1.0017426013946533
1696081748019149000,0.844149169921875,1.5533539056777954,-0.24442245066165924,-1.1312460899353027
1696081748029149000,0.85414892578125,1.609553575515747,-0.0190131813287735,-1.2974014282226562
1696081748039149000,0.864149169921875,1.7897588014602661,0.23083069920539856,-1.532584547996521
1696081748049149000,0.87414892578125,2.0762546062469482,0.27847820520401,-1.7665458917617798
1696081748059149000,0.884149169921875,2.5576164722442627,0.10987938940525055,-1.9815704822540283
1696081748069149000,0.89414892578125,3.071964979171753,-0.21998783946037292,-2.181323528289795
1696081748079149000,0.904149169921875,3.5423312187194824,-0.7337254881858826,-2.360306978225708
1696081748089149000,0.91414892578125,3.9424479007720947,-1.260291337966919,-2.4733169078826904
1696081748099149000,0.924149169921875,4.204509258270264,-1.6225343942642212,-2.5435664653778076
1696081748109149000,0.93414892578125,4.294917106628418,-1.6897295713424683,-2.6235897541046143
1696081748119149000,0.944149169921875,4.225889205932617,-1.5681674480438232,-2.742708683013916
1696081748129149000,0.95414892578125,4.073783874511719,-1.3476450443267822,-2.89298152923584
1696081748139149000,0.964149169921875,3.885026693344116,-1.2071460485458374,-2.8978683948516846
1696081748149149000,0.97414892578125,3.683441162109375,-1.2383002042770386,-2.622368097305298
1696081748159149000,0.984149169921875,3.516063928604126,-1.3543646335601807,-2.0774762630462646
1696081748169149000,0.99414892578125,3.393280029296875,-1.5748869180679321,-1.429348349571228
1696081748179149000,1.004149169921875,3.2992067337036133,-2.0354793071746826,-0.9504299759864807
1696081748189149000,1.01414892578125,3.219794273376465,-2.6738336086273193,-0.762283444404602
1696081748199149600,1.024149658203125,3.1153364181518555,-3.3586134910583496,-0.762894332408905
1696081748209149700,1.034149658203125,2.9565114974975586,-3.9279398918151855,-0.7690029740333557
1696081748219149600,1.044149658203125,2.736599922180176,-4.332943439483643,-0.6572146415710449
1696081748229149700,1.054149658203125,2.4629323482513428,-4.563239574432373,-0.45868343114852905
1696081748239149600,1.064149658203125,2.0915262699127197,-4.558352947235107,-0.24488060176372528
1696081748249149400,1.0741494140625,1.6523141860961914,-4.281020164489746,-0.11659890413284302
1696081748259149300,1.0841494140625,1.2045499086380005,-4.118529796600342,-0.11110111325979233
1696081748269149400,1.0941494140625,0.8349764347076416,-4.3243913650512695,-0.11293371021747589
1696081748279149300,1.1041494140625,0.5753586888313293,-5.031162738800049,-0.017638733610510826
1696081748289149400,1.1141494140625,0.1727984994649887,-4.993288993835449,-0.21555908024311066
1696081748299149300,1.1241494140625,-0.33910655975341797,-4.766657829284668,-0.3059671223163605
1696081748309149200,1.134149169921875,-0.8980482816696167,-4.327445983886719,-0.3896556794643402
1696081748319149300,1.1441494140625,-1.4618768692016602,-4.007352352142334,-0.5301546454429626
1696081748329149200,1.154149169921875,-1.8962020874023438,-3.9871938228607178,-0.6230061650276184
1696081748339149300,1.1641494140625,-2.20346736907959,-4.080656051635742,-0.8227591514587402
1696081748349149700,1.174149658203125,-2.3861160278320312,-4.098982334136963,-1.14163076877594
1696081748359149600,1.184149658203125,-2.489352226257324,-4.021402359008789,-1.5057064294815063
1696081748369149700,1.194149658203125,-2.5431084632873535,-3.806377649307251,-1.864895224571228
1696081748379149600,1.204149658203125,-2.594421148300171,-3.4734561443328857,-2.1416172981262207
1696081748389149700,1.214149658203125,-2.656118392944336,-2.973768472671509,-2.352365732192993
1696081748399150000,1.224150146484375,-2.687272548675537,-2.4362070560455322,-2.455601930618286
1696081748409150200,1.234150146484375,-2.6072492599487305,-1.8711565732955933,-2.411008834838867
1696081748419150000,1.244150146484375,-2.3818399906158447,-1.3152692317962646,-2.2393555641174316
1696081748429150200,1.254150146484375,-2.01715350151062,-0.8082510828971863,-1.9675205945968628
1696081748439150000,1.264150146484375,-1.5687782764434814,-0.3818671405315399,-1.638875126838684
1696081748449150200,1.274150146484375,-1.12101411819458,0.006643159314990044,-1.2699124813079834
1696081748459150000,1.284150146484375,-0.7031822800636292,0.38171443343162537,-0.8991172909736633
1696081748469150200,1.294150146484375,-0.3030655086040497,0.7207446098327637,-0.5771912932395935
1696081748479150300,1.304150390625,0.10438159853219986,0.9711993932723999,-0.35666894912719727
1696081748489150200,1.314150146484375,0.4904484450817108,1.1404091119766235,-0.2393828183412552
1696081748499150300,1.324150390625,0.8361981511116028,1.2338714599609375,-0.17890715599060059
1696081748509150500,1.334150390625,1.162400245666504,1.2418127059936523,-0.15202908217906952
1696081748519150300,1.344150390625,1.4519503116607666,1.2314280271530151,-0.10987938940525055
1696081748529150500,1.354150390625,1.731115698814392,1.2008846998214722,-0.07567093521356583
1696081748539150300,1.364150390625,1.9754618406295776,1.142852544784546,-0.04573853686451912
1696081748549150700,1.374150634765625,2.170938730239868,1.0616074800491333,-0.04940372705459595
1696081748559151000,1.384151123046875,2.3114378452301025,0.9180541038513184,-0.11843150109052658
1696081748569151000,1.39415087890625,2.3896284103393555,0.7659486532211304,-0.2381610870361328
1696081748579151000,1.404151123046875,2.3896284103393555,0.6639341711997986,-0.3866013288497925
1696081748589151000,1.41415087890625,2.388406753540039,0.46357035636901855,-0.5930737853050232
1696081748599151400,1.4241513671875,2.429945468902588,0.339564710855484,-0.8911760449409485
1696081748609151000,1.43415087890625,2.3694698810577393,0.28764116764068604,-1.2399801015853882
1696081748619151000,1.444151123046875,2.140395402908325,0.21433734893798828,-1.5221998691558838
1696081748629151000,1.45415087890625,1.7995326519012451,0.29741501808166504,-1.6675857305526733
1696081748639151000,1.464151123046875,1.4666111469268799,0.2937498390674591,-1.665142297744751
1696081748649150700,1.474150634765625,1.2888493537902832,0.31207579374313354,-1.6321555376052856
1696081748659150300,1.484150390625,1.1440742015838623,0.17463110387325287,-1.569236397743225
1696081748669150200,1.494150146484375,1.0652726888656616,0.023747386410832405,-1.5741233825683594
1696081748679150300,1.504150390625,0.9644798636436462,-0.019624045118689537,-1.7024050951004028
1696081748689150200,1.514150146484375,0.772057294845581,0.014584408141672611,-1.903990626335144
1696081748699149800,1.52414990234375,0.48861584067344666,0.13675746321678162,-2.081752300262451
1696081748709150700,1.534150634765625,0.10071640461683273,0.25160011649131775,-2.159332275390625
1696081748719150600,1.544150634765625,-0.2859613001346588,0.3102431893348694,-2.123291254043579
1696081748729150700,1.554150634765625,-0.6451500654220581,0.24121540784835815,-1.9491946697235107
1696081748739150600,1.564150634765625,-0.8424595594406128,0.10010553896427155,-1.787926197052002
1696081748749150700,1.574150634765625,-0.9285915493965149,0.032299499958753586,-1.6993507146835327
1696081748759151900,1.58415185546875,-0.9230937361717224,0.19540052115917206,-1.5948927402496338
1696081748769151700,1.59415185546875,-0.8424595594406128,0.8978955745697021,-0.9192758202552795
1696081748779152000,1.60415185546875,-0.8058075904846191,1.493489146232605,-0.029245173558592796
1696081748789151700,1.61415185546875,-0.5626832246780396,1.67491614818573,0.6286566853523254
1696081748799151900,1.62415185546875,-0.4429536461830139,1.381700873374939,0.7447211146354675
1696081748809151500,1.6341513671875,-0.5639050006866455,1.0628291368484497,0.5187009572982788
1696081748819151400,1.6441513671875,-0.8082510828971863,1.0084621906280518,0.15951219201087952
1696081748829151500,1.6541513671875,-1.0855839252471924,1.1562916040420532,-0.1526399552822113
1696081748839151600,1.664151611328125,-1.2395219802856445,1.200273871421814,-0.37255144119262695
1696081748849151500,1.6741513671875,-1.2334133386611938,1.067716121673584,-0.4311945140361786
1696081748859151400,1.6841513671875,-1.5620588064193726,0.9204975366592407,-0.4373031556606293
1696081748869151200,1.694151123046875,-1.5651130676269531,1.31206214427948,-0.320627897977829
1696081748879151400,1.7041513671875,-1.548008918762207,1.6205490827560425,-0.09338602423667908
1696081748889151200,1.714151123046875,-1.4197272062301636,1.7360026836395264,0.32078060507774353
1696081748899151400,1.7241513671875,-1.5669456720352173,1.900936245918274,0.9261480569839478
1696081748909151700,1.73415185546875,-1.87848699092865,1.796478271484375,1.2370784282684326
1696081748919151600,1.744151611328125,-2.1576523780822754,1.304731845855713,0.9493609666824341
1696081748929151200,1.754151123046875,-2.1521546840667725,0.7390705943107605,0.21510092914104462
1696081748939151400,1.7641513671875,-1.9023107290267944,0.610788881778717,-0.5283221006393433
1696081748949151200,1.774151123046875,-1.4820353984832764,0.8093200922012329,-0.9919688105583191
1696081748959151600,1.784151611328125,-1.0990229845046997,1.3041208982467651,-1.1440742015838623
1696081748969151700,1.79415185546875,-0.9389762282371521,2.0347158908843994,-1.0506118535995483
1696081748979152000,1.80415185546875,-0.8088619709014893,2.6468026638031006,-0.915610671043396
1696081748989151700,1.81415185546875,-0.6243806481361389,3.06341290473938,-0.9394344091415405
1696081748999151900,1.82415185546875,-0.25786149501800537,3.326695680618286,-1.0328967571258545
1696081749009151000,1.83415087890625,0.25587618350982666,3.3383021354675293,-1.1086440086364746
1696081749019150800,1.84415087890625,0.7421249151229858,3.3334152698516846,-1.0854312181472778
1696081749029151000,1.85415087890625,1.2387583255767822,3.2967634201049805,-1.0988701581954956
1696081749039150800,1.86415087890625,1.8056412935256958,3.2472832202911377,-1.2014955282211304
1696081749049309000,1.874308837890625,2.4592671394348145,3.1049516201019287,-1.2747994661331177
1696081749059307800,1.884307861328125,3.122056007385254,2.764699697494507,-1.3206143379211426
1696081749069307600,1.8943076171875,3.9033524990081787,1.8826103210449219,-1.3261120319366455
1696081749079307800,1.904307861328125,4.837976455688477,0.7995462417602539,-1.4629459381103516
1696081749089307600,1.9143076171875,5.747554779052734,-0.28473955392837524,-1.6394859552383423
1696081749099308000,1.92430810546875,6.502583980560303,-0.30550897121429443,-1.4708871841430664
1696081749109308400,1.934308349609375,6.903311729431152,0.6254496574401855,-0.9223301410675049
1696081749119308300,1.944308349609375,6.923470497131348,1.8215237855911255,-0.27847820520401
1696081749129308200,1.95430810546875,6.688287258148193,2.639472484588623,0.14301882684230804
1696081749139308300,1.964308349609375,6.256405353546143,2.200871229171753,-0.004199698567390442
1696081749149308200,1.97430810546875,5.5160369873046875,0.491670161485672,-0.5478697419166565
1696081749159308300,1.984308349609375,4.555145740509033,-1.5999324321746826,-0.9748646020889282
1696081749169308200,1.99430810546875,3.502624988555908,-2.667114019393921,-0.9693667888641357
1696081749179308000,2.00430810546875,2.343202829360962,-2.748359203338623,-0.4055381715297699
1696081749189308000,2.014307861328125,1.4537829160690308,-1.6933947801589966,0.3562107980251312
1696081749199308000,2.02430810546875,0.9540951251983643,-0.4289037585258484,0.9548587203025818
1696081749209308000,2.034307861328125,0.9162214994430542,0.4116468131542206,1.2456306219100952
1696081749219308000,2.04430810546875,1.1868348121643066,1.1672871112823486,1.2920563220977783
1696081749229308400,2.054308349609375,1.3108404874801636,1.390252947807312,1.1894309520721436
1696081749239308300,2.064308349609375,1.3682618141174316,0.9363800883293152,0.8363508582115173
1696081749249308400,2.074308349609375,1.4049136638641357,0.61139976978302,0.3372739851474762
1696081749259308300,2.084308349609375,1.389031171798706,0.7134142518043518,-0.21006128191947937
1696081749269308400,2.094308349609375,1.3395510911941528,1.2485321760177612,-0.685925304889679
1696081749279308300,2.104308349609375,1.159956693649292,1.8600083589553833,-1.097037672996521
1696081749289308200,2.11430810546875,0.9033933281898499,2.06953501701355,-1.4995977878570557
1696081749299308300,2.124308349609375,0.5930737853050232,1.9827922582626343,-1.873447299003601
1696081749309308200,2.13430810546875,0.22288945317268372,1.9913443326950073,-1.9473620653152466
1696081749319308300,2.144308349609375,-0.0746019184589386,1.932090401649475,-1.8013652563095093
1696081749329308200,2.15430810546875,-0.18211419880390167,1.7201201915740967,-1.588173270225525
1696081749339308300,2.164308349609375,-0.03367394581437111,1.1874456405639648,-1.3926963806152344
1696081749349308200,2.17430810546875,0.2735912799835205,0.5277112126350403,-1.094594120979309
1696081749359308300,2.184308349609375,0.6291148662567139,-0.01840231567621231,-0.7134142518043518
1696081749369308200,2.19430810546875,1.0787116289138794,-0.2358703464269638,-0.4800637364387512
1696081749379308300,2.204308349609375,1.5057064294815063,-0.17478381097316742,-0.5283221006393433
1696081749389308200,2.21430810546875,1.6883552074432373,0.1831832081079483,-0.37743836641311646
1696081749399308000,2.22430810546875,2.0347158908843994,0.9944122433662415,-0.23510676622390747
1696081749409308200,2.23430810546875,2.379243850708008,1.3615422248840332,-0.22594378888607025
1696081749419308000,2.24430810546875,2.4953081607818604,1.0890964269638062,-0.2937498390674591
1696081749429308200,2.25430810546875,2.4733169078826904,0.5497023463249207,-0.5350415706634521
1696081749439308000,2.26430810546875,2.407954454421997,0.13431400060653687,-0.7268533110618591
1696081749449308200,2.27430810546875,2.0964131355285645,0.17585283517837524,-0.6431647539138794
1696081749459307800,2.284307861328125,1.5405257940292358,0.5112178325653076,-0.734794557094574
1696081749469308000,2.294307861328125,1.1636219024658203,0.8917868733406067,-0.9742537140846252
1696081749479308000,2.30430810546875,0.9657015800476074,1.2497539520263672,-1.3004556894302368
1696081749489308200,2.31430810546875,0.8972846865653992,1.334664225578308,-1.5380823612213135
1696081749499308000,2.32430810546875,0.9455430507659912,0.9675341844558716,-1.569236397743225
1696081749509308200,2.33430810546875,1.0756573677062988,0.19234620034694672,-1.4788284301757812
1696081749519308000,2.34430810546875,1.2717450857162476,-0.5852852463722229,-1.5460236072540283
1696081749529308200,2.35430810546875,1.437900424003601,-1.1155163049697876,-1.866117000579834
1696081749539308000,2.36430810546875,1.4995977878570557,-1.3885730504989624,-2.111684799194336
1696081749549308200,2.37430810546875,1.105589747428894,-1.584049940109253,-2.1129064559936523
1696081749559308000,2.38430810546875,0.49411362409591675,-1.4490487575531006,-2.086639404296875
1696081749569308200,2.39430810546875,0.1929570585489273,-0.9078221321105957,-1.9852356910705566
1696081749579307800,2.404307861328125,0.4922810196876526,-0.4185190498828888,-1.3676508665084839
1696081749589308000,2.414307861328125,1.163011074066162,-0.5516876578330994,-0.42752930521965027
1696081749599307800,2.424307861328125,1.4269047975540161,-0.7227299213409424,0.5089271068572998
1696081749609308000,2.434307861328125,1.2021064758300781,0.030466904863715172,0.9450848698616028
1696081749619307800,2.444307861328125,0.867352306842804,1.210047721862793,0.9059895277023315
1696081749629308000,2.454307861328125,0.5118287205696106,2.2283599376678467,0.6927975416183472
1696081749639307800,2.464307861328125,0.27236953377723694,2.798908233642578,0.5498550534248352
1696081749649308000,2.474307861328125,0.1831832081079483,2.8086819648742676,0.5608506798744202
1696081749659307800,2.484307861328125,0.22227859497070312,2.5680010318756104,0.5125923156738281
1696081749669308000,2.494307861328125,0.26565003395080566,2.3254876136779785,0.28840476274490356
1696081749679307800,2.504307861328125,0.2332741618156433,2.1239020824432373,-0.015806138515472412
1696081749689308000,2.514307861328125,0.14103351533412933,2.059150457382202,-0.3383429944515228
1696081749699307800,2.524307861328125,0.17585283517837524,1.6883552074432373,-0.4519639313220978
1696081749709308000,2.534307861328125,0.32246050238609314,0.9944122433662415,-0.401262104511261
1696081749719307800,2.544307861328125,0.4617377817630768,0.5930737853050232,-0.39759692549705505
1696081749729308000,2.554307861328125,0.5460371971130371,0.5704717636108398,-0.45746171474456787
1696081749739308500,2.56430859375,0.6297256946563721,0.8001571297645569,-0.5203808546066284
1696081749749308400,2.574308349609375,0.6700428128242493,0.9699776768684387,-0.5179373621940613
1696081749759308800,2.584308837890625,0.5655848383903503,0.8722392320632935,-0.3957643210887909
1696081749769308700,2.59430859375,0.33223432302474976,0.4220315217971802,-0.14042264223098755
1696081749779308800,2.604308837890625,-0.06788240373134613,-0.4221842288970947,0.2621375620365143
1696081749789308700,2.61430859375,-0.1802816092967987,-1.2657891511917114,0.5480225086212158
1696081749799308800,2.624308837890625,-0.07765624672174454,-1.9157497882843018,0.6256023645401001
1696081749809308700,2.63430859375,0.03413209691643715,-2.349464178085327,0.5345834493637085
1696081749819308800,2.644308837890625,0.09033169597387314,-2.6066384315490723,0.348880410194397
1696081749829308700,2.65430859375,0.0720057412981987,-2.7636306285858154,0.1454622894525528
1696081749839308800,2.664308837890625,0.0017562375869601965,-2.8589258193969727,-0.0365755558013916
1696081749849308700,2.67430859375,-0.06482807546854019,-2.8387670516967773,-0.19051359593868256
1696081749859308800,2.684308837890625,-0.12102767825126648,-2.5736515522003174,-0.3285691440105438
1696081749869308700,2.69430859375,-0.16378824412822723,-2.1991913318634033,-0.3536146283149719
1696081749879309000,2.70430908203125,-0.16806429624557495,-1.8754326105117798,-0.23632849752902985
1696081749889309000,2.714308837890625,-0.11614075303077698,-1.5816065073013306,-0.0188604649156332
1696081749899309000,2.72430908203125,-0.03000875562429428,-1.423392415046692,0.25480717420578003
1696081749909309000,2.734308837890625,0.13431400060653687,-1.4020121097564697,0.5241987109184265
1696081749919309000,2.74430908203125,0.3249039649963379,-1.4490487575531006,0.6439283490180969
1696081749929309000,2.754308837890625,0.4116468131542206,-1.3995686769485474,0.5144249200820923
1696081749939309000,2.76430908203125,0.35789066553115845,-1.2987759113311768,0.2621375620365143
1696081749949309000,2.774308837890625,0.23571762442588806,-1.150335669517517,-0.005421428941190243
1696081749959309000,2.78430908203125,0.08972083032131195,-0.930424153804779,-0.20456349849700928
1696081749969309200,2.79430908203125,-0.03611740842461586,-0.6445391774177551,-0.2693152129650116
1696081749979309000,2.80430908203125,-0.12469286471605301,-0.26397013664245605,-0.22288945317268372
1696081749989309200,2.81430908203125,-0.18883371353149414,0.1269836127758026,-0.12576188147068024
1696081749999309000,2.82430908203125,-0.2315942794084549,0.4153120219707489,-0.03779728710651398
1696081750009309200,2.83430908203125,-0.25969409942626953,0.5808565020561218,0.014737123623490334
1696081750019309000,2.84430908203125,-0.2615266740322113,0.621173620223999,0.02695442922413349
1696081750029309000,2.854308837890625,-0.2364812046289444,0.5521458387374878,0.00862847175449133
1696081750039308300,2.864308349609375,-0.19188804924488068,0.39332085847854614,-0.026190847158432007
1696081750049308400,2.874308349609375,-0.13202324509620667,0.18990273773670197,-0.05734497308731079
1696081750059308300,2.884308349609375,-0.06849326193332672,0.0011453722836449742,-0.08116871863603592
1696081750069308400,2.894308349609375,-0.02451096847653389,-0.13935363292694092,-0.09827294945716858
1696081750079308300,2.904308349609375,0.006032294128090143,-0.216322660446167,-0.10377073287963867
1696081750089308400,2.914308349609375,0.027412578463554382,-0.2315942794084549,-0.10071640461683273
1696081750099308300,2.924308349609375,0.043905939906835556,-0.20288361608982086,-0.08972083032131195
1696081750109308400,2.934308349609375,0.04512767121195793,-0.15645785629749298,-0.08116871863603592
1696081750119308300,2.944308349609375,0.0316886343061924,-0.12041681259870529,-0.07444920390844345
1696081750129308400,2.954308349609375,0.008475755341351032,-0.10025826096534729,-0.06528622657060623
1696081750139308300,2.964308349609375,-0.014737123623490334,-0.09048441797494888,-0.05429064854979515
1696081750149308400,2.974308349609375,-0.03856086730957031,-0.08376489579677582,-0.04207334294915199
1696081750159308300,2.984308349609375,-0.05749769136309624,-0.07215845584869385,-0.03413209691643715
1696081750169308400,2.994308349609375,-0.06604980677366257,-0.05322163552045822,-0.0316886343061924
1696081750179308300,3.004308349609375,-0.06360634416341782,-0.029397889971733093,-0.032299499958753586
1696081750189308400,3.014308349609375,-0.05016730725765228,-0.00985020212829113,-0.04329507425427437
1696081750199308300,3.024308349609375,-0.040393464267253876,0.0017562375869601965,-0.058566704392433167
1696081750209308400,3.034308349609375,-0.04161519557237625,0.010308351367712021,-0.07261660695075989
1696081750219308300,3.044308349609375,-0.032452214509248734,-0.0012980886967852712,-0.07261660695075989
1696081750229308400,3.054308349609375,-0.03061962127685547,-0.02695442922413349,-0.0671188160777092
1696081750239308000,3.06430810546875,-0.0342848114669323,-0.058108557015657425,-0.06284276396036148
1696081750249308000,3.074307861328125,-0.034895677119493484,-0.09659306704998016,-0.06345362961292267
1696081750259308000,3.08430810546875,-0.032452214509248734,-0.13874277472496033,-0.06834054738283157
1696081750269308000,3.094307861328125,-0.029397889971733093,-0.17356209456920624,-0.07811439037322998
1696081750279307800,3.104307861328125,-0.028787024319171906,-0.19799669086933136,-0.08483391255140305
1696081750289308000,3.114307861328125,-0.025732697919011116,-0.20960313081741333,-0.09033169597387314
1696081750299307800,3.124307861328125,-0.023900102823972702,-0.21510092914104462,-0.09399688988924026
1696081750309308000,3.134307861328125,-0.01595885492861271,-0.20838139951229095,-0.09644035249948502
1696081750319307800,3.144307861328125,-0.0006872233934700489,-0.18394680321216583,-0.09094256162643433
1696081750329308000,3.154307861328125,0.012751812115311623,-0.1552361249923706,-0.0872773751616478
1696081750339307800,3.164307861328125,0.0164170041680336,-0.14668402075767517,-0.08666650950908661
1696081750349308000,3.174307861328125,0.009086620062589645,-0.15340353548526764,-0.09155342727899551
1696081750359307800,3.184307861328125,0.002367102773860097,-0.15767958760261536,-0.10560332983732224
1696081750369308000,3.194307861328125,0.010308351367712021,-0.16317738592624664,-0.1275944709777832
1696081750379307800,3.204307861328125,0.02557998150587082,-0.16806429624557495,-0.15997034311294556
1696081750389308000,3.214307861328125,0.03413209691643715,-0.1650099754333496,-0.19478964805603027
1696081750399307800,3.224307861328125,0.0316886343061924,-0.13752104341983795,-0.208839550614357
1696081750409308000,3.234307861328125,0.02557998150587082,-0.08865182101726532,-0.19662225246429443
1696081750419307800,3.244307861328125,0.024358252063393593,-0.04589125141501427,-0.17402023077011108
1696081750429308000,3.254307861328125,0.03901901841163635,-0.019624045118689537,-0.15141822397708893
1696081750439308000,3.26430810546875,0.06284276396036148,-0.00007635815563844517,-0.1275944709777832
1696081750449308000,3.274307861328125,0.09399688988924026,0.02496911771595478,-0.11354457587003708
1696081750459308000,3.28430810546875,0.14347697794437408,0.04634939879179001,-0.12148582190275192
1696081750469308000,3.294307861328125,0.20028744637966156,0.06406449526548386,-0.14164437353610992
1696081750479308000,3.30430810546875,0.24976752698421478,0.10132727026939392,-0.14897476136684418
1696081750489308200,3.31430810546875,0.2796999216079712,0.18990273773670197,-0.14653129875659943
1696081750499308000,3.32430810546875,0.3004693388938904,0.3151301145553589,-0.15141822397708893
1696081750509308200,3.33430810546875,0.30718886852264404,0.44402268528938293,-0.18684840202331543
1696081750519308000,3.34430810546875,0.2955824136734009,0.5283221006393433,-0.2583196461200714
1696081750529308200,3.35430810546875,0.2680934965610504,0.542982816696167,-0.3340669274330139
1696081750539308500,3.36430859375,0.20578522980213165,0.4812854528427124,-0.3749949038028717
1696081750549308400,3.374308349609375,0.10926852375268936,0.35300374031066895,-0.37804922461509705
1696081750559308500,3.38430859375,0.013973542489111423,0.15569427609443665,-0.38171443343162537
1696081750569308400,3.394308349609375,-0.05138903856277466,-0.1308015137910843,-0.38721221685409546
1696081750579308500,3.40430859375,-0.06849326193332672,-0.45700356364250183,-0.3756057620048523
1696081750589308400,3.414308349609375,-0.05077817291021347,-0.7349472641944885,-0.3389538526535034
1696081750599308500,3.42430859375,-0.017180584371089935,-0.8778896927833557,-0.28764116764068604
1696081750609308400,3.434308349609375,0.04329507425427437,-0.843070387840271,-0.21250474452972412
1696081750619308500,3.44430859375,0.11843150109052658,-0.5956699848175049,-0.1330922693014145
1696081750629308400,3.454308349609375,0.1471421718597412,-0.31955888867378235,-0.11598803848028183
1696081750639308500,3.46430859375,0.16913332045078278,-0.11797334998846054,-0.15386168658733368
1696081750649308400,3.474308349609375,0.2039526402950287,0.004810563754290342,-0.22227859497070312
1696081750659308500,3.48430859375,0.23571762442588806,0.009697485715150833,-0.30230194330215454
1696081750669308400,3.494308349609375,0.27175867557525635,-0.07032585889101028,-0.3609450161457062
1696081750679308500,3.50430859375,0.3053562641143799,-0.1460731476545334,-0.38293614983558655
1696081750689308400,3.514308349609375,0.33162346482276917,-0.11614075303077698,-0.37866008281707764
1696081750699308500,3.52430859375,0.30230194330215454,0.04268420860171318,-0.3597232699394226
1696081750709308400,3.534308349609375,0.22288945317268372,0.2393828183412552,-0.33651039004325867
1696081750719308500,3.54430859375,0.12576188147068024,0.39759692549705505,-0.3255148231983185
1696081750729308400,3.554308349609375,0.0365755558013916,0.4415792226791382,-0.3438407778739929
1696081750739308500,3.56430859375,-0.03061962127685547,0.3658319115638733,-0.3957643210887909
1696081750749308400,3.574308349609375,-0.06849326193332672,0.2241111844778061,-0.48372891545295715
1696081750759308500,3.58430859375,-0.07399105280637741,0.0921642929315567,-0.58146733045578
1696081750769308400,3.594308349609375,-0.06666067242622375,-0.0012980886967852712,-0.6718754172325134
1696081750779308300,3.604308349609375,-0.064217209815979,-0.04711298272013664,-0.7378488779067993
1696081750789308400,3.614308349609375,-0.08132143318653107,-0.06360634416341782,-0.7690029740333557
1696081750799308300,3.624308349609375,-0.1100321039557457,-0.06666067242622375,-0.762283444404602
1696081750809308400,3.634308349609375,-0.1350775808095932,-0.06788240373134613,-0.7183011770248413
1696081750819308300,3.644308349609375,-0.1350775808095932,-0.07215845584869385,-0.6486625075340271
1696081750829308400,3.654308349609375,-0.09659306704998016,-0.05138903856277466,-0.5478697419166565
1696081750839308300,3.664308349609375,-0.03611740842461586,-0.022678371518850327,-0.4305836260318756
1696081750849308400,3.674308349609375,0.03107776865363121,-0.006795875728130341,-0.3194061517715454
1696081750859308300,3.684308349609375,0.10499246418476105,-0.02695442922413349,-0.21128301322460175
1696081750869308400,3.694308349609375,0.18073976039886475,-0.08681922405958176,-0.10804679244756699
1696081750879308300,3.704308349609375,0.26076310873031616,-0.17722727358341217,-0.021303925663232803
1696081750889308400,3.714308349609375,0.3346777856349945,-0.3024546504020691,0.049556441605091095
1696081750899308300,3.724308349609375,0.39820778369903564,-0.4429536461830139,0.0947604700922966
1696081750909308400,3.734308349609375,0.44829872250556946,-0.6243806481361389,0.10942123830318451
1696081750919308300,3.744308349609375,0.4702898859977722,-0.8888853192329407,0.0746019184589386
1696081750929308400,3.754308349609375,0.4348596930503845,-1.2218068838119507,0.012293662875890732
1696081750939308300,3.764308349609375,0.339564710855484,-1.5412893295288086,0.0006872233934700489
1696081750949308400,3.774308349609375,0.2235003262758255,-1.7104990482330322,0.11675161868333817
1696081750959308300,3.784308349609375,0.11965323239564896,-1.5388458967208862,0.3782019317150116
1696081750969308400,3.794308349609375,-0.008017606101930141,-1.0568732023239136,0.7306711673736572
1696081750979308300,3.804308349609375,-0.13141238689422607,-0.4728860557079315,1.0477102994918823
1696081750989308400,3.814308349609375,-0.19433151185512543,-0.07276932150125504,1.2358567714691162
1696081750999308300,3.824308349609375,-0.22853995859622955,0.029856039211153984,1.2951107025146484
1696081751009308400,3.834308349609375,-0.2957351505756378,0.004810563754290342,1.3397037982940674
1696081751019308300,3.844308349609375,-0.41607558727264404,0.04207334294915199,1.444772720336914
1696081751029308400,3.854308349609375,-0.4948772192001343,0.10132727026939392,1.527239441871643
1696081751039308300,3.864308349609375,-0.6732498407363892,0.2577087879180908,1.7495944499969482
1696081751049308400,3.874308349609375,-0.8400160670280457,0.37866008281707764,2.0244836807250977
1696081751059308300,3.884308349609375,-0.9707412123680115,0.37377315759658813,2.3219752311706543
1696081751069308400,3.894308349609375,-1.0751992464065552,0.1727984994649887,2.6041948795318604
1696081751079308300,3.904308349609375,-1.1631637811660767,-0.21449005603790283,2.817997694015503
1696081751089308400,3.914308349609375,-1.2725086212158203,-0.739223301410675,2.9420034885406494
1696081751099308300,3.924308349609375,-1.4148402214050293,-1.3506994247436523,2.918179750442505
1696081751109308400,3.934308349609375,-1.5217416286468506,-1.8241199254989624,2.689105272293091
1696081751119308300,3.944308349609375,-1.5034157037734985,-1.9023107290267944,2.2926535606384277
1696081751129308400,3.954308349609375,-1.3806318044662476,-1.6494125127792358,1.78380286693573
1696081751139308300,3.964308349609375,-1.232802391052246,-1.2743412256240845,1.2480740547180176
1696081751149308400,3.974308349609375,-1.2095896005630493,-0.9377545118331909,0.833296537399292
1696081751159308300,3.984308349609375,-1.3030519485473633,-0.8400160670280457,0.68241286277771
1696081751169308400,3.994308349609375,-1.499139666557312,-0.9224829077720642,0.8015315532684326
1696081751179308300,4.004308349609375,-1.7288249731063843,-0.9377545118331909,1.0794752836227417
1696081751189308400,4.014308349609375,-1.9352974891662598,-0.7239516973495483,1.3427581787109375
1696081751199308300,4.024308349609375,-2.0550270080566406,-0.2358703464269638,1.4075099229812622
1696081751209308400,4.034308349609375,-2.0513617992401123,0.4959462285041809,1.2554044723510742
1696081751219308300,4.044308349609375,-1.956677794456482,1.1116983890533447,0.9988410472869873
1696081751229308400,4.054308349609375,-1.7984635829925537,1.5002087354660034,0.7325037717819214
1696081751239308300,4.064308349609375,-1.5889368057250977,1.7188984155654907,0.5883395671844482
1696081751249308400,4.074308349609375,-1.3891838788986206,1.693242073059082,0.5828418135643005
1696081751259308300,4.084308349609375,-1.2560153007507324,1.5075390338897705,0.6518695950508118
1696081751269308400,4.094308349609375,-1.1839332580566406,1.3358858823776245,0.7337254881858826
1696081751279308300,4.104308349609375,-1.1356748342514038,1.244866967201233,0.7874816656112671
1696081751289308400,4.114308349609375,-1.1063532829284668,1.267469048500061,0.8180249333381653
1696081751299308300,4.124308349609375,-1.0825295448303223,1.3548227548599243,0.8180249333381653
1696081751309308400,4.134308349609375,-1.0055605173110962,1.4892131090164185,0.7746534943580627
1696081751319308300,4.144308349609375,-0.901102602481842,1.626046895980835,0.6848562955856323
1696081751329308400,4.154308349609375,-0.7844273447990417,1.7341700792312622,0.5803983211517334
1696081751339308300,4.164308349609375,-0.662254273891449,1.771432876586914,0.47044259309768677
1696081751349308400,4.174308349609375,-0.5431355834007263,1.714011549949646,0.34949126839637756
1696081751359308300,4.184308349609375,-0.40446916222572327,1.5851190090179443,0.22304217517375946
1696081751369308400,4.194308349609375,-0.24320071935653687,1.3652074337005615,0.07887797802686691
1696081751379308300,4.204308349609375,-0.06849326193332672,1.0726029872894287,-0.08116871863603592
1696081751389308400,4.214308349609375,0.10071640461683273,0.7604508996009827,-0.2540435791015625
1696081751399308300,4.224308349609375,0.2485457956790924,0.47395506501197815,-0.4244749844074249
1696081751409308400,4.234308349609375,0.3853796124458313,0.22594378888607025,-0.5979607105255127
1696081751419308300,4.244308349609375,0.54359370470047,0.009086620062589645,-0.7616726160049438
1696081751429308400,4.254308349609375,0.7402923107147217,-0.19494237005710602,-0.924773633480072
1696081751439308300,4.264308349609375,0.9223301410675049,-0.3916409909725189,-1.1074223518371582
1696081751449308400,4.274308349609375,0.9883036017417908,-0.5852852463722229,-1.3279446363449097
1696081751459308300,4.284308349609375,0.9357692003250122,-0.719675600528717,-1.5221998691558838
1696081751469308400,4.294308349609375,0.7983245253562927,-0.6677520871162415,-1.5478562116622925
1696081751479308500,4.30430859375,0.5600870847702026,-0.40141481161117554,-1.2980122566223145
1696081751489308400,4.314308349609375,0.2540435791015625,0.038408152759075165,-0.9363800883293152
1696081751499308500,4.32430859375,0.035964690148830414,0.5032765865325928,-0.7042512893676758
1696081751509308400,4.334308349609375,-0.08926268666982651,0.6578255295753479,-0.5277112126350403
1696081751519308300,4.344308349609375,-0.25480717420578003,0.6730971336364746,-0.22288945317268372
1696081751529308400,4.354308349609375,-0.4728860557079315,0.7555639743804932,0.1863902509212494
1696081751539308300,4.364308349609375,-0.5956699848175049,0.7445683479309082,0.4289037585258484
1696081751549308400,4.374308349609375,-0.5932264924049377,0.5075526833534241,0.4246276915073395
1696081751559308300,4.384308349609375,-0.5596289038658142,0.16974417865276337,0.22976168990135193
1696081751569308400,4.394308349609375,-0.43073636293411255,-0.32505667209625244,-0.035964690148830414
1696081751579308300,4.404308349609375,-0.16134478151798248,-0.9243154525756836,-0.20089830458164215
1696081751589308400,4.414308349609375,0.12881620228290558,-1.6714036464691162,-0.3194061517715454
1696081751599308800,4.424308837890625,0.4006512463092804,-2.4728589057922363,-0.4195880591869354
1696081751609309000,4.434308837890625,0.6425538659095764,-2.770350217819214,-0.38415786623954773
1696081751619308800,4.444308837890625,0.734183669090271,-2.1918609142303467,-0.11659890413284302
1696081751629309000,4.454308837890625,0.5106070041656494,-1.0269408226013184,0.28840476274490356
1696081751639308800,4.464308837890625,0.3652210533618927,0.01947133056819439,0.4179081916809082
1696081751649309000,4.474308837890625,0.5252677798271179,0.2491566687822342,0.3360522389411926
1696081751659308800,4.484308837890625,0.8294786214828491,-0.013515393249690533,0.24381159245967865
1696081751669309000,4.494308837890625,1.097037672996521,-0.22426390647888184,0.07582364976406097
1696081751679308800,4.504308837890625,1.1575132608413696,-0.19249890744686127,-0.2387719452381134
1696081751689309000,4.514308837890625,1.0445032119750977,-0.11308643221855164,-0.5307655334472656
1696081751699308800,4.524308837890625,0.9095019698143005,-0.2676353454589844,-0.6675993800163269
1696081751709309000,4.534308837890625,0.8423067927360535,-0.7123452425003052,-0.7115816473960876
1696081751719308800,4.544308837890625,0.8435285687446594,-1.2890020608901978,-0.7476227283477783
1696081751729309000,4.554308837890625,0.8600218892097473,-1.7990745306015015,-0.8441393971443176
1696081751739308800,4.564308837890625,0.866741418838501,-2.050750970840454,-0.9791406393051147
1696081751749309000,4.574308837890625,0.8551349639892578,-1.9707276821136475,-1.1288026571273804
1696081751759308800,4.584308837890625,0.8649088144302368,-1.7092772722244263,-1.303510069847107
1696081751769308700,4.59430859375,0.924773633480072,-1.5553392171859741,-1.44461989402771
1696081751779308800,4.604308837890625,0.9986883401870728,-1.554728388786316,-1.4782174825668335
1696081751789308700,4.61430859375,1.0487792491912842,-1.4673746824264526,-1.4073572158813477
1696081751799308800,4.624308837890625,1.0683269500732422,-1.1295661926269531,-1.2766319513320923
1696081751809308700,4.63430859375,1.057942271232605,-0.5351943373680115,-1.1300243139266968
1696081751819308800,4.644308837890625,1.0133490562438965,0.16913332045078278,-1.0011317729949951
1696081751829308700,4.65430859375,0.943710446357727,0.7598400115966797,-0.9198867082595825
1696081751839308800,4.664308837890625,0.8624653816223145,1.0854312181472778,-0.9095019698143005
1696081751849308700,4.67430859375,0.8007679581642151,1.1685088872909546,-0.934547483921051
1696081751859308800,4.684308837890625,0.7690029740333557,1.0793225765228271,-0.9369909167289734
1696081751869308700,4.69430859375,0.7323510646820068,0.8685740232467651,-0.8820130825042725
1696081751879308800,4.704308837890625,0.6902013421058655,0.6639341711997986,-0.772057294845581
1696081751889308700,4.71430859375,0.6437755823135376,0.4501313269138336,-0.6559929251670837
1696081751899308300,4.724308349609375,0.5863542556762695,0.26259568333625793,-0.5594761967658997
1696081751909308200,4.73430810546875,0.553367555141449,0.1575268805027008,-0.5008331537246704
1696081751919308300,4.744308349609375,0.553367555141449,0.10071640461683273,-0.5216025710105896
1696081751929308200,4.75430810546875,0.5423719882965088,0.0005345070967450738,-0.6065128445625305
1696081751939308300,4.764308349609375,0.5380959510803223,-0.16378824412822723,-0.7183011770248413
1696081751949308200,4.77430810546875,0.5490915179252625,-0.3983604907989502,-0.8123744130134583
1696081751959308300,4.784308349609375,0.5582544803619385,-0.672639012336731,-0.8649088144302368
1696081751969308400,4.794308349609375,0.5649740099906921,-0.8937721848487854,-0.905836820602417
1696081751979308300,4.804308349609375,0.5881868600845337,-0.9615782499313354,-0.9632581472396851
1696081751989308400,4.814308349609375,0.6193410158157349,-0.8442921042442322,-0.9883036017417908
1696081751999308300,4.824308349609375,0.6437755823135376,-0.4783838391304016,-0.9754754304885864
1696081752009308400,4.834308349609375,0.6419430375099182,-0.04161519557237625,-0.9406561255455017
1696081752019308300,4.844308349609375,0.6358343362808228,0.1825723499059677,-0.9192758202552795
1696081752029308200,4.85430810546875,0.6480516791343689,0.06956227868795395,-0.9504299759864807
1696081752039308300,4.864308349609375,0.6773731708526611,-0.27924177050590515,-0.9956340193748474
1696081752049308200,4.87430810546875,0.7189120650291443,-0.6188828349113464,-0.9626472592353821
1696081752059308300,4.884308349609375,0.7616726160049438,-0.7703774571418762,-0.7952702045440674
1696081752069308200,4.89430810546875,0.7763333916664124,-0.7520514726638794,-0.5161047577857971
1696081752079308300,4.904308349609375,0.7665595412254333,-0.6695846915245056,-0.19906571507453918
1696081752089308200,4.91430810546875,0.7506770491600037,-0.5498550534248352,0.0697149932384491
1696081752099308300,4.924308349609375,0.7354053854942322,-0.4172973334789276,0.26824620366096497
1696081752109308200,4.93430810546875,0.6987534761428833,-0.2670244574546814,0.39591702818870544
1696081752119308300,4.944308349609375,0.6254496574401855,-0.1405753642320633,0.4472297132015228
1696081752129308200,4.95430810546875,0.5099961161613464,-0.27374398708343506,0.368428111076355
1696081752139308300,4.964308349609375,0.3560580909252167,-0.7361689805984497,0.15401439368724823
1696081752149308200,4.97430810546875,0.13553573191165924,-1.299386739730835,-0.05123632401227951
1696081752159308300,4.984308349609375,-0.1198059469461441,-1.6011542081832886,-0.06284276396036148
1696081752169308200,4.99430810546875,-0.36964982748031616,-1.4466052055358887,0.17661641538143158
1696081752179308300,5.004308349609375,-0.6390414237976074,-0.8931613564491272,0.5791766047477722
1696081752189308200,5.01430810546875,-0.8968265652656555,-0.17295122146606445,0.9970084428787231
1696081752199308300,5.024308349609375,-1.1118510961532593,0.38904479146003723,1.3256539106369019
1696081752209308200,5.03430810546875,-1.261513113975525,0.5942955017089844,1.5687782764434814
1696081752219308300,5.044308349609375,-1.3641384840011597,0.45807257294654846,1.7703638076782227
1696081752229308400,5.054308349609375,-1.48081374168396,0.27114781737327576,1.945682168006897
1696081752239308300,5.064308349609375,-1.6433038711547852,0.3004693388938904,2.100231170654297
1696081752249308400,5.074308349609375,-1.813124418258667,0.4965570867061615,2.232177972793579
1696081752259308300,5.084308349609375,-1.9756145477294922,0.6321691870689392,2.340301036834717
1696081752269308200,5.09430810546875,-2.1045072078704834,0.449520468711853,2.4679720401763916
1696081752279308300,5.104308349609375,-2.170480489730835,-0.13141238689422607,2.6206881999969482
1696081752289308200,5.11430810546875,-2.223625898361206,-0.7856490612030029,2.6683356761932373
1696081752299308300,5.124308349609375,-2.2004129886627197,-1.2474632263183594,2.502791166305542
1696081752309308200,5.13430810546875,-2.0098230838775635,-1.4747051000595093,2.1332178115844727
1696081752319308300,5.144308349609375,-1.7190511226654053,-1.5718326568603516,1.6384168863296509
1696081752329308200,5.15430810546875,-1.4569900035858154,-1.563280463218689,1.0715340375900269
1696081752339308300,5.164308349609375,-1.300608515739441,-1.6628515720367432,0.6585890650749207
1696081752349308200,5.17430810546875,-1.3116040229797363,-1.6854535341262817,0.5755113959312439
1696081752359308300,5.184308349609375,-1.5131895542144775,-1.3042736053466797,0.804585874080658
1696081752369308200,5.19430810546875,-1.7831920385360718,-0.5168683528900146,1.109407663345337
1696081752379308300,5.204308349609375,-1.9438495635986328,0.48861584067344666,1.2468522787094116
1696081752389308200,5.21430810546875,-1.9517908096313477,1.344438076019287,1.1894309520721436
1696081752399308300,5.224308349609375,-1.8192330598831177,1.761659026145935,1.0196104049682617
1696081752409308200,5.23430810546875,-1.6194801330566406,1.7867045402526855,0.8449029922485352
1696081752419308300,5.244308349609375,-1.4325553178787231,1.5826754570007324,0.7025713920593262
1696081752429308200,5.25430810546875,-1.3183236122131348,1.293736219406128,0.5822309255599976
1696081752439308300,5.264308349609375,-1.2383002042770386,1.2027173042297363,0.5645158290863037
1696081752449308400,5.274308349609375,-1.1857657432556152,1.2845731973648071,0.6280458569526672
1696081752459308300,5.284308349609375,-1.150335669517517,1.4415656328201294,0.7086800336837769
1696081752469308400,5.294308349609375,-1.126511812210083,1.5570191144943237,0.7667122483253479
1696081752479308500,5.30430859375,-1.0923033952713013,1.5942819118499756,0.7783187031745911
1696081752489308700,5.31430859375,-1.0299952030181885,1.6071101427078247,0.7215082049369812
1696081752499308500,5.32430859375,-0.9438631534576416,1.5747342109680176,0.6078872680664062
1696081752509308700,5.33430859375,-0.824744462966919,1.476995825767517,0.4692208766937256
1696081752519308500,5.34430859375,-0.6763041615486145,1.3664292097091675,0.29512426257133484
1696081752529308700,5.35430859375,-0.4930446147918701,1.267469048500061,0.1051451787352562
1696081752539308500,5.36430859375,-0.2755765914916992,1.1672871112823486,-0.08116871863603592
1696081752549308700,5.37430859375,-0.04833471402525902,1.0713813304901123,-0.2577087879180908
1696081752559308500,5.38430859375,0.15874861180782318,0.999299168586731,-0.42325326800346375
1696081752569308700,5.39430859375,0.3444516360759735,0.9644798636436462,-0.5808565020561218
1696081752579308500,5.40430859375,0.5118287205696106,0.9583712220191956,-0.734183669090271
1696081752589308700,5.41430859375,0.6877579092979431,0.9327148795127869,-0.8838456273078918
1696081752599308500,5.42430859375,0.895452082157135,0.8496372103691101,-1.027398943901062
1696081752609308700,5.43430859375,1.0799334049224854,0.6798166632652283,-1.2222650051116943
1696081752619308500,5.44430859375,1.143463373184204,0.39271000027656555,-1.5124260187149048
1696081752629308700,5.45430859375,1.0573313236236572,0.059177570044994354,-1.797700047492981
1696081752639308500,5.46430859375,0.8526915311813354,-0.08743008971214294,-1.9296469688415527
1696081752649308700,5.47430859375,0.5588653683662415,0.04879286140203476,-1.7915914058685303
1696081752659308500,5.48430859375,0.2241111844778061,0.19967657327651978,-1.4800500869750977
1696081752669308700,5.49430859375,-0.05749769136309624,0.11904236674308777,-1.2460887432098389
1696081752679308500,5.50430859375,-0.1857793927192688,-0.08132143318653107,-1.0157924890518188
1696081752689308700,5.51430859375,-0.3012329339981079,-0.24564418196678162,-0.3957643210887909
1696081752699308500,5.52430859375,-0.4130212664604187,-0.16806429624557495,0.44661885499954224
1696081752709308700,5.53430859375,-0.48571422696113586,-0.15401439368724823,0.8613963723182678
1696081752719308800,5.544308837890625,-0.5223661661148071,-0.4325689375400543,0.9023243188858032
1696081752729308700,5.55430859375,-0.49548807740211487,-0.7984772324562073,0.6952410340309143
1696081752739308500,5.56430859375,-0.3513238728046417,-1.1631637811660767,0.3635411858558655
1696081752749308700,5.57430859375,-0.03306308016180992,-1.3409255743026733,0.04711298272013664
1696081752759308500,5.58430859375,0.3945426046848297,-1.367803692817688,-0.17402023077011108
1696081752769308700,5.59430859375,0.8062657713890076,-1.5021940469741821,-0.4458552598953247
1696081752779308300,5.604308349609375,1.0493900775909424,-0.9084329605102539,-0.9290496706962585
1696081752789308400,5.614308349609375,1.0548878908157349,0.3639993369579315,-1.1776717901229858
1696081752799308300,5.624308349609375,0.7506770491600037,1.0377837419509888,-0.8581892848014832
1696081752809308400,5.634308349609375,0.18623754382133484,0.7091382145881653,-0.26259568333625793
1696081752819308300,5.644308349609375,-0.15401439368724823,-0.44051021337509155,0.18883371353149414
1696081752829308400,5.654308349609375,-0.13385584950447083,-1.300608515739441,0.4484514594078064
1696081752839308300,5.664308349609375,0.03107776865363121,-1.2773956060409546,0.34949126839637756
1696081752849308400,5.674308349609375,0.18012888729572296,-0.7563275098800659,0.007406740915030241
1696081752859308300,5.684308349609375,0.22533291578292847,-0.24442245066165924,-0.4006512463092804
1696081752869308400,5.694308349609375,0.3053562641143799,-0.12835806608200073,-0.6804275512695312
1696081752879308300,5.704308349609375,0.5778021812438965,-0.4093560576438904,-0.7696138620376587
1696081752889308400,5.714308349609375,0.8649088144302368,-0.8956047892570496,-0.7653377652168274
1696081752899308300,5.724308349609375,1.0634400844573975,-1.28839111328125,-0.743346631526947
1696081752909308400,5.734308349609375,1.152626395225525,-1.4117859601974487,-0.7830528616905212
1696081752919308300,5.744308349609375,1.21737802028656,-1.2792282104492188,-0.9467647671699524
1696081752929308400,5.754308349609375,1.2534191608428955,-0.9878454804420471,-1.1752283573150635
1696081752939308300,5.764308349609375,1.2326496839523315,-0.6262132525444031,-1.40980064868927
1696081752949308200,5.77430810546875,1.1996629238128662,-0.3226132094860077,-1.601001501083374
1696081752959308300,5.784308349609375,1.2051607370376587,-0.28840476274490356,-1.6767487525939941
1696081752969308400,5.794308349609375,1.2595278024673462,-0.5498550534248352,-1.5863406658172607
1696081752979308300,5.804308349609375,1.31511652469635,-0.8711702227592468,-1.3829225301742554
1696081752989308400,5.814308349609375,1.3377184867858887,-1.0464885234832764,-1.133689522743225
1696081752999308300,5.824308349609375,1.342605471611023,-0.9682977795600891,-0.9272170662879944
1696081753009308400,5.834308349609375,1.3273338079452515,-0.7037931084632874,-0.8032114505767822
1696081753019308300,5.844308349609375,1.27724289894104,-0.3830888569355011,-0.7366271018981934
1696081753029308200,5.85430810546875,1.2143237590789795,-0.04894557595252991,-0.6889796257019043
1696081753039308300,5.864308349609375,1.1373547315597534,0.3004693388938904,-0.6456081867218018
1696081753049308200,5.87430810546875,1.0133490562438965,0.6382778286933899,-0.5997933149337769
1696081753059308300,5.884308349609375,0.856967568397522,0.9040042161941528,-0.5570327639579773
1696081753069308200,5.89430810546875,0.7176902890205383,1.0457249879837036,-0.5032765865325928
1696081753079308300,5.904308349609375,0.6474407911300659,0.9883036017417908,-0.4763985276222229
1696081753089308200,5.91430810546875,0.6340017914772034,0.714635968208313,-0.5093852281570435
1696081753099308300,5.924308349609375,0.6456081867218018,0.21067215502262115,-0.5863542556762695
1696081753109308200,5.93430810546875,0.6278930902481079,-0.34949126839637756,-0.6853144764900208
1696081753119308300,5.944308349609375,0.5613088011741638,-0.794812023639679,-0.7787768244743347
1696081753129308200,5.95430810546875,0.514272153377533,-1.1197923421859741,-0.8655197024345398
1696081753139308300,5.964308349609375,0.5136613249778748,-1.2975541353225708,-0.9278279542922974
1696081753149308200,5.97430810546875,0.5655848383903503,-1.1631637811660767,-0.9394344091415405
1696081753159308300,5.984308349609375,0.6132323741912842,-0.7764860987663269,-0.9064476490020752
1696081753169308200,5.99430810546875,0.6199518442153931,-0.3769802153110504,-0.8777369856834412
1696081753179308300,6.004308349609375,0.5973498225212097,-0.2315942794084549,-0.9064476490020752
1696081753189308200,6.01430810546875,0.591852068901062,-0.39958223700523376,-0.9779189229011536
1696081753199308300,6.024308349609375,0.6248387694358826,-0.739834189414978,-1.0231229066848755
1696081753209308200,6.03430810546875,0.6871470212936401,-0.9829585552215576,-0.9369909167289734
1696081753219308300,6.044308349609375,0.772668182849884,-0.9524152874946594,-0.666377604007721
1696081753229308400,6.054308349609375,0.8447502851486206,-0.7532731890678406,-0.27664560079574585
1696081753239308300,6.064308349609375,0.8746826648712158,-0.5132031440734863,0.11797334998846054
1696081753249308400,6.074308349609375,0.857578456401825,-0.3311653137207031,0.41179952025413513
1696081753259308300,6.084308349609375,0.8123744130134583,-0.23464861512184143,0.5626832246780396
1696081753269308200,6.09430810546875,0.7329619526863098,-0.10331258177757263,0.5956699848175049
1696081753279308300,6.104308349609375,0.6101779937744141,0.03107776865363121,0.539470374584198
1696081753289308200,6.11430810546875,0.4605160355567932,-0.049556441605091095,0.3482695519924164
1696081753299308300,6.124308349609375,0.3059671223163605,-0.4728860557079315,0.023289237171411514
1696081753309308200,6.13430810546875,0.137979194521904,-1.050764560699463,-0.2949715554714203
1696081753319308300,6.144308349609375,-0.09231700748205185,-1.425225019454956,-0.41897720098495483
1696081753329308200,6.15430810546875,-0.429514616727829,-1.4325553178787231,-0.27053695917129517
1696081753339308300,6.164308349609375,-0.824133574962616,-1.165607213973999,0.11369729042053223
1696081753349308200,6.17430810546875,-1.2010374069213867,-0.7673230767250061,0.6561456322669983
1696081753359308300,6.184308349609375,-1.5095243453979492,-0.18700112402439117,1.2395219802856445
1696081753369308200,6.19430810546875,-1.7495944499969482,0.4165337383747101,1.8002961874008179
1696081753379308300,6.204308349609375,-1.9682841300964355,0.8942303657531738,2.249282121658325
1696081753389308200,6.21430810546875,-2.194915294647217,1.2045499086380005,2.5009586811065674
1696081753399308300,6.224308349609375,-2.42765474319458,1.1972194910049438,2.5650994777679443
1696081753409308200,6.23430810546875,-2.6096925735473633,0.837419867515564,2.4979043006896973
1696081753419308300,6.244308349609375,-2.7135398387908936,0.16485725343227386,2.398944139480591
1696081753429308200,6.25430810546875,-2.7251462936401367,-0.4631122052669525,2.340911865234375
1696081753439308300,6.264308349609375,-2.6219100952148438,-0.8259661793708801,2.3427445888519287
1696081753449308400,6.274308349609375,-2.4313199520111084,-0.9151524901390076,2.307925224304199
1696081753459308300,6.284308349609375,-2.182086944580078,-0.9072112441062927,2.1637611389160156
1696081753469308400,6.294308349609375,-1.9010889530181885,-1.081918716430664,1.9475147724151611
1696081753479308300,6.304308349609375,-1.6469690799713135,-1.4020121097564697,1.6225343942642212
1696081753489308200,6.31430810546875,-1.4392749071121216,-1.8002961874008179,1.2450196743011475
1696081753499308300,6.324308349609375,-1.3348169326782227,-1.9316322803497314,0.9799042344093323
1696081753509308200,6.33430810546875,-1.3513102531433105,-1.641471266746521,0.8455138802528381
1696081753519308300,6.344308349609375,-1.4869223833084106,-0.9273697733879089,0.8290205001831055
1696081753529308200,6.35430810546875,-1.6042084693908691,0.005421428941190243,0.8314639329910278
1696081753539308300,6.364308349609375,-1.6158149242401123,0.9021716117858887,0.7844273447990417
1696081753549308200,6.37430810546875,-1.5541175603866577,1.6382641792297363,0.6842454075813293
1696081753559308300,6.384308349609375,-1.4466052055358887,2.100689172744751,0.5736788511276245
1696081753569308200,6.39430810546875,-1.3415364027023315,2.282727003097534,0.4747186601161957
1696081753579308300,6.404308349609375,-1.2773956060409546,2.136730194091797,0.41668644547462463
1696081753589308200,6.41430810546875,-1.2218068838119507,1.892994999885559,0.4398993253707886
1696081753599308300,6.424308349609375,-1.175381064414978,1.6688075065612793,0.5260313153266907
1696081753609308200,6.43430810546875,-1.1497247219085693,1.513036847114563,0.6078872680664062
1696081753619308300,6.444308349609375,-1.1332314014434814,1.5075390338897705,0.6365979313850403
1696081753629308200,6.45430810546875,-1.0947468280792236,1.6633096933364868,0.6262132525444031
1696081753639308300,6.464308349609375,-1.0202213525772095,1.8807777166366577,0.5565745830535889
1696081753649308200,6.47430810546875,-0.8992699980735779,2.0102810859680176,0.4447862505912781
1696081753659308300,6.484308349609375,-0.7343363761901855,2.049987316131592,0.30428725481033325
1696081753669308200,6.49430810546875,-0.540081262588501,1.9907335042953491,0.1497383415699005
1696081753679308300,6.504308349609375,-0.34032830595970154,1.7787632942199707,-0.015806138515472412
1696081753689308200,6.51430810546875,-0.15890131890773773,1.4256831407546997,-0.19112446904182434
1696081753699308300,6.524308349609375,0.006643159314990044,1.0542770624160767,-0.3811035454273224
1696081753709308200,6.53430810546875,0.16974417865276337,0.772057294845581,-0.5790238976478577
1696081753719308300,6.544308349609375,0.3444516360759735,0.5509241223335266,-0.7745007872581482
1696081753729308200,6.55430810546875,0.5466480255126953,0.30718886852264404,-0.9626472592353821
1696081753739308300,6.564308349609375,0.7598400115966797,0.02863430790603161,-1.1391873359680176
1696081753749308200,6.57430810546875,0.9540951251983643,-0.2505311071872711,-1.3102295398712158
1696081753759308300,6.584308349609375,1.0811551809310913,-0.47044259309768677,-1.5093716382980347
1696081753769308200,6.59430810546875,1.0603857040405273,-0.65248042345047,-1.7329483032226562
1696081753779308300,6.604308349609375,0.9027824997901917,-0.8155814409255981,-1.895438551902771
1696081753789308200,6.61430810546875,0.6511059999465942,-0.7532731890678406,-1.7445547580718994
1696081753799308300,6.624308349609375,0.29680415987968445,-0.3464369475841522,-1.2332605123519897
1696081753809308200,6.63430810546875,-0.06910412758588791,-0.09170614182949066,-0.8325329422950745
1696081753819308300,6.644308349609375,-0.38553231954574585,-0.348880410194397,-0.7586182951927185
1696081753829308200,6.65430810546875,-0.5962808132171631,-0.3110067546367645,-0.6260605454444885
1696081753839307800,6.664307861328125,-0.6934084296226501,0.09582948684692383,-0.026801712810993195
1696081753849308000,6.674307861328125,-0.7416667938232422,0.2442697435617447,0.5260313153266907
1696081753859307800,6.684307861328125,-0.7349472641944885,0.09094256162643433,0.6750824451446533
1696081753869308000,6.694307861328125,-0.6976844668388367,-0.04711298272013664,0.5522985458374023
1696081753879307800,6.704307861328125,-0.548633337020874,-0.24014639854431152,0.28412869572639465
1696081753889308000,6.714307861328125,-0.26824620366096497,-0.43073636293411255,-0.0316886343061924
1696081753899307800,6.724307861328125,0.09949467331171036,-0.653091311454773,-0.27236953377723694
1696081753909308000,6.734307861328125,0.46295949816703796,-1.3122148513793945,-0.4171445965766907
1696081753919307800,6.744307861328125,0.7745007872581482,-1.7178294658660889,-0.5234351754188538
1696081753929308000,6.754307861328125,0.9650907516479492,-1.1814897060394287,-0.5961281061172485
1696081753939307800,6.764307861328125,0.8166504502296448,-0.43073636293411255,-0.34811684489250183
1696081753949308000,6.774307861328125,0.31268665194511414,-0.27496573328971863,0.216322660446167
1696081753959307800,6.784307861328125,0.02863430790603161,-0.5260313153266907,0.5706244707107544
1696081753969308000,6.794307861328125,0.07750352472066879,-1.0373255014419556,0.8186357617378235
1696081753979308000,6.80430810546875,0.329790860414505,-0.9792933464050293,0.6451500654220581
1696081753989308000,6.814307861328125,0.6034585237503052,-0.4576144218444824,0.13813190162181854
1696081753999308000,6.82430810546875,0.7934376001358032,0.0720057412981987,-0.31818443536758423
1696081754009308000,6.834307861328125,0.9858601689338684,0.24549147486686707,-0.5454263091087341
1696081754019307800,6.844307861328125,1.2137129306793213,0.004810563754290342,-0.5900194644927979
1696081754029308000,6.854307861328125,1.408578872680664,-0.5327508449554443,-0.5576435923576355
1696081754039307800,6.864307861328125,1.5423583984375,-1.1026880741119385,-0.514272153377533
1696081754049308000,6.874307861328125,1.5710690021514893,-1.4630986452102661,-0.5503132343292236
1696081754059307800,6.884307861328125,1.5283085107803345,-1.5412893295288086,-0.6883687973022461
1696081754069308000,6.894307861328125,1.4409548044204712,-1.353753685951233,-0.9198867082595825
1696081754079308000,6.90430810546875,1.341383695602417,-1.042823314666748,-1.2069933414459229
1696081754089308000,6.914307861328125,1.2845731973648071,-0.749608039855957,-1.4861587285995483
1696081754099308000,6.92430810546875,1.2821297645568848,-0.6512587070465088,-1.6645314693450928
1696081754109308000,6.934307861328125,1.3291664123535156,-0.7648796439170837,-1.703015923500061
1696081754119308000,6.94430810546875,1.3810899257659912,-0.9652434587478638,-1.5820646286010742
1696081754129308000,6.954307861328125,1.3957507610321045,-1.1368966102600098,-1.3487141132354736
1696081754139308300,6.964308349609375,1.3725378513336182,-1.205924391746521,-1.0921506881713867
1696081754149308400,6.974308349609375,1.3261120319366455,-1.0868055820465088,-0.8881217241287231
1696081754159308300,6.984308349609375,1.2540299892425537,-0.7551057934761047,-0.7738898992538452
1696081754169308400,6.994308349609375,1.1666762828826904,-0.27924177050590515,-0.7256315350532532
1696081754179308300,7.004308349609375,1.095815896987915,0.25098925828933716,-0.7066947221755981
1696081754189308400,7.014308349609375,1.000520944595337,0.7971028089523315,-0.6822600960731506
1696081754199308300,7.024308349609375,0.8636870980262756,1.2735776901245117,-0.630336582660675
1696081754209308400,7.034308349609375,0.7598400115966797,1.5148694515228271,-0.582078218460083
1696081754219308300,7.044308349609375,0.7103599309921265,1.5197563171386719,-0.5637522339820862
1696081754229308400,7.054308349609375,0.7176902890205383,1.3041208982467651,-0.5857434272766113
1696081754239308300,7.064308349609375,0.7488444447517395,0.8392524719238281,-0.6730971336364746
1696081754249308400,7.074308349609375,0.7610617280006409,0.20945042371749878,-0.8093200922012329
1696081754259308000,7.08430810546875,0.7555639743804932,-0.40141481161117554,-0.9168323874473572
1696081754269308000,7.094307861328125,0.773279070854187,-0.8455138802528381,-0.9858601689338684
1696081754279308000,7.10430810546875,0.8337547183036804,-1.0727556943893433,-1.0139600038528442
1696081754289307100,7.11430712890625,0.9070585370063782,-1.0935251712799072,-1.0109056234359741
1696081754299307300,7.124307373046875,0.9498190879821777,-0.9383653998374939,-0.9785297513008118
1696081754309307100,7.13430712890625,0.9455430507659912,-0.7447211146354675,-0.9498190879821777
1696081754319307300,7.144307373046875,0.9033933281898499,-0.700738787651062,-0.9602038264274597
1696081754329307100,7.15430712890625,0.8636870980262756,-0.8571202754974365,-0.9852492809295654
1696081754339307300,7.164307373046875,0.856967568397522,-1.0770317316055298,-0.9400452375411987
1696081754349307100,7.17430712890625,0.8844565153121948,-1.0861947536468506,-0.7580074071884155
1696081754359307300,7.184307373046875,0.9302713871002197,-0.7526623606681824,-0.4556291103363037
1696081754369307100,7.19430712890625,0.9547060132026672,-0.2303725630044937,-0.13859005272388458
1696081754379307000,7.20430712890625,0.9296605587005615,0.20028744637966156,0.11125383526086807
1696081754389307100,7.21430712890625,0.8795695900917053,0.38782307505607605,0.2670244574546814
1696081754399307000,7.22430712890625,0.8252025842666626,0.32184961438179016,0.34032830595970154
1696081754409307100,7.23430712890625,0.7586182951927185,0.07811439037322998,0.3525456190109253
1696081754419307000,7.24430712890625,0.6608798503875732,-0.24014639854431152,0.3323870599269867
1696081754429307100,7.25430712890625,0.5130504369735718,-0.5266422033309937,0.2963460087776184
1696081754439307000,7.26430712890625,0.329790860414505,-0.7703774571418762,0.2554180324077606
1696081754449307100,7.27430712890625,0.10865765810012817,-0.9023243188858032,0.24869851768016815
1696081754459307000,7.28430712890625,-0.17967073619365692,-0.7331146597862244,0.3421608805656433
1696081754469307100,7.29430712890625,-0.5657375454902649,-0.19005544483661652,0.5461899042129517
1696081754479307000,7.30430712890625,-0.9573022127151489,0.26198482513427734,0.8113054037094116
1696081754489307100,7.31430712890625,-1.2462414503097534,0.4061490297317505,1.1100184917449951
1696081754499307000,7.32430712890625,-1.4624876976013184,0.6315582990646362,1.460044264793396
1696081754509307100,7.33430712890625,-1.6964491605758667,1.086042046546936,1.8320611715316772
1696081754519307000,7.34430712890625,-2.0269272327423096,1.5179238319396973,2.1191678047180176
1696081754529307100,7.35430712890625,-2.391613721847534,1.6718617677688599,2.228512763977051
1696081754539307000,7.36430712890625,-2.5516605377197266,1.6297121047973633,2.2248475551605225
1696081754549307100,7.37430712890625,-2.7825675010681152,1.3474923372268677,2.1888065338134766
1696081754559307500,7.3843076171875,-2.868699550628662,0.7787768244743347,2.231567144393921
1696081754569307400,7.394307373046875,-2.775848150253296,-0.028787024319171906,2.419102668762207
1696081754579307500,7.4043076171875,-2.5742626190185547,-0.8907178640365601,2.6402359008789062
1696081754589308200,7.41430810546875,-2.3842833042144775,-1.3476450443267822,2.558990955352783
1696081754599308300,7.424308349609375,-2.182086944580078,-1.3855187892913818,2.1503219604492188
1696081754609308200,7.43430810546875,-1.9530125856399536,-1.4588226079940796,1.6451364755630493
1696081754619308300,7.444308349609375,-1.7239381074905396,-1.662240743637085,1.1686615943908691
1696081754629308200,7.45430810546875,-1.5809955596923828,-1.679344892501831,0.7618253231048584
1696081754639308300,7.464308349609375,-1.5107461214065552,-1.5736652612686157,0.6133850812911987
1696081754649308200,7.47430810546875,-1.538235068321228,-1.1796571016311646,0.8119162917137146
1696081754659308300,7.484308349609375,-1.6090954542160034,-0.510759711265564,1.0544297695159912
1696081754669308200,7.49430810546875,-1.6274213790893555,0.28703030943870544,1.0770317316055298
1696081754679308300,7.504308349609375,-1.6268105506896973,1.0109056234359741,0.9230937361717224
1696081754689308200,7.51430810546875,-1.5913803577423096,1.4531720876693726,0.6708064079284668
1696081754699308300,7.524308349609375,-1.5119678974151611,1.5777885913848877,0.45639270544052124
1696081754709308200,7.53430810546875,-1.4087315797805786,1.5472452640533447,0.4020256996154785
1696081754719308300,7.544308349609375,-1.3164910078048706,1.4043028354644775,0.47532951831817627
1696081754729308400,7.554308349609375,-1.2639565467834473,1.304731845855713,0.5938373804092407
1696081754739308300,7.564308349609375,-1.2413545846939087,1.236925721168518,0.7141778469085693
1696081754749308400,7.574308349609375,-1.2315807342529297,1.1843913793563843,0.8223009705543518
1696081754759308300,7.584308349609375,-1.205924391746521,1.2228758335113525,0.8894961476325989
1696081754769308400,7.594308349609375,-1.1399508714675903,1.295568823814392,0.8748353719711304
1696081754779308300,7.604308349609375,-1.0263299942016602,1.3389402627944946,0.7874816656112671
1696081754789308400,7.614308349609375,-0.8693376183509827,1.4146875143051147,0.6451500654220581
1696081754799308300,7.624308349609375,-0.6775259375572205,1.5026521682739258,0.4698317348957062
1696081754809308400,7.634308349609375,-0.4496731758117676,1.5197563171386719,0.28840476274490356
1696081754819308300,7.644308349609375,-0.2108248621225357,1.3896421194076538,0.11736248433589935
1696081754829308400,7.654308349609375,0.024358252063393593,1.1245265007019043,-0.041462477296590805
1696081754839308300,7.664308349609375,0.26565003395080566,0.8197047710418701,-0.20089830458164215
1696081754849308400,7.674308349609375,0.5081635117530823,0.5796347856521606,-0.34811684489250183
1696081754859308300,7.684308349609375,0.7500661611557007,0.44280093908309937,-0.4867832362651825
1696081754869308200,7.69430810546875,0.9950231313705444,0.3499494194984436,-0.6480516791343689
1696081754879308300,7.704308349609375,1.2308170795440674,0.2442697435617447,-0.87651526927948
1696081754889308200,7.71430810546875,1.3896421194076538,0.12942707538604736,-1.2027173042297363
1696081754899308300,7.724308349609375,1.3981941938400269,0.02191479131579399,-1.5649603605270386
1696081754909308200,7.73430810546875,1.2613604068756104,0.08055785298347473,-1.7134006023406982
1696081754919308300,7.744308349609375,0.9211084246635437,0.47823113203048706,-1.313283920288086
1696081754929308200,7.75430810546875,0.40737074613571167,0.9070585370063782,-0.9321039915084839
1696081754939308300,7.764308349609375,-0.15890131890773773,0.8221482634544373,-1.1391873359680176
1696081754949308200,7.77430810546875,-0.5639050006866455,0.23021984100341797,-1.6620879173278809
1696081754959308300,7.784308349609375,-0.6005569100379944,-0.6860780119895935,-1.5961145162582397
1696081754969308400,7.794308349609375,-0.5620723962783813,-1.317712664604187,-0.4244749844074249
1696081754979308300,7.804308349609375,-0.709901750087738,-1.1808788776397705,0.6457608938217163
1696081754989308400,7.814308349609375,-0.8015315532684326,-0.9621891379356384,0.852233350276947
1696081754999308300,7.824308349609375,-0.7349472641944885,-0.9799042344093323,0.4948772192001343
1696081755009308400,7.834308349609375,-0.5529094338417053,-0.9847911596298218,-0.0188604649156332
1696081755019308300,7.844308349609375,-0.18455766141414642,-0.9646325707435608,-0.3536146283149719
1696081755029308200,7.85430810546875,0.3358995318412781,-0.8180249333381653,-0.38415786623954773
1696081755039308300,7.864308349609375,0.7690029740333557,-0.13202324509620667,-0.4709007441997528
1696081755049308200,7.87430810546875,1.0261772871017456,0.6474407911300659,-0.6156758069992065
1696081755059308300,7.884308349609375,1.2192106246948242,1.3853659629821777,-0.6572146415710449
1696081755069308200,7.89430810546875,1.200273871421814,1.3572661876678467,-0.49472448229789734
1696081755079308300,7.904308349609375,0.6547712087631226,-0.15890131890773773,-0.23693935573101044
1696081755089308200,7.91430810546875,-0.05688682571053505,-2.4869086742401123,0.03000875562429428
1696081755099308300,7.924308349609375,-0.4734969139099121,-3.725132703781128,0.37087157368659973
1696081755109308200,7.93430810546875,-0.46127963066101074,-2.893134117126465,0.5058727860450745
1696081755119307800,7.944307861328125,-0.1405753642320633,-1.9597320556640625,0.4441753923892975
1696081755129308000,7.954307861328125,0.25709789991378784,-1.3244322538375854,0.2725222706794739
1696081755139307800,7.964307861328125,0.553978443145752,-0.5736788511276245,-0.015195272862911224
1696081755149308000,7.974307861328125,0.8239808678627014,-0.0031306843739002943,-0.30657798051834106
1696081755159307800,7.984307861328125,1.1068115234375,0.2839759886264801,-0.5057200789451599
1696081755169308000,7.994307861328125,1.4024702310562134,0.3749949038028717,-0.6419430375099182
1696081755179307800,8.004307861328124,1.6620879173278809,0.368886262178421,-0.733572781085968
1696081755189308000,8.014307861328126,1.7750980854034424,0.35300374031066895,-0.8441393971443176
1696081755199307800,8.024307861328126,1.7103463411331177,0.42875105142593384,-1.017625093460083
1696081755209308000,8.034307861328125,1.560684323310852,0.3853796124458313,-1.2705233097076416
1696081755219307800,8.044307861328125,1.4678328037261963,-0.07765624672174454,-1.601001501083374
1696081755229308000,8.054307861328125,1.4910457134246826,-0.7691556811332703,-1.8581757545471191
1696081755239307800,8.064307861328125,1.552132248878479,-1.2792282104492188,-1.8899407386779785
1696081755249308000,8.074307861328125,1.5674039125442505,-1.479591965675354,-1.7024050951004028
1696081755259307800,8.084307861328124,1.5270867347717285,-1.3812426328659058,-1.3749812841415405
1696081755269308000,8.094307861328126,1.458669900894165,-1.0275516510009766,-1.0017426013946533
1696081755279307800,8.104307861328126,1.3908637762069702,-0.4942663311958313,-0.6743188500404358
1696081755289308000,8.114307861328125,1.3364968299865723,0.06039930135011673,-0.4611268937587738
1696081755299307800,8.124307861328125,1.2650256156921387,0.4922810196876526,-0.3908773958683014
1696081755309308000,8.134307861328125,1.1685088872909546,0.7580074071884155,-0.45440739393234253
1696081755319307800,8.144307861328125,1.029842495918274,0.9125562906265259,-0.5619196891784668
1696081755329308000,8.154307861328125,0.847193717956543,1.0047969818115234,-0.61139976978302
1696081755339307800,8.164307861328124,0.7109707593917847,0.9400452375411987,-0.6327800154685974
1696081755349308000,8.174307861328124,0.6346126198768616,0.6578255295753479,-0.6529386043548584
1696081755359307800,8.184307861328126,0.6046802401542664,0.13675746321678162,-0.6718754172325134
1696081755369308000,8.194307861328125,0.5894085764884949,-0.40508002042770386,-0.6675993800163269
1696081755379307800,8.204307861328125,0.5869651436805725,-0.7465536594390869,-0.6065128445625305
1696081755389308000,8.214307861328125,0.5967389941215515,-0.872391939163208,-0.5478697419166565
1696081755399307800,8.224307861328125,0.6181192994117737,-0.8223009705543518,-0.5362633466720581
1696081755409308000,8.234307861328125,0.6566037535667419,-0.6036112308502197,-0.5399284958839417
1696081755419308300,8.244308349609375,0.6712645292282104,-0.2615266740322113,-0.5472589135169983
1696081755429308200,8.25430810546875,0.6358343362808228,0.023747386410832405,-0.6168975234031677
1696081755439308300,8.264308349609376,0.6040693521499634,0.06895141303539276,-0.7793877124786377
1696081755449308200,8.27430810546875,0.6181192994117737,-0.16684256494045258,-0.9944122433662415
1696081755459308300,8.284308349609375,0.695088267326355,-0.5541311502456665,-1.1605676412582397
1696081755469308400,8.294308349609375,0.8007679581642151,-0.8980482816696167,-1.170952320098877
1696081755479308300,8.304308349609375,0.9107237458229065,-0.9780716300010681,-0.9638689756393433
1696081755489308400,8.314308349609375,0.9870818853378296,-0.7459428310394287,-0.5765804052352905
1696081755499308300,8.324308349609375,0.9846383929252625,-0.3635411858558655,-0.13675746321678162
1696081755509308400,8.334308349609374,0.9430995583534241,0.04818199574947357,0.22976168990135193
1696081755519308300,8.344308349609374,0.8899543285369873,0.41286855936050415,0.4722751975059509
1696081755529308200,8.35430810546875,0.8105418086051941,0.685925304889679,0.6188828349113464
1696081755539308300,8.364308349609376,0.695699155330658,0.6694319248199463,0.6537021994590759
1696081755549308200,8.37430810546875,0.5759695768356323,0.3151301145553589,0.5382486581802368
1696081755559308300,8.384308349609375,0.4507421851158142,-0.2804635167121887,0.2706896662712097
1696081755569308200,8.39430810546875,0.3096323311328888,-0.9774607419967651,-0.055512379854917526
1696081755579308300,8.404308349609375,0.12881620228290558,-1.6335300207138062,-0.26137396693229675
1696081755589308200,8.41430810546875,-0.1961641013622284,-1.9969948530197144,-0.24121540784835815
1696081755599308300,8.424308349609374,-0.5901721715927124,-1.9316322803497314,0.07154759019613266
1696081755609308200,8.43430810546875,-1.0122801065444946,-1.2572370767593384,0.6738607287406921
1696081755619308300,8.444308349609376,-1.4392749071121216,-0.16256651282310486,1.44294011592865
1696081755629308200,8.45430810546875,-1.8082374334335327,0.8245916962623596,2.0819051265716553
1696081755639308300,8.464308349609375,-2.092289924621582,1.3364968299865723,2.3867268562316895
1696081755649308200,8.47430810546875,-2.326251268386841,1.5441910028457642,2.3952789306640625
1696081755659308300,8.484308349609375,-2.609081745147705,1.7207310199737549,2.186974048614502
1696081755669308200,8.49430810546875,-2.9456684589385986,1.8905515670776367,1.8949803113937378
1696081755679308300,8.504308349609374,-3.247436046600342,1.7024050951004028,1.680566668510437
1696081755689308200,8.51430810546875,-3.4343607425689697,0.9131671786308289,1.6261996030807495
1696081755699308300,8.524308349609376,-3.398319721221924,-0.15218180418014526,1.7532596588134766
1696081755709308200,8.53430810546875,-3.108158826828003,-1.1588877439498901,1.95423424243927
1696081755719308300,8.544308349609375,-2.6524531841278076,-1.8852064609527588,2.0299816131591797
1696081755729308400,8.554308349609375,-2.1222221851348877,-2.4319307804107666,1.9230802059173584
1696081755739308300,8.564308349609375,-1.707444667816162,-2.7269787788391113,1.6561319828033447
1696081755749308400,8.574308349609375,-1.5138003826141357,-2.4960718154907227,1.2670109272003174
1696081755759308300,8.584308349609374,-1.4624876976013184,-1.642693042755127,0.9579130411148071
1696081755769308200,8.59430810546875,-1.433777093887329,-0.6084981560707092,0.824744462966919
1696081755779308300,8.604308349609376,-1.4172837734222412,0.2289981096982956,0.7434993386268616
1696081755789308200,8.61430810546875,-1.4062881469726562,0.8062657713890076,0.6280458569526672
1696081755799308300,8.624308349609375,-1.4020121097564697,1.3401620388031006,0.44051021337509155
1696081755809308200,8.63430810546875,-1.3965142965316772,1.6712509393692017,0.23464861512184143
1696081755819308300,8.644308349609375,-1.4050663709640503,1.8728364706039429,0.11308643221855164
1696081755829308200,8.65430810546875,-1.394681692123413,1.941253423690796,0.16806429624557495
1696081755839308300,8.664308349609374,-1.3592514991760254,1.8838320970535278,0.34399348497390747
1696081755849308200,8.67430810546875,-1.328708291053772,1.7182875871658325,0.5266422033309937
1696081755859308300,8.684308349609376,-1.3128257989883423,1.541136622428894,0.681191086769104
1696081755869308200,8.69430810546875,-1.2761738300323486,1.3853659629821777,0.8021424412727356
1696081755879308300,8.704308349609375,-1.2431871891021729,1.2912927865982056,0.8375726342201233
1696081755889308200,8.71430810546875,-1.211422085762024,1.3309990167617798,0.7856490612030029
1696081755899308300,8.724308349609375,-1.1356748342514038,1.4721088409423828,0.662254273891449
1696081755909308200,8.73430810546875,-1.0208321809768677,1.6791921854019165,0.5046510696411133
1696081755919308300,8.744308349609375,-0.8681158423423767,1.8575648069381714,0.3464369475841522
1696081755929308200,8.75430810546875,-0.6976844668388367,1.8819994926452637,0.2114357352256775
1696081755939308300,8.764308349609376,-0.510148823261261,1.7072919607162476,0.09537133574485779
1696081755949308200,8.77430810546875,-0.3213914632797241,1.457448124885559,-0.04634939879179001
1696081755959308300,8.784308349609375,-0.1356884390115738,1.2638038396835327,-0.22288945317268372
1696081755969308400,8.794308349609375,0.0567341111600399,1.1288026571273804,-0.4256967306137085
1696081755979308300,8.804308349609375,0.258930504322052,0.9614255428314209,-0.6297256946563721
1696081755989308400,8.814308349609375,0.481896311044693,0.7415140271186829,-0.8276460766792297
1696081755999308300,8.824308349609375,0.7299076318740845,0.4709007441997528,-1.0225120782852173
1696081756009308400,8.834308349609374,0.9931905269622803,0.18990273773670197,-1.2247084379196167
1696081756019308300,8.844308349609374,1.229595422744751,-0.06482807546854019,-1.4372895956039429
1696081756029308200,8.85430810546875,1.3829225301742554,-0.2865721583366394,-1.646816372871399
1696081756039308300,8.864308349609376,1.3945289850234985,-0.4344015419483185,-1.8441258668899536
1696081756049308200,8.87430810546875,1.2595278024673462,-0.42707115411758423,-1.9033797979354858
1696081756059308300,8.884308349609375,0.9473756551742554,-0.10881037265062332,-1.6089427471160889
1696081756069308200,8.89430810546875,0.5161047577857971,0.35666894912719727,-1.1947760581970215
1696081756079308300,8.904308349609375,0.11904236674308777,0.44341179728507996,-0.9974665641784668
1696081756089308200,8.91430810546875,-0.20838139951229095,-0.020845776423811913,-1.0035752058029175
1696081756099308300,8.924308349609374,-0.43073636293411255,-0.42157337069511414,-0.8917868733406067
1696081756109308200,8.93430810546875,-0.5883395671844482,-0.4844925105571747,-0.2491566687822342
1696081756119308300,8.944308349609376,-0.6927975416183472,-0.5180900692939758,0.4289037585258484
1696081756129308200,8.95430810546875,-0.7282277345657349,-0.6738607287406921,0.65248042345047
1696081756139308300,8.964308349609375,-0.6573673486709595,-0.8638398051261902,0.4844925105571747
1696081756149308200,8.97430810546875,-0.41668644547462463,-1.024497389793396,0.1497383415699005
1696081756159308300,8.984308349609375,-0.01290452852845192,-1.063592791557312,-0.13614659011363983
1696081756169308200,8.99430810546875,0.36277759075164795,-1.0018953084945679,-0.2796999216079712
1696081756179308300,9.004308349609374,0.6523277163505554,-1.2224177122116089,-0.3200170397758484
1696081756189308400,9.014308349609376,0.8288677930831909,-0.8827766180038452,-0.38171443343162537
1696081756199308500,9.02430859375,0.7983245253562927,0.15386168658733368,-0.44829872250556946
1696081756209308400,9.034308349609375,0.3358995318412781,0.3450624942779541,-0.18929186463356018
1696081756219308500,9.04430859375,-0.21326832473278046,-0.28351783752441406,0.17295122146606445
1696081756229308400,9.054308349609375,-0.3366630971431732,-1.4007903337478638,0.5803983211517334
1696081756239308500,9.06430859375,-0.10697777569293976,-1.7532596588134766,0.7453319430351257
1696081756249308400,9.074308349609375,0.2241111844778061,-1.1478921175003052,0.4545601010322571
1696081756259308500,9.08430859375,0.4409683346748352,-0.5571854710578918,0.08071056753396988
1696081756269308400,9.094308349609374,0.6089562773704529,-0.26458099484443665,-0.15997034311294556
1696081756279308500,9.10430859375,0.9204975366592407,-0.3384957015514374,-0.29680415987968445
1696081756289308400,9.114308349609376,1.2332605123519897,-0.5535202622413635,-0.38904479146003723
1696081756299308500,9.12430859375,1.464167594909668,-0.7538840770721436,-0.4953353703022003
1696081756309308400,9.134308349609375,1.5930602550506592,-0.7703774571418762,-0.6168975234031677
1696081756319308500,9.14430859375,1.6052775382995605,-0.5907830595970154,-0.7897723913192749
1696081756329308400,9.154308349609375,1.5490778684616089,-0.3061198592185974,-1.0060187578201294
1696081756339308500,9.16430859375,1.4684436321258545,-0.09537133574485779,-1.2570843696594238
1696081756349308400,9.174308349609374,1.4513394832611084,-0.23953554034233093,-1.5417475700378418
1696081756359308500,9.18430859375,1.5002087354660034,-0.7037931084632874,-1.7543286085128784
1696081756369308400,9.194308349609376,1.5490778684616089,-1.1827114820480347,-1.7653242349624634
1696081756379308500,9.20430859375,1.558851718902588,-1.4288901090621948,-1.5961145162582397
1696081756389308400,9.214308349609375,1.5393040180206299,-1.3500885963439941,-1.3273338079452515
1696081756399308500,9.22430859375,1.5209780931472778,-1.0464885234832764,-1.018846869468689
1696081756409308400,9.234308349609375,1.4983761310577393,-0.6341544985771179,-0.753120481967926
1696081756419308500,9.24430859375,1.4727197885513306,-0.216322660446167,-0.5967389941215515
1696081756429308400,9.254308349609374,1.4409548044204712,0.10499246418476105,-0.553978443145752
1696081756439308500,9.26430859375,1.3939181566238403,0.34750595688819885,-0.562530517578125
1696081756449308400,9.274308349609376,1.2827407121658325,0.5277112126350403,-0.591241180896759
1696081756459308500,9.28430859375,1.08482027053833,0.7470118403434753,-0.582078218460083
1696081756469308400,9.294308349609375,0.8343655467033386,0.9773080348968506,-0.5191590785980225
1696081756479308500,9.30430859375,0.6431647539138794,0.9608146548271179,-0.4757876694202423
1696081756489308400,9.314308349609375,0.5484806299209595,0.5839108228683472,-0.48800498247146606
1696081756499308300,9.324308349609375,0.5167156457901001,-0.10636691004037857,-0.5497023463249207
1696081756509308400,9.334308349609374,0.491670161485672,-0.8473464250564575,-0.601625919342041
1696081756519308300,9.344308349609374,0.4904484450817108,-1.2596805095672607,-0.5839108228683472
1696081756529308200,9.35430810546875,0.5301546454429626,-1.299386739730835,-0.5301546454429626
1696081756539308300,9.364308349609376,0.6071236729621887,-1.0837513208389282,-0.481896311044693
1696081756549308200,9.37430810546875,0.685925304889679,-0.6872997879981995,-0.4458552598953247
1696081756559308300,9.384308349609375,0.7280750274658203,-0.2664135992527008,-0.4696790277957916
1696081756569308200,9.39430810546875,0.724409818649292,-0.0544433668255806,-0.6126214861869812
1696081756579308300,9.404308349609375,0.7262424230575562,-0.1705077588558197,-0.8435285687446594
1696081756589308200,9.41430810546875,0.7476227283477783,-0.47716212272644043,-1.0310641527175903
1696081756599308300,9.424308349609374,0.772057294845581,-0.643317461013794,-1.028620719909668
1696081756609308200,9.43430810546875,0.8111526966094971,-0.4796055853366852,-0.7891615629196167
1696081756619308300,9.444308349609376,0.8496372103691101,-0.14851661026477814,-0.39759692549705505
1696081756629308200,9.45430810546875,0.8423067927360535,0.09033169597387314,-0.012751812115311623
1696081756639308300,9.464308349609375,0.7989353537559509,0.010919216088950634,0.26397013664245605
1696081756649308200,9.47430810546875,0.7604508996009827,-0.3617085814476013,0.4032474160194397
1696081756659308300,9.484308349609375,0.7482335567474365,-0.7056257128715515,0.45028403401374817
1696081756669308200,9.49430810546875,0.714635968208313,-0.7447211146354675,0.45700356364250183
1696081756679308300,9.504308349609374,0.6217844486236572,-0.5706244707107544,0.41179952025413513
1696081756689308200,9.51430810546875,0.5118287205696106,-0.5022075772285461,0.27496573328971863
1696081756699308300,9.524308349609376,0.41775545477867126,-0.6897432208061218,0.07826711237430573
1696081756709308200,9.53430810546875,0.2638174295425415,-0.9273697733879089,-0.07811439037322998
1696081756719308300,9.544308349609375,0.010308351367712021,-1.090470790863037,-0.10132727026939392
1696081756729308400,9.554308349609375,-0.2816852331161499,-1.0519863367080688,0.07032585889101028
1696081756739308300,9.564308349609375,-0.5852852463722229,-0.6854671835899353,0.458225280046463
1696081756749308400,9.574308349609375,-0.9090438485145569,-0.14301882684230804,1.0000628232955933
1696081756759308300,9.584308349609374,-1.211422085762024,0.24671320617198944,1.5693892240524292
1696081756769308200,9.59430810546875,-1.44294011592865,0.4373031556606293,2.0104339122772217
1696081756779308300,9.604308349609376,-1.592602014541626,0.6456081867218018,2.2663865089416504
1696081756789308200,9.61430810546875,-1.8009071350097656,1.1214722394943237,2.3360249996185303
1696081756799308300,9.624308349609375,-2.1637611389160156,1.6962964534759521,2.240730047225952
1696081756809308200,9.63430810546875,-2.6353490352630615,2.0793089866638184,2.0275380611419678
1696081756819308300,9.644308349609375,-3.1344258785247803,1.94003164768219,1.794798493385315
1696081756829308200,9.65430810546875,-3.5204927921295166,1.1379655599594116,1.6365844011306763
1696081756839308300,9.664308349609374,-3.661602735519409,0.2900846302509308,1.6005432605743408
1696081756849308200,9.67430810546875,-3.448410749435425,-0.3384957015514374,1.708666443824768
1696081756859308300,9.684308349609376,-2.9487228393554688,-0.8662832975387573,1.8546632528305054
1696081756869308200,9.69430810546875,-2.3274729251861572,-1.5797739028930664,1.850998044013977
1696081756879308300,9.704308349609375,-1.8259525299072266,-2.4991259574890137,1.6103171110153198
1696081756889308200,9.71430810546875,-1.5962672233581543,-3.206507921218872,1.1478921175003052
1696081756899308300,9.724308349609375,-1.5724434852600098,-3.1997885704040527,0.730060338973999
1696081756909308200,9.73430810546875,-1.6103171110153198,-2.295707941055298,0.6763041615486145
1696081757204855000,10.02985498046875,0.5393176674842834,-0.5431355834007263,-1.048168420791626
1696081757214855200,10.039855224609376,0.06772968173027039,-0.45639270544052124,-0.8826239109039307
1696081757224855000,10.04985498046875,-0.3061198592185974,-0.9029352068901062,-0.9602038264274597
1696081757234855200,10.059855224609375,-0.5272530913352966,-1.0611492395401,-0.5026657581329346
1696081757244855000,10.06985498046875,-0.7599927186965942,-0.8461247086524963,0.5498550534248352
1696081757254855200,10.079855224609375,-0.8668941259384155,-0.5529094338417053,1.0000628232955933
1696081757264855000,10.08985498046875,-0.8070293664932251,-0.17172949016094208,0.8271878957748413
1696081757274855200,10.099855224609374,-0.6744716167449951,0.15080735087394714,0.3580434024333954
1696081757284855000,10.10985498046875,-0.3836997449398041,0.27236953377723694,-0.08361218124628067
1696081757294855200,10.119855224609376,0.09888381510972977,0.16119205951690674,-0.3407864570617676
1696081757304855000,10.12985498046875,0.5613088011741638,0.24121540784835815,-0.5955172777175903
1696081757314855200,10.139855224609375,0.8429176807403564,0.10621419548988342,-0.8233699798583984
1696081757324855000,10.14985498046875,0.9779189229011536,-0.2517528533935547,-0.7995462417602539
1696081757334855200,10.159855224609375,0.9455430507659912,-0.7239516973495483,-0.4812854528427124
1696081757344855000,10.16985498046875,0.4501313269138336,-1.822898268699646,0.13385584950447083
1696081757354855200,10.179855224609375,-0.35071301460266113,-2.061746597290039,0.34949126839637756
1696081757364855000,10.18985498046875,-0.6701955199241638,-1.4343879222869873,0.5553528666496277
1696081757374855200,10.199855224609376,-0.4325689375400543,-1.4478269815444946,1.126511812210083
1696081757384855000,10.20985498046875,0.05367978289723396,-1.3146584033966064,1.1625529527664185
1696081757394855200,10.219855224609375,0.5148830413818359,-0.7942011952400208,0.7526623606681824
1696081757404855000,10.22985498046875,0.847804605960846,-0.3464369475841522,0.30550897121429443
1696081757414855200,10.239855224609375,1.0041861534118652,-0.04589125141501427,-0.03413209691643715
1696081757424855000,10.24985498046875,1.14163076877594,0.09888381510972977,-0.26259568333625793
1696081757434855200,10.259855224609375,1.351157546043396,0.0316886343061924,-0.36766451597213745
1696081757444855000,10.26985498046875,1.5808428525924683,-0.12835806608200073,-0.3609450161457062
1696081757454855200,10.279855224609374,1.7079029083251953,-0.21876612305641174,-0.3346777856349945
1696081757464855300,10.289855224609376,1.7024050951004028,-0.17478381097316742,-0.40737074613571167
1696081757474855200,10.299855224609376,1.5753451585769653,0.004810563754290342,-0.6199518442153931
1696081757484855300,10.309855224609375,1.4104114770889282,0.21983513236045837,-0.9461538791656494
1696081757494855200,10.319855224609375,1.3383294343948364,0.12942707538604736,-1.359709620475769
1696081757504855300,10.329855224609375,1.4275157451629639,-0.5736788511276245,-1.8154151439666748
1696081757514855200,10.339855224609375,1.58023202419281,-1.538235068321228,-2.103132724761963
1696081757524855300,10.349855224609374,1.6694183349609375,-2.2450060844421387,-2.061593770980835
1696081757534855200,10.359855224609374,1.6712509393692017,-2.5522713661193848,-1.7268396615982056
1696081757544855300,10.369855224609376,1.6156622171401978,-2.514397621154785,-1.2436453104019165
1696081757554855200,10.379855224609376,1.533806324005127,-2.2138519287109375,-0.7708355784416199
1696081757564855300,10.389855224609375,1.4226287603378296,-1.7135534286499023,-0.44280093908309937
1696081757574855200,10.399855224609375,1.2833515405654907,-1.1252901554107666,-0.30718886852264404
1696081757584855300,10.409855224609375,1.1275808811187744,-0.439288467168808,-0.3157409727573395
1696081757594855200,10.419855224609375,0.9846383929252625,0.35300374031066895,-0.3652210533618927
1696081757604855300,10.429855224609375,0.8642979860305786,1.0475575923919678,-0.4250858426094055
1696081757614855200,10.439855224609374,0.7934376001358032,1.4562263488769531,-0.46357035636901855
1696081757624855300,10.449855224609376,0.7946593165397644,1.610775351524353,-0.5032765865325928
1696081757634855200,10.459855224609376,0.7903832793235779,1.5344171524047852,-0.5258786082267761
1696081757644855300,10.469855224609375,0.792215883731842,1.133689522743225,-0.5228242874145508
1696081757654855200,10.479855224609375,0.8337547183036804,0.3902665376663208,-0.5295438170433044
1696081757664855300,10.489855224609375,0.9015607237815857,-0.4924337565898895,-0.5545892715454102
1696081757674855200,10.499855224609375,0.9687559008598328,-1.2181416749954224,-0.5619196891784668
1696081757684855300,10.509855224609375,0.9962448477745056,-1.5651130676269531,-0.5784130096435547
1696081757694855200,10.519855224609374,1.029842495918274,-1.6261996030807495,-0.6266713738441467
1696081757704855300,10.529855224609374,1.0933724641799927,-1.4569900035858154,-0.7164685726165771
1696081757714855200,10.539855224609376,1.1776717901229858,-1.1002446413040161,-0.8184830546379089
1696081757724855300,10.549855224609376,1.2503647804260254,-0.6805802583694458,-0.9101128578186035
1696081757734855200,10.559855224609375,1.2686907052993774,-0.4130212664604187,-0.9968557357788086
1696081757744855300,10.569855224609375,1.2179889678955078,-0.4441753923892975,-1.0353401899337769
1696081757754855200,10.579855224609375,1.1037571430206299,-0.6005569100379944,-0.9412670135498047
1696081770575510300,23.40051025390625,0.058566704392433167,1.496543526649475,1.11795973777771
1696081770585483300,23.410483154296877,0.15386168658733368,1.6437619924545288,1.3445907831192017
1696081770595524000,23.420524169921876,0.2436588704586029,1.6113861799240112,1.5431219339370728
1696081770605537800,23.430537841796873,0.3053562641143799,1.493489146232605,1.659797191619873
1696081770615546600,23.440546630859377,0.31085404753685,1.439122200012207,1.642693042755127
1696081770625553400,23.450553466796876,0.24182628095149994,1.4959325790405273,1.5064700841903687
1696081770635559000,23.460558837890623,0.12087496370077133,1.6535358428955078,1.281060814857483
1696081770645558800,23.470558837890625,-0.017791450023651123,1.7243962287902832,1.0251082181930542
1696081770655562800,23.480562744140624,-0.14362968504428864,1.464167594909668,0.7972555160522461
1696081770665566200,23.490566162109374,-0.2676353454589844,0.8789587020874023,0.5968917012214661
1696081770675569200,23.500569091796876,-0.37087157368659973,0.28092166781425476,0.37087157368659973
1696081770685571800,23.51057177734375,-0.45578181743621826,-0.1753946840763092,0.14179709553718567
1696081770695574300,23.52057421875,-0.5034292936325073,-0.29940032958984375,-0.08116871863603592
1696081770705576400,23.530576416015624,-0.51992267370224,-0.27496573328971863,-0.24121540784835815
1696081770715576600,23.54057666015625,-0.5058727860450745,-0.1753946840763092,-0.2949715554714203
1696081770725578500,23.55057861328125,-0.4789946973323822,-0.08559749275445938,-0.2436588704586029
1696081770735580200,23.560580078125,-0.4447862505912781,-0.012293662875890732,-0.12576188147068024
1696081770745582300,23.570582275390624,-0.4130212664604187,-0.0214566420763731,0.01595885492861271
1696081770755584000,23.580583984375,-0.3623194396495819,-0.1253037303686142,0.12408200651407242
1696081770765585400,23.59058544921875,-0.2963460087776184,-0.24320071935653687,0.16806429624557495
1696081770775586800,23.6005869140625,-0.24930937588214874,-0.3287218511104584,0.1656208336353302
1696081770785588200,23.610588134765624,-0.24320071935653687,-0.38553231954574585,0.13935363292694092
1696081770795588400,23.62058837890625,-0.32933273911476135,-0.510759711265564,0.07582364976406097
1696081770805589500,23.630589599609376,-0.46616652607917786,-0.6512587070465088,0.0006872233934700489
1696081770815590700,23.640590576171874,-0.5602397918701172,-0.6695846915245056,-0.05734497308731079
1696081770825591800,23.650591796875,-0.5938373804092407,-0.597502589225769,-0.0823904499411583
1696081770835593000,23.660593017578126,-0.577954888343811,-0.5187009572982788,-0.0970512181520462
1696081770845593900,23.67059375,-0.530307412147522,-0.4631122052669525,-0.0970512181520462
1696081770855595000,23.680594970703126,-0.4637230932712555,-0.43195807933807373,-0.08361218124628067
1696081770865596000,23.690595947265624,-0.38736492395401,-0.3867540657520294,-0.0567341111600399
1696081770875596800,23.7005966796875,-0.3110067546367645,-0.306730717420578,-0.02252565510571003
1696081770885598200,23.71059814453125,-0.2554180324077606,-0.2364812046289444,0.014737123623490334
1696081770895597800,23.720597900390626,-0.21998783946037292,-0.21204659342765808,0.04466952010989189
1696081770905598000,23.730597900390624,-0.206548810005188,-0.21754439175128937,0.037339139729738235
1696081770915597800,23.740597900390625,-0.19677497446537018,-0.23525947332382202,-0.004199698567390442
1696081770925598000,23.750597900390623,-0.19310978055000305,-0.22792910039424896,-0.05490151420235634
1696081770935597800,23.760597900390625,-0.19249890744686127,-0.2053270787000656,-0.0921642929315567
1696081770945598700,23.7705986328125,-0.19188804924488068,-0.21876612305641174,-0.11843150109052658
1696081770955598800,23.780598876953125,-0.18700112402439117,-0.27374398708343506,-0.13981178402900696
1696081770965598700,23.7905986328125,-0.18883371353149414,-0.3519347310066223,-0.15997034311294556
1696081770975598800,23.800598876953124,-0.20349448919296265,-0.41607558727264404,-0.17707456648349762
1696081770985598700,23.8105986328125,-0.22243130207061768,-0.47044259309768677,-0.18990273773670197
1696081770995598800,23.820598876953124,-0.23464861512184143,-0.5156466364860535,-0.19478964805603027
1696081771005598700,23.8305986328125,-0.24014639854431152,-0.5211443901062012,-0.19173532724380493
1696081771015599600,23.840599609375,-0.24320071935653687,-0.4930446147918701,-0.1734093725681305
1696081771025599700,23.850599853515625,-0.23892466723918915,-0.44539710879325867,-0.14653129875659943
1696081771035599600,23.860599609375,-0.23709207773208618,-0.3916409909725189,-0.11659890413284302
1696081771045599500,23.870599609375,-0.23709207773208618,-0.32078060507774353,-0.0921642929315567
1696081771055599400,23.880599365234374,-0.2413681298494339,-0.2309834212064743,-0.08300131559371948
1696081771065599500,23.890599609375,-0.24930937588214874,-0.1399645060300827,-0.07750352472066879
1696081771075599400,23.900599365234374,-0.25358542799949646,-0.0697149932384491,-0.06039930135011673
1696081771085599500,23.910599609375,-0.2603049576282501,-0.028787024319171906,-0.03901901841163635
1696081771095600400,23.920600341796874,-0.2713005244731903,-0.010461067780852318,-0.02496911771595478
1696081771105600300,23.930600341796875,-0.27435484528541565,-0.017180584371089935,-0.02252565510571003
1696081771115600400,23.940600341796873,-0.26885706186294556,-0.02695442922413349,-0.02863430790603161
1696081771125600300,23.950600341796875,-0.2658027410507202,-0.03611740842461586,-0.004810563754290342
1696081771135600400,23.960600341796876,-0.25419628620147705,-0.09598220139741898,0.15340353548526764
1696081771145600300,23.970600341796874,-0.24014639854431152,-0.2364812046289444,0.27313312888145447
1696081771155600400,23.980600341796876,-0.2413681298494339,-0.3311653137207031,0.32566753029823303
1696081771165600300,23.990600341796874,-0.25480717420578003,-0.27374398708343506,0.32078060507774353
1696081771175600400,24.000600341796876,-0.2664135992527008,-0.2205987125635147,0.28412869572639465
1696081771185599700,24.010599853515625,-0.26458099484443665,-0.2303725630044937,0.24442245066165924
1696081771195599600,24.020599609375,-0.25358542799949646,-0.28290697932243347,0.21204659342765808
1696081771205599700,24.030599853515625,-0.2315942794084549,-0.3171154260635376,0.1857793927192688
1696081771215599600,24.040599609375,-0.21326832473278046,-0.31039589643478394,0.1711186319589615
1696081771225599700,24.050599853515624,-0.19799669086933136,-0.27985262870788574,0.16134478151798248
1696081771235599600,24.060599609375,-0.18150334060192108,-0.2309834212064743,0.14424055814743042
1696081771245599700,24.070599853515624,-0.1711186319589615,-0.19005544483661652,0.13752104341983795
1696081771255599600,24.080599609375,-0.16134478151798248,-0.16745343804359436,0.1295797973871231
1696081771265599700,24.090599853515624,-0.15706872940063477,-0.15767958760261536,0.12896892428398132
1696081771275599600,24.100599609375,-0.1552361249923706,-0.16378824412822723,0.12713633477687836
1696081771285599700,24.110599853515627,-0.1509600728750229,-0.16745343804359436,0.11614075303077698
1696081771295599600,24.120599609375,-0.1497383415699005,-0.1760055422782898,0.10147999227046967
1696081771305599700,24.130599853515626,-0.1503492146730423,-0.18944458663463593,0.08620835840702057
1696081771315599600,24.140599609375,-0.14851661026477814,-0.18883371353149414,0.07154759019613266
1696081771325599700,24.150599853515626,-0.14851661026477814,-0.17967073619365692,0.058108557015657425
1696081771335599600,24.160599609375,-0.144851416349411,-0.1656208336353302,0.040393464267253876
1696081771345599700,24.170599853515625,-0.14362968504428864,-0.144851416349411,0.014737123623490334
1696081771355599600,24.180599609375,-0.144851416349411,-0.1356884390115738,-0.0035888333804905415
1696081771365599700,24.190599853515625,-0.14851661026477814,-0.13813190162181854,-0.004199698567390442
1696081771375599600,24.200599609375,-0.1497383415699005,-0.14668402075767517,0.00985020212829113
1696081771385599700,24.210599853515625,-0.14729487895965576,-0.15218180418014526,0.026343563571572304
1696081771395599600,24.220599609375,-0.1460731476545334,-0.14179709553718567,0.032452214509248734
1696081771405599700,24.230599853515624,-0.14851661026477814,-0.1253037303686142,0.025121834129095078
1696081771415599600,24.240599609375,-0.1497383415699005,-0.11369729042053223,0.008017606101930141
1696081771425599700,24.250599853515624,-0.1497383415699005,-0.09659306704998016,-0.013362676836550236
1696081771435599600,24.260599609375,-0.1454622894525528,-0.0794888436794281,-0.032299499958753586
1696081771445599700,24.270599853515623,-0.14424055814743042,-0.07521278411149979,-0.044516805559396744
1696081771455599600,24.280599609375,-0.13691017031669617,-0.07521278411149979,-0.058566704392433167
1696081771465599700,24.290599853515626,-0.12896892428398132,-0.07154759019613266,-0.07444920390844345
1696081771475599600,24.300599609375,-0.12041681259870529,-0.07521278411149979,-0.08300131559371948
1696081771485599700,24.310599853515626,-0.1100321039557457,-0.09598220139741898,-0.07506006956100464
1696081771495599600,24.320599609375,-0.10392344743013382,-0.12347114086151123,-0.05429064854979515
1696081771505599700,24.330599853515626,-0.10086912661790848,-0.1460731476545334,-0.0316886343061924
1696081771515599600,24.340599609375,-0.09720393270254135,-0.16256651282310486,-0.021303925663232803
1696081771525599700,24.350599853515625,-0.0898735523223877,-0.16378824412822723,-0.027412578463554382
1696081771535599600,24.360599609375,-0.08620835840702057,-0.1454622894525528,-0.04024074971675873
1696081771545599700,24.370599853515625,-0.08926268666982651,-0.10881037265062332,-0.06039930135011673
1696081771555599600,24.380599609375,-0.09048441797494888,-0.07338018715381622,-0.07567093521356583
1696081771565599700,24.390599853515624,-0.08681922405958176,-0.04833471402525902,-0.09033169597387314
1696081771575599600,24.400599609375,-0.0794888436794281,-0.02695442922413349,-0.11171197891235352
1696081771585599700,24.410599853515624,-0.06910412758588791,-0.011682798154652119,-0.13614659011363983
1696081771595599600,24.420599609375,-0.058108557015657425,0.0011453722836449742,-0.16607898473739624
1696081771605599700,24.430599853515623,-0.05077817291021347,0.009086620062589645,-0.19967657327651978
1696081771615599600,24.440599609375,-0.04589125141501427,0.020082194358110428,-0.2283872365951538
1696081771625599700,24.450599853515627,-0.04222606122493744,0.029856039211153984,-0.24488060176372528
1696081771635599600,24.460599609375,-0.03550654277205467,0.05062545835971832,-0.23266330361366272
1696081771645599700,24.470599853515626,-0.03061962127685547,0.08361218124628067,-0.19112446904182434
1696081771655599600,24.480599609375,-0.019624045118689537,0.1178206354379654,-0.12392928451299667
1696081771665599700,24.490599853515626,-0.0031306843739002943,0.18684840202331543,-0.029245173558592796
1696081771675599600,24.500599609375,0.007864889688789845,0.23266330361366272,0.09109527617692947
1696081771685599700,24.510599853515625,0.01947133056819439,0.23693935573101044,0.17478381097316742
1696081771695599600,24.520599609375,0.029856039211153984,0.24488060176372528,0.20715968310832977
1696081771705599700,24.530599853515625,0.0316886343061924,0.3059671223163605,0.21510092914104462
1696081771715599600,24.540599609375,0.023747386410832405,0.3499494194984436,0.22426390647888184
1696081771725599700,24.550599853515624,0.009086620062589645,0.38232529163360596,0.24381159245967865
1696081771735599600,24.560599609375,-0.0019089538836851716,0.40309470891952515,0.2609158158302307
1696081771745599700,24.570599853515624,-0.01412625890225172,0.4018729627132416,0.2706896662712097
1696081771755599600,24.580599609375,-0.029397889971733093,0.37804922461509705,0.26824620366096497
1696081771765599700,24.590599853515624,-0.049556441605091095,0.3749949038028717,0.2560288906097412
1696081771775599600,24.600599609375,-0.07276932150125504,0.3707188367843628,0.2254856377840042
1696081771785599700,24.610599853515627,-0.08743008971214294,0.34200817346572876,0.17844900488853455
1696081771795599600,24.620599609375,-0.09659306704998016,0.32184961438179016,0.1350775808095932
1696081771805599700,24.630599853515626,-0.10575604438781738,0.3236822187900543,0.0947604700922966
1696081771815599600,24.640599609375,-0.11247556656599045,0.3285691440105438,0.06482807546854019
1696081771825599700,24.650599853515626,-0.11675161868333817,0.2882520258426666,0.0593302883207798
1696081771835599600,24.660599609375,-0.12163854390382767,0.23205243051052094,0.084375761449337
1696081771845599700,24.670599853515625,-0.1460731476545334,0.2381610870361328,0.06788240373134613
1696081771855599600,24.680599609375,-0.17844900488853455,0.17646369338035583,0.058108557015657425
1696081771865599700,24.690599853515625,-0.19372063875198364,0.0970512181520462,0.052610769867897034
1696081771875599600,24.700599609375,-0.19738583266735077,0.0518471859395504,0.04283692687749863
1696081771885599700,24.710599853515625,-0.19921842217445374,0.05367978289723396,0.02695442922413349
1696081771895599600,24.720599609375,-0.20288361608982086,0.06406449526548386,0.0019089538836851716
1696081771905599700,24.730599853515624,-0.19738583266735077,0.029856039211153984,-0.024358252063393593
1696081771915599600,24.740599609375,-0.1650099754333496,-0.017180584371089935,-0.04085161164402962
1696081771925599700,24.750599853515624,-0.11247556656599045,-0.041004329919815063,-0.04818199574947357
1696081771935599600,24.760599609375,-0.058108557015657425,-0.015347989276051521,-0.05123632401227951
1696081771945599700,24.770599853515623,-0.025121834129095078,0.0316886343061924,-0.06406449526548386
1696081771955599600,24.780599609375,-0.007406740915030241,0.04268420860171318,-0.09644035249948502
1696081771965599700,24.790599853515626,0.0029779679607599974,-0.025121834129095078,-0.13492485880851746
1696081771975599600,24.800599609375,0.012140946462750435,-0.15462526679039001,-0.16180293262004852
1696081771985599700,24.810599853515626,0.02252565510571003,-0.28962647914886475,-0.17157678306102753
1696081771995599600,24.820599609375,0.035353824496269226,-0.377591073513031,-0.168522447347641
1696081772005599700,24.830599853515626,0.04085161164402962,-0.4075234830379486,-0.15997034311294556
1696081772015599600,24.840599609375,0.04940372705459595,-0.3965279161930084,-0.15141822397708893
1696081772025599700,24.850599853515625,0.06528622657060623,-0.377591073513031,-0.14469870924949646
1696081772035599600,24.860599609375,0.07872525602579117,-0.36537376046180725,-0.13981178402900696
1696081772045599700,24.870599853515625,0.08849909901618958,-0.35437819361686707,-0.1428661048412323
1696081772055599600,24.880599609375,0.09277515858411789,-0.3574325144290924,-0.15508341789245605
1696081772065599700,24.890599853515624,0.08666650950908661,-0.36415204405784607,-0.18135061860084534
1696081772075599600,24.900599609375,0.07078400999307632,-0.37026068568229675,-0.21678079664707184
1696081772085599700,24.910599853515624,0.056123245507478714,-0.3635411858558655,-0.2546544373035431
1696081772095599600,24.920599609375,0.05123632401227951,-0.3329979181289673,-0.28275424242019653
1696081772105599700,24.930599853515623,0.06406449526548386,-0.26335927844047546,-0.2845868468284607
1696081772115599600,24.940599609375,0.07933612167835236,-0.1857793927192688,-0.26015225052833557
1696081772125599700,24.950599853515627,0.09949467331171036,-0.11186470091342926,-0.22777637839317322
1696081772135599600,24.960599609375,0.12392928451299667,-0.04833471402525902,-0.20089830458164215
1696081772145599700,24.970599853515626,0.1483639031648636,0.013362676836550236,-0.18990273773670197
1696081772155599600,24.980599609375,0.17096590995788574,0.10071640461683273,-0.1929570585489273
1696081772165599700,24.990599853515626,0.1837940812110901,0.14103351533412933,-0.1935679316520691
1696081772175599600,25.000599609375,0.19601137936115265,0.20028744637966156,-0.19967657327651978
1696081772185599700,25.010599853515625,0.19906571507453918,0.2192242592573166,-0.2039526402950287
1696081772195599600,25.020599609375,0.1886810064315796,0.1837940812110901,-0.20700696110725403
1696081772205599700,25.030599853515625,0.16913332045078278,0.11049024760723114,-0.20456349849700928
1696081772215599600,25.040599609375,0.1422552466392517,0.047571130096912384,-0.19662225246429443
1696081772225599700,25.050599853515624,0.10682506114244461,-0.0544433668255806,-0.17646369338035583
1696081772235599600,25.060599609375,0.08300131559371948,-0.11736248433589935,-0.15447254478931427
1696081772245599700,25.070599853515624,0.06895141303539276,-0.09903652966022491,-0.1471421718597412
1696081772255599600,25.080599609375,0.0518471859395504,-0.06727153807878494,-0.1477530300617218
1696081772265599700,25.090599853515624,0.032299499958753586,-0.05627596005797386,-0.15202908217906952
1696081772275599600,25.100599609375,0.006643159314990044,-0.0794888436794281,-0.15874861180782318
1696081772285599700,25.110599853515627,-0.01595885492861271,-0.1552361249923706,-0.1624137908220291
1696081772295599600,25.120599609375,-0.031841352581977844,-0.2511419653892517,-0.16180293262004852
1696081772305599700,25.130599853515626,-0.037950001657009125,-0.27496573328971863,-0.168522447347641
1696081772315599600,25.140599609375,-0.03550654277205467,-0.2505311071872711,-0.1734093725681305
1696081772325599700,25.150599853515626,-0.028176158666610718,-0.19921842217445374,-0.1679115891456604
1696081772335599600,25.160599609375,-0.025732697919011116,-0.13691017031669617,-0.15508341789245605
1696081772345599700,25.170599853515625,-0.025732697919011116,-0.10697777569293976,-0.13431400060653687
1696081772355599600,25.180599609375,-0.022678371518850327,-0.11675161868333817,-0.10865765810012817
1696081772365599700,25.190599853515625,-0.017791450023651123,-0.13691017031669617,-0.08849909901618958
1696081772375599600,25.200599609375,-0.00985020212829113,-0.1350775808095932,-0.07078400999307632
1696081772385599700,25.210599853515625,-0.0031306843739002943,-0.1149190217256546,-0.05062545835971832
1696081772395599600,25.220599609375,0.006643159314990044,-0.08376489579677582,-0.024358252063393593
1696081772405599700,25.230599853515624,0.012751812115311623,-0.06360634416341782,0.004352414980530739
1696081772415599600,25.240599609375,0.018249599263072014,-0.08193229883909225,0.040393464267253876
1696081772425599700,25.250599853515624,0.0164170041680336,-0.08681922405958176,0.07154759019613266
1696081772435599600,25.260599609375,0.0029779679607599974,-0.05138903856277466,0.084375761449337
1696081772445599700,25.270599853515623,-0.009239336475729942,-0.011682798154652119,0.08132143318653107
1696081772455599600,25.280599609375,-0.01412625890225172,0.006643159314990044,0.06238461285829544
1696081772465599700,25.290599853515626,-0.01412625890225172,-0.0037415495608001947,0.03367394581437111
1696081772475599600,25.300599609375,-0.008017606101930141,-0.03672827407717705,0.007406740915030241
1696081772485599700,25.310599853515626,0.006032294128090143,-0.06849326193332672,-0.012140946462750435
1696081772495599600,25.320599609375,0.02252565510571003,-0.07276932150125504,-0.023747386410832405
1696081772505599700,25.330599853515626,0.032299499958753586,-0.05994115397334099,-0.023136520758271217
1696081772515599600,25.340599609375,0.035353824496269226,-0.04711298272013664,-0.013362676836550236
1696081772525599700,25.350599853515625,0.032910365611314774,-0.04283692687749863,-0.0011453722836449742
1696081772535599600,25.360599609375,0.032299499958753586,-0.046502117067575455,0.010461067780852318
1696081772545599700,25.370599853515625,0.029856039211153984,-0.04283692687749863,0.014737123623490334
1696081772555599600,25.380599609375,0.023747386410832405,-0.03672827407717705,0.015347989276051521
1696081772565599700,25.390599853515624,0.014584408141672611,-0.034895677119493484,0.012293662875890732
1696081772575599600,25.400599609375,0.0188604649156332,-0.01840231567621231,0.008017606101930141
1696081772585599700,25.410599853515624,0.032910365611314774,0.002367102773860097,0.004963280167430639
