time,seconds_elapsed,z,y,x
1695712346255798000,0.168798095703125,0.11016845703125,0.5279541015625,-0.92864990234375
1695712346265319700,0.178319580078125,0.30548095703125,0.4351806640625,-0.89385986328125
1695712346274871600,0.18787158203125,0.536651611328125,0.50811767578125,-0.806884765625
1695712346284423700,0.197423583984375,0.77606201171875,0.624542236328125,-0.695953369140625
1695712346293945000,0.206945068359375,0.955963134765625,0.4705810546875,-0.640411376953125
1695712346303497000,0.2164970703125,0.80352783203125,-0.65521240234375,-0.958099365234375
1695712346313049000,0.226049072265625,0.433349609375,-1.501617431640625,-1.5533447265625
1695712346322601000,0.23560107421875,0.241241455078125,-1.61102294921875,-1.97052001953125
1695712346332122600,0.24512255859375,0.266265869140625,-1.517486572265625,-2.20062255859375
1695712346341674500,0.254674560546875,0.36590576171875,-1.417083740234375,-2.3345947265625
1695712346351226600,0.2642265625,0.4559326171875,-1.3446044921875,-2.3345947265625
1695712346360778500,0.273778564453125,0.530548095703125,-1.112518310546875,-2.128753662109375
1695712346370300200,0.283300048828125,0.582122802734375,-0.666656494140625,-1.681671142578125
1695712346379852000,0.29285205078125,0.594940185546875,-0.330657958984375,-1.084747314453125
1695712346389404200,0.302404052734375,0.565338134765625,-0.355682373046875,-0.477294921875
1695712346398956000,0.3119560546875,0.35369873046875,-0.743255615234375,-0.074462890625
1695712346408508200,0.321508056640625,0.06927490234375,-1.130218505859375,0.1318359375
1695712346418060000,0.33106005859375,-0.035400390625,-1.27655029296875,0.286865234375
1695712346427612200,0.340612060546875,-0.01617431640625,-1.484527587890625,0.428619384765625
1695712346437164000,0.3501640625,0.02197265625,-1.71142578125,0.592041015625
1695712346446685400,0.359685546875,0.05157470703125,-1.867828369140625,0.778350830078125
1695712346456237600,0.369237548828125,0.0543212890625,-1.886444091796875,0.9552001953125
1695712346465789400,0.37878955078125,0.03753662109375,-2.124176025390625,1.130523681640625
1695712346475341600,0.388341552734375,0.0262451171875,-2.3968505859375,1.3427734375
1695712346484863000,0.397863037109375,0.023193359375,-2.545623779296875,1.583251953125
1695712346494415000,0.4074150390625,0.0146484375,-2.582550048828125,1.817169189453125
1695712346503967000,0.416967041015625,-0.0213623046875,-2.4493408203125,2.02423095703125
1695712346513519000,0.42651904296875,-0.101776123046875,-2.139129638671875,2.143402099609375
1695712346523040500,0.43604052734375,-0.203704833984375,-1.788177490234375,2.119598388671875
1695712346532592600,0.445592529296875,-0.289306640625,-1.63238525390625,1.9580078125
1695712346542144500,0.45514453125,-0.350341796875,-1.588134765625,1.72088623046875
1695712346551696600,0.464696533203125,-0.37994384765625,-1.5789794921875,1.476287841796875
1695712346561218000,0.474218017578125,-0.3692626953125,-1.549530029296875,1.27288818359375
1695712346570770000,0.48377001953125,-0.31829833984375,-1.434478759765625,1.123199462890625
1695712346580322000,0.493322021484375,-0.25421142578125,-1.22344970703125,1.044464111328125
1695712346589874000,0.5028740234375,-0.212554931640625,-0.9039306640625,1.024627685546875
1695712346599395600,0.5123955078125,-0.216522216796875,-0.5047607421875,1.004638671875
1695712346608947500,0.521947509765625,-0.2392578125,-0.083160400390625,0.90362548828125
1695712346618499600,0.53149951171875,-0.24444580078125,0.19927978515625,0.713348388671875
1695712346628051500,0.541051513671875,-0.2239990234375,0.308990478515625,0.526123046875
1695712346637572900,0.55057275390625,-0.180511474609375,0.284271240234375,0.408782958984375
1695712346647125000,0.560125,-0.109100341796875,0.13031005859375,0.349273681640625
1695712346656676900,0.5696767578125,-0.013427734375,-0.120086669921875,0.328521728515625
1695712346666229000,0.57922900390625,0.0830078125,-0.319976806640625,0.313873291015625
1695712346675750400,0.58875048828125,0.167083740234375,-0.408782958984375,0.2734375
1695712346685333000,0.5983330078125,0.222320556640625,-0.407867431640625,0.18218994140625
1695712346694885000,0.607885009765625,0.244598388671875,-0.319061279296875,0.065765380859375
1695712346704437000,0.61743701171875,0.238800048828125,-0.16143798828125,-0.020599365234375
1695712346713958400,0.62695849609375,0.227203369140625,0.03173828125,-0.026092529296875
1695712346723510500,0.636510498046875,0.223541259765625,0.1800537109375,0.026397705078125
1695712346733062400,0.6460625,0.214996337890625,0.231781005859375,0.088653564453125
1695712346742614500,0.655614501953125,0.171966552734375,0.18951416015625,0.14007568359375
1695712346752166400,0.66516650390625,0.0897216796875,0.06561279296875,0.1934814453125
1695712346761688000,0.67468798828125,-0.01617431640625,-0.065155029296875,0.2886962890625
1695712346771240000,0.684239990234375,-0.113677978515625,-0.091400146484375,0.439300537109375
1695712346780792000,0.6937919921875,-0.103302001953125,-0.027008056640625,0.57525634765625
1695712346790344000,0.703343994140625,0.147552490234375,-0.029449462890625,0.6402587890625
1695712346799865300,0.712865234375,0.581207275390625,-0.12603759765625,0.6292724609375
1695712346809417500,0.72241748046875,0.854339599609375,-0.21514892578125,0.56640625
1695712346818969300,0.73196923828125,0.79986572265625,-0.2850341796875,0.473785400390625
1695712346828521500,0.741521484375,0.610504150390625,-0.346832275390625,0.370025634765625
1695712346838043000,0.75104296875,0.4156494140625,-0.434417724609375,0.26458740234375
1695712346847595000,0.760594970703125,0.254669189453125,-0.487213134765625,0.18096923828125
1695712346857147000,0.77014697265625,0.120086669921875,-0.479888916015625,0.088958740234375
1695712346866699000,0.779698974609375,0.0274658203125,-0.464935302734375,-0.006256103515625
1695712346876220400,0.789220458984375,0.00946044921875,-0.439605712890625,-0.045013427734375
1695712346885772500,0.7987724609375,0.062255859375,-0.356292724609375,-0.017852783203125
1695712346895324400,0.808324462890625,0.143280029296875,-0.316619873046875,0.009918212890625
1695712346904845800,0.817845703125,0.189361572265625,-0.391693115234375,-0.008087158203125
1695712346914398000,0.82739794921875,0.187835693359375,-0.462493896484375,-0.06256103515625
1695712346923949800,0.83694970703125,0.160980224609375,-0.467681884765625,-0.1300048828125
1695712346933502000,0.846501953125,0.134735107421875,-0.405426025390625,-0.20721435546875
1695712346943053800,0.8560537109375,0.124664306640625,-0.27740478515625,-0.275115966796875
1695712346952575500,0.865575439453125,0.140228271484375,-0.106353759765625,-0.330657958984375
1695712346962127400,0.87512744140625,0.184783935546875,0.06622314453125,-0.382537841796875
1695712346971710000,0.8847099609375,0.242156982421875,0.184326171875,-0.447998046875
1695712346981261800,0.89426171875,0.284271240234375,0.19989013671875,-0.49835205078125
1695712346990783500,0.903783447265625,0.30487060546875,0.11810302734375,-0.49774169921875
1695712347000335400,0.91333544921875,0.301666259765625,-0.032806396484375,-0.45745849609375
1695712347009887500,0.922887451171875,0.275115966796875,-0.174560546875,-0.41107177734375
1695712347019439400,0.932439453125,0.218353271484375,-0.25634765625,-0.388336181640625
1695712347028961000,0.9419609375,0.153350830078125,-0.2374267578125,-0.385589599609375
1695712347038513000,0.951512939453125,0.08636474609375,-0.083770751953125,-0.384674072265625
1695712347048065000,0.96106494140625,0.01708984375,0.13763427734375,-0.392608642578125
1695712347057617000,0.970616943359375,0.0018310546875,0.261077880859375,-0.41656494140625
1695712347067138300,0.98013818359375,0.0933837890625,0.264129638671875,-0.44158935546875
1695712347076690400,0.9896904296875,0.176239013671875,0.274200439453125,-0.49072265625
1695712347086242300,0.9992421875,0.157623291015625,0.20965576171875,-0.53924560546875
1695712347095794400,1.00879443359375,0.11322021484375,0.018768310546875,-0.55389404296875
1695712347105315800,1.01831591796875,0.04119873046875,-0.18157958984375,-0.5364990234375
1695712347114868000,1.027867919921875,-0.0250244140625,-0.318756103515625,-0.49957275390625
1695712347124419800,1.037419921875,-0.03875732421875,-0.370941162109375,-0.41839599609375
1695712347133972000,1.046971923828125,-0.0164794921875,-0.28839111328125,-0.298919677734375
1695712347143493400,1.056493408203125,-0.03509521484375,-0.097503662109375,-0.2178955078125
1695712347153045500,1.06604541015625,-0.068511962890625,-0.012054443359375,-0.2178955078125
1695712347162597400,1.075597412109375,-0.094146728515625,-0.034332275390625,-0.243988037109375
1695712347172149500,1.0851494140625,-0.123138427734375,-0.17791748046875,-0.280609130859375
1695712347181671000,1.0946708984375,-0.169830322265625,-0.403900146484375,-0.340728759765625
1695712347191222800,1.104222900390625,-0.217437744140625,-0.5157470703125,-0.366668701171875
1695712347200775000,1.11377490234375,-0.218353271484375,-0.441131591796875,-0.337982177734375
1695712347210326800,1.123326904296875,-0.166168212890625,-0.333404541015625,-0.301055908203125
1695712347219848400,1.132848388671875,-0.03448486328125,-0.1416015625,-0.231170654296875
1695712347229400300,1.142400390625,0.05645751953125,0.0799560546875,-0.1373291015625
1695712347238952400,1.151952392578125,0.1123046875,0.09735107421875,-0.06591796875
1695712347248504300,1.16150439453125,0.069580078125,-0.103607177734375,0.003814697265625
1695712347258056400,1.171056396484375,-0.0164794921875,-0.362701416015625,0.021209716796875
1695712347267608300,1.1806083984375,-0.128326416015625,-0.5218505859375,0.008392333984375
1695712347277160400,1.190160400390625,-0.137786865234375,-0.6549072265625,-0.0927734375
1695712347286712300,1.19971240234375,-0.078277587890625,-0.6207275390625,-0.321807861328125
1695712347296234000,1.20923388671875,-0.0018310546875,-0.411224365234375,-0.668792724609375
1695712347305785900,1.218785888671875,0.118408203125,-0.115509033203125,-0.94268798828125
1695712347315338000,1.228337890625,0.173187255859375,0.16632080078125,-0.953826904296875
1695712347324889900,1.237889892578125,0.151519775390625,0.258026123046875,-0.80230712890625
1695712347334411300,1.247411376953125,0.0726318359375,0.256195068359375,-0.57281494140625
1695712347343963400,1.25696337890625,-0.03204345703125,0.237274169921875,-0.347747802734375
1695712347353515300,1.266515380859375,-0.109710693359375,0.240631103515625,-0.19439697265625
1695712347363067400,1.2760673828125,-0.145721435546875,0.256195068359375,-0.120849609375
1695712347372588800,1.2855888671875,-0.184478759765625,0.315704345703125,-0.166015625
1695712347382141000,1.295140869140625,-0.2239990234375,0.392913818359375,-0.292816162109375
1695712347391692800,1.30469287109375,-0.233154296875,0.411376953125,-0.388336181640625
1695712347401245000,1.314244873046875,-0.201568603515625,0.342254638671875,-0.393218994140625
1695712347410766300,1.323766357421875,-0.146636962890625,0.1727294921875,-0.321197509765625
1695712347420318500,1.333318359375,-0.074005126953125,-0.006256103515625,-0.20965576171875
1695712347429870300,1.342870361328125,0.003662109375,-0.048675537109375,-0.12847900390625
1695712347439422500,1.35242236328125,0.03875732421875,0.098876953125,-0.14312744140625
1695712347448943900,1.36194384765625,0.06591796875,0.354156494140625,-0.242156982421875
1695712347458495700,1.371495849609375,0.162811279296875,0.608062744140625,-0.344696044921875
1695712347468048000,1.3810478515625,0.3070068359375,0.81268310546875,-0.390472412109375
1695712347477599700,1.390599853515625,0.43670654296875,0.8917236328125,-0.341644287109375
1695712347487121400,1.400121337890625,0.482635498046875,0.8306884765625,-0.232086181640625
1695712347496673300,1.40967333984375,0.38360595703125,0.611724853515625,-0.13031005859375
1695712347506225400,1.419225341796875,0.244903564453125,0.345916748046875,-0.048370361328125
1695712347515777300,1.42877734375,0.132293701171875,0.21484375,-0.045928955078125
1695712347525298700,1.438298583984375,0.06561279296875,0.226593017578125,-0.13580322265625
1695712347534850800,1.447850830078125,0.0494384765625,0.354766845703125,-0.256195068359375
1695712347544433400,1.457433349609375,0.06866455078125,0.52032470703125,-0.353546142578125
1695712347553985300,1.4669853515625,0.0933837890625,0.616912841796875,-0.402069091796875
1695712347563507000,1.4765068359375,0.132293701171875,0.637359619140625,-0.389556884765625
1695712347573058800,1.486058837890625,0.186309814453125,0.610198974609375,-0.352020263671875
1695712347582611000,1.49561083984375,0.245819091796875,0.57403564453125,-0.329437255859375
1695712347592162800,1.505162841796875,0.301513671875,0.5462646484375,-0.329132080078125
1695712347601715000,1.51471484375,0.34271240234375,0.52001953125,-0.340118408203125
1695712347611236400,1.524236328125,0.31158447265625,0.5047607421875,-0.371551513671875
1695712347620788200,1.533788330078125,0.236663818359375,0.49102783203125,-0.411376953125
1695712347630340400,1.54334033203125,0.206756591796875,0.49102783203125,-0.43060302734375
1695712347639892200,1.552892333984375,0.250396728515625,0.4827880859375,-0.41839599609375
1695712347649414000,1.562413818359375,0.34881591796875,0.44281005859375,-0.372161865234375
1695712347658965800,1.5719658203125,0.46051025390625,0.379486083984375,-0.291595458984375
1695712347668518000,1.581517822265625,0.595855712890625,0.307464599609375,-0.17578125
1695712347678069800,1.59106982421875,0.78704833984375,0.257720947265625,-0.052490234375
1695712347687591200,1.600591064453125,1.009674072265625,0.19287109375,0.052337646484375
1695712347697143300,1.610143310546875,1.212615966796875,0.10345458984375,0.12786865234375
1695712347706695400,1.6196953125,1.371002197265625,-0.065155029296875,0.17242431640625
1695712347716247300,1.629247314453125,1.5399169921875,-0.356292724609375,0.2130126953125
1695712347725768700,1.638768798828125,1.732635498046875,-0.731964111328125,0.286865234375
1695712347735320800,1.64832080078125,1.842041015625,-1.130828857421875,0.376739501953125
1695712347744872700,1.657872802734375,2.000885009765625,-1.491241455078125,0.49713134765625
1695712347754424800,1.6674248046875,2.2674560546875,-1.804656982421875,0.64361572265625
1695712347763946200,1.6769462890625,2.60467529296875,-2.151641845703125,0.824127197265625
1695712347773498400,1.686498291015625,3.008880615234375,-2.592926025390625,1.069183349609375
1695712347783050200,1.69605029296875,3.445587158203125,-3.14849853515625,1.384124755859375
1695712347792602400,1.705602294921875,3.863067626953125,-3.7481689453125,1.791534423828125
1695712347802123800,1.715123779296875,4.05609130859375,-4.14794921875,2.257232666015625
1695712347811675600,1.724675537109375,3.939208984375,-3.928985595703125,2.595062255859375
1695712347821227800,1.734227783203125,3.67279052734375,-3.14117431640625,2.604522705078125
1695712347830810400,1.743810302734375,3.454742431640625,-2.256317138671875,2.212066650390625
1695712347840331800,1.753331787109375,3.54156494140625,-1.405792236328125,1.70806884765625
1695712347849883600,1.762883544921875,3.94989013671875,-0.722198486328125,1.3128662109375
1695712347859435800,1.772435791015625,4.512786865234375,-0.461273193359375,1.079559326171875
1695712347868988000,1.78198779296875,5.12603759765625,-0.733795166015625,1.084747314453125
1695712347878509300,1.79150927734375,5.72418212890625,-1.440277099609375,1.348876953125
1695712347888061200,1.801061279296875,6.23260498046875,-2.35870361328125,1.863861083984375
1695712347897613300,1.81061328125,6.53564453125,-3.280487060546875,2.480010986328125
1695712347907165200,1.820165283203125,6.451416015625,-4.13970947265625,3.220672607421875
1695712347916686800,1.829686767578125,6.042022705078125,-4.736785888671875,4.10858154296875
1695712347926238700,1.83923876953125,5.558624267578125,-4.9017333984375,4.974212646484375
1695712347935790800,1.848790771484375,5.1495361328125,-4.750518798828125,5.57830810546875
1695712347945342700,1.8583427734375,4.923248291015625,-4.349822998046875,5.772857666015625
1695712347954864000,1.867864013671875,4.883270263671875,-3.74603271484375,5.589599609375
1695712347964416300,1.877416259765625,4.943084716796875,-2.984466552734375,5.17333984375
1695712347973968100,1.886968017578125,5.04486083984375,-2.242889404296875,4.650421142578125
1695712347983520300,1.896520263671875,5.151214599609375,-1.773834228515625,4.1082763671875
1695712347993041700,1.906041748046875,5.206451416015625,-1.69708251953125,3.631439208984375
1695712348002593800,1.91559375,5.247955322265625,-1.923675537109375,3.274383544921875
1695712348012145700,1.925145751953125,5.287322998046875,-2.369384765625,3.0609130859375
1695712348021697800,1.93469775390625,5.194244384765625,-3.201446533203125,3.06884765625
1695712348031219200,1.94421923828125,4.75250244140625,-4.22943115234375,3.256988525390625
1695712348040771300,1.953771240234375,4.140472412109375,-5.084075927734375,3.47015380859375
1695712348050323200,1.9633232421875,3.59283447265625,-5.28167724609375,3.47991943359375
1695712348059875300,1.972875244140625,3.32733154296875,-4.769744873046875,3.290557861328125
1695712348069396700,1.982396728515625,3.262939453125,-3.87664794921875,2.952117919921875
1695712348078948600,1.991948486328125,3.2611083984375,-2.969818115234375,2.575531005859375
1695712348088531200,2.00153125,3.2501220703125,-2.234039306640625,2.39593505859375
1695712348098144300,2.011144287109375,3.26568603515625,-1.778717041015625,1.801605224609375
1695712348107757300,2.02075732421875,3.57421875,-1.154022216796875,1.029205322265625
1695712348117370400,2.030370361328125,3.851470947265625,-0.64361572265625,1.064300537109375
1695712348126983400,2.0399833984375,3.737335205078125,-0.19287109375,0.601806640625
1695712348136596500,2.049596435546875,3.851776123046875,-0.021514892578125,0.043487548828125
1695712348146209500,2.05920947265625,3.722686767578125,0.068359375,-0.233001708984375
1695712348155822600,2.068822509765625,3.333740234375,-0.006256103515625,-0.16143798828125
1695712348174407700,2.08740771484375,2.732086181640625,-0.428619384765625,0.330657958984375
1695712348193450800,2.10645068359375,2.59735107421875,-0.343170166015625,0.546875
1695712348203063800,2.116063720703125,2.689361572265625,-0.27008056640625,0.5950927734375
1695712348212646100,2.125646240234375,2.810211181640625,-0.557861328125,0.664215087890625
1695712348222167800,2.135167724609375,3.129425048828125,-0.97625732421875,0.713043212890625
1695712348231689200,2.144689208984375,3.514251708984375,-1.070098876953125,0.431365966796875
1695712348241241000,2.154240966796875,3.5931396484375,-0.5670166015625,-0.294647216796875
1695712348250793200,2.163793212890625,3.408966064453125,0.312957763671875,-1.13616943359375
1695712348260314600,2.173314697265625,3.2861328125,1.2884521484375,-1.673736572265625
1695712348269866800,2.18286669921875,3.144683837890625,2.2406005859375,-1.988525390625
1695712348279418600,2.192418701171875,2.833251953125,3.0645751953125,-2.23480224609375
1695712348288970800,2.201970703125,2.1246337890625,3.599090576171875,-2.373046875
1695712348298492200,2.2114921875,1.15936279296875,4.368896484375,-2.28515625
1695712348308044300,2.221044189453125,0.43060302734375,3.107452392578125,-0.46875
1695712348317596200,2.23059619140625,0.616912841796875,2.085418701171875,0.810089111328125
1695712348327148300,2.240148193359375,1.204376220703125,2.00897216796875,0.2203369140625
1695712348336700200,2.2497001953125,1.374969482421875,1.461334228515625,-0.0970458984375
1695712348346221600,2.2592216796875,1.295623779296875,0.667266845703125,-0.238189697265625
1695712348355773700,2.268773681640625,1.255645751953125,-0.12359619140625,-0.5108642578125
1695712348365325600,2.27832568359375,1.185302734375,-0.911865234375,-0.9320068359375
1695712348374877700,2.287877685546875,1.0992431640625,-1.529693603515625,-1.389312744140625
1695712348384399000,2.297399169921875,1.0467529296875,-1.775970458984375,-1.818389892578125
1695712348393951200,2.306951171875,0.973663330078125,-1.69708251953125,-2.169952392578125
1695712348403533600,2.316533447265625,0.906829833984375,-1.411590576171875,-2.456207275390625
1695712348413085700,2.326085693359375,0.940093994140625,-1.23809814453125,-2.71881103515625
1695712348422607000,2.335607177734375,0.8392333984375,-1.180572509765625,-2.801055908203125
1695712348432159200,2.3451591796875,0.533905029296875,-0.91583251953125,-2.674560546875
1695712348441711000,2.354711181640625,0.216827392578125,-1.144866943359375,-2.3565673828125
1695712348451263200,2.36426318359375,-0.27252197265625,-1.916046142578125,-1.044769287109375
1695712348460784600,2.37378466796875,-0.415496826171875,-1.72088623046875,0.089263916015625
1695712348470336800,2.383336669921875,-0.050201416015625,-0.711212158203125,0.361480712890625
1695712348479888600,2.392888671875,0.585174560546875,-0.353546142578125,0.348052978515625
1695712348489440800,2.402440673828125,0.82244873046875,-1.051483154296875,0.424346923828125
1695712348498962200,2.411962158203125,0.638885498046875,-1.348876953125,0.431671142578125
1695712348508514000,2.42151416015625,0.782470703125,-1.22283935546875,0.462799072265625
1695712348518066200,2.431066162109375,1.083984375,-0.94268798828125,0.435638427734375
1695712348527618000,2.4406181640625,1.365203857421875,-0.64300537109375,0.454864501953125
1695712348537139700,2.4501396484375,1.5008544921875,-0.442047119140625,0.5572509765625
1695712348546691600,2.459691650390625,1.53045654296875,-0.255126953125,0.673980712890625
1695712348556243700,2.46924365234375,1.478271484375,-0.18524169921875,0.704193115234375
1695712348565795600,2.478795654296875,1.376495361328125,-0.366058349609375,0.62103271484375
1695712348575317200,2.488317138671875,1.219635009765625,-0.669403076171875,0.49163818359375
1695712348584869000,2.497869140625,0.997772216796875,-0.92742919921875,0.397796630859375
1695712348594421200,2.507421142578125,0.7305908203125,-1.027984619140625,0.346527099609375
1695712348603973000,2.51697314453125,0.40496826171875,-0.9912109375,0.305328369140625
1695712348613494500,2.52649462890625,0.0982666015625,-0.9820556640625,0.293121337890625
1695712348623046700,2.536046630859375,-0.04241943359375,-0.8856201171875,0.396270751953125
1695712348632598500,2.5455986328125,-0.064544677734375,-0.6536865234375,0.6005859375
1695712348642150700,2.555150634765625,-0.03631591796875,-0.432891845703125,0.789031982421875
1695712348651672000,2.564672119140625,-0.023193359375,-0.23223876953125,0.86822509765625
1695712348661224200,2.57422412109375,-0.057525634765625,-0.036163330078125,0.825042724609375
1695712348670776000,2.583776123046875,-0.24200439453125,0.0439453125,0.744171142578125
1695712348680328200,2.593328125,-0.078887939453125,0.229949951171875,0.679168701171875
1695712348689880000,2.602880126953125,0.195465087890625,0.56610107421875,0.742645263671875
1695712348699432200,2.61243212890625,0.4547119140625,0.528564453125,0.829925537109375
1695712348708984000,2.621984130859375,0.895538330078125,-0.034637451171875,0.792083740234375
1695712348718536200,2.6315361328125,1.551513671875,-0.509033203125,0.692291259765625
1695712348728057600,2.6410576171875,2.069244384765625,-0.52764892578125,0.462188720703125
1695712348737609700,2.650609619140625,2.152099609375,-0.2398681640625,0.100860595703125
1695712348747161600,2.66016162109375,2.20428466796875,0.07720947265625,0.343170166015625
1695712348756713700,2.669713623046875,2.417755126953125,0.0677490234375,0.819854736328125
1695712348766235100,2.679235107421875,2.4993896484375,-0.378875732421875,1.113128662109375
1695712348775787000,2.688787109375,2.5933837890625,-0.9539794921875,1.2030029296875
1695712348785339100,2.698339111328125,2.734832763671875,-0.413360595703125,1.481475830078125
1695712348794891000,2.70789111328125,2.811431884765625,-1.057586669921875,1.523895263671875
1695712348804412700,2.71741259765625,2.945556640625,-1.749725341796875,1.5570068359375
1695712348813964500,2.726964599609375,3.1884765625,-2.09259033203125,0.85540771484375
1695712348823516700,2.7365166015625,3.3172607421875,-1.172027587890625,1.041107177734375
1695712348833068500,2.746068603515625,3.28216552734375,-1.489410400390625,0.365447998046875
1695712348842590000,2.75558984375,3.083648681640625,-1.9757080078125,0.112457275390625
1695712348852142000,2.76514208984375,2.87078857421875,-0.94207763671875,1.20452880859375
1695712348861694000,2.77469384765625,2.809906005859375,-0.669708251953125,1.31683349609375
1695712348871246000,2.78424609375,2.712554931640625,-1.20086669921875,0.95245361328125
1695712348880767500,2.793767578125,2.61566162109375,-1.853485107421875,1.187896728515625
1695712348890319600,2.803319580078125,2.358856201171875,-1.93206787109375,1.787872314453125
1695712348899871500,2.81287158203125,1.531982421875,-1.548919677734375,2.176666259765625
1695712348909423600,2.822423583984375,0.121612548828125,-1.27166748046875,2.01690673828125
1695712348918945000,2.831945068359375,-1.503143310546875,-0.98907470703125,0.9820556640625
1695712348928497200,2.8414970703125,-2.347869873046875,-0.756072998046875,-0.338592529296875
1695712348938049000,2.851049072265625,-1.863555908203125,-0.431365966796875,-0.92193603515625
1695712348947601200,2.86060107421875,-0.909271240234375,-0.418243408203125,-0.979156494140625
1695712348957122600,2.87012255859375,-0.071868896484375,-0.65216064453125,-0.90240478515625
1695712348966674400,2.87967431640625,0.193939208984375,-0.55450439453125,-0.83465576171875
1695712348976257000,2.889257080078125,0.205535888671875,-0.415802001953125,-0.9027099609375
1695712348985809200,2.89880908203125,0.30670166015625,-0.22796630859375,-1.187744140625
1695712348995330600,2.90833056640625,0.44891357421875,0.13153076171875,-1.57958984375
1695712349004882400,2.91788232421875,0.583343505859375,0.49835205078125,-1.9757080078125
1695712349014434600,2.9274345703125,0.69183349609375,0.678253173828125,-2.3345947265625
1695712349023986400,2.936986328125,0.69427490234375,0.657501220703125,-2.7099609375
1695712349033508000,2.946508056640625,0.541229248046875,0.4656982421875,-3.09173583984375
1695712349043060000,2.95606005859375,0.35858154296875,0.1971435546875,-3.44512939453125
1695712349052612000,2.965612060546875,0.219268798828125,-0.011444091796875,-3.66790771484375
1695712349062164000,2.9751640625,0.0885009765625,-0.081634521484375,-3.7213134765625
1695712349071685600,2.984685546875,-0.057220458984375,-0.002593994140625,-3.637847900390625
1695712349081237500,2.994237548828125,-0.188140869140625,0.113525390625,-3.458251953125
1695712349090789600,3.00378955078125,-0.218353271484375,0.04852294921875,-3.218536376953125
1695712349100341500,3.013341552734375,-0.193939208984375,-0.50140380859375,-3.112335205078125
1695712349109863000,3.02286279296875,-0.110931396484375,-1.119232177734375,-2.914886474609375
1695712349119415000,3.0324150390625,0.126190185546875,-1.3543701171875,-2.36297607421875
1695712349128967000,3.041966796875,0.302734375,-1.3629150390625,-1.827239990234375
1695712349138519000,3.05151904296875,0.37384033203125,-0.740814208984375,-1.50360107421875
1695712349148040400,3.06104052734375,0.517730712890625,0.321502685546875,-1.430511474609375
1695712349157592600,3.070592529296875,0.645294189453125,1.408233642578125,-1.48468017578125
1695712349167144400,3.08014453125,0.636749267578125,2.105560302734375,-1.739959716796875
1695712349176696600,3.089696533203125,0.530853271484375,2.191619873046875,-2.088165283203125
1695712349186248400,3.09924853515625,0.43609619140625,1.94122314453125,-2.25616455078125
1695712349195770000,3.10877001953125,0.3814697265625,1.680755615234375,-2.170867919921875
1695712349205322000,3.118322021484375,0.3594970703125,1.5277099609375,-1.8890380859375
1695712349214874000,3.1278740234375,0.37384033203125,1.415252685546875,-1.53228759765625
1695712349224426000,3.137426025390625,0.41778564453125,1.27685546875,-1.20819091796875
1695712349233947400,3.146947509765625,0.480804443359375,1.13250732421875,-0.947723388671875
1695712349243499500,3.15649951171875,0.548858642578125,1.034393310546875,-0.742645263671875
1695712349253051400,3.166051513671875,0.621795654296875,1.014556884765625,-0.590057373046875
1695712349262634000,3.175634033203125,0.687255859375,1.047821044921875,-0.47943115234375
1695712349272155400,3.1851552734375,0.7147216796875,1.105194091796875,-0.395660400390625
1695712349281707500,3.19470751953125,0.7086181640625,1.212158203125,-0.325164794921875
1695712349291259400,3.20425927734375,0.67779541015625,1.346588134765625,-0.253143310546875
1695712349300811500,3.2138115234375,0.628814697265625,1.430511474609375,-0.1531982421875
1695712349310333000,3.2233330078125,0.562896728515625,1.395721435546875,0.004425048828125
1695712349319885000,3.232885009765625,0.482025146484375,1.24053955078125,0.224609375
1695712349329437000,3.24243701171875,0.394287109375,1.012115478515625,0.48797607421875
1695712349338989000,3.251989013671875,0.3253173828125,0.78582763671875,0.778045654296875
1695712349348510500,3.261510498046875,0.281829833984375,0.612945556640625,1.078338623046875
1695712349358062600,3.2710625,0.246734619140625,0.49774169921875,1.3726806640625
1695712349367614500,3.280614501953125,0.211639404296875,0.4412841796875,1.639404296875
1695712349377135900,3.290135986328125,0.174713134765625,0.43548583984375,1.858367919921875
1695712349386688000,3.29968798828125,0.150909423828125,0.4754638671875,2.00347900390625
1695712349396240000,3.309239990234375,0.140838623046875,0.5548095703125,2.00897216796875
1695712349405792000,3.3187919921875,0.142974853515625,0.690765380859375,1.805267333984375
1695712349415343900,3.32834375,0.152740478515625,0.8660888671875,1.381988525390625
1695712349424865500,3.337865478515625,0.156707763671875,1.033477783203125,0.801544189453125
1695712349434417400,3.34741748046875,0.213165283203125,1.2091064453125,0.095977783203125
1695712349443969500,3.356969482421875,0.3839111328125,1.406707763671875,-0.678253173828125
1695712349453521400,3.366521484375,0.587310791015625,1.443634033203125,-1.376800537109375
1695712349463043000,3.37604296875,0.7159423828125,0.985565185546875,-1.6619873046875
1695712349472595000,3.385594970703125,0.73333740234375,0.242767333984375,-1.478118896484375
1695712349482147000,3.39514697265625,0.648956298828125,-0.22003173828125,-1.17645263671875
1695712349491699000,3.404698974609375,0.467529296875,-0.2117919921875,-0.960235595703125
1695712349501220400,3.414220458984375,0.219573974609375,-0.042572021484375,-0.8184814453125
1695712349510772500,3.4237724609375,0.0567626953125,0.273895263671875,-0.650177001953125
1695712349520324400,3.433324462890625,-0.081634521484375,0.957794189453125,-0.347137451171875
1695712349529876500,3.44287646484375,-0.410308837890625,1.63177490234375,0.068817138671875
1695712349539398000,3.45239794921875,-0.786590576171875,1.56829833984375,0.721893310546875
1695712349548980500,3.46198046875,-0.839996337890625,0.20751953125,1.217041015625
1695712349558532400,3.471532470703125,-0.25177001953125,-1.590576171875,0.720367431640625
1695712349568084500,3.48108447265625,0.3851318359375,-1.27288818359375,-0.233306884765625
1695712349577606000,3.49060595703125,0.6683349609375,0.1898193359375,-0.591278076171875
1695712349587158000,3.500157958984375,0.7525634765625,-0.1666259765625,0.174560546875
1695712349596710000,3.5097099609375,0.535736083984375,-1.165008544921875,1.2542724609375
1695712349606262000,3.519261962890625,0.04547119140625,-0.98846435546875,1.853485107421875
1695712349615783400,3.528783447265625,-0.512542724609375,-0.065155029296875,1.462249755859375
1695712349625335600,3.53833544921875,-0.930633544921875,0.249176025390625,0.9698486328125
1695712349634887400,3.547887451171875,-0.98541259765625,-0.096588134765625,1.128692626953125
1695712349644439600,3.557439453125,-0.7147216796875,-0.57159423828125,1.5924072265625
1695712349653961000,3.5669609375,-0.32958984375,-1.069488525390625,1.9854736328125
1695712349663512800,3.576512939453125,-0.084075927734375,-1.394500732421875,2.05841064453125
1695712349673065000,3.58606494140625,0.120391845703125,-1.24664306640625,1.807708740234375
1695712349682616800,3.595616943359375,0.35552978515625,-0.8770751953125,1.385040283203125
1695712349692138500,3.605138427734375,0.43487548828125,-0.759429931640625,1.178131103515625
1695712349701690400,3.6146904296875,0.36285400390625,-0.89447021484375,1.2249755859375
1695712349711242500,3.624242431640625,0.214996337890625,-1.146697998046875,1.393585205078125
1695712349720794400,3.63379443359375,0.01190185546875,-1.37603759765625,1.5814208984375
1695712349730315800,3.643315673828125,-0.204620361328125,-1.508331298828125,1.7022705078125
1695712349739868000,3.652867919921875,-0.38055419921875,-1.497039794921875,1.69677734375
1695712349749420000,3.662419921875,-0.469512939453125,-1.32232666015625,1.6131591796875
1695712349758972000,3.671971923828125,-0.456695556640625,-1.0235595703125,1.510162353515625
1695712349768493300,3.681493408203125,-0.37933349609375,-0.760040283203125,1.400299072265625
1695712349778045400,3.69104541015625,-0.3173828125,-0.701141357421875,1.2841796875
1695712349787597300,3.700597412109375,-0.29327392578125,-0.798492431640625,1.2152099609375
1695712349797149400,3.7101494140625,-0.3033447265625,-0.9002685546875,1.229248046875
1695712349806670800,3.7196708984375,-0.32440185546875,-0.90576171875,1.2994384765625
1695712349816223000,3.729222900390625,-0.3448486328125,-0.88165283203125,1.34857177734375
1695712349825774800,3.73877490234375,-0.35919189453125,-0.8746337890625,1.33575439453125
1695712349835357400,3.748357421875,-0.3778076171875,-0.800323486328125,1.28936767578125
1695712349844909300,3.757909423828125,-0.405731201171875,-0.674896240234375,1.22650146484375
1695712349854431000,3.767430908203125,-0.441131591796875,-0.56488037109375,1.186676025390625
1695712349863982800,3.77698291015625,-0.462188720703125,-0.49407958984375,1.19842529296875
1695712349873535000,3.786534912109375,-0.473785400390625,-0.475921630859375,1.22589111328125
1695712349883086800,3.7960869140625,-0.489349365234375,-0.49774169921875,1.2286376953125
1695712349892608500,3.8056083984375,-0.511016845703125,-0.5255126953125,1.21795654296875
1695712349902160400,3.815160400390625,-0.536651611328125,-0.52490234375,1.2042236328125
1695712349911712500,3.82471240234375,-0.577239990234375,-0.509033203125,1.183319091796875
1695712349921264400,3.834264404296875,-0.62591552734375,-0.5059814453125,1.154327392578125
1695712349930785800,3.843785888671875,-0.66436767578125,-0.546875,1.121063232421875
1695712349940338000,3.853337890625,-0.69091796875,-0.62835693359375,1.078948974609375
1695712349949889800,3.862889892578125,-0.69671630859375,-0.710601806640625,1.01593017578125
1695712349959442000,3.87244189453125,-0.684814453125,-0.821380615234375,0.911865234375
1695712349968963300,3.88196337890625,-0.6683349609375,-0.93658447265625,0.778656005859375
1695712349978515500,3.891515380859375,-0.6378173828125,-1.00830078125,0.6475830078125
1695712349988067300,3.9010673828125,-0.584716796875,-1.00982666015625,0.545654296875
1695712349997619500,3.910619384765625,-0.501861572265625,-0.93475341796875,0.469207763671875
1695712350007140900,3.920140869140625,-0.425262451171875,-0.805206298828125,0.386199951171875
1695712350016692700,3.929692626953125,-0.40008544921875,-0.6292724609375,0.2801513671875
1695712350026244900,3.939244873046875,-0.439605712890625,-0.410919189453125,0.16021728515625
1695712350035796700,3.948796630859375,-0.503997802734375,-0.15045166015625,0.049285888671875
1695712350045318400,3.958318359375,-0.540618896484375,0.0482177734375,-0.027313232421875
1695712350054870300,3.967870361328125,-0.527496337890625,0.0701904296875,-0.10345458984375
1695712350064422400,3.97742236328125,-0.443572998046875,-0.008392333984375,-0.236968994140625
1695712350073974300,3.986974365234375,-0.2984619140625,-0.018768310546875,-0.43853759765625
1695712350083496000,3.996495849609375,-0.120697021484375,0.1171875,-0.646514892578125
1695712350093047800,4.0060478515625,0.0640869140625,0.380706787109375,-0.82427978515625
1695712350102600000,4.015599853515625,0.249176025390625,0.667266845703125,-1.053314208984375
1695712350112151800,4.02515185546875,0.45684814453125,0.859375,-1.362762451171875
1695712350121704000,4.034703857421875,0.599517822265625,0.91217041015625,-1.696319580078125
1695712350131255800,4.044255859375,0.609893798828125,0.8380126953125,-2.01019287109375
1695712350140808000,4.053807861328125,0.577545166015625,0.627899169921875,-2.34588623046875
1695712350150359800,4.06335986328125,0.568695068359375,0.352935791015625,-2.70599365234375
1695712350159881200,4.072881103515625,0.546722412109375,0.12969970703125,-3.004150390625
1695712350169433300,4.082433349609375,0.515899658203125,-0.020599365234375,-3.153533935546875
1695712350178985200,4.091985107421875,0.4638671875,-0.014190673828125,-3.137969970703125
1695712350188537300,4.101537353515625,0.39703369140625,0.229034423828125,-2.972412109375
1695712350198058800,4.111058837890625,0.3302001953125,0.52001953125,-2.73223876953125
1695712350207611000,4.12061083984375,0.245513916015625,0.594329833984375,-2.55950927734375
1695712350217162800,4.130162841796875,0.137176513671875,0.360260009765625,-2.543792724609375
1695712350226715000,4.13971484375,0.02227783203125,-0.035858154296875,-2.58453369140625
1695712350236236300,4.149236328125,-0.068206787109375,-0.356597900390625,-2.59674072265625
1695712350245788400,4.158788330078125,-0.115814208984375,-0.437774658203125,-2.540130615234375
1695712350255340300,4.16834033203125,-0.103912353515625,-0.12115478515625,-2.364501953125
1695712350264892400,4.177892333984375,0.0457763671875,0.52001953125,-2.158660888671875
1695712350274413800,4.187413818359375,0.276641845703125,1.000518798828125,-2.165374755859375
1695712350283965700,4.196965576171875,0.38116455078125,1.324920654296875,-2.29949951171875
1695712350293517800,4.206517822265625,0.4022216796875,1.429290771484375,-2.393951416015625
1695712350303069700,4.216069580078125,0.4107666015625,1.364593505859375,-2.3382568359375
1695712350312591400,4.22559130859375,0.447998046875,1.314849853515625,-2.165679931640625
1695712350322143200,4.235143310546875,0.513458251953125,1.2518310546875,-1.95648193359375
1695712350331695400,4.2446953125,0.583953857421875,1.19964599609375,-1.747894287109375
1695712350341247200,4.254247314453125,0.649871826171875,1.2420654296875,-1.54052734375
1695712350350769000,4.263768798828125,0.72601318359375,1.333770751953125,-1.329498291015625
1695712350360320800,4.27332080078125,0.79376220703125,1.393585205078125,-1.13922119140625
1695712350369873000,4.282872802734375,0.83465576171875,1.435394287109375,-0.985870361328125
1695712350379424800,4.2924248046875,0.8319091796875,1.445770263671875,-0.8404541015625
1695712350388946200,4.3019462890625,0.79345703125,1.441497802734375,-0.685882568359375
1695712350398498300,4.311498291015625,0.73516845703125,1.403961181640625,-0.53314208984375
1695712350408081000,4.321080810546875,0.6683349609375,1.2847900390625,-0.370025634765625
1695712350417632800,4.3306328125,0.598297119140625,1.098175048828125,-0.17669677734375
1695712350427154200,4.340154296875,0.524139404296875,0.875244140625,0.059967041015625
1695712350436706300,4.349706298828125,0.45013427734375,0.640106201171875,0.341339111328125
1695712350446258200,4.359258056640625,0.39215087890625,0.4412841796875,0.663604736328125
1695712350455810300,4.368810302734375,0.350341796875,0.317535400390625,1.01348876953125
1695712350465331700,4.378331787109375,0.31890869140625,0.276641845703125,1.373291015625
1695712350474883800,4.3878837890625,0.286102294921875,0.303497314453125,1.7205810546875
1695712350484435700,4.397435791015625,0.268707275390625,0.380401611328125,2.03521728515625
1695712350493987800,4.40698779296875,0.270843505859375,0.49468994140625,2.281494140625
1695712350503509200,4.41650927734375,0.284576416015625,0.640106201171875,2.40509033203125
1695712350513061400,4.426061279296875,0.30517578125,0.82000732421875,2.33123779296875
1695712350522613200,4.43561328125,0.33050537109375,1.018218994140625,2.01385498046875
1695712350532165400,4.445165283203125,0.33721923828125,1.22161865234375,1.452484130859375
1695712350541686800,4.454686767578125,0.32012939453125,1.385345458984375,0.61370849609375
1695712350551238700,4.46423876953125,0.34454345703125,1.51458740234375,-0.53924560546875
1695712350560790800,4.473790771484375,0.41717529296875,1.334991455078125,-1.6119384765625
1695712350570342700,4.4833427734375,0.547943115234375,0.241851806640625,-1.816864013671875
1695712350579864300,4.4928642578125,0.689697265625,-1.049346923828125,-1.388702392578125
1695712350589416200,4.502416259765625,0.81451416015625,-1.34307861328125,-1.118316650390625
1695712350598968300,4.51196826171875,0.70709228515625,-0.795745849609375,-1.021881103515625
1695712350608520200,4.521520263671875,0.42999267578125,-0.037689208984375,-0.948333740234375
1695712350618041900,4.531041748046875,0.215301513671875,0.663299560546875,-0.759735107421875
1695712350627593700,4.54059375,-0.103302001953125,1.383514404296875,-0.310211181640625
1695712350637145900,4.550145751953125,-0.6024169921875,1.743927001953125,0.385589599609375
1695712350646697700,4.55969775390625,-0.99151611328125,0.91827392578125,1.190948486328125
1695712350656219100,4.56921923828125,-0.908660888671875,-1.152801513671875,1.464996337890625
1695712350665771300,4.578771240234375,-0.296630859375,-2.278289794921875,0.58624267578125
1695712350675323100,4.5883232421875,0.05645751953125,-0.369415283203125,-0.602569580078125
1695712350684875300,4.597875244140625,0.3753662109375,0.343170166015625,-0.49346923828125
1695712350694457900,4.607457763671875,0.561981201171875,-1.026611328125,0.767974853515625
1695712350703979300,4.616979248046875,0.440673828125,-1.137542724609375,1.7095947265625
1695712350713531100,4.62653125,0.135955810546875,-0.29754638671875,1.751556396484375
1695712350723083300,4.636083251953125,-0.24078369140625,0.18829345703125,1.3189697265625
1695712350732635100,4.64563525390625,-0.531463623046875,-0.027008056640625,1.3055419921875
1695712350742156800,4.65515673828125,-0.544281005859375,-0.51483154296875,1.751556396484375
1695712350751708700,4.664708740234375,-0.3955078125,-1.040191650390625,2.185821533203125
1695712350761260800,4.6742607421875,-0.22735595703125,-1.412200927734375,2.30224609375
1695712350770812700,4.683812744140625,-0.057220458984375,-1.437835693359375,2.0574951171875
1695712350780334300,4.693334228515625,0.09918212890625,-1.3092041015625,1.62628173828125
1695712350789886200,4.70288623046875,0.128021240234375,-1.152801513671875,1.31866455078125
1695712350799438300,4.712438232421875,0.08880615234375,-1.02386474609375,1.273193359375
1695712350808990200,4.721990234375,0.0457763671875,-1.049041748046875,1.447601318359375
1695712350818511600,4.73151171875,-0.006103515625,-1.20849609375,1.69952392578125
1695712350828063700,4.741063720703125,-0.082550048828125,-1.3714599609375,1.861419677734375
1695712350837615600,4.75061572265625,-0.162811279296875,-1.446990966796875,1.869354248046875
1695712350847167700,4.760167724609375,-0.213165283203125,-1.3299560546875,1.758575439453125
1695712350856689200,4.769689208984375,-0.211029052734375,-1.0198974609375,1.61865234375
1695712350866241300,4.7792412109375,-0.157318115234375,-0.676727294921875,1.507720947265625
1695712350875793200,4.788793212890625,-0.099029541015625,-0.49102783203125,1.447906494140625
1695712350885345300,4.79834521484375,-0.080413818359375,-0.51422119140625,1.427764892578125
1695712350894866700,4.80786669921875,-0.126800537109375,-0.732574462890625,1.3702392578125
1695712350904418600,4.81741845703125,-0.212554931640625,-0.92864990234375,1.2591552734375
1695712350913970700,4.826970703125,-0.3045654296875,-0.98419189453125,1.191253662109375
1695712350923522800,4.836522705078125,-0.37811279296875,-0.938720703125,1.183624267578125
1695712350933044200,4.846044189453125,-0.405426025390625,-0.838775634765625,1.181488037109375
1695712350942596000,4.85559619140625,-0.38970947265625,-0.720672607421875,1.175079345703125
1695712350952148200,4.865148193359375,-0.364990234375,-0.640869140625,1.167449951171875
1695712350961700000,4.8747001953125,-0.36346435546875,-0.63140869140625,1.154022216796875
1695712350971221800,4.8842216796875,-0.374755859375,-0.681304931640625,1.146087646484375
1695712350980804000,4.89380419921875,-0.39886474609375,-0.730743408203125,1.148223876953125
1695712350990356200,4.903356201171875,-0.438690185546875,-0.675506591796875,1.171722412109375
1695712350999908000,4.912908203125,-0.475616455078125,-0.56884765625,1.174468994140625
1695712351009429800,4.9224296875,-0.520477294921875,-0.487060546875,1.152191162109375
1695712351018981600,4.931981689453125,-0.559539794921875,-0.427703857421875,1.126251220703125
1695712351028533800,4.94153369140625,-0.587158203125,-0.404205322265625,1.084136962890625
1695712351038085600,4.951085693359375,-0.60455322265625,-0.422210693359375,1.01287841796875
1695712351047607000,4.96060693359375,-0.6201171875,-0.475616455078125,0.916748046875
1695712351057159200,4.9701591796875,-0.64239501953125,-0.56427001953125,0.805206298828125
1695712351066711000,4.9797109375,-0.65826416015625,-0.694427490234375,0.682525634765625
1695712351076263200,4.98926318359375,-0.63812255859375,-0.786590576171875,0.55633544921875
1695712351085784600,4.99878466796875,-0.576019287109375,-0.755462646484375,0.444488525390625
1695712351095336700,5.008336669921875,-0.500640869140625,-0.6439208984375,0.352630615234375
1695712351104888600,5.017888671875,-0.455780029296875,-0.540771484375,0.267333984375
1695712351114440700,5.027440673828125,-0.462493896484375,-0.49835205078125,0.16937255859375
1695712351123962000,5.036962158203125,-0.516510009765625,-0.487213134765625,0.066375732421875
1695712351133514200,5.04651416015625,-0.59417724609375,-0.471343994140625,-0.028533935546875
1695712351143066000,5.056066162109375,-0.6463623046875,-0.459136962890625,-0.10711669921875
1695712351152618200,5.0656181640625,-0.64239501953125,-0.494384765625,-0.189208984375
1695712351162139600,5.0751396484375,-0.582733154296875,-0.5670166015625,-0.314788818359375
1695712351171691500,5.08469140625,-0.442352294921875,-0.5902099609375,-0.49560546875
1695712351181243600,5.09424365234375,-0.201873779296875,-0.463409423828125,-0.716705322265625
1695712351190795500,5.10379541015625,0.029296875,-0.13824462890625,-0.947113037109375
1695712351200317200,5.113317138671875,0.153656005859375,0.311126708984375,-1.19842529296875
1695712351209869000,5.122869140625,0.276641845703125,0.734710693359375,-1.472015380859375
1695712351219421200,5.132421142578125,0.4461669921875,1.031341552734375,-1.741180419921875
1695712351228973000,5.14197314453125,0.560150146484375,1.1468505859375,-1.99371337890625
1695712351238494700,5.15149462890625,0.575103759765625,1.049652099609375,-2.2552490234375
1695712351248046600,5.161046630859375,0.530548095703125,0.7647705078125,-2.584228515625
1695712351257598700,5.1705986328125,0.43426513671875,0.40771484375,-2.92449951171875
1695712351267181000,5.18018115234375,0.258026123046875,0.0555419921875,-3.157806396484375
1695712351276702700,5.18970263671875,0.0921630859375,-0.2447509765625,-3.221588134765625
1695712351286254600,5.199254638671875,0.02960205078125,-0.415496826171875,-3.143157958984375
1695712351295806700,5.208806640625,0.089111328125,-0.464935302734375,-2.987060546875
1695712351305358600,5.218358642578125,0.231475830078125,-0.5303955078125,-2.788543701171875
1695712351314880000,5.2278798828125,0.35736083984375,-0.812835693359375,-2.60589599609375
1695712351324432100,5.23743212890625,0.34515380859375,-1.2158203125,-2.459564208984375
1695712351333984000,5.24698388671875,0.269927978515625,-1.412811279296875,-2.3333740234375
1695712351343536000,5.2565361328125,0.167694091796875,-1.21002197265625,-2.244873046875
1695712351353057500,5.2660576171875,0.10650634765625,-0.54443359375,-2.157440185546875
1695712351362609700,5.275609619140625,0.200653076171875,0.45074462890625,-2.021331787109375
1695712351372161500,5.28516162109375,0.36712646484375,1.302642822265625,-2.033233642578125
1695712351381713700,5.294713623046875,0.41290283203125,1.86553955078125,-2.124176025390625
1695712351391265500,5.304265625,0.565032958984375,0.8953857421875,-1.701202392578125
1695712351400787200,5.313787109375,0.67535400390625,-0.140380859375,-1.50177001953125
1695712351410339000,5.323339111328125,0.390625,0.90057373046875,-1.85302734375
1695712351419891200,5.33289111328125,0.250701904296875,2.034759521484375,-2.171173095703125
1695712351429443000,5.342443115234375,0.3082275390625,2.392425537109375,-2.2576904296875
1695712351438964500,5.351964599609375,0.40008544921875,2.1917724609375,-2.128753662109375
1695712351448516600,5.3615166015625,0.507049560546875,1.85546875,-1.844482421875
1695712351458068500,5.371068359375,0.612945556640625,1.53076171875,-1.481170654296875
1695712351467620600,5.38062060546875,0.68756103515625,1.326751708984375,-1.14776611328125
1695712351477142000,5.39014208984375,0.70098876953125,1.28875732421875,-0.91796875
1695712351486694100,5.399694091796875,0.6683349609375,1.354217529296875,-0.775146484375
1695712351496246000,5.40924609375,0.613250732421875,1.418304443359375,-0.659942626953125
1695712351505798100,5.418798095703125,0.555877685546875,1.424102783203125,-0.5291748046875
1695712351515319600,5.428319580078125,0.491790771484375,1.330413818359375,-0.360870361328125
1695712351524871700,5.43787158203125,0.42205810546875,1.14715576171875,-0.14129638671875
1695712351534423600,5.447423583984375,0.35736083984375,0.90606689453125,0.13580322265625
1695712351543975700,5.4569755859375,0.30853271484375,0.662078857421875,0.447235107421875
1695712351553527600,5.466527587890625,0.281219482421875,0.47088623046875,0.769805908203125
1695712351563079700,5.47607958984375,0.267791748046875,0.363311767578125,1.086883544921875
1695712351572631600,5.485631591796875,0.255584716796875,0.328216552734375,1.383819580078125
1695712351582183700,5.49518359375,0.244598388671875,0.349884033203125,1.65435791015625
1695712351591705000,5.504705078125,0.252227783203125,0.41748046875,1.892852783203125
1695712351601257000,5.514257080078125,0.282745361328125,0.52032470703125,2.0703125
1695712351610809000,5.52380908203125,0.31524658203125,0.659332275390625,2.126617431640625
1695712351620361000,5.53336083984375,0.3497314453125,0.8538818359375,1.97540283203125
1695712351629882600,5.542882568359375,0.38726806640625,1.046905517578125,1.6107177734375
1695712351639434500,5.5524345703125,0.42327880859375,1.21429443359375,1.076202392578125
1695712351648986600,5.561986572265625,0.4449462890625,1.340179443359375,0.341033935546875
1695712351658538500,5.57153857421875,0.4620361328125,1.351470947265625,-0.54931640625
1695712351668060200,5.58106005859375,0.500030517578125,1.050262451171875,-1.239013671875
1695712351677612000,5.590612060546875,0.600738525390625,0.12237548828125,-1.307525634765625
1695712351687164200,5.6001640625,0.6683349609375,-0.95245361328125,-0.996551513671875
1695712351696716000,5.609716064453125,0.67596435546875,-1.3165283203125,-0.809326171875
1695712351706237400,5.619237548828125,0.514068603515625,-0.9478759765625,-0.743560791015625
1695712351715789600,5.62878955078125,0.218963623046875,-0.3125,-0.672454833984375
1695712351725341400,5.638341552734375,-0.01678466796875,0.324859619140625,-0.54534912109375
1695712351734893600,5.6478935546875,-0.213165283203125,1.030731201171875,-0.252227783203125
1695712351744415000,5.6574150390625,-0.524139404296875,1.51397705078125,0.18890380859375
1695712351753967000,5.666967041015625,-0.806732177734375,1.335601806640625,0.85357666015625
1695712351763519000,5.67651904296875,-0.842132568359375,-0.074005126953125,1.487274169921875
1695712351773071000,5.686071044921875,-0.401153564453125,-2.0697021484375,1.145782470703125
1695712351782592500,5.695592529296875,0.05889892578125,-1.858062744140625,-0.06256103515625
1695712351792144600,5.70514453125,0.285797119140625,0.0311279296875,-0.764007568359375
1695712351801696500,5.714696533203125,0.4705810546875,-0.411224365234375,0.18035888671875
1695712351811248600,5.72424853515625,0.47210693359375,-1.3330078125,1.446380615234375
1695712351820770000,5.73377001953125,0.229949951171875,-0.965576171875,1.889801025390625
1695712351830322000,5.743322021484375,-0.132293701171875,-0.186767578125,1.478424072265625
1695712351839904500,5.752904541015625,-0.486602783203125,0.15625,1.016693115234375
1695712351849456600,5.76245654296875,-0.59234619140625,-0.110931396484375,1.25579833984375
1695712351858978000,5.77197802734375,-0.478363037109375,-0.5987548828125,1.828155517578125
1695712351868530000,5.781530029296875,-0.30029296875,-1.157379150390625,2.201385498046875
1695712351878082000,5.79108203125,-0.082855224609375,-1.5643310546875,2.159271240234375
1695712351887634000,5.800634033203125,0.154876708984375,-1.489410400390625,1.781463623046875
1695712351897155600,5.810155517578125,0.276641845703125,-1.196746826171875,1.406707763671875
1695712351906707500,5.81970751953125,0.242462158203125,-1.048126220703125,1.26983642578125
1695712351916259600,5.829259521484375,0.160980224609375,-1.02294921875,1.3690185546875
1695712351925811500,5.8388115234375,0.096435546875,-1.078033447265625,1.58905029296875
1695712351935333000,5.8483330078125,0.01983642578125,-1.144561767578125,1.769256591796875
1695712351944885000,5.857885009765625,-0.094146728515625,-1.132354736328125,1.842498779296875
1695712351954437000,5.86743701171875,-0.204010009765625,-1.084442138671875,1.790618896484375
1695712351963989000,5.876989013671875,-0.2490234375,-0.94390869140625,1.6656494140625
1695712351973510400,5.886510498046875,-0.22186279296875,-0.697479248046875,1.549224853515625
1695712351983062500,5.8960625,-0.165557861328125,-0.479278564453125,1.481170654296875
1695712351992614400,5.905614501953125,-0.114898681640625,-0.428924560546875,1.443939208984375
1695712352002166500,5.91516650390625,-0.099029541015625,-0.51361083984375,1.428070068359375
1695712352011688000,5.92468798828125,-0.123748779296875,-0.64300537109375,1.416473388671875
1695712352021240000,5.934239990234375,-0.175323486328125,-0.721893310546875,1.390228271484375
1695712352030792000,5.9437919921875,-0.242919921875,-0.720977783203125,1.33636474609375
1695712352040344000,5.953343994140625,-0.3033447265625,-0.64422607421875,1.29180908203125
1695712352049865500,5.962865478515625,-0.33172607421875,-0.51971435546875,1.27288818359375
1695712352059417300,5.972417236328125,-0.33447265625,-0.413055419921875,1.2689208984375
1695712352068969500,5.981969482421875,-0.33966064453125,-0.341033935546875,1.265869140625
1695712352078521300,5.991521240234375,-0.3558349609375,-0.348968505859375,1.25762939453125
1695712352088043000,6.00104296875,-0.396728515625,-0.428009033203125,1.23382568359375
1695712352097595000,6.010594970703125,-0.458831787109375,-0.473480224609375,1.2188720703125
1695712352107147000,6.02014697265625,-0.511322021484375,-0.437774658203125,1.22222900390625
1695712352116699000,6.029698974609375,-0.551300048828125,-0.356597900390625,1.23321533203125
1695712352126251000,6.0392509765625,-0.58441162109375,-0.289306640625,1.2274169921875
1695712352135803000,6.048802978515625,-0.6036376953125,-0.23712158203125,1.20361328125
1695712352145355000,6.05835498046875,-0.5975341796875,-0.22613525390625,1.162261962890625
1695712352154907000,6.067906982421875,-0.575408935546875,-0.28045654296875,1.095428466796875
1695712352164428500,6.077428466796875,-0.547332763671875,-0.420074462890625,0.98052978515625
1695712352173980400,6.08698046875,-0.511322021484375,-0.592041015625,0.820159912109375
1695712352183532500,6.096532470703125,-0.467681884765625,-0.6640625,0.657501220703125
1695712352193084400,6.10608447265625,-0.423126220703125,-0.609130859375,0.52581787109375
1695712352202636500,6.115636474609375,-0.394287109375,-0.50384521484375,0.429229736328125
1695712352212158000,6.125157958984375,-0.407257080078125,-0.384979248046875,0.337677001953125
1695712352221709800,6.134709716796875,-0.476837158203125,-0.2923583984375,0.235595703125
1695712352231262000,6.144261962890625,-0.572662353515625,-0.25909423828125,0.133056640625
1695712352240813800,6.153813720703125,-0.64056396484375,-0.2581787109375,0.034332275390625
1695712352250335500,6.16333544921875,-0.625,-0.286865234375,-0.05126953125
1695712352259887400,6.172887451171875,-0.522613525390625,-0.369110107421875,-0.125732421875
1695712352269439500,6.182439453125,-0.39215087890625,-0.48797607421875,-0.2191162109375
1695712352278991400,6.191991455078125,-0.25634765625,-0.54534912109375,-0.371856689453125
1695712352288513000,6.201512939453125,-0.096282958984375,-0.420684814453125,-0.588836669921875
1695712352298065000,6.21106494140625,0.04180908203125,-0.069732666015625,-0.8251953125
1695712352307617000,6.220616943359375,0.10894775390625,0.380706787109375,-1.082611083984375
1695712352317169000,6.2301689453125,0.197601318359375,0.7623291015625,-1.370391845703125
1695712352326690300,6.239690185546875,0.34759521484375,0.999908447265625,-1.666412353515625
1695712352336242400,6.249242431640625,0.45989990234375,1.060943603515625,-1.962890625
1695712352345794300,6.258794189453125,0.501251220703125,0.9320068359375,-2.27783203125
1695712352355346400,6.268346435546875,0.484161376953125,0.638885498046875,-2.6727294921875
1695712352364867800,6.277867919921875,0.4052734375,0.229034423828125,-3.06732177734375
1695712352374420000,6.287419921875,0.276947021484375,-0.15869140625,-3.269500732421875
1695712352383971800,6.296971923828125,0.142364501953125,-0.363922119140625,-3.238677978515625
1695712352393524000,6.30652392578125,0.0592041015625,-0.378875732421875,-3.0718994140625
1695712352403045400,6.31604541015625,0.07568359375,-0.319366455078125,-2.880706787109375
1695712352412628000,6.3256279296875,0.171356201171875,-0.397491455078125,-2.743072509765625
1695712352422179800,6.335179931640625,0.239715576171875,-0.822601318359375,-2.68218994140625
1695712352431732000,6.34473193359375,0.191802978515625,-1.435394287109375,-2.59979248046875
1695712352441253400,6.35425341796875,0.11566162109375,-1.823883056640625,-2.440032958984375
1695712352450805500,6.363805419921875,0.0958251953125,-1.800384521484375,-2.28118896484375
1695712352460357400,6.373357421875,0.04302978515625,-1.3665771484375,-2.182464599609375
1695712352469909500,6.382909423828125,0.05279541015625,-0.5706787109375,-2.103729248046875
1695712352479431000,6.392430908203125,0.233612060546875,0.42816162109375,-2.021942138671875
1695712352488982800,6.401982666015625,0.44036865234375,1.009979248046875,-1.89727783203125
1695712352498535000,6.411534912109375,0.411376953125,1.65435791015625,-2.057952880859375
1695712352508086800,6.421086669921875,0.32928466796875,1.88507080078125,-2.29766845703125
1695712352517608400,6.4306083984375,0.291290283203125,1.670684814453125,-2.31414794921875
1695712352527160300,6.440160400390625,0.32012939453125,1.382904052734375,-2.158050537109375
1695712352536712400,6.44971240234375,0.36376953125,1.17523193359375,-1.88018798828125
1695712352546264300,6.459264404296875,0.40679931640625,1.084442138671875,-1.55670166015625
1695712352555786000,6.468785888671875,0.4522705078125,1.050872802734375,-1.27685546875
1695712352565337900,6.478337890625,0.504302978515625,1.035003662109375,-1.081390380859375
1695712352574890000,6.487889892578125,0.560455322265625,1.082916259765625,-0.943756103515625
1695712352584441900,6.49744189453125,0.606842041015625,1.1785888671875,-0.8270263671875
1695712352593963300,6.50696337890625,0.618133544921875,1.25823974609375,-0.702667236328125
1695712352603515400,6.516515380859375,0.599822998046875,1.29486083984375,-0.56365966796875
1695712352613067300,6.5260673828125,0.562286376953125,1.2744140625,-0.40679931640625
1695712352622619400,6.535619384765625,0.515289306640625,1.19110107421875,-0.236968994140625
1695712352632140800,6.545140869140625,0.46112060546875,1.034088134765625,-0.038604736328125
1695712352641693000,6.55469287109375,0.40496826171875,0.82672119140625,0.2081298828125
1695712352651244800,6.564244873046875,0.34881591796875,0.613555908203125,0.49530029296875
1695712352660797000,6.573796875,0.30517578125,0.43853759765625,0.804290771484375
1695712352670318300,6.583318359375,0.289154052734375,0.337066650390625,1.126251220703125
1695712352679870500,6.592870361328125,0.289459228515625,0.306243896484375,1.437835693359375
1695712352689422300,6.60242236328125,0.299224853515625,0.342254638671875,1.71783447265625
1695712352699005000,6.6120048828125,0.325927734375,0.45867919921875,1.9342041015625
1695712352708526300,6.6215263671875,0.36285400390625,0.625762939453125,2.0367431640625
1695712352718078500,6.631078369140625,0.41107177734375,0.83343505859375,1.94305419921875
1695712352727630300,6.64063037109375,0.45867919921875,1.052398681640625,1.59454345703125
1695712352737182500,6.650182373046875,0.491790771484375,1.17645263671875,1.035003662109375
1695712352746704000,6.659703857421875,0.493011474609375,1.20758056640625,0.326080322265625
1695712352756255700,6.669255859375,0.46661376953125,1.226806640625,-0.52276611328125
1695712352765807900,6.678807861328125,0.4736328125,1.105194091796875,-1.320343017578125
1695712352775359700,6.68835986328125,0.585784912109375,0.50994873046875,-1.590576171875
1695712352784881400,6.69788134765625,0.71441650390625,-0.428009033203125,-1.2957763671875
1695712352794433300,6.707433349609375,0.73272705078125,-1.0076904296875,-0.8929443359375
1695712352803985400,6.7169853515625,0.587615966796875,-0.790863037109375,-0.650177001953125
1695712352813537300,6.726537353515625,0.3076171875,-0.14801025390625,-0.5572509765625
1695712352823089400,6.73608935546875,0.09368896484375,0.47698974609375,-0.511474609375
1695712352832610800,6.74561083984375,-0.057220458984375,1.082916259765625,-0.334625244140625
1695712352842163000,6.755162841796875,-0.3240966796875,1.5460205078125,-0.010223388671875
1695712352851714800,6.76471484375,-0.5999755859375,1.376495361328125,0.57647705078125
1695712352861267000,6.774266845703125,-0.6732177734375,0.0775146484375,1.21124267578125
1695712352870788400,6.783788330078125,-0.39031982421875,-1.857452392578125,1.115264892578125
1695712352880340200,6.79334033203125,-0.042266845703125,-2.05291748046875,0.1422119140625
1695712352889892400,6.802892333984375,0.160064697265625,-0.2850341796875,-0.674896240234375
1695712352899444200,6.8124443359375,0.276947021484375,-0.050201416015625,-0.1910400390625
1695712352908966000,6.8219658203125,0.238189697265625,-0.840301513671875,0.99853515625
1695712352918517800,6.831517822265625,0.0531005859375,-0.793914794921875,1.6839599609375
1695712352928070000,6.84106982421875,-0.22491455078125,-0.2923583984375,1.550445556640625
1695712352937621800,6.850621826171875,-0.447540283203125,-0.337066650390625,1.32537841796875
1695712352947143200,6.86014306640625,-0.505218505859375,-0.790252685546875,1.59912109375
1695712352956702500,6.869702392578125,-0.355224609375,-1.071014404296875,2.069091796875
1695712352966254300,6.87925439453125,-0.121002197265625,-1.3177490234375,2.34375
1695712352975806500,6.888806396484375,0.0994873046875,-1.425628662109375,2.213592529296875
1695712352985358300,6.8983583984375,0.3076171875,-1.183624267578125,1.763763427734375
1695712352994910500,6.907910400390625,0.40496826171875,-0.777740478515625,1.381988525390625
1695712353004462300,6.91746240234375,0.34515380859375,-0.51666259765625,1.26495361328125
1695712353014014500,6.927014404296875,0.211029052734375,-0.427093505859375,1.365966796875
1695712353023535900,6.936535888671875,0.0787353515625,-0.50323486328125,1.60675048828125
1695712353033088000,6.946087890625,-0.041351318359375,-0.699005126953125,1.848297119140625
1695712353042640000,6.955639892578125,-0.137786865234375,-0.93597412109375,1.97174072265625
1695712353052192000,6.96519189453125,-0.214691162109375,-1.099395751953125,1.96258544921875
1695712353061713400,6.97471337890625,-0.25177001953125,-1.055450439453125,1.876373291015625
1695712353071265300,6.984265380859375,-0.22796630859375,-0.793609619140625,1.766815185546875
1695712353080817400,6.9938173828125,-0.151519775390625,-0.422821044921875,1.66015625
1695712353090369300,7.003369384765625,-0.068511962890625,-0.18524169921875,1.57318115234375
1695712353099891000,7.012890869140625,-0.01495361328125,-0.1373291015625,1.537017822265625
1695712353109442800,7.02244287109375,-0.03204345703125,-0.24017333984375,1.520233154296875
1695712353118995000,7.031994873046875,-0.103912353515625,-0.439300537109375,1.474761962890625
1695712353128546800,7.041546875,-0.180511474609375,-0.595703125,1.425018310546875
1695712353138068500,7.051068359375,-0.23101806640625,-0.63385009765625,1.395416259765625
1695712353147620400,7.060620361328125,-0.26763916015625,-0.59722900390625,1.36383056640625
1695712353157172500,7.07017236328125,-0.291748046875,-0.52276611328125,1.31622314453125
1695712353166724400,7.079724365234375,-0.2984619140625,-0.442047119140625,1.2994384765625
1695712353176245800,7.089245849609375,-0.30517578125,-0.379486083984375,1.3037109375
1695712353185798000,7.0987978515625,-0.32684326171875,-0.397186279296875,1.2957763671875
1695712353195349800,7.108349853515625,-0.35003662109375,-0.468597412109375,1.279296875
1695712353204902000,7.11790185546875,-0.380859375,-0.49285888671875,1.26983642578125
1695712353214423300,7.12742333984375,-0.407257080078125,-0.469207763671875,1.24176025390625
1695712353223975400,7.136975341796875,-0.441131591796875,-0.393829345703125,1.2017822265625
1695712353233527300,7.14652734375,-0.477447509765625,-0.283203125,1.171112060546875
1695712353243079400,7.156079345703125,-0.507659912109375,-0.22796630859375,1.144256591796875
1695712353252600800,7.165600830078125,-0.524139404296875,-0.2386474609375,1.103973388671875
1695712353262153000,7.175153076171875,-0.523834228515625,-0.29937744140625,1.028594970703125
1695712353271735300,7.1847353515625,-0.510406494140625,-0.432891845703125,0.9222412109375
1695712353281287400,7.194287353515625,-0.486907958984375,-0.5853271484375,0.787506103515625
1695712353290808800,7.203808837890625,-0.452728271484375,-0.680389404296875,0.62896728515625
1695712353300361000,7.21336083984375,-0.406036376953125,-0.62255859375,0.480194091796875
1695712353309912800,7.222912841796875,-0.3570556640625,-0.457611083984375,0.368194580078125
1695712353319465000,7.23246484375,-0.33843994140625,-0.341339111328125,0.29327392578125
1695712353328986400,7.241986328125,-0.36773681640625,-0.350189208984375,0.228271484375
1695712353338538200,7.251538330078125,-0.432586669921875,-0.425872802734375,0.15289306640625
1695712353348090400,7.26109033203125,-0.497894287109375,-0.460968017578125,0.062713623046875
1695712353357642200,7.270642333984375,-0.522918701171875,-0.434112548828125,-0.028533935546875
1695712353367164000,7.280163818359375,-0.486602783203125,-0.413970947265625,-0.115966796875
1695712353376715800,7.2897158203125,-0.427093505859375,-0.481109619140625,-0.2099609375
1695712353386268000,7.299267822265625,-0.374755859375,-0.60455322265625,-0.332794189453125
1695712353395819800,7.30881982421875,-0.29083251953125,-0.65093994140625,-0.51971435546875
1695712353405341400,7.318341552734375,-0.166778564453125,-0.465545654296875,-0.76934814453125
1695712353414893300,7.327893310546875,-0.060882568359375,-0.035552978515625,-1.053924560546875
1695712353424445400,7.337445556640625,0.02288818359375,0.45654296875,-1.362152099609375
1695712353433997300,7.346997314453125,0.157318115234375,0.80718994140625,-1.668548583984375
1695712353443518700,7.356518798828125,0.31097412109375,0.954132080078125,-1.9769287109375
1695712353453070800,7.36607080078125,0.408935546875,0.90362548828125,-2.2967529296875
1695712353462622700,7.375622802734375,0.43182373046875,0.700836181640625,-2.67974853515625
1695712353472174800,7.3851748046875,0.399169921875,0.330963134765625,-3.079833984375
1695712353481696300,7.3946962890625,0.33599853515625,-0.1727294921875,-3.328857421875
1695712353491248400,7.404248291015625,0.271148681640625,-0.604248046875,-3.34686279296875
1695712353500800300,7.41380029296875,0.160980224609375,-0.692596435546875,-3.204498291015625
1695712353510352400,7.423352294921875,0.03753662109375,-0.384979248046875,-3.0535888671875
1695712353519873800,7.432873779296875,0.00579833984375,-0.025787353515625,-2.96722412109375
1695712353529426000,7.442426025390625,0.047607421875,-0.055999755859375,-2.9449462890625
1695712353538977800,7.451977783203125,0.06103515625,-0.4925537109375,-2.886505126953125
1695712353548530000,7.461530029296875,0.009765625,-1.021728515625,-2.71331787109375
1695712353558081800,7.471081787109375,-0.067291259765625,-1.2982177734375,-2.460479736328125
1695712353567634000,7.480634033203125,-0.148773193359375,-1.24969482421875,-2.24884033203125
1695712353577185800,7.490185791015625,-0.184478759765625,-1.3397216796875,-1.956787109375
1695712353586738000,7.499738037109375,0.0848388671875,-2.38800048828125,-0.767822265625
1695712353596289800,7.509289794921875,0.34423828125,0.53070068359375,-1.774749755859375
1695712353605811200,7.518811279296875,0.3680419921875,1.1712646484375,-1.747589111328125
1695712353615363300,7.52836328125,0.40283203125,1.343536376953125,-2.25128173828125
1695712353624915200,7.537915283203125,0.274200439453125,1.406707763671875,-2.531280517578125
1695712353634467300,7.54746728515625,0.196380615234375,1.4971923828125,-2.576904296875
1695712353643988700,7.55698876953125,0.295257568359375,1.306304931640625,-2.371826171875
1695712353653540900,7.566540771484375,0.4290771484375,1.313934326171875,-2.151947021484375
1695712353663092700,7.5760927734375,0.515289306640625,1.416778564453125,-1.9097900390625
1695712353672644900,7.585644775390625,0.587005615234375,1.295166015625,-1.5911865234375
1695712353682166300,7.595166259765625,0.648651123046875,1.18499755859375,-1.306610107421875
1695712353691718400,7.604718505859375,0.6829833984375,1.16790771484375,-1.068878173828125
1695712353701270300,7.614270263671875,0.673828125,1.2164306640625,-0.86639404296875
1695712353710822400,7.623822509765625,0.620880126953125,1.27044677734375,-0.685882568359375
1695712353720343800,7.63334375,0.552825927734375,1.27410888671875,-0.511474609375
1695712353729895700,7.642895751953125,0.47332763671875,1.1962890625,-0.317535400390625
1695712353739447800,7.65244775390625,0.3887939453125,1.041107177734375,-0.0689697265625
1695712353748999700,7.661999755859375,0.3082275390625,0.83953857421875,0.238037109375
1695712353758521300,7.671521240234375,0.246124267578125,0.646209716796875,0.587158203125
1695712353768073200,7.6810732421875,0.217437744140625,0.5181884765625,0.93963623046875
1695712353777625300,7.690625244140625,0.218963623046875,0.4754638671875,1.2823486328125
1695712353787177200,7.70017724609375,0.234832763671875,0.51513671875,1.610107421875
1695712353796698600,7.70969873046875,0.263214111328125,0.639801025390625,1.907806396484375
1695712353806250800,7.719250732421875,0.297393798828125,0.859375,2.127227783203125
1695712353815803000,7.728802978515625,0.3265380859375,1.138916015625,2.199554443359375
1695712353825354800,7.738354736328125,0.34698486328125,1.464996337890625,2.0086669921875
1695712353834907000,7.747906982421875,0.39276123046875,1.781158447265625,1.528472900390625
1695712353844458800,7.757458740234375,0.45318603515625,1.88201904296875,0.784759521484375
1695712353854011000,7.767010986328125,0.4376220703125,1.797027587890625,-0.1373291015625
1695712353863562800,7.776562744140625,0.31951904296875,1.54388427734375,-1.101837158203125
1695712353873084200,7.786084228515625,0.207977294921875,1.004791259765625,-1.704864501953125
1695712353882636300,7.79563623046875,0.272674560546875,-0.12939453125,-1.55059814453125
1695712353892188200,7.805188232421875,0.41473388671875,-1.127166748046875,-1.029205322265625
1695712353901740300,7.814740234375,0.46539306640625,-1.2542724609375,-0.701446533203125
1695712353911261700,7.82426171875,0.282135009765625,-0.63873291015625,-0.648345947265625
1695712353920813800,7.833813720703125,0.0146484375,0.09857177734375,-0.710906982421875
1695712353930365700,7.84336572265625,-0.175018310546875,0.741424560546875,-0.723724365234375
1695712353939917800,7.852917724609375,-0.35064697265625,1.362762451171875,-0.5426025390625
1695712353949439200,7.862439208984375,-0.543060302734375,1.745758056640625,-0.14312744140625
1695712353958991400,7.871991455078125,-0.65643310546875,1.24725341796875,0.5096435546875
1695712353968543200,7.881543212890625,-0.537872314453125,-0.184326171875,1.00341796875
1695712353978095400,7.891095458984375,-0.171661376953125,-1.412506103515625,0.688323974609375
1695712353987616800,7.90061669921875,0.0836181640625,-0.61431884765625,-0.321502685546875
1695712353997168600,7.910168701171875,0.251312255859375,0.1019287109375,-0.686798095703125
1695712354006720800,7.919720703125,0.39215087890625,-1.038055419921875,0.695648193359375
1695712354016272600,7.929272705078125,0.44464111328125,-1.6107177734375,2.0196533203125
1695712354025794300,7.938794189453125,0.272064208984375,-1.129302978515625,2.08984375
1695712354035346200,7.94834619140625,-0.088043212890625,-0.121917724609375,1.295166015625
1695712354044898300,7.957898193359375,-0.384521484375,0.5096435546875,0.89935302734375
1695712354054450200,7.9674501953125,-0.497894287109375,0.44036865234375,1.386260986328125
1695712354063971600,7.9769716796875,-0.39642333984375,-0.1605224609375,2.07611083984375
1695712354073523700,7.986523681640625,-0.157623291015625,-0.84808349609375,2.376708984375
1695712354083075600,7.99607568359375,0.135040283203125,-1.2884521484375,2.219696044921875
1695712354092627700,8.005627685546875,0.3668212890625,-1.353759765625,1.822662353515625
1695712354102149000,8.015149169921875,0.479278564453125,-1.141510009765625,1.496429443359375
1695712354111701200,8.024701171875,0.494842529296875,-0.805511474609375,1.418304443359375
1695712354121283800,8.034283935546876,0.460205078125,-0.5621337890625,1.575927734375
1695712354130835700,8.043835693359375,0.37445068359375,-0.58258056640625,1.835479736328125
1695712354140357000,8.053357177734375,0.235137939453125,-0.814666748046875,2.0318603515625
1695712354149909200,8.0629091796875,0.084228515625,-1.084442138671875,2.118072509765625
1695712354159461000,8.072461181640625,-0.055084228515625,-1.2646484375,2.108612060546875
1695712354169013200,8.08201318359375,-0.174102783203125,-1.20941162109375,2.0111083984375
1695712354178534700,8.09153466796875,-0.22613525390625,-0.91033935546875,1.869354248046875
1695712354188086800,8.101086669921875,-0.200042724609375,-0.488128662109375,1.7120361328125
1695712354197638700,8.110638671875,-0.137176513671875,-0.119171142578125,1.56707763671875
1695712354207190800,8.120190673828125,-0.076751708984375,0.025482177734375,1.470489501953125
1695712354216712200,8.129712158203125,-0.0421142578125,0.024261474609375,1.455535888671875
1695712354226264000,8.13926416015625,-0.070953369140625,-0.055084228515625,1.470794677734375
1695712354235816200,8.148816162109375,-0.133209228515625,-0.22247314453125,1.450042724609375
1695712354245368000,8.1583681640625,-0.154876708984375,-0.406646728515625,1.421966552734375
1695712354254920200,8.167920166015625,-0.135040283203125,-0.52276611328125,1.404876708984375
1695712354264441600,8.177441650390625,-0.119476318359375,-0.56488037109375,1.382904052734375
1695712354273993700,8.18699365234375,-0.113677978515625,-0.567626953125,1.353759765625
1695712354283545600,8.196545654296875,-0.122528076171875,-0.5517578125,1.33575439453125
1695712354293097700,8.20609765625,-0.150909423828125,-0.51910400390625,1.32080078125
1695712354302619100,8.215619140625,-0.189971923828125,-0.49560546875,1.2994384765625
1695712354312171300,8.225171142578125,-0.24169921875,-0.52825927734375,1.2762451171875
1695712354321723100,8.23472314453125,-0.3033447265625,-0.604248046875,1.25274658203125
1695712354331244500,8.24424462890625,-0.36712646484375,-0.59326171875,1.25518798828125
1695712354340796700,8.253796630859375,-0.421905517578125,-0.504150390625,1.260986328125
1695712354350348500,8.2633486328125,-0.455780029296875,-0.445404052734375,1.24755859375
1695712354359900700,8.272900634765625,-0.473175048828125,-0.463104248046875,1.21063232421875
1695712354369452500,8.28245263671875,-0.479583740234375,-0.5279541015625,1.144256591796875
1695712354378974200,8.29197412109375,-0.475921630859375,-0.6060791015625,1.044769287109375
1695712354388526000,8.301526123046875,-0.459442138671875,-0.66497802734375,0.91705322265625
1695712354398078200,8.311078125,-0.425262451171875,-0.688018798828125,0.769500732421875
1695712354407630000,8.320630126953125,-0.38787841796875,-0.6390380859375,0.618896484375
1695712354417182200,8.33018212890625,-0.361328125,-0.52276611328125,0.48828125
1695712354426734000,8.339734130859375,-0.3594970703125,-0.419769287109375,0.378875732421875
1695712354436286200,8.3492861328125,-0.39459228515625,-0.412445068359375,0.281982421875
1695712354445838000,8.358838134765625,-0.457916259765625,-0.48980712890625,0.1837158203125
1695712354455359700,8.36835986328125,-0.513763427734375,-0.5523681640625,0.084686279296875
1695712354464911600,8.37791162109375,-0.522918701171875,-0.54107666015625,-0.011444091796875
1695712354474463700,8.387463623046875,-0.462188720703125,-0.479583740234375,-0.0921630859375
1695712354484015600,8.397015625,-0.37017822265625,-0.428314208984375,-0.17578125
1695712354493537000,8.406537109375,-0.29083251953125,-0.367279052734375,-0.313262939453125
1695712354503089200,8.416089111328125,-0.208892822265625,-0.2679443359375,-0.53375244140625
1695712354512641000,8.42564111328125,-0.118255615234375,-0.118255615234375,-0.80352783203125
1695712354522193200,8.435193115234375,-0.053863525390625,0.12176513671875,-1.078338623046875
1695712354531714600,8.444714599609375,-0.02197265625,0.43212890625,-1.365814208984375
1695712354541266700,8.4542666015625,0.048828125,0.717926025390625,-1.681365966796875
1695712354550818600,8.463818603515625,0.182342529296875,0.89630126953125,-2.00653076171875
1695712354560370700,8.47337060546875,0.290985107421875,0.89019775390625,-2.35198974609375
1695712354569892000,8.48289208984375,0.33172607421875,0.706634521484375,-2.71636962890625
1695712354579444200,8.4924443359375,0.31158447265625,0.4046630859375,-3.0328369140625
1695712354588996000,8.50199609375,0.287933349609375,0.005340576171875,-3.255767822265625
1695712354598548200,8.51154833984375,0.287628173828125,-0.355377197265625,-3.29803466796875
1695712354608069600,8.521069580078125,0.282745361328125,-0.517578125,-3.168792724609375
1695712354617621500,8.53062158203125,0.258331298828125,-0.436859130859375,-2.999267578125
1695712354627173600,8.540173583984375,0.243988037109375,-0.25177001953125,-2.880401611328125
1695712354636725500,8.5497255859375,0.243682861328125,-0.284423828125,-2.812957763671875
1695712354646247200,8.5592470703125,0.213775634765625,-0.643310546875,-2.742462158203125
1695712354655799000,8.568799072265625,0.159149169921875,-1.125946044921875,-2.62115478515625
1695712354665351200,8.57835107421875,0.1019287109375,-1.446380615234375,-2.460479736328125
1695712354674903000,8.587903076171875,0.05401611328125,-1.391448974609375,-2.2796630859375
1695712354684424700,8.5974248046875,0.006103515625,-0.85357666015625,-2.061614990234375
1695712354694007000,8.607007080078125,0.159149169921875,0.12908935546875,-1.818084716796875
1695712354703559200,8.61655908203125,0.4193115234375,0.738372802734375,-1.63360595703125
1695712354713111000,8.626111083984375,0.492401123046875,0.994110107421875,-1.61651611328125
1695712354722632700,8.6356328125,0.513763427734375,0.663299560546875,-1.818389892578125
1695712354732184600,8.6451845703125,0.33416748046875,1.12640380859375,-2.167205810546875
1695712354741736700,8.65473681640625,0.258636474609375,1.53289794921875,-2.318115234375
1695712354751288600,8.66428857421875,0.287933349609375,1.800994873046875,-2.33612060546875
1695712354760810000,8.67381005859375,0.33203125,1.92169189453125,-2.26348876953125
1695712354770362000,8.683362060546875,0.4327392578125,1.743011474609375,-2.012939453125
1695712354779914000,8.6929140625,0.558624267578125,1.55548095703125,-1.708221435546875
1695712354789466000,8.702466064453125,0.67230224609375,1.4776611328125,-1.429290771484375
1695712354798987500,8.711987548828125,0.743408203125,1.502685546875,-1.2078857421875
1695712354808539600,8.72153955078125,0.75836181640625,1.54632568359375,-1.040496826171875
1695712354818091500,8.731091552734375,0.73150634765625,1.5594482421875,-0.8990478515625
1695712354827643600,8.7406435546875,0.684814453125,1.531982421875,-0.757598876953125
1695712354837165000,8.7501650390625,0.638275146484375,1.453399658203125,-0.599517822265625
1695712354846717200,8.75971728515625,0.601348876953125,1.29302978515625,-0.40924072265625
1695712354856269000,8.76926904296875,0.575408935546875,1.062164306640625,-0.16937255859375
1695712354865821200,8.7788212890625,0.553131103515625,0.82183837890625,0.1287841796875
1695712354875342600,8.788342529296875,0.540313720703125,0.634918212890625,0.469207763671875
1695712354884894500,8.79789453125,0.548553466796875,0.528564453125,0.812530517578125
1695712354894446600,8.807446533203125,0.570526123046875,0.49102783203125,1.140289306640625
1695712354903998500,8.81699853515625,0.587921142578125,0.51116943359375,1.447296142578125
1695712354913520000,8.82652001953125,0.602264404296875,0.635223388671875,1.7083740234375
1695712354923072000,8.836072021484375,0.612030029296875,0.830078125,1.889190673828125
1695712354932624100,8.8456240234375,0.588836669921875,1.035919189453125,1.93939208984375
1695712354942176000,8.855176025390625,0.539398193359375,1.1871337890625,1.797943115234375
1695712354951697400,8.864697509765625,0.512542724609375,1.21795654296875,1.458587646484375
1695712354961249500,8.87424951171875,0.491485595703125,1.1358642578125,0.9197998046875
1695712354970801400,8.883801513671875,0.4412841796875,1.109466552734375,0.1470947265625
1695712354980353500,8.893353515625,0.36224365234375,1.26983642578125,-0.81146240234375
1695712354989905700,8.90290576171875,0.3106689453125,1.317291259765625,-1.5313720703125
1695712354999457500,8.91245751953125,0.406494140625,0.640716552734375,-1.5606689453125
1695712355009009700,8.922009765625,0.556182861328125,-0.445404052734375,-1.106109619140625
1695712355018561500,8.9315615234375,0.608062744140625,-1.098480224609375,-0.649871826171875
1695712355028113700,8.94111376953125,0.4583740234375,-0.987548828125,-0.4180908203125
1695712355037635000,8.950635009765625,0.224761962890625,-0.448150634765625,-0.347137451171875
1695712355047187000,8.96018701171875,0.09124755859375,0.18585205078125,-0.287322998046875
1695712355056739000,8.969739013671875,0.0433349609375,0.926513671875,-0.0640869140625
1695712355066291000,8.979291015625,-0.071868896484375,1.724090576171875,0.389862060546875
1695712355075812600,8.9888125,-0.186614990234375,2.015838623046875,1.163177490234375
1695712355085364500,8.998364501953125,-0.29266357421875,0.709686279296875,2.01019287109375
1695712355094916600,9.00791650390625,-0.26611328125,-2.042236328125,2.07763671875
1695712355104468500,9.017468505859375,-0.154876708984375,-3.370361328125,0.771942138671875
1695712355113990000,9.026989990234375,0.03814697265625,-1.464996337890625,-0.804443359375
1695712355123542000,9.0365419921875,0.522918701171875,0.18402099609375,-0.57342529296875
1695712355133094000,9.046093994140625,0.72540283203125,-0.312347412109375,0.753326416015625
1695712355142646000,9.05564599609375,0.547943115234375,-0.556640625,1.7205810546875
1695712355152167400,9.06516748046875,0.200042724609375,0.089111328125,1.69769287109375
1695712355161719600,9.074719482421875,-0.174102783203125,0.701446533203125,1.068572998046875
1695712355171271400,9.084271484375,-0.497589111328125,0.292816162109375,1.043853759765625
1695712355180823600,9.093823486328125,-0.64697265625,-0.52642822265625,1.69525146484375
1695712355190345000,9.103344970703125,-0.59783935546875,-1.382598876953125,2.39654541015625
1695712355199897000,9.11289697265625,-0.37445068359375,-2.145233154296875,2.64678955078125
1695712355209449000,9.122448974609375,-0.0238037109375,-2.479095458984375,2.29827880859375
1695712355219001000,9.1320009765625,0.281219482421875,-1.97113037109375,1.5960693359375
1695712355228522500,9.1415224609375,0.42694091796875,-0.95947265625,1.155853271484375
1695712355238074400,9.151074462890625,0.4803466796875,-0.14923095703125,1.115264892578125
1695712355247626500,9.16062646484375,0.42755126953125,0.1287841796875,1.3189697265625
1695712355257178400,9.170178466796875,0.30731201171875,-0.089569091796875,1.600341796875
1695712355266730500,9.17973046875,0.179290771484375,-0.5950927734375,1.811676025390625
1695712355276282400,9.189282470703125,0.054931640625,-1.103057861328125,1.866912841796875
1695712355285834500,9.19883447265625,-0.0323486328125,-1.29913330078125,1.816864013671875
1695712355295386600,9.20838671875,-0.068206787109375,-1.089324951171875,1.740570068359375
1695712355304908000,9.217907958984375,-0.058135986328125,-0.684051513671875,1.6790771484375
1695712355314460000,9.2274599609375,-0.0421142578125,-0.469207763671875,1.60919189453125
1695712355324012000,9.237011962890625,-0.050506591796875,-0.467376708984375,1.548919677734375
1695712355333564000,9.24656396484375,-0.090179443359375,-0.54443359375,1.490936279296875
1695712355343085600,9.25608544921875,-0.170135498046875,-0.64727783203125,1.419219970703125
1695712355352637400,9.265637451171875,-0.23834228515625,-0.693817138671875,1.35650634765625
1695712355362189600,9.275189453125,-0.27069091796875,-0.66131591796875,1.3134765625
1695712355371741400,9.284741455078125,-0.2777099609375,-0.5645751953125,1.29425048828125
1695712355381262800,9.294262939453125,-0.2642822265625,-0.433807373046875,1.30035400390625
1695712355390815000,9.30381494140625,-0.2593994140625,-0.341644287109375,1.3189697265625
1695712355400366800,9.313366943359375,-0.27435302734375,-0.299072265625,1.31805419921875
1695712355409919000,9.3229189453125,-0.29541015625,-0.333709716796875,1.2933349609375
1695712355419440400,9.3324404296875,-0.32135009765625,-0.402374267578125,1.27532958984375
1695712355428992500,9.341992431640625,-0.3521728515625,-0.471954345703125,1.265869140625
1695712355438544400,9.35154443359375,-0.38299560546875,-0.53375244140625,1.241455078125
1695712355448096500,9.361096435546875,-0.424346923828125,-0.52520751953125,1.2188720703125
1695712355457618000,9.370617919921875,-0.473175048828125,-0.414886474609375,1.2054443359375
1695712355467170000,9.380170166015626,-0.503997802734375,-0.30792236328125,1.181182861328125
1695712355476722000,9.389721923828125,-0.518341064453125,-0.322418212890625,1.108245849609375
1695712355486274000,9.399274169921876,-0.524139404296875,-0.377349853515625,0.986328125
1695712355495795500,9.40879541015625,-0.507965087890625,-0.453338623046875,0.8306884765625
1695712355505347300,9.418347412109375,-0.462799072265625,-0.55084228515625,0.665435791015625
1695712355514899500,9.4278994140625,-0.40252685546875,-0.5767822265625,0.5303955078125
1695712355524451300,9.437451416015625,-0.35552978515625,-0.4852294921875,0.429534912109375
1695712355533973000,9.446972900390625,-0.343017578125,-0.374298095703125,0.336761474609375
1695712355543524900,9.45652490234375,-0.3778076171875,-0.352020263671875,0.244140625
1695712355553107500,9.466107421875,-0.449066162109375,-0.365753173828125,0.1641845703125
1695712355562659300,9.475659423828125,-0.508880615234375,-0.326385498046875,0.113372802734375
1695712355572181000,9.485180908203125,-0.516815185546875,-0.25848388671875,0.088348388671875
1695712355581732900,9.49473291015625,-0.471954345703125,-0.28045654296875,0.045318603515625
1695712355591285000,9.504284912109375,-0.417327880859375,-0.375213623046875,-0.06011962890625
1695712355600836900,9.5138369140625,-0.379638671875,-0.457916259765625,-0.234527587890625
1695712355610358500,9.523358642578126,-0.3253173828125,-0.479278564453125,-0.48065185546875
1695712355619910400,9.532910400390625,-0.25115966796875,-0.341339111328125,-0.77392578125
1695712355629462500,9.542462646484376,-0.183868408203125,-0.004425048828125,-1.078643798828125
1695712355639014400,9.552014404296875,-0.103912353515625,0.4022216796875,-1.363372802734375
1695712355648535800,9.561535888671875,0.02532958984375,0.725250244140625,-1.63299560546875
1695712355658088000,9.571087890625,0.195159912109375,0.87310791015625,-1.93450927734375
1695712355667639800,9.580639892578125,0.3619384765625,0.79437255859375,-2.2772216796875
1695712355677192000,9.59019189453125,0.46539306640625,0.56060791015625,-2.64068603515625
1695712355686713300,9.59971337890625,0.467529296875,0.233001708984375,-2.9718017578125
1695712355696265500,9.609265380859375,0.41107177734375,-0.1300048828125,-3.197174072265625
1695712355705817300,9.6188173828125,0.34454345703125,-0.468902587890625,-3.278350830078125
1695712355715369500,9.628369384765625,0.286102294921875,-0.60638427734375,-3.221588134765625
1695712355724921300,9.63792138671875,0.232391357421875,-0.391998291015625,-3.0810546875
1695712355734443000,9.647443115234376,0.145416259765625,0.037841796875,-2.9315185546875
1695712355743995000,9.656994873046875,0.03448486328125,0.19500732421875,-2.832489013671875
1695712355753547000,9.666547119140626,-0.049591064453125,-0.16265869140625,-2.765045166015625
1695712355763099000,9.676098876953125,-0.082855224609375,-0.799407958984375,-2.6678466796875
1695712355772620300,9.685620361328125,-0.061798095703125,-1.346435546875,-2.498626708984375
1695712355782172400,9.69517236328125,-0.00274658203125,-1.491546630859375,-2.279052734375
1695712355791724300,9.704724365234375,0.05096435546875,-1.073760986328125,-2.029876708984375
1695712355801276400,9.7142763671875,0.233001708984375,-0.15960693359375,-1.831512451171875
1695712355810797800,9.7237978515625,0.39703369140625,0.85845947265625,-1.827545166015625
1695712355820350000,9.733349853515625,0.37353515625,1.60369873046875,-2.061309814453125
1695712355829901800,9.74290185546875,0.32440185546875,1.702117919921875,-2.3724365234375
1695712355839454000,9.752453857421875,0.293731689453125,1.5313720703125,-2.542572021484375
1695712355849005800,9.762005859375,0.29541015625,1.363677978515625,-2.523345947265625
1695712355858558000,9.771557861328125,0.35614013671875,1.24725341796875,-2.3565673828125
1695712355868109800,9.78110986328125,0.45196533203125,1.26922607421875,-2.060089111328125
1695712355877662000,9.790661865234375,0.549163818359375,1.314544677734375,-1.756134033203125
1695712355887183400,9.800183349609375,0.636749267578125,1.305389404296875,-1.5087890625
1695712355896735500,9.809735595703126,0.7061767578125,1.334075927734375,-1.318817138671875
1695712355906287400,9.819287353515625,0.73822021484375,1.430816650390625,-1.17584228515625
1695712355915839500,9.828839599609376,0.73974609375,1.53350830078125,-1.038055419921875
1695712355925361000,9.83836083984375,0.72265625,1.5948486328125,-0.88653564453125
1695712355934912800,9.847912841796875,0.7037353515625,1.58111572265625,-0.720062255859375
1695712355944465000,9.85746484375,0.6854248046875,1.49017333984375,-0.54779052734375
1695712355954016800,9.867016845703125,0.6597900390625,1.338653564453125,-0.358123779296875
1695712355963538400,9.876538330078125,0.627593994140625,1.146240234375,-0.1409912109375
1695712355973090300,9.88609033203125,0.599212646484375,0.933837890625,0.121002197265625
1695712355982642400,9.895642333984375,0.581817626953125,0.752410888671875,0.421295166015625
1695712355992194300,9.9051943359375,0.576934814453125,0.613555908203125,0.739898681640625
1695712356001716000,9.914716064453126,0.586700439453125,0.50262451171875,1.066131591796875
1695712356011267800,9.924267822265625,0.593109130859375,0.43670654296875,1.389312744140625
1695712356020820000,9.933820068359376,0.600433349609375,0.45928955078125,1.6790771484375
1695712356030371800,9.943371826171875,0.605926513671875,0.56640625,1.888275146484375
1695712356039893200,9.952893310546875,0.589752197265625,0.716400146484375,1.959228515625
1695712356049445400,9.9624453125,0.546417236328125,0.863037109375,1.836395263671875
1695712356058997200,9.971997314453125,0.505828857421875,0.966949462890625,1.516571044921875
1695712356068549400,9.98154931640625,0.476226806640625,1.041717529296875,0.9918212890625
1695712356078070800,9.99107080078125,0.41717529296875,1.18255615234375,0.201416015625
1695712356087623000,10.000622802734375,0.35247802734375,1.396636962890625,-0.8319091796875
1695712356097174800,10.0101748046875,0.285491943359375,1.450958251953125,-1.679229736328125
1695712356106727000,10.019726806640625,0.33599853515625,0.85479736328125,-1.88232421875
1695712356116248300,10.029248291015625,0.469970703125,-0.26611328125,-1.5533447265625
1695712356125831000,10.038830810546875,0.567169189453125,-1.01806640625,-1.105194091796875
1695712356135382800,10.0483828125,0.535430908203125,-0.89599609375,-0.83465576171875
1695712356144935000,10.057934814453125,0.39520263671875,-0.305328369140625,-0.723724365234375
1695712356154456300,10.067456298828125,0.335693359375,0.395355224609375,-0.595245361328125
1695712356164008400,10.077008544921876,0.294647216796875,1.298980712890625,-0.262603759765625
1695712356173560300,10.086560302734375,0.145416259765625,2.35595703125,0.27252197265625
1695712356183112400,10.096112548828126,0.00152587890625,2.65777587890625,0.95245361328125
1695712356192633900,10.1056337890625,-0.081024169921875,0.739898681640625,1.432342529296875
1695712356202185700,10.115185791015625,0.08697509765625,-2.43316650390625,1.133270263671875
1695712356211737900,10.12473779296875,0.242156982421875,-2.951812744140625,-0.064697265625
1695712356221289700,10.134289794921875,0.4473876953125,-0.9539794921875,-0.8599853515625
1695712356230811400,10.143811279296875,0.684814453125,-0.1300048828125,-0.20111083984375
1695712356240363300,10.15336328125,0.692138671875,-0.336456298828125,0.87188720703125
1695712356249915400,10.162915283203125,0.43426513671875,-0.012969970703125,1.495513916015625
1695712356259467300,10.17246728515625,0.0054931640625,1.1370849609375,1.2298583984375
1695712356268988700,10.18198876953125,-0.440826416015625,1.5087890625,0.9515380859375
1695712356278540800,10.191540771484375,-0.63232421875,0.359954833984375,1.509246826171875
1695712356288092700,10.2010927734375,-0.558319091796875,-1.02783203125,2.34466552734375
1695712356297644800,10.210644775390625,-0.28472900390625,-2.00042724609375,2.895355224609375
1695712356307166200,10.220166259765625,0.0469970703125,-2.40814208984375,2.827606201171875
1695712356316718300,10.22971826171875,0.30487060546875,-2.107696533203125,2.117767333984375
1695712356326270200,10.239270263671875,0.4132080078125,-1.194915771484375,1.385650634765625
1695712356335822300,10.248822265625,0.42266845703125,-0.325164794921875,1.110992431640625
1695712356345343700,10.25834375,0.36407470703125,0.1385498046875,1.23931884765625
1695712356354896000,10.267895751953125,0.260467529296875,0.224151611328125,1.57470703125
1695712356364447700,10.27744775390625,0.139312744140625,-0.067291259765625,1.890411376953125
1695712356373999900,10.286999755859375,0.03143310546875,-0.51971435546875,2.0379638671875
1695712356383521300,10.296521240234375,-0.03662109375,-0.91705322265625,2.0361328125
1695712356393073200,10.3060732421875,-0.061798095703125,-1.107330322265625,1.9927978515625
1695712356402625300,10.315625244140625,-0.073394775390625,-1.060638427734375,1.91741943359375
1695712356412177200,10.32517724609375,-0.077362060546875,-0.84686279296875,1.832733154296875
1695712356421729300,10.334729248046875,-0.066375732421875,-0.661163330078125,1.747589111328125
1695712356431281200,10.34428125,-0.04547119140625,-0.58319091796875,1.654052734375
1695712356440833300,10.353833251953125,-0.056610107421875,-0.5572509765625,1.55792236328125
1695712356450385200,10.36338525390625,-0.071868896484375,-0.49163818359375,1.493988037109375
1695712356459937300,10.372937255859375,-0.085296630859375,-0.401458740234375,1.475982666015625
1695712356469458700,10.382458740234375,-0.091705322265625,-0.361175537109375,1.488800048828125
1695712356479010800,10.3920107421875,-0.111541748046875,-0.468902587890625,1.496429443359375
1695712356488562700,10.401562744140625,-0.142669677734375,-0.65948486328125,1.489105224609375
1695712356498114800,10.41111474609375,-0.183868408203125,-0.84716796875,1.475372314453125
1695712356507636200,10.42063623046875,-0.23162841796875,-0.947265625,1.450347900390625
1695712356517188400,10.430188232421875,-0.26641845703125,-0.94940185546875,1.410980224609375
1695712356526740200,10.439740234375,-0.29296875,-0.8807373046875,1.378631591796875
1695712356536292400,10.449292236328125,-0.3192138671875,-0.749359130859375,1.3690185546875
1695712356545813800,10.458813720703125,-0.341796875,-0.59600830078125,1.378631591796875
1695712356555365600,10.46836572265625,-0.3619384765625,-0.467071533203125,1.384124755859375
1695712356564917800,10.477917724609375,-0.38848876953125,-0.397186279296875,1.37115478515625
1695712356574469600,10.4874697265625,-0.414276123046875,-0.359954833984375,1.3446044921875
1695712356583991300,10.4969912109375,-0.430755615234375,-0.355987548828125,1.282958984375
1695712356593543200,10.506543212890625,-0.442047119140625,-0.410003662109375,1.181488037109375
1695712356603095300,10.51609521484375,-0.447540283203125,-0.49591064453125,1.051177978515625
1695712356612647200,10.525647216796875,-0.438690185546875,-0.60821533203125,0.8990478515625
1695712356622168800,10.5351689453125,-0.418548583984375,-0.725555419921875,0.739288330078125
1695712356631720700,10.544720703125,-0.39581298828125,-0.770721435546875,0.5853271484375
1695712356641272800,10.55427294921875,-0.3753662109375,-0.706634521484375,0.449676513671875
1695712356650824700,10.56382470703125,-0.36834716796875,-0.626220703125,0.332489013671875
1695712356660346000,10.57334619140625,-0.38360595703125,-0.60211181640625,0.2301025390625
1695712356669898200,10.582898193359375,-0.413970947265625,-0.62957763671875,0.142822265625
1695712356679450000,10.5924501953125,-0.434417724609375,-0.6341552734375,0.064544677734375
1695712356689002200,10.602002197265625,-0.432281494140625,-0.5609130859375,-0.019378662109375
1695712356698554000,10.61155419921875,-0.409088134765625,-0.435028076171875,-0.13092041015625
1695712356708106200,10.621106201171875,-0.364990234375,-0.355987548828125,-0.282135009765625
1695712356717658000,10.630658203125,-0.2935791015625,-0.355377197265625,-0.499267578125
1695712356727210200,10.640210205078125,-0.166778564453125,-0.30548095703125,-0.789794921875
1695712356736731600,10.649731689453125,-0.0286865234375,-0.088043212890625,-1.119232177734375
1695712356746283800,10.65928369140625,0.07476806640625,0.275726318359375,-1.429901123046875
1695712356755835600,10.668835693359375,0.206451416015625,0.633087158203125,-1.714324951171875
1695712356765387800,10.6783876953125,0.37200927734375,0.81695556640625,-2.01324462890625
1695712356774909200,10.6879091796875,0.4632568359375,0.76202392578125,-2.36236572265625
1695712356784461300,10.69746142578125,0.46844482421875,0.5401611328125,-2.708740234375
1695712356794013200,10.70701318359375,0.4150390625,0.19317626953125,-3.01422119140625
1695712356803565300,10.7165654296875,0.3289794921875,-0.228271484375,-3.209686279296875
1695712356813086700,10.726086669921875,0.247039794921875,-0.61248779296875,-3.221588134765625
1695712356822638600,10.735638671875,0.178070068359375,-0.773162841796875,-3.104400634765625
1695712356832190700,10.745190673828125,0.11199951171875,-0.56304931640625,-2.9864501953125
1695712356841742600,10.75474267578125,0.05584716796875,-0.220947265625,-2.94281005859375
1695712356851264300,10.76426416015625,0.013427734375,-0.21636962890625,-2.9547119140625
1695712356860816100,10.773816162109375,-0.04730224609375,-0.60577392578125,-2.906951904296875
1695712356870368300,10.7833681640625,-0.107879638671875,-1.116790771484375,-2.747039794921875
1695712356879920000,10.792920166015625,-0.135040283203125,-1.391143798828125,-2.529144287109375
1695712356889441800,10.80244189453125,-0.140838623046875,-1.26678466796875,-2.3236083984375
1695712356898993700,10.81199365234375,-0.095062255859375,-0.843353271484375,-2.176971435546875
1695712356908545800,10.8215458984375,0.05157470703125,-0.012359619140625,-2.020416259765625
1695712356918097700,10.83109765625,0.162506103515625,0.79620361328125,-2.01446533203125
1695712356927619000,10.840619140625,0.175933837890625,1.321258544921875,-2.112884521484375
1695712356937171200,10.850171142578125,0.203704833984375,0.87860107421875,-2.019195556640625
1695712356946723000,10.85972314453125,0.275421142578125,0.007781982421875,-1.729278564453125
1695712356956275200,10.869275146484375,0.219268798828125,1.012115478515625,-2.308349609375
1695712356965796600,10.878796630859375,0.32470703125,0.349884033203125,-1.99554443359375
1695712356975348700,10.8883486328125,0.248260498046875,1.11724853515625,-2.0037841796875
1695712356984931000,10.89793115234375,0.261993408203125,1.674652099609375,-1.9580078125
1695712356994483200,10.907483154296875,0.34576416015625,1.734466552734375,-1.811370849609375
1695712357004004600,10.917004638671875,0.4425048828125,1.58111572265625,-1.6015625
1695712357013556700,10.926556640625,0.511322021484375,1.51702880859375,-1.388092041015625
1695712357023108600,10.936108642578125,0.542144775390625,1.4874267578125,-1.1541748046875
1695712357032660700,10.94566064453125,0.550689697265625,1.451568603515625,-0.90423583984375
1695712357042182100,10.95518212890625,0.545806884765625,1.374969482421875,-0.664825439453125
1695712357051734300,10.964734375,0.519561767578125,1.26129150390625,-0.43609619140625
1695712357061286100,10.9742861328125,0.46722412109375,1.13372802734375,-0.20294189453125
1695712357070838300,10.98383837890625,0.41290283203125,0.964508056640625,0.061492919921875
1695712357080359700,10.993359619140625,0.3729248046875,0.76324462890625,0.380096435546875
1695712357089911600,11.00291162109375,0.35614013671875,0.583953857421875,0.738372802734375
1695712357099463700,11.012463623046875,0.37017822265625,0.472412109375,1.095733642578125
1695712357109015600,11.022015625,0.404052734375,0.4412841796875,1.428070068359375
1695712357118537200,11.031537109375,0.44921875,0.49468994140625,1.71783447265625
1695712357128089000,11.041089111328125,0.515289306640625,0.651092529296875,1.94549560546875
1695712357137641200,11.05064111328125,0.589752197265625,0.889892578125,2.037353515625
1695712357147193000,11.060193115234375,0.629425048828125,1.19171142578125,1.867523193359375
1695712357156745200,11.0697451171875,0.636749267578125,1.468658447265625,1.432037353515625
1695712357166266600,11.0792666015625,0.615081787109375,1.5277099609375,0.845947265625
1695712357175818800,11.08881884765625,0.527496337890625,1.454315185546875,0.14404296875
1695712357185370600,11.09837060546875,0.37933349609375,1.259765625,-0.700836181640625
1695712357194922800,11.1079228515625,0.245819091796875,1.009368896484375,-1.442108154296875
1695712357204444200,11.117444091796875,0.278778076171875,0.313262939453125,-1.64276123046875
1695712357213996000,11.12699609375,0.3924560546875,-0.732269287109375,-1.308441162109375
1695712357223548200,11.136548095703125,0.42633056640625,-1.3330078125,-0.88836669921875
1695712357233100000,11.14610009765625,0.268096923828125,-1.158599853515625,-0.660858154296875
1695712357242621700,11.15562158203125,0.03936767578125,-0.431976318359375,-0.674896240234375
1695712357252173600,11.165173583984375,-0.121917724609375,0.53375244140625,-0.698089599609375
1695712357261725700,11.1747255859375,-0.37689208984375,1.5185546875,-0.4876708984375
1695712357271277600,11.184277587890625,-0.712890625,1.94793701171875,-0.025177001953125
1695712357280829700,11.19382958984375,-0.836944580078125,1.316070556640625,0.5328369140625
1695712357290381600,11.203381591796875,-0.524139404296875,-0.2984619140625,0.697479248046875
1695712357299933700,11.21293359375,-0.071868896484375,-1.477508544921875,0.328216552734375
1695712357309485600,11.222485595703125,0.128021240234375,-0.802764892578125,-0.21697998046875
1695712357319007000,11.232007080078125,0.285491943359375,-0.314483642578125,0.012969970703125
1695712357328559000,11.24155908203125,0.36468505859375,-0.93048095703125,1.191253662109375
1695712357338111200,11.251111328125,0.280609130859375,-1.130523681640625,1.97021484375
1695712357347663000,11.2606630859375,-0.0128173828125,-0.714874267578125,1.871490478515625
1695712357357184500,11.2701845703125,-0.31158447265625,-0.378875732421875,1.65496826171875
1695712357366736600,11.279736572265625,-0.3436279296875,-0.370635986328125,1.874237060546875
1695712357376288500,11.28928857421875,-0.146636962890625,-0.454559326171875,2.283935546875
1695712357385840600,11.298840576171875,0.08026123046875,-0.63720703125,2.460784912109375
1695712357395362000,11.308362060546875,0.270843505859375,-0.746612548828125,2.227935791015625
1695712357404914200,11.3179140625,0.42724609375,-0.606689453125,1.792449951171875
1695712357414466000,11.327466064453125,0.502471923828125,-0.399627685546875,1.429595947265625
1695712357424018200,11.33701806640625,0.486907958984375,-0.423126220703125,1.28662109375
1695712357433539600,11.34653955078125,0.43670654296875,-0.565185546875,1.346435546875
1695712357443091500,11.356091552734375,0.3167724609375,-0.61279296875,1.58111572265625
1695712357452643600,11.3656435546875,0.201263427734375,-0.675811767578125,1.861419677734375
1695712357462195500,11.375195556640625,0.09521484375,-0.86334228515625,2.0806884765625
1695712357471717000,11.384717041015625,0.00732421875,-1.088104248046875,2.179107666015625
1695712357481269000,11.39426904296875,-0.064544677734375,-1.197662353515625,2.141876220703125
1695712357490821000,11.403821044921875,-0.082855224609375,-1.135711669921875,1.99981689453125
1695712357500373000,11.413373046875,-0.057220458984375,-0.92315673828125,1.820526123046875
1695712357509894700,11.422894775390626,0.00274658203125,-0.63385009765625,1.673583984375
1695712357519446500,11.432446533203125,0.06622314453125,-0.412750244140625,1.5960693359375
1695712357528998700,11.44199853515625,0.06988525390625,-0.364837646484375,1.5545654296875
1695712357538550500,11.451550537109375,0.0323486328125,-0.387420654296875,1.549835205078125
1695712357548072000,11.461072021484375,-0.0213623046875,-0.426788330078125,1.56829833984375
1695712357557654500,11.470654541015625,-0.075225830078125,-0.468597412109375,1.5655517578125
1695712357567206700,11.48020654296875,-0.109100341796875,-0.484466552734375,1.537933349609375
1695712357576758500,11.489758544921875,-0.128936767578125,-0.464324951171875,1.494598388671875
1695712357586280000,11.499280029296875,-0.143890380859375,-0.425262451171875,1.450653076171875
1695712357595832000,11.50883203125,-0.165863037109375,-0.385589599609375,1.419830322265625
1695712357605384000,11.518384033203125,-0.201873779296875,-0.377960205078125,1.398773193359375
1695712357614936000,11.52793603515625,-0.24017333984375,-0.430755615234375,1.383819580078125
1695712357624457500,11.53745751953125,-0.2801513671875,-0.49224853515625,1.37786865234375
1695712357634009600,11.547009521484375,-0.3253173828125,-0.50994873046875,1.385650634765625
1695712357643561500,11.5565615234375,-0.3802490234375,-0.474700927734375,1.385650634765625
1695712357653113600,11.566113525390625,-0.434417724609375,-0.419464111328125,1.36688232421875
1695712357662635000,11.575635009765625,-0.480804443359375,-0.349273681640625,1.35589599609375
1695712357672187100,11.585187255859376,-0.512542724609375,-0.308685302734375,1.3531494140625
1695712357681739000,11.594739013671875,-0.511627197265625,-0.347442626953125,1.33087158203125
1695712357691291100,11.604291015625,-0.482025146484375,-0.470733642578125,1.2664794921875
1695712357700812500,11.6138125,-0.443878173828125,-0.62713623046875,1.150054931640625
1695712357710364400,11.623364501953125,-0.405426025390625,-0.746917724609375,0.98236083984375
1695712357719916500,11.63291650390625,-0.36773681640625,-0.755767822265625,0.785369873046875
1695712357729468400,11.642468505859375,-0.340576171875,-0.64544677734375,0.5963134765625
1695712357738990000,11.651989990234375,-0.3375244140625,-0.50750732421875,0.424041748046875
1695712357748542000,11.6615419921875,-0.36865234375,-0.431060791015625,0.26123046875
1695712357758094000,11.671093994140625,-0.421600341796875,-0.413665771484375,0.112457275390625
1695712357767646000,11.68064599609375,-0.455169677734375,-0.354766845703125,0.016326904296875
1695712357777167600,11.690167724609376,-0.433807373046875,-0.20965576171875,-0.021209716796875
1695712357786719500,11.699719482421875,-0.37567138671875,-0.096893310546875,-0.037689208984375
1695712357796271600,11.709271728515626,-0.32135009765625,-0.14251708984375,-0.108642578125
1695712357805823500,11.718823486328125,-0.26031494140625,-0.23956298828125,-0.312042236328125
1695712357815345000,11.728344970703125,-0.145111083984375,-0.19622802734375,-0.598907470703125
1695712357824897000,11.73789697265625,-0.01922607421875,0.04974365234375,-0.848388671875
1695712357834449000,11.747448974609375,0.03082275390625,0.41107177734375,-1.071929931640625
1695712357844001000,11.7570009765625,0.08270263671875,0.722503662109375,-1.340484619140625
1695712357853553000,11.766552978515625,0.233917236328125,0.859375,-1.63330078125
1695712357863105000,11.77610498046875,0.3900146484375,0.830078125,-1.9195556640625
1695712357872657000,11.785656982421875,0.43365478515625,0.736846923828125,-2.264404296875
1695712357882209000,11.795208984375,0.386962890625,0.51849365234375,-2.738037109375
1695712357891730400,11.80473046875,0.300140380859375,0.16265869140625,-3.230133056640625
1695712357901282600,11.814282470703125,0.260467529296875,-0.2630615234375,-3.520660400390625
1695712357910834400,11.82383447265625,0.283050537109375,-0.59326171875,-3.514251708984375
1695712357920386600,11.833386474609375,0.30303955078125,-0.674896240234375,-3.3123779296875
1695712357929938400,11.8429384765625,0.269622802734375,-0.456695556640625,-3.0865478515625
1695712357939460000,11.852460205078126,0.190887451171875,-0.1385498046875,-2.95745849609375
1695712357949012000,11.862011962890625,0.0970458984375,-0.120391845703125,-2.97119140625
1695712357958564000,11.871564208984376,-0.00823974609375,-0.441741943359375,-3.016357421875
1695712357968116000,11.881115966796875,-0.107879638671875,-0.823822021484375,-2.97576904296875
1695712357977637400,11.890637451171875,-0.171966552734375,-0.9637451171875,-2.811737060546875
1695712357987189500,11.900189453125,-0.202789306640625,-0.746002197265625,-2.560882568359375
1695712357996741400,11.909741455078125,-0.216217041015625,-0.1971435546875,-2.28302001953125
1695712358006293500,11.91929345703125,-0.050811767578125,0.338897705078125,-2.158966064453125
1695712358015815000,11.92881494140625,0.07720947265625,0.964813232421875,-2.193450927734375
1695712358025367000,11.938366943359375,0.079345703125,1.340179443359375,-2.383880615234375
1695712358034919000,11.9479189453125,0.0799560546875,1.2200927734375,-2.6153564453125
1695712358044471000,11.957470947265625,0.089111328125,1.040496826171875,-2.7008056640625
1695712358053992400,11.966992431640625,0.158843994140625,1.006622314453125,-2.57659912109375
1695712358063544600,11.976544677734376,0.270843505859375,1.081085205078125,-2.347412109375
1695712358073096400,11.986096435546875,0.36895751953125,1.17950439453125,-2.087554931640625
1695712358082648600,11.995648681640626,0.45928955078125,1.2603759765625,-1.829376220703125
1695712358092170000,12.005169921875,0.552520751953125,1.330108642578125,-1.6058349609375
1695712358101721900,12.014721923828125,0.653839111328125,1.416473388671875,-1.424713134765625
1695712358111274000,12.02427392578125,0.70556640625,1.50604248046875,-1.259765625
1695712358120825900,12.033825927734375,0.69427490234375,1.57958984375,-1.092376708984375
1695712358130378000,12.0433779296875,0.67108154296875,1.58721923828125,-0.90545654296875
1695712358139929900,12.052929931640625,0.644378662109375,1.49169921875,-0.705718994140625
1695712358149482000,12.06248193359375,0.613555908203125,1.325836181640625,-0.48919677734375
1695712358159033900,12.072033935546875,0.584869384765625,1.108245849609375,-0.249786376953125
1695712358168555500,12.081555419921875,0.565032958984375,0.87554931640625,0.035247802734375
1695712358178107400,12.091107421875,0.554962158203125,0.670318603515625,0.363006591796875
1695712358187659500,12.100659423828125,0.568695068359375,0.526123046875,0.718231201171875
1695712358197211400,12.11021142578125,0.610504150390625,0.44342041015625,1.079254150390625
1695712358206733000,12.119733154296876,0.659027099609375,0.4193115234375,1.433563232421875
1695712358216285000,12.129284912109375,0.712890625,0.48126220703125,1.767120361328125
1695712358225837000,12.138837158203126,0.7757568359375,0.615997314453125,2.0379638671875
1695712358235389000,12.148388916015625,0.82763671875,0.77301025390625,2.186431884765625
1695712358244910300,12.157910400390625,0.82855224609375,0.969085693359375,2.103118896484375
1695712358254462500,12.16746240234375,0.79742431640625,1.209716796875,1.72027587890625
1695712358264014300,12.177014404296875,0.7415771484375,1.363677978515625,1.114654541015625
1695712358273566500,12.18656640625,0.614471435546875,1.47613525390625,0.373687744140625
1695712358283088000,12.196087890625,0.41107177734375,1.56280517578125,-0.5694580078125
1695712358292640000,12.205639892578125,0.201263427734375,1.445465087890625,-1.428680419921875
1695712358302191900,12.21519189453125,0.168609619140625,0.584564208984375,-1.6070556640625
1695712358311744000,12.224743896484375,0.3387451171875,-0.727996826171875,-1.15936279296875
1695712358321265400,12.234265380859375,0.503082275390625,-1.375732421875,-0.706024169921875
1695712358330817300,12.2438173828125,0.4132080078125,-1.054229736328125,-0.53466796875
1695712358340369400,12.253369384765625,0.161895751953125,-0.359039306640625,-0.555419921875
1695712358349921300,12.26292138671875,-0.0030517578125,0.377655029296875,-0.54046630859375
1695712358359443000,12.27244287109375,-0.166168212890625,1.1614990234375,-0.255279541015625
1695712358368994800,12.281994873046875,-0.433807373046875,1.727447509765625,0.342559814453125
1695712358378547000,12.291546875,-0.6201171875,1.453704833984375,1.221923828125
1695712358388098800,12.301098876953125,-0.587158203125,-0.2532958984375,1.857757568359375
1695712358397620500,12.310620361328125,-0.3326416015625,-2.159881591796875,1.3128662109375
1695712358407172400,12.32017236328125,-0.262451171875,-1.36138916015625,-0.072021484375
1695712358416755000,12.3297548828125,-0.020751953125,0.54046630859375,-0.83587646484375
1695712358426306800,12.339306884765625,0.4022216796875,-0.16204833984375,0.2764892578125
1695712358435828500,12.348828369140625,0.648956298828125,-1.298828125,1.744537353515625
1695712358445380400,12.35838037109375,0.567779541015625,-1.234130859375,2.27630615234375
1695712358454932500,12.367932373046875,0.266571044921875,-0.49041748046875,1.9757080078125
1695712358464484400,12.377484375,-0.100555419921875,0.06744384765625,1.510772705078125
1695712358474005800,12.387005859375,-0.284423828125,0.05126953125,1.6534423828125
1695712358483558000,12.396557861328125,-0.26336669921875,-0.2557373046875,2.140655517578125
1695712358493109800,12.40610986328125,-0.129852294921875,-0.737457275390625,2.473602294921875
1695712358502662000,12.415661865234375,0.05096435546875,-1.155853271484375,2.41546630859375
1695712358512183300,12.425183349609375,0.243682861328125,-1.2921142578125,2.02392578125
1695712358521735400,12.4347353515625,0.36865234375,-1.160125732421875,1.64642333984375
1695712358531287300,12.444287353515625,0.401611328125,-0.825347900390625,1.478729248046875
1695712358540839400,12.45383935546875,0.386962890625,-0.516357421875,1.497650146484375
1695712358550391300,12.463391357421875,0.313720703125,-0.366973876953125,1.65740966796875
1695712358559913000,12.472912841796875,0.184478759765625,-0.418243408203125,1.847991943359375
1695712358569464800,12.48246484375,0.06500244140625,-0.65216064453125,1.9586181640625
1695712358579017000,12.492016845703125,0.00946044921875,-0.92376708984375,1.94671630859375
1695712358588568800,12.50156884765625,0.02044677734375,-1.0247802734375,1.857757568359375
1695712358598090200,12.51109033203125,0.08758544921875,-0.89996337890625,1.748199462890625
1695712358607642400,12.520642333984375,0.138397216796875,-0.724639892578125,1.6436767578125
1695712358617194200,12.5301943359375,0.150604248046875,-0.5975341796875,1.57012939453125
1695712358626746400,12.539746337890625,0.145416259765625,-0.57464599609375,1.540679931640625
1695712358636267800,12.549267822265625,0.0921630859375,-0.6390380859375,1.513519287109375
1695712358645820000,12.55881982421875,0.00518798828125,-0.724334716796875,1.465301513671875
1695712358655371800,12.568371826171875,-0.082550048828125,-0.754241943359375,1.405792236328125
1695712358664924000,12.577923828125,-0.149688720703125,-0.708160400390625,1.35589599609375
1695712358674445300,12.5874453125,-0.194854736328125,-0.587158203125,1.3226318359375
1695712358683997400,12.59699755859375,-0.216522216796875,-0.467681884765625,1.3031005859375
1695712358693549300,12.60654931640625,-0.224609375,-0.399627685546875,1.30035400390625
1695712358703101400,12.616101318359375,-0.23468017578125,-0.366363525390625,1.3104248046875
1695712358712653300,12.6256533203125,-0.2569580078125,-0.355987548828125,1.30645751953125
1695712358722205400,12.635205322265625,-0.29144287109375,-0.351409912109375,1.28692626953125
1695712358731757300,12.64475732421875,-0.33843994140625,-0.353851318359375,1.26953125
1695712358741309400,12.654309326171875,-0.3851318359375,-0.376129150390625,1.25335693359375
1695712358750830800,12.663830810546875,-0.425262451171875,-0.400238037109375,1.2420654296875
1695712358760382700,12.6733828125,-0.460357666015625,-0.401153564453125,1.229248046875
1695712358769934800,12.682934814453125,-0.489654541015625,-0.383758544921875,1.191864013671875
1695712358779486700,12.69248681640625,-0.511627197265625,-0.365142822265625,1.111602783203125
1695712358789008400,12.70200830078125,-0.525970458984375,-0.397491455078125,0.97991943359375
1695712358798560300,12.711560302734375,-0.523834228515625,-0.49468994140625,0.804901123046875
1695712358808112400,12.7211123046875,-0.489044189453125,-0.58624267578125,0.611572265625
1695712358817664300,12.730664306640625,-0.438079833984375,-0.5999755859375,0.446929931640625
1695712358827186000,12.74018603515625,-0.4034423828125,-0.5255126953125,0.319671630859375
1695712358836737800,12.74973779296875,-0.39947509765625,-0.451507568359375,0.2099609375
1695712358846290000,12.7592900390625,-0.440216064453125,-0.435943603515625,0.099945068359375
1695712358855841800,12.768841796875,-0.486602783203125,-0.399322509765625,-0.011444091796875
1695712358865363200,12.77836328125,-0.505523681640625,-0.27374267578125,-0.1031494140625
1695712358874915300,12.787915283203125,-0.476531982421875,-0.13275146484375,-0.18402099609375
1695712358884467200,12.79746728515625,-0.403900146484375,-0.087432861328125,-0.317535400390625
1695712358894019300,12.807019287109375,-0.283203125,-0.137939453125,-0.54351806640625
1695712358903540700,12.816540771484375,-0.092315673828125,-0.147705078125,-0.821533203125
1695712358913092900,12.8260927734375,0.0714111328125,0.012664794921875,-1.066131591796875
1695712358922644700,12.835644775390625,0.108642578125,0.269012451171875,-1.312713623046875
1695712358932196900,12.84519677734375,0.1214599609375,0.53741455078125,-1.6339111328125
1695712358941718300,12.85471826171875,0.198516845703125,0.729217529296875,-2.028656005859375
1695712358951270400,12.8642705078125,0.276031494140625,0.7635498046875,-2.422332763671875
1695712358960822300,12.873822265625,0.3143310546875,0.623931884765625,-2.768096923828125
1695712358970374400,12.88337451171875,0.33966064453125,0.312652587890625,-3.06854248046875
1695712358979895800,12.892895751953125,0.36224365234375,-0.142822265625,-3.272552490234375
1695712358989478400,12.902478515625,0.386962890625,-0.58013916015625,-3.2867431640625
1695712358999030300,12.9120302734375,0.3985595703125,-0.773468017578125,-3.162689208984375
1695712359008582400,12.92158251953125,0.35980224609375,-0.567626953125,-3.03253173828125
1695712359018103800,12.931103759765625,0.261688232421875,-0.15045166015625,-2.96051025390625
