time,seconds_elapsed,z,y,x
1695713144126908200,0.101908203125,-1.3268795013427734,1.1657733917236328,-0.18985366821289062
1695713144136460300,0.111460205078125,-2.6588497161865234,1.4050369262695312,-1.4005451202392578
1695713144146012200,0.12101220703125,-4.805932998657227,2.5944671630859375,-4.901159286499023
1695713144155564300,0.130564208984375,6.097776412963867,3.731792449951172,-2.8648738861083984
1695713144165116200,0.1401162109375,9.476812362670898,4.385799407958984,-2.3480167388916016
1695713144174637600,0.149637451171875,9.045299530029297,5.020641326904297,-3.228710174560547
1695713144184189700,0.159189697265625,8.158916473388672,5.041902542114258,-3.5347518920898438
1695713144193741600,0.168741455078125,10.13441276550293,5.437780380249023,-3.6305770874023438
1695713144203263200,0.17826318359375,10.884843826293945,6.039682388305664,-4.022861480712891
1695713144212815000,0.187815185546875,12.645931243896484,5.883068084716797,-2.8936214447021484
1695713144222367200,0.1973671875,13.408340454101562,5.326383590698242,-1.3385581970214844
1695713144231919000,0.206919189453125,12.562383651733398,4.807430267333984,-0.3527565002441406
1695713144241440800,0.216440673828125,11.671209335327148,4.369029998779297,0.3818035125732422
1695713144250992600,0.22599267578125,12.33839225769043,4.018369674682617,1.5853080749511719
1695713144260544800,0.235544677734375,9.800821304321289,3.433237075805664,2.5615272521972656
1695713144270096600,0.2450966796875,8.690446853637695,2.9831581115722656,2.6956825256347656
1695713144279648800,0.254648681640625,9.502864837646484,2.648967742919922,2.4252758026123047
1695713144289170200,0.264170166015625,10.944435119628906,1.9428558349609375,2.1380996704101562
1695713144298722000,0.27372216796875,10.553647994995117,1.7982196807861328,3.669506072998047
1695713144308274200,0.283274169921875,10.336843490600586,0.9289054870605469,4.798746109008789
1695713144317826000,0.292825927734375,11.537952423095703,1.1160640716552734,4.143241882324219
1695713144327347700,0.30234765625,12.166805267333984,2.2249412536621094,3.4898338317871094
1695713144336899600,0.311899658203125,11.883522033691406,2.4666004180908203,2.743295669555664
1695713144346451700,0.32145166015625,10.820760726928711,1.940460205078125,2.5854835510253906
1695713144356003600,0.331003662109375,9.767581939697266,1.8623027801513672,2.795999526977539
1695713144365555700,0.3405556640625,8.954864501953125,1.9689083099365234,2.819955825805664
1695713144375077000,0.3500771484375,8.461664199829102,2.186910629272461,2.7744388580322266
1695713144384629200,0.359629150390625,8.830890655517578,2.940336227416992,2.4013195037841797
1695713144394181000,0.36918115234375,8.997686386108398,3.160734176635742,2.3054943084716797
1695713144403733200,0.378733154296875,9.729251861572266,2.468996047973633,2.645374298095703
1695713144413254700,0.388254638671875,10.89921760559082,1.6041736602783203,3.264944076538086
1695713144422837200,0.397837158203125,11.239995956420898,1.4239025115966797,3.901582717895508
1695713144432389000,0.40738916015625,11.52597427368164,1.5637474060058594,3.714723587036133
1695713144441941200,0.416941162109375,11.580774307250977,1.5260162353515625,2.7340126037597656
1695713144451493000,0.4264931640625,11.423561096191406,1.4619331359863281,2.3007030487060547
1695713144461014500,0.4360146484375,10.980369567871094,1.1016902923583984,2.3438243865966797
1695713144470566700,0.445566650390625,10.572813034057617,0.6135807037353516,2.451627731323242
1695713144480118500,0.455118408203125,10.251199722290039,0.32939910888671875,2.379758834838867
1695713144489670700,0.464670654296875,10.246408462524414,0.12097930908203125,2.327054977416992
1695713144499192000,0.474192138671875,10.579999923706055,0.1254711151123047,2.1572647094726562
1695713144508744200,0.483744140625,10.76116943359375,0.4857139587402344,2.3342418670654297
1695713144518296000,0.493296142578125,10.932756423950195,0.5093708038330078,2.4061107635498047
1695713144527848200,0.50284814453125,10.527595520019531,0.7677993774414062,2.2171554565429688
1695713144537400000,0.512400146484375,10.177234649658203,0.8031349182128906,2.0710220336914062
1695713144546921700,0.521921630859375,9.317203521728516,1.0924072265625,2.2027816772460938
1695713144556473600,0.5314736328125,8.232881546020508,0.7369556427001953,2.5998573303222656
1695713144566025700,0.541025634765625,9.186042785644531,1.9949607849121094,2.2267379760742188
1695713144575577600,0.55057763671875,9.729251861572266,2.4758834838867188,1.7170677185058594
1695713144585099000,0.56009912109375,9.634025573730469,2.253389358520508,1.5541648864746094
1695713144594651100,0.569651123046875,9.14561653137207,1.7865409851074219,1.8461322784423828
1695713144604203000,0.579203125,8.344877243041992,1.9784908294677734,2.0494613647460938
1695713144613755100,0.588755126953125,8.764411926269531,2.38604736328125,1.7266502380371094
1695713144623307000,0.59830712890625,8.597616195678711,1.8197803497314453,1.9683094024658203
1695713144632828700,0.60782861328125,8.540420532226562,1.281961441040039,1.9731006622314453
1695713144642380500,0.617380615234375,8.700029373168945,1.0924072265625,1.9299793243408203
1695713144651932700,0.6269326171875,8.578451156616211,0.8315830230712891,1.5637474060058594
1695713144661484500,0.636484619140625,7.980442047119141,0.9357929229736328,1.2241668701171875
1695713144671006000,0.646005859375,6.58888053894043,0.4336090087890625,0.9345951080322266
1695713144680558000,0.65555810546875,5.454549789428711,-0.004791259765625,0.5542888641357422
1695713144690110000,0.66510986328125,4.422632217407227,-0.5521926879882812,0.18326568603515625
1695713144699662000,0.674662109375,3.5006141662597656,-1.0924072265625,0.32939910888671875
1695713144709214200,0.684214111328125,3.722209930419922,-1.3457450866699219,-0.5033817291259766
1695713144718766000,0.69376611328125,5.044597625732422,-1.4098281860351562,-1.8551158905029297
1695713144728318200,0.703318115234375,4.9613494873046875,-2.0401782989501953,-1.8551158905029297
1695713144737870000,0.7128701171875,4.451379776000977,-3.002023696899414,-2.8457088470458984
1695713144747422200,0.722422119140625,3.2742271423339844,-3.878824234008789,-2.7046661376953125
1695713144756943600,0.731943603515625,2.330648422241211,-4.9661407470703125,-2.6950836181640625
1695713144766495500,0.74149560546875,2.0255050659179688,-6.411603927612305,-2.687896728515625
1695713144776047600,0.751047607421875,1.7230567932128906,-7.065610885620117,-0.42911720275878906
1695713144785599500,0.760599609375,1.7491092681884766,-6.515813827514648,2.776834487915039
1695713144795151600,0.770151611328125,2.245004653930664,-5.729148864746094,4.743646621704102
1695713144804673000,0.779673095703125,2.7498836517333984,-5.27427864074707,6.619424819946289
1695713144814225200,0.78922509765625,3.8294143676757812,-4.499591827392578,8.997686386108398
1695713144823777000,0.798777099609375,4.789762496948242,-3.520977020263672,11.404695510864258
1695713144833329200,0.8083291015625,5.740528106689453,-2.5067272186279297,13.574836730957031
1695713144842850600,0.8178505859375,6.7197418212890625,-1.6466960906982422,15.876737594604492
1695713144852402400,0.82740234375,7.6396636962890625,-2.103961944580078,18.13761329650879
1695713144861954600,0.83695458984375,8.931207656860352,-3.0825767517089844,19.32434844970703
1695713144871506700,0.846506591796875,8.452081680297852,-3.111024856567383,19.176118850708008
1695713144881058600,0.85605859375,5.978893280029297,-2.949918746948242,19.635480880737305
1695713144890580000,0.865580078125,4.0462188720703125,-2.6369895935058594,20.283798217773438
1695713144900132000,0.875132080078125,4.432214736938477,-1.2747745513916016,20.80544662475586
1695713144909684000,0.88468408203125,5.676145553588867,-0.47163963317871094,21.035127639770508
1695713144919236000,0.894236083984375,6.858089447021484,-0.4809226989746094,20.54462242126465
1695713144928757500,0.903757568359375,6.936546325683594,-1.509246826171875,19.704954147338867
1695713144938309600,0.9133095703125,6.336141586303711,-2.653759002685547,18.44635009765625
1695713144947861500,0.922861572265625,5.778558731079102,-3.8243236541748047,17.089824676513672
1695713144957413600,0.93241357421875,4.916131973266602,-4.212715148925781,15.541648864746094
1695713144966965500,0.941965576171875,3.7198143005371094,-4.326507568359375,14.283044815063477
1695713144976487000,0.95148681640625,2.5237960815429688,-4.070474624633789,12.71600341796875
1695713144986039000,0.9610390625,-0.054500579833984375,-3.7081356048583984,10.414102554321289
1695713144995591000,0.9705908203125,-14.091693878173828,-4.776586532592773,8.492807388305664
1695713145005173500,0.980173583984375,-26.153690338134766,-2.935544967651367,7.085973739624023
1695713145014695000,0.98969482421875,-8.339487075805664,-2.2509937286376953,7.167425155639648
1695713145024247000,0.9992470703125,2.3734703063964844,-6.051361083984375,12.383310317993164
1695713145033799200,1.008799072265625,5.499767303466797,-5.477907180786133,14.618133544921875
1695713145043351000,1.01835107421875,6.052558898925781,-5.316801071166992,14.780736923217773
1695713145052903200,1.027903076171875,4.484619140625,-3.983034133911133,12.711212158203125
1695713145062424600,1.037424560546875,2.9026050567626953,-2.144388198852539,9.30642318725586
1695713145071976400,1.0469765625,1.458639144897461,-1.2960357666015625,6.296613693237305
1695713145081528600,1.056528564453125,0.6842517852783203,-1.8173847198486328,5.612361907958984
1695713145091080400,1.06608056640625,1.1846389770507812,-2.828939437866211,6.384952545166016
1695713145100602000,1.07560205078125,2.449831008911133,-3.3338184356689453,6.650568008422852
1695713145110154000,1.085154052734375,3.424253463745117,-3.5802688598632812,6.777536392211914
1695713145119706000,1.0947060546875,4.34657096862793,-4.233976364135742,7.155447006225586
1695713145129258000,1.104258056640625,3.5362491607666016,-4.362142562866211,7.964271545410156
1695713145138779400,1.113779296875,3.012205123901367,-3.9662647247314453,7.521678924560547
1695713145148331500,1.12333154296875,2.1946964263916016,-4.11090087890625,7.114721298217773
1695713145157883400,1.13288330078125,1.0843219757080078,-4.7601165771484375,6.827545166015625
1695713145167435500,1.142435546875,0.48870849609375,-6.134309768676758,6.698480606079102
1695713145176987600,1.151987548828125,-1.2364444732666016,-7.13897705078125,7.131490707397461
1695713145186509000,1.161509033203125,2.3042964935302734,-6.456521987915039,9.263301849365234
1695713145196061000,1.17106103515625,1.9590263366699219,-6.470895767211914,10.040983200073242
1695713145205613000,1.180613037109375,-1.1912269592285156,-6.006443023681641,7.844490051269531
1695713145215165000,1.1901650390625,-2.961597442626953,-5.449459075927734,6.23432731628418
1695713145224686600,1.1996865234375,-2.6780147552490234,-5.679439544677734,5.339559555053711
1695713145234238500,1.209238525390625,-0.2856788635253906,-6.13670539855957,6.030998229980469
1695713145243790600,1.21879052734375,0.46505165100097656,-6.951818466186523,8.110105514526367
1695713145253342500,1.228342529296875,0.7627086639404297,-7.046445846557617,9.454652786254883
1695713145262894600,1.23789453125,0.9127349853515625,-7.027580261230469,10.208377838134766
1695713145272416000,1.247416015625,1.913808822631836,-6.511022567749023,10.055356979370117
1695713145281998600,1.25699853515625,2.082700729370117,-5.55396842956543,9.016851425170898
1695713145291550500,1.266550537109375,1.3966522216796875,-4.388195037841797,7.332424163818359
1695713145301102600,1.2761025390625,0.5315303802490234,-3.438028335571289,5.822877883911133
1695713145310654500,1.285654541015625,0.3099346160888672,-3.201160430908203,5.006866455078125
1695713145320175900,1.29517578125,1.1298389434814453,-3.6203956604003906,4.9230194091796875
1695713145329728000,1.30472802734375,2.151874542236328,-4.734064102172852,5.794130325317383
1695713145339280100,1.314280029296875,1.0391044616699219,-5.342853546142578,5.313207626342773
1695713145348832000,1.32383203125,-1.8344535827636719,-9.868497848510742,2.5471534729003906
1695713145358353400,1.333353515625,-2.094379425048828,-17.77737045288086,-0.2784919738769531
1695713145367905500,1.342905517578125,1.4110260009765625,-24.177295684814453,-1.2451286315917969
1695713145377457400,1.35245751953125,2.816661834716797,-18.616140365600586,1.4131221771240234
1695713145387009500,1.362009521484375,3.1502532958984375,-14.273162841796875,2.3102855682373047
1695713145396561400,1.3715615234375,-2.8472061157226562,-9.323492050170898,3.4110774993896484
1695713145406083000,1.3810830078125,-3.3643627166748047,-7.257560729980469,3.389516830444336
1695713145415635000,1.390635009765625,-2.339632034301758,-6.501440048217773,3.5042076110839844
1695713145425187000,1.40018701171875,-0.397674560546875,-6.250497817993164,3.004119873046875
1695713145434739000,1.409739013671875,0.7866649627685547,-4.937692642211914,2.6142311096191406
1695713145444260400,1.41926025390625,0.4958953857421875,-4.821804046630859,2.611835479736328
1695713145453812500,1.4288125,0.052703857421875,-5.568042755126953,2.5088233947753906
1695713145463364400,1.4383642578125,0.27429962158203125,-6.686502456665039,2.3773632049560547
1695713145472916500,1.44791650390625,1.353830337524414,-7.473167419433594,2.1572647094726562
1695713145482438000,1.45743798828125,2.175830841064453,-8.364042282104492,1.9203968048095703
1695713145491990000,1.466989990234375,1.9874744415283203,-9.202812194824219,2.0326919555664062
1695713145501542000,1.4765419921875,1.5254173278808594,-9.321096420288086,0.9777164459228516
1695713145511094000,1.486093994140625,0.8699131011962891,-8.394586563110352,0.31023406982421875
1695713145520646000,1.49564599609375,-0.4192352294921875,-8.115196228027344,0.7695960998535156
1695713145530167600,1.50516748046875,-1.5248184204101562,-7.598638534545898,1.125946044921875
1695713145539719400,1.514719482421875,-0.8552398681640625,-7.638765335083008,3.0065155029296875
1695713145549271600,1.524271484375,-0.0044918060302734375,-8.148435592651367,3.6383628845214844
1695713145558823400,1.533823486328125,0.0074863433837890625,-8.17209243774414,2.6908912658691406
1695713145568375600,1.54337548828125,-0.4192352294921875,-7.932828903198242,2.800790786743164
1695713145577927400,1.552927490234375,0.5815391540527344,-6.944631576538086,3.061614990234375
1695713145587479600,1.5624794921875,0.4863128662109375,-5.466228485107422,2.2147598266601562
1695713145597031400,1.572031494140625,0.43869972229003906,-3.01849365234375,0.9729251861572266
1695713145606583600,1.58158349609375,0.7438430786132812,-1.2439308166503906,0.19045257568359375
1695713145616105000,1.59110498046875,0.15272140502929688,-0.7417469024658203,-0.9699306488037109
1695713145625656800,1.60065673828125,-3.011606216430664,-1.9925651550292969,-5.006267547607422
1695713145635209000,1.610208984375,4.096227645874023,-0.6255588531494141,-3.3194446563720703
1695713145644760800,1.6197607421875,2.7594661712646484,-1.1633777618408203,-4.446588516235352
1695713145654282500,1.629282470703125,-1.1148662567138672,-3.639261245727539,-3.022686004638672
1695713145663834400,1.63883447265625,5.156593322753906,-9.017749786376953,-0.9723262786865234
1695713145673386500,1.648386474609375,-2.530384063720703,-12.98431396484375,-0.38839149475097656
1695713145682938400,1.6579384765625,-5.413524627685547,-14.519613265991211,0.8890781402587891
1695713145692490500,1.667490478515625,-1.7724666595458984,-16.296571731567383,1.2050018310546875
1695713145702012000,1.677011962890625,-1.5580577850341797,-10.771350860595703,-3.5850601196289062
1695713145711564000,1.68656396484375,2.811870574951172,-6.672128677368164,-0.8812923431396484
1695713145721116000,1.696115966796875,2.900209426879883,-5.824075698852539,-3.836301803588867
1695713145730668000,1.70566796875,0.6818561553955078,-8.453878402709961,-4.427423477172852
1695713145740189400,1.715189453125,-0.6288528442382812,-9.458545684814453,-4.209720611572266
1695713145749741300,1.7247412109375,0.42672157287597656,-10.088895797729492,-3.836301803588867
1695713145759293400,1.73429345703125,-1.7868404388427734,-9.162385940551758,-5.135631561279297
1695713145768845300,1.74384521484375,-3.4143714904785156,-5.489885330200195,-4.453775405883789
1695713145778397400,1.7533974609375,0.7555217742919922,-8.738359451293945,-5.960926055908203
1695713145787918800,1.7629189453125,3.8033618927001953,-14.44864273071289,-0.24974441528320312
1695713145797471000,1.772470947265625,2.3474178314208984,-17.675556182861328,0.11618804931640625
1695713145807022800,1.78202294921875,0.6983261108398438,-18.694297790527344,-1.1780509948730469
1695713145816575000,1.791574951171875,2.0066394805908203,-18.668245315551758,-0.9819087982177734
1695713145826096400,1.801096435546875,4.403766632080078,-18.973987579345703,0.8531436920166016
1695713145835648500,1.8106484375,5.680936813354492,-17.89834976196289,2.963693618774414
1695713145845200400,1.820200439453125,3.4458141326904297,-19.796287536621094,4.320219039916992
1695713145854752500,1.82975244140625,0.28867340087890625,-19.289012908935547,5.712678909301758
1695713145864334800,1.8393349609375,-2.4207839965820312,-16.55260467529297,6.8251495361328125
1695713145873856500,1.8488564453125,-3.9839324951171875,-13.259212493896484,6.729623794555664
1695713145883408400,1.858408447265625,-2.284832000732422,-8.74315071105957,2.360593795776367
1695713145892960500,1.86796044921875,0.2051258087158203,-7.281217575073242,-0.5201511383056641
1695713145902512400,1.877512451171875,1.420309066772461,-8.99409294128418,-0.22818374633789062
1695713145912033800,1.88703369140625,1.6730480194091797,-10.432369232177734,0.21680450439453125
1695713145921586000,1.8965859375,1.835052490234375,-10.910896301269531,0.17128753662109375
1695713145931137800,1.9061376953125,2.201883316040039,-10.960905075073242,0.3865947723388672
1695713145940690000,1.91568994140625,2.404613494873047,-10.470399856567383,0.4273204803466797
1695713145950241800,1.92524169921875,2.190204620361328,-9.704996109008789,0.3794078826904297
1695713145959763500,1.934763427734375,1.6443004608154297,-9.231260299682617,0.4896068572998047
1695713145969315300,1.9443154296875,0.9223175048828125,-9.297439575195312,0.4440898895263672
1695713145978867500,1.953867431640625,-0.06408309936523438,-9.531911849975586,0.15930938720703125
1695713145988419300,1.96341943359375,0.14313888549804688,-9.017749786376953,0.020662307739257812
1695713145997941000,1.97294091796875,1.0391044616699219,-7.757349014282227,-0.08714103698730469
1695713146007492900,1.982492919921875,1.7326393127441406,-7.69087028503418,-0.05599784851074219
1695713146017045000,1.992044921875,2.0518569946289062,-8.887487411499023,0.25034332275390625
1695713146026596900,2.001596923828125,1.9350700378417969,-9.640913009643555,0.4848155975341797
1695713146036149000,2.01114892578125,1.8230743408203125,-9.918207168579102,0.7121009826660156
1695713146045670400,2.02067041015625,1.6014785766601562,-9.721466064453125,0.3602428436279297
1695713146055222300,2.03022216796875,0.9962825775146484,-10.060447692871094,0.4728374481201172
1695713146064774400,2.0397744140625,1.3726959228515625,-10.197896957397461,0.5183544158935547
1695713146074326300,2.049326171875,1.2250652313232422,-10.043678283691406,0.8603305816650391
1695713146083848000,2.058847900390625,0.7459392547607422,-10.102970123291016,0.9777164459228516
1695713146093399800,2.06839990234375,1.1558914184570312,-9.783153533935547,0.5447063446044922
1695713146102952000,2.077951904296875,1.2583045959472656,-9.650495529174805,0.3698253631591797
1695713146112503800,2.08750390625,1.2487220764160156,-9.65528678894043,0.4440898895263672
1695713146122056000,2.097055908203125,1.1322345733642578,-9.719070434570312,0.5255413055419922
1695713146131577300,2.106577392578125,1.1298389434814453,-9.754705429077148,0.5111675262451172
1695713146141160000,2.116159912109375,1.1106739044189453,-9.783153533935547,0.5255413055419922
1695713146150711800,2.1257119140625,1.0391044616699219,-9.787944793701172,0.5231456756591797
1695713146160264000,2.135263916015625,0.958251953125,-9.761892318725586,0.4967937469482422
1695713146169785300,2.144785400390625,0.924713134765625,-9.73583984375,0.4464855194091797
1695713146179337500,2.15433740234375,0.9127349853515625,-9.700204849243164,0.3434734344482422
1695713146188889300,2.163889404296875,0.9390869140625,-9.721466064453125,0.23596954345703125
1695713146198441500,2.17344140625,0.7438430786132812,-9.536703109741211,0.05899238586425781
1695713146207993300,2.182993408203125,0.7270736694335938,-9.534307479858398,-0.024854660034179688
1695713146217514800,2.1925146484375,0.7555217742919922,-9.536703109741211,-0.15391921997070312
1695713146227067000,2.20206689453125,0.7890605926513672,-9.591203689575195,-0.22339248657226562
1695713146236618800,2.21161865234375,0.7938518524169922,-9.660078048706055,-0.19704055786132812
1695713146246171000,2.2211708984375,0.8270912170410156,-9.678943634033203,-0.22099685668945312
1695713146255692300,2.2306923828125,0.7938518524169922,-9.769079208374023,-0.24495315551757812
1695713146265244400,2.240244384765625,0.7294692993164062,-9.868497848510742,-0.3335914611816406
1695713146274796300,2.24979638671875,0.6602954864501953,-9.998760223388672,-0.40276527404785156
1695713146284348400,2.259348388671875,0.5506954193115234,-10.031999588012695,-0.5105686187744141
1695713146293900300,2.268900390625,0.3958778381347656,-9.965520858764648,-0.6587982177734375
1695713146303422000,2.278421875,0.26950836181640625,-9.944259643554688,-0.804931640625
1695713146312973800,2.287973876953125,0.0455169677734375,-9.939468383789062,-0.9076442718505859
1695713146322526000,2.29752587890625,-0.2713050842285156,-9.9466552734375,-0.9148311614990234
1695713146332077800,2.307077880859375,-0.5836353302001953,-10.01552963256836,-0.9244136810302734
1695713146341599200,2.31659912109375,-0.7168922424316406,-10.102970123291016,-0.8884792327880859
1695713146351151400,2.3261513671875,-0.6432266235351562,-10.164657592773438,-0.8360748291015625
1695713146360703200,2.335703125,-0.4048614501953125,-10.209575653076172,-0.8240966796875
1695713146370255400,2.34525537109375,0.021860122680664062,-10.463212966918945,-0.84326171875
1695713146379776800,2.35477685546875,0.5815391540527344,-10.880352020263672,-0.9483699798583984
1695713146389329000,2.364328857421875,1.0010738372802734,-11.62179946899414,-1.017843246459961
1695713146398880800,2.373880859375,1.1322345733642578,-12.418046951293945,-0.9363918304443359
1695713146408433000,2.383432861328125,0.9462738037109375,-12.811229705810547,-0.7689971923828125
1695713146417984800,2.39298486328125,0.3886909484863281,-12.889387130737305,-0.42911720275878906
1695713146427537000,2.402536865234375,-0.39288330078125,-12.555496215820312,0.013475418090820312
1695713146437088800,2.4120888671875,-0.9624443054199219,-12.117095947265625,0.6689796447753906
1695713146446641000,2.421640869140625,-1.0864181518554688,-11.647851943969727,1.4035396575927734
1695713146456192800,2.43119287109375,-0.9100399017333984,-11.076793670654297,1.9251880645751953
1695713146465745000,2.440744873046875,-0.5144615173339844,-10.5982666015625,2.2243423461914062
1695713146475266300,2.450266357421875,-0.07845687866210938,-10.359003067016602,2.1860122680664062
1695713146484818400,2.459818359375,0.3934822082519531,-10.081708908081055,1.7721672058105469
1695713146494370300,2.469370361328125,0.8318824768066406,-9.797527313232422,1.2981319427490234
1695713146503922400,2.47892236328125,1.1702651977539062,-9.704996109008789,1.0064640045166016
1695713146513443800,2.48844384765625,1.3679046630859375,-9.669361114501953,0.9753208160400391
1695713146522995700,2.49799560546875,1.375091552734375,-9.733444213867188,1.1618804931640625
1695713146532547800,2.5075478515625,0.9962825775146484,-9.95623779296875,1.3220882415771484
1695713146542099700,2.517099609375,-0.1308612823486328,-10.100574493408203,1.530508041381836
1695713146551651800,2.52665185546875,-1.6416053771972656,-10.070030212402344,1.9203968048095703
1695713146561173200,2.53617333984375,-2.432462692260742,-10.050865173339844,2.418088912963867
1695713146570725400,2.545725341796875,-2.2228450775146484,-10.148187637329102,2.9133853912353516
1695713146580277200,2.55527734375,-1.3556270599365234,-10.294919967651367,3.2625484466552734
1695713146589829400,2.564829345703125,-0.1380481719970703,-10.30689811706543,3.4014949798583984
1695713146599350800,2.574350830078125,0.8890781402587891,-10.439556121826172,3.399099349975586
1695713146608903000,2.58390283203125,1.310708999633789,-10.631505966186523,3.3200435638427734
1695713146618454800,2.593454833984375,0.9034519195556641,-10.766559600830078,2.9852542877197266
1695713146628007000,2.6030068359375,0.25513458251953125,-10.884843826293945,2.2554855346679688
1695713146637558800,2.612558837890625,-0.7049140930175781,-10.936948776245117,1.6332206726074219
1695713146647080200,2.622080078125,-1.5224227905273438,-11.08877182006836,1.300527572631836
1695713146656632300,2.63163232421875,-1.5367965698242188,-11.294795989990234,1.1618804931640625
1695713146666184200,2.64118408203125,-1.689218521118164,-11.245086669921875,1.12115478515625
1695713146675736300,2.650736328125,-2.115640640258789,-10.629110336303711,1.0304203033447266
1695713146685257700,2.6602578125,-2.0967750549316406,-9.702600479125977,1.0900115966796875
1695713146694809900,2.669809814453125,-2.010831832885742,-8.866226196289062,1.3029232025146484
1695713146704361700,2.67936181640625,-2.010831832885742,-8.26192855834961,1.7793540954589844
1695713146713913900,2.688913818359375,-1.3816795349121094,-7.7738189697265625,2.2554855346679688
1695713146723496200,2.69849609375,-0.4240264892578125,-7.520481109619141,2.530384063720703
1695713146733017900,2.708017822265625,0.3362865447998047,-7.084476470947266,2.659748077392578
1695713146742569700,2.71756982421875,0.5554866790771484,-6.7005767822265625,2.752878189086914
1695713146752121900,2.727121826171875,0.08594322204589844,-6.39723014831543,2.7840213775634766
1695713146761673700,2.736673828125,-0.7692966461181641,-6.117839813232422,2.6956825256347656
1695713146771195400,2.7461953125,-1.6916141510009766,-5.887859344482422,2.5088233947753906
1695713146780747300,2.755747314453125,-2.6540584564208984,-5.738731384277344,2.2339248657226562
1695713146790299400,2.76529931640625,-3.531158447265625,-5.598886489868164,2.0066394805908203
1695713146799851300,2.774851318359375,-4.324710845947266,-5.771671295166016,1.8629016876220703
1695713146809403400,2.7844033203125,-4.70112419128418,-6.013629913330078,1.7769584655761719
1695713146818924800,2.7939248046875,-4.70112419128418,-6.169944763183594,1.8437366485595703
1695713146828476700,2.8034765625,-4.539119720458984,-6.454126358032227,2.0997695922851562
1695713146838028800,2.81302880859375,-4.262723922729492,-6.871265411376953,2.3294506072998047
1695713146847580700,2.82258056640625,-3.962371826171875,-7.276426315307617,2.506427764892578
1695713146857102300,2.832102294921875,-3.7575454711914062,-7.525272369384766,2.6094398498535156
1695713146866654200,2.841654296875,-3.709932327270508,-7.619899749755859,2.7052650451660156
1695713146876206300,2.851206298828125,-3.769224166870117,-7.624691009521484,2.7840213775634766
1695713146885758200,2.86075830078125,-3.8551673889160156,-7.5630035400390625,2.767251968383789
1695713146895310300,2.870310302734375,-3.9791412353515625,-7.484846115112305,2.6525611877441406
1695713146904831700,2.879831787109375,-4.191154479980469,-7.477659225463867,2.5088233947753906
1695713146914384000,2.8893837890625,-4.422332763671875,-7.657930374145508,2.442045211791992
1695713146923935700,2.898935791015625,-4.684354782104492,-8.017873764038086,2.480375289916992
1695713146933487900,2.90848779296875,-4.960750579833984,-8.435012817382812,2.5902748107910156
1695713146943009300,2.91800927734375,-5.327880859375,-8.806934356689453,2.626209259033203
1695713146952561200,2.92756103515625,-5.60188102722168,-9.136333465576172,2.451627731323242
1695713146962113300,2.93711328125,-5.7710723876953125,-9.505859375,2.0710220336914062
1695713146971665200,2.9466650390625,-6.102268218994141,-9.970312118530273,1.5996818542480469
1695713146981217300,2.95621728515625,-6.812273025512695,-10.550952911376953,1.3795833587646484
1695713146990738700,2.96573876953125,-7.672304153442383,-11.124107360839844,1.6212425231933594
1695713147000321300,2.9753212890625,-8.26582145690918,-11.403797149658203,2.3102855682373047
1695713147009873200,2.984873046875,-8.087047576904297,-11.098054885864258,3.071197509765625
1695713147019425300,2.99442529296875,-6.840721130371094,-9.854423522949219,3.2338008880615234
1695713147028946700,3.00394677734375,-5.203907012939453,-8.00140380859375,3.1837921142578125
1695713147038498800,3.013498779296875,-3.7075366973876953,-6.148683547973633,3.07598876953125
1695713147048050700,3.02305078125,-2.9187755584716797,-4.748138427734375,3.023284912109375
1695713147057602800,3.032602783203125,-3.106832504272461,-4.41185188293457,3.1790008544921875
1695713147067154700,3.04215478515625,-3.8051586151123047,-5.589303970336914,3.408681869506836
1695713147076676400,3.05167626953125,-4.422332763671875,-7.536951065063477,3.284109115600586
1695713147086228200,3.061228271484375,-5.692316055297852,-10.799798965454102,3.463481903076172
1695713147095780400,3.0707802734375,-7.331825256347656,-15.329935073852539,3.9659652709960938
1695713147105332200,3.080332275390625,-7.5390472412109375,-19.988237380981445,4.810724258422852
1695713147114853600,3.089853515625,-3.5835628509521484,-22.115856170654297,5.370702743530273
1695713147124405800,3.09940576171875,4.098623275756836,-19.80107879638672,5.0092620849609375
1695713147133957600,3.10895751953125,6.593372344970703,-15.097858428955078,4.095329284667969
1695713147143509800,3.118509765625,0.0455169677734375,-7.544137954711914,2.2863292694091797
1695713147153061600,3.1280615234375,-4.739154815673828,-0.7438430786132812,-0.24016189575195312
1695713147162583300,3.137583251953125,-2.556436538696289,3.1466598510742188,-2.089588165283203
1695713147172135200,3.14713525390625,0.8842868804931641,3.8195323944091797,-2.3048954010009766
1695713147181687300,3.156687255859375,3.8866100311279297,1.9832820892333984,-1.3646106719970703
1695713147191239200,3.1662392578125,6.054954528808594,-2.8505001068115234,-0.06318473815917969
1695713147200760800,3.1757607421875,4.294166564941406,-10.043678283691406,0.4488811492919922
1695713147210312700,3.185312744140625,-1.0076618194580078,-16.696941375732422,-0.1350536346435547
1695713147219864800,3.19486474609375,-5.863903045654297,-20.968948364257812,-0.800140380859375
1695713147229416700,3.204416748046875,-6.423881530761719,-21.37650489807129,-0.8765010833740234
1695713147238968800,3.21396875,-3.466775894165039,-17.441083908081055,-0.2713050842285156
1695713147248490200,3.223490234375,-0.6120834350585938,-11.285512924194336,0.6689796447753906
1695713147258042000,3.2330419921875,0.9462738037109375,-7.231208801269531,2.0614395141601562
1695713147267594200,3.24259423828125,1.3607177734375,-5.634521484375,3.284109115600586
1695713147277146000,3.25214599609375,0.6722736358642578,-5.212591171264648,3.458690643310547
1695713147286698200,3.2616982421875,-1.1576881408691406,-5.47551155090332,2.4492321014404297
1695713147296250000,3.27125,-2.5423622131347656,-6.719442367553711,1.0112552642822266
1695713147305802200,3.28080224609375,-3.9887237548828125,-8.05111312866211,0.030244827270507812
1695713147315354000,3.29035400390625,-3.166423797607422,-9.657682418823242,-0.43630409240722656
1695713147324906200,3.29990625,-0.5668659210205078,-10.956113815307617,-0.5393161773681641
1695713147334427600,3.309427734375,1.8134918212890625,-11.223825454711914,-0.3455696105957031
1695713147343979800,3.318979736328125,3.2933921813964844,-10.832738876342773,-0.024854660034179688
1695713147353531600,3.32853173828125,3.4410228729248047,-9.80681037902832,0.25273895263671875
1695713147363083800,3.338083740234375,2.1398963928222656,-8.809329986572266,0.33179473876953125
1695713147372605200,3.347605224609375,0.4719390869140625,-8.2218017578125,0.33179473876953125
1695713147382157300,3.3571572265625,-0.6432266235351562,-8.134061813354492,0.22399139404296875
1695713147391709200,3.366709228515625,-1.0364093780517578,-8.276302337646484,0.24315643310546875
1695713147401261300,3.37626123046875,-0.7860660552978516,-8.468252182006836,0.28867340087890625
1695713147410813200,3.385813232421875,-0.18326568603515625,-8.558088302612305,0.30783843994140625
1695713147420334600,3.39533447265625,0.43390846252441406,-8.766807556152344,0.4488811492919922
1695713147429886700,3.40488671875,0.7507305145263672,-8.861434936523438,0.5686626434326172
1695713147439438600,3.4144384765625,0.8294868469238281,-8.707515716552734,0.5471019744873047
1695713147448990700,3.42399072265625,0.8055305480957031,-8.667089462280273,0.5279369354248047
1695713147458512100,3.43351220703125,0.6890430450439453,-8.622171401977539,0.4081554412841797
1695713147468064300,3.443064208984375,0.6507129669189453,-8.650619506835938,0.24315643310546875
1695713147477616000,3.4526162109375,0.6770648956298828,-8.840173721313477,0.10900115966796875
1695713147487168300,3.462168212890625,0.8438606262207031,-8.991697311401367,0.07815742492675781
1695713147496720100,3.47172021484375,1.003469467163086,-9.148311614990234,0.34377288818359375
1695713147506241800,3.48124169921875,1.0891132354736328,-9.23575210571289,0.7863655090332031
1695713147515793700,3.490793701171875,0.7962474822998047,-9.413627624511719,1.221771240234375
1695713147525345800,3.500345703125,0.15751266479492188,-9.581920623779297,1.396352767944336
1695713147534897700,3.509897705078125,-0.5740528106689453,-9.688526153564453,1.1139678955078125
1695713147544419000,3.519419189453125,-0.9336967468261719,-9.780757904052734,0.4584636688232422
1695713147553971200,3.52897119140625,-0.4144439697265625,-10.178731918334961,-0.12307548522949219
1695713147563523000,3.538523193359375,0.44349098205566406,-10.761768341064453,-0.3311958312988281
1695713147573075200,3.5480751953125,0.7651042938232422,-11.237899780273438,-0.2856788635253906
1695713147582627000,3.557626953125,0.1931476593017578,-11.164533615112305,-0.2569313049316406
1695713147592179200,3.56717919921875,-0.7504310607910156,-10.792612075805664,-0.3216133117675781
1695713147601731000,3.57673095703125,-1.3960533142089844,-10.697685241699219,-0.15391921997070312
1695713147611283200,3.586283203125,-1.5056533813476562,-10.974979400634766,0.24076080322265625
1695713147620835000,3.5958349609375,-1.4248008728027344,-11.522380828857422,0.5710582733154297
1695713147630356700,3.605356689453125,-1.210092544555664,-12.067386627197266,0.5159587860107422
1695713147639908600,3.61490869140625,-0.828887939453125,-12.486621856689453,0.07336616516113281
1695713147649460700,3.624460693359375,-0.6692790985107422,-12.820812225341797,-0.6396331787109375
1695713147659012600,3.6340126953125,-0.5381183624267578,-13.581424713134766,-1.4053363800048828
1695713147668564700,3.643564697265625,-0.028448104858398438,-14.550457000732422,-1.9341716766357422
1695713147678086100,3.653086181640625,1.3014259338378906,-14.97927474975586,-2.3192691802978516
1695713147687638300,3.66263818359375,2.835826873779297,-15.254173278808594,-2.4534244537353516
1695713147697190100,3.672190185546875,3.6793880462646484,-15.337121963500977,-2.075214385986328
1695713147706742300,3.6817421875,3.908170700073242,-14.524404525756836,-1.1373252868652344
1695713147716263700,3.691263671875,3.522174835205078,-13.074150085449219,0.12337493896484375
1695713147725815600,3.700815673828125,2.973875045776367,-11.484350204467773,1.7386283874511719
1695713147735367700,3.71036767578125,2.716644287109375,-10.09817886352539,3.743471145629883
1695713147744919600,3.71991943359375,2.4950485229492188,-8.920726776123047,5.461437225341797
1695713147754441200,3.729441162109375,1.8970394134521484,-8.470647811889648,6.193601608276367
1695713147763993000,3.7389931640625,0.6198692321777344,-9.13393783569336,6.102567672729492
1695713147773545200,3.748545166015625,-0.8908748626708984,-10.399129867553711,6.124128341674805
1695713147783097000,3.75809716796875,-2.8208541870117188,-11.714330673217773,6.212766647338867
1695713147792649200,3.767649169921875,-4.453176498413086,-12.398881912231445,5.021240234375
1695713147802170600,3.777170654296875,-5.539894104003906,-12.789968490600586,3.3248348236083984
1695713147811722800,3.78672265625,-5.901933670043945,-12.880104064941406,2.568714141845703
1695713147821274600,3.796274658203125,-4.734363555908203,-12.690549850463867,2.3390331268310547
1695713147830826800,3.80582666015625,-2.6040496826171875,-12.026960372924805,2.303098678588867
1695713147840378600,3.815378662109375,0.5959129333496094,-11.640665054321289,2.3438243865966797
1695713147849900000,3.824900146484375,4.701423645019531,-11.617008209228516,2.3054943084716797
1695713147859482600,3.834482666015625,8.414051055908203,-11.861063003540039,2.004243850708008
1695713147869034800,3.84403466796875,11.116022109985352,-11.427453994750977,1.2385406494140625
1695713147878586600,3.853586669921875,8.359251022338867,-9.422910690307617,0.19524383544921875
1695713147888108000,3.86310791015625,3.61260986328125,-7.345001220703125,-0.5033817291259766
1695713147897660200,3.87266015625,-0.08803939819335938,-6.69818115234375,-0.38120460510253906
1695713147907212000,3.8822119140625,-2.3707752227783203,-6.428073883056641,-0.06797599792480469
1695713147916764200,3.89176416015625,-3.333219528198242,-6.139101028442383,0.5207500457763672
1695713147926285600,3.90128564453125,-3.8455848693847656,-6.14628791809082,1.3029232025146484
1695713147935837700,3.910837646484375,-3.971954345703125,-6.300207138061523,2.2575817108154297
1695713147945389600,3.9203896484375,-3.828815460205078,-6.669733047485352,3.080780029296875
1695713147954941700,3.929941650390625,-3.3260326385498047,-6.92816162109375,3.5089988708496094
1695713147964493600,3.93949365234375,-2.5327796936035156,-6.9161834716796875,3.5089988708496094
1695713147974015200,3.94901513671875,-1.4532489776611328,-6.769451141357422,3.293691635131836
1695713147983567000,3.958567138671875,-0.6620922088623047,-6.41639518737793,3.0472412109375
1695713147993119200,3.968119140625,-0.2593269348144531,-5.866598129272461,2.6573524475097656
1695713148002671000,3.977671142578125,-0.35964393615722656,-5.359622955322266,2.298307418823242
1695713148012223200,3.98722314453125,-0.6312484741210938,-4.793355941772461,1.9132099151611328
1695713148021744600,3.99674462890625,-1.0696487426757812,-4.307641983032227,1.6140556335449219
1695713148031296500,4.006296630859375,-1.5320053100585938,-4.009086608886719,1.3987483978271484
1695713148040848600,4.0158486328125,-2.0371837615966797,-3.8264198303222656,1.3747920989990234
1695713148050400500,4.025400390625,-2.630401611328125,-3.7389793395996094,1.5089473724365234
1695713148059922200,4.034922119140625,-3.0831756591796875,-3.7650318145751953,1.7386283874511719
1695713148069474000,4.04447412109375,-3.471567153930664,-3.8572635650634766,1.9515399932861328
1695713148079026200,4.054026123046875,-3.857563018798828,-4.070474624633789,2.0470657348632812
1695713148088578000,4.063578125,-4.160011291503906,-4.525644302368164,2.0566482543945312
1695713148098099500,4.073099365234375,-4.495998382568359,-5.279069900512695,1.9563312530517578
1695713148107651600,4.082651611328125,-4.736759185791016,-6.392738342285156,1.7793540954589844
1695713148117203700,4.09220361328125,-4.834381103515625,-7.932828903198242,1.5709342956542969
1695713148126755600,4.101755615234375,-5.477907180786133,-9.840049743652344,1.305318832397461
1695713148136307700,4.1113076171875,-6.461912155151367,-11.977251052856445,0.8483524322509766
1695713148145859600,4.120859619140625,-6.974277496337891,-14.524404525756836,0.3530559539794922
1695713148155411700,4.13041162109375,-6.702672958374023,-17.36532211303711,0.32700347900390625
1695713148164963600,4.139963623046875,-7.210247039794922,-18.917091369628906,0.5899238586425781
1695713148174515700,4.149515625,-9.795431137084961,-18.426586151123047,1.0447940826416016
1695713148184037000,4.159037109375,-12.192558288574219,-15.917463302612305,2.1908035278320312
1695713148193589000,4.168589111328125,-11.168127059936523,-11.659830093383789,3.4658775329589844
1695713148203141000,4.17814111328125,-6.62152099609375,-6.949422836303711,4.236371994018555
1695713148212693000,4.18769287109375,-2.6684322357177734,-2.9523143768310547,4.583438873291016
1695713148222245000,4.1972451171875,-1.8796710968017578,-0.9974803924560547,5.006866455078125
1695713148231766500,4.2067666015625,-2.475584030151367,-2.412099838256836,5.188634872436523
1695713148241318700,4.216318603515625,-3.5287628173828125,-6.2741546630859375,4.626560211181641
1695713148250870500,4.22587060546875,-5.620746612548828,-11.515193939208984,4.719690322875977
1695713148260422700,4.235422607421875,-8.785074234008789,-18.083112716674805,4.803537368774414
1695713148269944000,4.244944091796875,-6.845512390136719,-22.658466339111328,4.32740592956543
1695713148279496200,4.25449609375,4.177379608154297,-21.26750373840332,3.626384735107422
1695713148289048000,4.264048095703125,12.564779281616211,-17.000288009643555,2.9517154693603516
1695713148298600200,4.27360009765625,3.2933921813964844,-10.10776138305664,1.5853080749511719
1695713148308152000,4.283152099609375,-4.703519821166992,-2.627706527709961,-0.7833709716796875
1695713148317673500,4.292673583984375,0.6007041931152344,1.6110610961914062,-0.637237548828125
1695713148327225600,4.3022255859375,4.205827713012695,1.7937278747558594,1.425100326538086
1695713148336777500,4.311777587890625,3.14306640625,0.23926353454589844,3.217031478881836
1695713148346329600,4.32132958984375,0.6674823760986328,-4.684354782104492,2.9517154693603516
1695713148355851000,4.33085107421875,0.28388214111328125,-11.657434463500977,1.279266357421875
1695713148365403100,4.340403076171875,-0.5596790313720703,-16.926921844482422,-1.0394039154052734
1695713148374955000,4.349955078125,-1.5748271942138672,-19.035675048828125,-2.833730697631836
1695713148384507100,4.359507080078125,-1.0888137817382812,-18.587692260742188,-3.219127655029297
1695713148394059000,4.36905908203125,0.9867000579833984,-15.436540603637695,-1.9725017547607422
1695713148403580400,4.378580322265625,2.602252960205078,-11.396610260009766,-0.3407783508300781
1695713148413132500,4.388132568359375,2.5402660369873047,-8.34248161315918,0.5662670135498047
1695713148422684400,4.397684326171875,1.825469970703125,-6.681711196899414,0.9920902252197266
1695713148432267000,4.40726708984375,0.18146896362304688,-6.200788497924805,1.525716781616211
1695713148441788700,4.41678857421875,-0.7621097564697266,-6.477783203125,1.5877037048339844
1695713148451340500,4.426340576171875,-0.19284820556640625,-7.288105010986328,1.410726547241211
1695713148460892700,4.435892578125,-0.030843734741210938,-8.041830062866211,1.078033447265625
1695713148470444500,4.445444580078125,-0.17607879638671875,-8.413751602172852,0.7839698791503906
1695713148479966000,4.454966064453125,-0.6096878051757812,-8.307146072387695,0.7648048400878906
1695713148489518000,4.46451806640625,-0.014074325561523438,-8.446990966796875,0.8055305480957031
1695713148499070000,4.474070068359375,0.5650691986083984,-7.811849594116211,0.3482646942138672
1695713148508622000,4.4836220703125,1.0558738708496094,-7.975351333618164,-0.015272140502929688
1695713148518174000,4.493174072265625,1.2250652313232422,-8.74315071105957,-0.24974441528320312
1695713148527695600,4.502695556640625,1.0415000915527344,-9.475015640258789,-0.3575477600097656
1695713148537247500,4.51224755859375,0.9366912841796875,-9.501367568969727,-0.44588661193847656
1695713148546799600,4.521799560546875,0.8270912170410156,-9.129146575927734,-0.44349098205566406
1695713148556351500,4.5313515625,0.46026039123535156,-8.705120086669922,-0.3767127990722656
1695713148565903600,4.540903564453125,0.15990829467773438,-8.134061813354492,-0.41953468322753906
1695713148575425000,4.550425048828125,0.10510826110839844,-8.067882537841797,-0.3527565002441406
1695713148584977000,4.559976806640625,0.08594322204589844,-8.406564712524414,-0.3120307922363281
1695713148594529000,4.569529052734375,-0.1284656524658203,-9.070154190063477,-0.2689094543457031
1695713148604081200,4.5790810546875,-0.47643089294433594,-9.603181838989258,-0.24495315551757812
1695713148613602600,4.5886025390625,-0.5953140258789062,-9.783153533935547,-0.11588859558105469
1695713148623154400,4.598154541015625,-0.44289207458496094,-9.764287948608398,0.16170501708984375
1695713148632706600,4.60770654296875,-0.2524394989013672,-9.778362274169922,0.4800243377685547
1695713148642258400,4.617258544921875,-0.4192352294921875,-9.823579788208008,0.6617927551269531
1695713148651810600,4.626810546875,-0.8552398681640625,-9.892154693603516,0.5327281951904297
1695713148661332000,4.63633203125,-1.2912445068359375,-10.00594711303711,0.22638702392578125
1695713148670884000,4.645884033203125,-1.1840400695800781,-10.193105697631836,-0.17308425903320312
1695713148680436000,4.65543603515625,-0.4857139587402344,-10.491661071777344,-0.5560855865478516
1695713148689988000,4.664988037109375,0.3195171356201172,-10.832738876342773,-0.84326171875
1695713148699509500,4.674509521484375,0.8366737365722656,-11.008218765258789,-1.0921077728271484
1695713148709061400,4.684061279296875,0.8366737365722656,-10.953718185424805,-1.6014785766601562
1695713148718644000,4.69364404296875,0.4054603576660156,-10.97977066040039,-2.1207313537597656
1695713148728196000,4.703196044921875,-0.0068874359130859375,-11.15974235534668,-2.266864776611328
1695713148737748000,4.712748046875,-0.2832832336425781,-11.548433303833008,-1.9197978973388672
1695713148747269400,4.722269287109375,-0.9792137145996094,-12.095834732055664,-1.3574237823486328
1695713148756821500,4.731821533203125,-1.5915966033935547,-12.62407112121582,-0.9292049407958984
1695713148766373600,4.74137353515625,-1.4200096130371094,-13.185546875,-0.8408660888671875
1695713148775925500,4.750925537109375,-1.0528793334960938,-13.673656463623047,-1.0921077728271484
1695713148785447000,4.760447021484375,-0.8908748626708984,-14.017129898071289,-1.3789844512939453
1695713148794999000,4.7699990234375,-0.36922645568847656,-14.249505996704102,-1.051382064819336
1695713148804551000,4.779551025390625,0.8246955871582031,-14.325267791748047,-0.46265602111816406
1695713148814103000,4.78910302734375,2.2138614654541016,-14.102474212646484,0.13056182861328125
1695713148823655000,4.798655029296875,2.807079315185547,-13.13583755493164,1.1187591552734375
1695713148833176600,4.808176513671875,2.1494789123535156,-11.396610260009766,2.4156932830810547
1695713148842728400,4.817728515625,1.5086479187011719,-9.830467224121094,3.5856590270996094
1695713148852280600,4.827280517578125,1.5442829132080078,-9.041706085205078,4.746042251586914
1695713148861832400,4.83683251953125,1.334665298461914,-9.086624145507812,5.600383758544922
1695713148871353900,4.846353759765625,0.8866825103759766,-10.148187637329102,5.703096389770508
1695713148880906000,4.855906005859375,0.7459392547607422,-11.425058364868164,5.217382431030273
1695713148890457900,4.865457763671875,0.8747043609619141,-12.327911376953125,4.645725250244141
1695713148900010000,4.875010009765625,0.8866825103759766,-12.690549850463867,4.427722930908203
1695713148909561900,4.884561767578125,0.3482646942138672,-12.943887710571289,4.552295684814453
1695713148919083500,4.89408349609375,-0.9908924102783203,-13.211599349975586,4.607395172119141
1695713148928635400,4.903635498046875,-2.620819091796875,-12.806438446044922,4.116889953613281
1695713148938187500,4.9131875,-3.595541000366211,-12.356359481811523,3.700349807739258
1695713148947739400,4.922739501953125,-3.366758346557617,-11.948802947998047,3.626384735107422
1695713148957261000,4.932260986328125,-1.3984489440917969,-11.702352523803711,3.700349807739258
1695713148966813000,4.94181298828125,1.7826480865478516,-12.410860061645508,3.674297332763672
1695713148976365000,4.951364990234375,3.9557838439941406,-12.515069961547852,2.8415164947509766
1695713148985917000,4.9609169921875,5.888158798217773,-11.60053825378418,1.6068687438964844
1695713148995469000,4.970468994140625,4.35615348815918,-9.728652954101562,0.31502532958984375
1695713149005021000,4.98002099609375,1.780252456665039,-7.975351333618164,-0.12067985534667969
1695713149014573000,4.989572998046875,-0.5072746276855469,-6.99913215637207,0.23596954345703125
1695713149024125000,4.999125,-2.1372013092041016,-6.454126358032227,0.6474189758300781
1695713149033677000,5.008677001953125,-2.6280059814453125,-6.13670539855957,1.2145843505859375
1695713149043198500,5.018198486328125,-2.4731884002685547,-6.018121719360352,1.7934284210205078
1695713149052750300,5.027750244140625,-1.8584098815917969,-5.968412399291992,2.2911205291748047
1695713149062302500,5.037302490234375,-0.9028530120849609,-5.731544494628906,2.5327796936035156
1695713149071854600,5.0468544921875,-0.20243072509765625,-5.207799911499023,2.4204845428466797
1695713149081406500,5.056406494140625,0.2434558868408203,-4.700824737548828,2.2075729370117188
1695713149090927900,5.065927978515625,0.13595199584960938,-4.222297668457031,2.0114307403564453
1695713149100480000,5.07547998046875,-0.48122215270996094,-3.7886886596679688,1.9467487335205078
1695713149110032000,5.085031982421875,-1.1912269592285156,-3.416767120361328,1.8533191680908203
1695713149119584000,5.094583984375,-1.8679924011230469,-3.096651077270508,1.6931114196777344
1695713149129105400,5.10410546875,-2.3848495483398438,-2.9571056365966797,1.5493736267089844
1695713149138657500,5.113657470703125,-3.1044368743896484,-3.028076171875,1.410726547241211
1695713149148209400,5.12320947265625,-3.8743324279785156,-3.1134204864501953,1.410726547241211
1695713149157761500,5.132761474609375,-4.112398147583008,-3.3194446563720703,1.6451988220214844
1695713149167313400,5.1423134765625,-4.119585037231445,-3.499715805053711,1.8988361358642578
1695713149176834800,5.151834716796875,-4.179176330566406,-3.727001190185547,1.9659137725830078
1695713149186387000,5.161386962890625,-4.226789474487305,-4.279193878173828,1.9515399932861328
1695713149195938800,5.170938720703125,-4.14354133605957,-5.198516845703125,1.9132099151611328
1695713149205491000,5.180490966796875,-4.086345672607422,-6.575105667114258,2.009035110473633
1695713149215012400,5.190012451171875,-3.9839324951171875,-8.413751602172852,2.1428909301757812
1695713149224564500,5.199564453125,-4.677167892456055,-10.875560760498047,1.8629016876220703
1695713149234116400,5.209116455078125,-6.752681732177734,-14.292028427124023,0.8315830230712891
1695713149243668500,5.21866845703125,-9.195026397705078,-18.075925827026367,0.4608592987060547
1695713149253220400,5.228220458984375,-10.424583435058594,-20.52605628967285,2.1380996704101562
1695713149262742000,5.237741943359375,-11.794584274291992,-19.727413177490234,3.6479454040527344
1695713149272294000,5.2472939453125,-14.551654815673828,-17.40784454345703,4.9709320068359375
1695713149281846000,5.256845947265625,-13.75091552734375,-13.140628814697266,5.693513870239258
1695713149291428400,5.266428466796875,-8.689847946166992,-7.529764175415039,5.320394515991211
1695713149300950000,5.275949951171875,-3.7075366973876953,-2.3836517333984375,4.504383087158203
1695713149310502000,5.285501953125,-2.2324275970458984,0.6351413726806641,4.372922897338867
1695713149320054000,5.295053955078125,-1.258005142211914,0.5402145385742188,4.666986465454102
1695713149329606000,5.30460595703125,-0.7216835021972656,-2.4453392028808594,4.401670455932617
1695713149339158000,5.314157958984375,-1.4556446075439453,-7.12939453125,4.109703063964844
1695713149348679400,5.323679443359375,-4.036336898803711,-13.882076263427734,4.430118560791016
1695713149358231300,5.333231201171875,-5.954338073730469,-21.345661163330078,4.174385070800781
1695713149367783400,5.342783447265625,-1.7440185546875,-24.200952529907227,3.815340042114258
1695713149377335300,5.352335205078125,5.492580413818359,-21.222585678100586,4.073768615722656
1695713149386857000,5.36185693359375,-1.6032752990722656,-15.128402709960938,0.8339786529541016
1695713149396408800,5.371408935546875,-6.781129837036133,-7.26923942565918,-2.726226806640625
1695713149405961000,5.3809609375,0.41234779357910156,-1.6443004608154297,-2.6902923583984375
1695713149415512800,5.390512939453125,4.425027847290039,0.5947151184082031,-1.2738761901855469
1695713149425065000,5.40006494140625,2.1282176971435547,-0.2581291198730469,-0.3120307922363281
1695713149434586400,5.40958642578125,-0.7312660217285156,-4.203132629394531,-0.713897705078125
1695713149444138500,5.419138427734375,-1.0196399688720703,-9.67654800415039,-1.3385581970214844
1695713149453690400,5.4286904296875,0.6890430450439453,-13.837158203125,-1.4053363800048828
1695713149463242500,5.438242431640625,2.2782440185546875,-15.547937393188477,-1.0633602142333984
1695713149472764000,5.447763916015625,2.776235580444336,-15.879732131958008,-0.2665138244628906
1695713149482315800,5.457315673828125,2.151874542236328,-14.97927474975586,0.4776287078857422
1695713149491868000,5.466867919921875,1.3918609619140625,-13.069658279418945,1.5281124114990234
1695713149501419800,5.476419677734375,0.5267391204833984,-10.780633926391602,2.8175601959228516
1695713149510972000,5.485971923828125,-0.9480705261230469,-8.714702606201172,3.9420089721679688
1695713149520493300,5.495493408203125,-2.3944320678710938,-7.406688690185547,4.286680221557617
1695713149530045400,5.50504541015625,-3.1283931732177734,-6.676919937133789,3.791383743286133
1695713149539597300,5.514597412109375,-2.334840774536133,-6.385551452636719,2.6956825256347656
1695713149549149400,5.5241494140625,-0.5072746276855469,-6.598762512207031,1.4706172943115234
1695713149558670800,5.5336708984375,1.4179134368896484,-7.195873260498047,0.3937816619873047
1695713149568223000,5.543222900390625,2.9214706420898438,-7.913663864135742,-0.3719215393066406
1695713149577805300,5.552805419921875,3.067005157470703,-8.539222717285156,-0.6231632232666016
1695713149587357400,5.562357421875,1.9066219329833984,-8.866226196289062,-0.48421669006347656
1695713149596909300,5.571909423828125,0.5959129333496094,-8.731172561645508,-0.3695259094238281
1695713149606431000,5.581430908203125,-0.2641181945800781,-8.458669662475586,-0.3288002014160156
1695713149615982800,5.59098291015625,-0.7432441711425781,-8.378116607666016,-0.17308425903320312
1695713149625535000,5.600534912109375,-0.6860485076904297,-8.463460922241211,-0.05599784851074219
1695713149635086800,5.6100869140625,-0.3048439025878906,-8.577253341674805,0.03503608703613281
1695713149644608300,5.619608154296875,0.2434558868408203,-8.750038146972656,0.09492683410644531
1695713149654160400,5.629160400390625,0.7246780395507812,-8.837778091430664,0.09941864013671875
1695713149663712300,5.638712158203125,0.8986606597900391,-8.766807556152344,0.027849197387695312
1695713149673264400,5.648264404296875,0.7579174041748047,-8.667089462280273,-0.024854660034179688
1695713149682816300,5.657816162109375,0.6411304473876953,-8.622171401977539,-0.08474540710449219
1695713149692338000,5.667337890625,0.3623390197753906,-8.634149551391602,-0.08474540710449219
1695713149701889800,5.676889892578125,-0.16649627685546875,-8.731172561645508,-0.015272140502929688
1695713149711442000,5.68644189453125,-0.8028354644775391,-8.970436096191406,0.09253120422363281
1695713149720993800,5.695993896484375,-1.367605209350586,-9.394462585449219,0.20482635498046875
1695713149730515500,5.705515380859375,-1.7607879638671875,-10.008342742919922,0.3674297332763672
1695713149740067300,5.7150673828125,-1.758392333984375,-10.50813102722168,0.4033641815185547
1695713149749619500,5.724619384765625,-1.7559967041015625,-10.771350860595703,0.3985729217529297
1695713149759171300,5.73417138671875,-1.7320404052734375,-10.612340927124023,0.28148651123046875
1695713149768723500,5.743723388671875,-0.9840049743652344,-10.486869812011719,0.15691375732421875
1695713149778244900,5.753244873046875,0.2003345489501953,-10.612340927124023,0.10181427001953125
1695713149787796700,5.762796630859375,1.008260726928711,-10.804290771484375,0.09253120422363281
1695713149797348900,5.772348876953125,1.0867176055908203,-10.839925765991211,-0.020063400268554688
1695713149806900700,5.781900634765625,0.7222824096679688,-10.875560760498047,-0.45307350158691406
1695713149816422400,5.79142236328125,0.14553451538085938,-11.07918930053711,-0.7857666015625
1695713149825974300,5.800974365234375,-0.42612266540527344,-11.42056655883789,-0.7977447509765625
1695713149835526400,5.8105263671875,-0.9028530120849609,-11.984437942504883,-0.5417118072509766
1695713149845078300,5.820078369140625,-1.2912445068359375,-12.574361801147461,-0.14673233032226562
1695713149854630400,5.82963037109375,-1.5008621215820312,-12.806438446044922,0.09941864013671875
1695713149864182300,5.839182373046875,-1.298431396484375,-13.017253875732422,-0.14673233032226562
1695713149873734400,5.848734375,-0.8240966796875,-13.773075103759766,-0.5297336578369141
1695713149883286300,5.858286376953125,-0.45726585388183594,-14.510030746459961,-0.8788967132568359
1695713149892838400,5.86783837890625,0.052703857421875,-14.886743545532227,-1.2666893005371094
1695713149902359800,5.87735986328125,1.1511001586914062,-14.796907424926758,-1.5706348419189453
1695713149911912000,5.886911865234375,2.330648422241211,-14.251901626586914,-1.4796009063720703
1695713149921463800,5.8964638671875,2.5166091918945312,-12.906156539916992,-0.5465030670166016
1695713149931016000,5.906015869140625,2.4426441192626953,-10.714454650878906,1.0400028228759766
1695713149940567800,5.91556787109375,2.607044219970703,-9.096206665039062,2.9421329498291016
1695713149950089200,5.925089111328125,2.161457061767578,-8.475439071655273,4.678964614868164
1695713149959641300,5.934641357421875,1.2726783752441406,-9.60557746887207,5.617153167724609
1695713149969193200,5.944193115234375,0.2075214385986328,-11.572090148925781,5.779756546020508
1695713149978745300,5.953745361328125,-0.9360923767089844,-13.031627655029297,5.234151840209961
1695713149988266800,5.963266845703125,-1.5367965698242188,-14.026712417602539,4.23158073425293
1695713149997819000,5.97281884765625,-2.0036449432373047,-14.503143310546875,3.176605224609375
1695713150007370800,5.982370849609375,-2.4992408752441406,-14.386955261230469,2.456418991088867
1695713150016923000,5.9919228515625,-2.6923885345458984,-13.78744888305664,2.0018482208251953
1695713150026474800,6.001474853515625,-2.720836639404297,-12.763916015625,1.8317584991455078
1695713150035996400,6.010996337890625,-1.8176841735839844,-12.157222747802734,2.0446701049804688
1695713150045548300,6.02054833984375,0.038330078125,-11.929937362670898,2.274351119995117
1695713150055100400,6.030100341796875,2.3926353454589844,-12.038938522338867,2.422880172729492
1695713150064652300,6.03965234375,3.9701576232910156,-12.057804107666016,2.2171554565429688
1695713150074173700,6.049173583984375,5.240140914916992,-10.823455810546875,1.367605209350586
1695713150083725800,6.058725830078125,4.289375305175781,-8.809329986572266,0.5255413055419922
1695713150093277700,6.068277587890625,1.84942626953125,-7.423158645629883,0.04461860656738281
1695713150102829800,6.077829833984375,0.13355636596679688,-6.69818115234375,0.21201324462890625
1695713150112381700,6.087381591796875,-0.5788440704345703,-6.238519668579102,0.7216835021972656
1695713150121903400,6.0969033203125,-1.2624969482421875,-5.973203659057617,1.2241668701171875
1695713150131455200,6.106455322265625,-1.5248184204101562,-5.804910659790039,1.6835289001464844
1695713150141007400,6.11600732421875,-1.5200271606445312,-5.653387069702148,2.1500778198242188
1695713150150589700,6.125589599609375,-1.5296096801757812,-5.300331115722656,2.432462692260742
1695713150160111400,6.135111328125,-0.9720268249511719,-4.857139587402344,2.4252758026123047
1695713150169663200,6.144663330078125,-0.2093181610107422,-4.62266731262207,2.1979904174804688
1695713150179215400,6.15421533203125,-0.059291839599609375,-4.46156120300293,1.9922657012939453
1695713150188767200,6.163767333984375,-0.45247459411621094,-4.345373153686523,1.9227924346923828
1695713150198289000,6.173288818359375,-0.8172092437744141,-4.210319519042969,1.8125934600830078
1695713150207840800,6.1828408203125,-1.0364093780517578,-4.03034782409668,1.7721672058105469
1695713150217393000,6.192392822265625,-1.2672882080078125,-3.7506580352783203,1.7458152770996094
1695713150226944800,6.20194482421875,-1.6152534484863281,-3.5658950805664062,1.7865409851074219
1695713150236497000,6.211496826171875,-2.134805679321289,-3.5847606658935547,1.8964405059814453
1695713150246018300,6.221018310546875,-2.5636234283447266,-3.7650318145751953,1.9802875518798828
1695713150255570200,6.230570068359375,-2.937641143798828,-4.011482238769531,2.0494613647460938
1695713150265122300,6.240122314453125,-3.2784194946289062,-4.253141403198242,2.0686264038085938
1695713150274674200,6.249674072265625,-3.6527366638183594,-4.641532897949219,2.0231094360351562
1695713150284226300,6.259226318359375,-4.324710845947266,-5.388071060180664,1.9275836944580078
1695713150293747700,6.268747802734375,-5.284759521484375,-6.501440048217773,1.9036273956298828
1695713150303299800,6.2782998046875,-6.2166595458984375,-8.043926239013672,2.0326919555664062
1695713150312851700,6.287851806640625,-7.33631706237793,-10.072126388549805,2.1045608520507812
1695713150322403800,6.29740380859375,-8.59941291809082,-13.078941345214844,1.6715507507324219
1695713150331925200,6.30692529296875,-8.930608749389648,-16.277706146240234,1.145111083984375
1695713150341477400,6.316477294921875,-7.9510955810546875,-18.77035903930664,2.0662307739257812
1695713150351029200,6.326029296875,-7.743873596191406,-19.727413177490234,3.8321094512939453
1695713150360581400,6.335581298828125,-11.658931732177734,-19.236907958984375,5.231756210327148
1695713150370102800,6.345102783203125,-14.551654815673828,-16.32262420654297,5.554866790771484
1695713150379654700,6.354654541015625,-11.601736068725586,-10.977375030517578,4.829889297485352
1695713150389206800,6.364206787109375,-5.087120056152344,-4.7457427978515625,3.834505081176758
1695713150398758700,6.373758544921875,-1.3268795013427734,0.3506603240966797,3.4494075775146484
1695713150408310800,6.383310791015625,-0.9648399353027344,2.5115184783935547,3.7746143341064453
1695713150417832200,6.392832275390625,-1.1648750305175781,1.2391395568847656,4.176780700683594
1695713150427384300,6.40238427734375,-1.1148662567138672,-1.9925651550292969,3.4754600524902344
1695713150436966700,6.411966552734375,-3.0688018798828125,-6.423282623291016,2.8415164947509766
1695713150446518800,6.421518798828125,-8.282291412353516,-12.913043975830078,2.530384063720703
1695713150456040200,6.431040283203125,-9.938570022583008,-19.656442642211914,2.1884078979492188
1695713150465592300,6.44059228515625,-1.4104270935058594,-22.494964599609375,3.13348388671875
1695713150475144200,6.450144287109375,8.87161636352539,-24.82651138305664,5.191030502319336
1695713150484696300,6.4596962890625,0.0026950836181640625,-21.69871711730957,1.042398452758789
1695713150494248200,6.469248291015625,-1.3316707611083984,-10.524900436401367,-3.427248001098633
1695713150503769900,6.478769775390625,6.255289077758789,-2.2414112091064453,-2.4390506744384766
1695713150513321700,6.48832177734375,6.328954696655273,0.8483524322509766,-0.3647346496582031
1695713150522873900,6.497873779296875,1.9731006622314453,0.3910865783691406,0.9849033355712891
1695713150532425700,6.50742578125,-3.102041244506836,-3.063711166381836,0.5662670135498047
1695713150541947100,6.516947021484375,-4.160011291503906,-8.631753921508789,0.023057937622070312
1695713150551499300,6.526499267578125,-1.4224052429199219,-13.330183029174805,-0.04401969909667969
1695713150561051100,6.536051025390625,0.915130615234375,-15.531167984008789,-0.09672355651855469
1695713150570603300,6.545603271484375,1.6514873504638672,-15.3511962890625,-0.5297336578369141
1695713150580124700,6.555124755859375,1.2202739715576172,-14.500747680664062,-0.20422744750976562
1695713150589676800,6.5646767578125,0.7842693328857422,-13.299339294433594,1.15948486328125
1695713150599228700,6.574228759765625,0.0742645263671875,-11.830219268798828,2.736408233642578
1695713150608780800,6.58378076171875,-1.4104270935058594,-9.977499008178711,3.4946250915527344
1695713150618332700,6.593332763671875,-2.0967750549316406,-8.276302337646484,2.8798465728759766
1695713150627854300,6.602854248046875,-1.8440361022949219,-7.124603271484375,1.7194633483886719
1695713150637406200,6.61240625,-0.6025009155273438,-6.326259613037109,0.6138801574707031
1695713150646958300,6.621958251953125,1.334665298461914,-6.61762809753418,-0.21380996704101562
1695713150656510200,6.63151025390625,2.845409393310547,-7.494428634643555,-0.5800418853759766
1695713150666062300,6.641062255859375,2.5022354125976562,-7.982538223266602,-0.656402587890625
1695713150675583700,6.650583740234375,1.4918785095214844,-8.063091278076172,-0.40036964416503906
1695713150685135600,6.660135498046875,0.7126998901367188,-7.932828903198242,-0.18266677856445312
1695713150694687700,6.669687744140625,-0.09732246398925781,-7.43034553527832,-0.1350536346435547
1695713150704239600,6.679239501953125,-0.44528770446777344,-7.1461639404296875,0.015871047973632812
1695713150713761300,6.68876123046875,-0.44528770446777344,-7.3473968505859375,0.5207500457763672
1695713150723343600,6.698343505859375,-0.07606124877929688,-7.752557754516602,0.6114845275878906
1695713150732895700,6.707895751953125,0.5482997894287109,-8.413751602172852,0.5923194885253906
1695713150742447600,6.717447509765625,1.2130870819091797,-9.117467880249023,0.5782451629638672
1695713150751999700,6.726999755859375,1.444265365600586,-9.442075729370117,0.4943981170654297
1695713150761521200,6.736521240234375,1.1534957885742188,-9.368410110473633,0.5135631561279297
1695713150771073300,6.7460732421875,0.48870849609375,-8.939592361450195,0.5758495330810547
1695713150780625200,6.755625244140625,-0.2045269012451172,-8.574857711791992,0.6450233459472656
1695713150790177300,6.76517724609375,-0.7836704254150391,-8.484722137451172,0.5279369354248047
1695713150799698700,6.77469873046875,-1.372396469116211,-8.81412124633789,0.3602428436279297
1695713150809250800,6.784250732421875,-1.7628841400146484,-9.302230834960938,0.26471710205078125
1695713150818802700,6.793802734375,-1.7868404388427734,-9.894550323486328,0.3985729217529297
1695713150828354800,6.803354736328125,-1.4152183532714844,-10.145792007446289,0.5471019744873047
1695713150837906700,6.81290673828125,-0.7645053863525391,-10.046073913574219,0.7264747619628906
1695713150847428000,6.822427978515625,-0.07845687866210938,-9.975103378295898,0.7767829895019531
1695713150856980200,6.831980224609375,0.4791259765625,-10.084104537963867,0.4057598114013672
1695713150866532000,6.841531982421875,0.7198867797851562,-10.420690536499023,-0.3647346496582031
1695713150876084200,6.851084228515625,0.8222999572753906,-11.001031875610352,-1.1445121765136719
1695713150885605600,6.860605712890625,0.934295654296875,-11.733196258544922,-1.4843921661376953
1695713150895157800,6.87015771484375,0.9938869476318359,-12.034147262573242,-1.4580402374267578
1695713150904709600,6.879709716796875,0.8199043273925781,-11.925146102905273,-1.2618980407714844
1695713150914261800,6.88926171875,0.3934822082519531,-11.583768844604492,-0.8932704925537109
1695713150923813600,6.898813720703125,-0.3024482727050781,-11.534059524536133,-0.18266677856445312
1695713150933335300,6.908335205078125,-1.1268444061279297,-11.873041152954102,0.7528266906738281
1695713150942887200,6.91788720703125,-1.9680099487304688,-12.237775802612305,1.4466609954833984
1695713150952439300,6.927439208984375,-2.249197006225586,-12.133565902709961,1.4993648529052734
1695713150961991200,6.9369912109375,-1.8200798034667969,-11.664621353149414,0.9944858551025391
1695713150971512600,6.9465126953125,-1.238840103149414,-11.498723983764648,0.16410064697265625
1695713150981064700,6.956064697265625,-0.5929183959960938,-12.036542892456055,-0.49379920959472656
1695713150990616600,6.965616455078125,0.493499755859375,-12.856147766113281,-1.1397209167480469
1695713151000168700,6.975168701171875,1.3083133697509766,-13.640417098999023,-1.7212600708007812
1695713151009751300,6.984751220703125,2.0066394805908203,-14.088399887084961,-1.9820842742919922
1695713151019272700,6.994272705078125,2.5022354125976562,-13.884471893310547,-1.9102153778076172
1695713151028824600,7.003824462890625,2.761861801147461,-13.429601669311523,-1.3026237487792969
1695713151038376700,7.013376708984375,2.9073963165283203,-12.507883071899414,-0.1254711151123047
1695713151047928600,7.022928466796875,2.8094749450683594,-11.043554306030273,1.6691551208496094
1695713151057450200,7.0324501953125,2.647470474243164,-9.638517379760742,3.810548782348633
1695713151067002000,7.042002197265625,2.0255050659179688,-8.762016296386719,5.425502777099609
1695713151076554200,7.05155419921875,1.2583045959472656,-9.498971939086914,6.248701095581055
1695713151086106000,7.061106201171875,0.9271087646484375,-10.643184661865234,6.303800582885742
1695713151095658200,7.070658203125,0.5839347839355469,-11.54124641418457,5.751008987426758
1695713151105179600,7.0801796875,0.08594322204589844,-12.61448860168457,4.669382095336914
1695713151114731800,7.089731689453125,-1.4292926788330078,-13.67605209350586,3.427846908569336
1695713151124283600,7.09928369140625,-3.931528091430664,-14.265975952148438,2.1021652221679688
1695713151133835800,7.108835693359375,-5.863903045654297,-13.844345092773438,0.7192878723144531
1695713151143357200,7.118357177734375,-5.909120559692383,-12.998388290405273,0.31262969970703125
1695713151152909000,7.127908935546875,-4.179176330566406,-12.237775802612305,0.6953315734863281
1695713151162461200,7.137461181640625,-1.2316532135009766,-11.813749313354492,1.5685386657714844
1695713151172013000,7.147012939453125,3.186187744140625,-12.315933227539062,2.7696475982666016
1695713151181565200,7.156565185546875,6.774541854858398,-12.68336296081543,3.0927581787109375
1695713151191086600,7.166086669921875,8.397281646728516,-11.216638565063477,2.1428909301757812
1695713151200638700,7.175638671875,5.871389389038086,-9.036914825439453,0.9441776275634766
1695713151210190600,7.185190673828125,3.016996383666992,-7.43992805480957,0.3602428436279297
1695713151219742700,7.19474267578125,0.474334716796875,-6.629606246948242,0.30783843994140625
1695713151229264100,7.20426416015625,-1.6152534484863281,-6.418790817260742,0.3794078826904297
1695713151238816300,7.213816162109375,-2.585184097290039,-6.385551452636719,0.7288703918457031
1695713151248368000,7.2233681640625,-2.561227798461914,-6.257684707641602,1.2481231689453125
1695713151257920300,7.232920166015625,-2.110849380493164,-6.319072723388672,1.9898700714111328
1695713151267472100,7.24247216796875,-1.5176315307617188,-6.321468353271484,2.698078155517578
1695713151276993500,7.25199365234375,-1.0004749298095703,-6.015726089477539,2.930154800415039
1695713151286545700,7.261545654296875,-0.7432441711425781,-5.558460235595703,2.872659683227539
1695713151296128300,7.271128173828125,-0.3120307922363281,-5.124851226806641,2.544757843017578
1695713151305680100,7.28068017578125,-0.054500579833984375,-4.5349273681640625,2.1955947875976562
1695713151315201500,7.290201416015625,-0.14733123779296875,-3.9237422943115234,1.8533191680908203
1695713151324753700,7.299753662109375,-0.3048439025878906,-3.4877376556396484,1.5924949645996094
1695713151334305500,7.309305419921875,-0.9148311614990234,-3.1843910217285156,1.506551742553711
1695713151343857700,7.318857666015625,-1.71527099609375,-3.101442337036133,1.6116600036621094
1695713151353409500,7.328409423828125,-2.5279884338378906,-3.2769222259521484,1.7458152770996094
1695713151362931200,7.33793115234375,-3.221223831176758,-3.5350513458251953,1.8173847198486328
1695713151372483000,7.347483154296875,-3.769224166870117,-3.864450454711914,1.8221759796142578
1695713151382035200,7.35703515625,-4.203132629394531,-4.290872573852539,1.7314414978027344
1695713151391587000,7.366587158203125,-4.527141571044922,-4.921222686767578,1.6691551208496094
1695713151401108700,7.376108642578125,-4.920324325561523,-5.902233123779297,1.6979026794433594
1695713151410660600,7.38566064453125,-5.346746444702148,-7.233604431152344,1.9275836944580078
1695713151420212700,7.395212646484375,-6.152276992797852,-8.889883041381836,2.1380996704101562
1695713151429764600,7.4047646484375,-7.281517028808594,-10.910896301269531,2.0494613647460938
1695713151439316700,7.414316650390625,-8.177482604980469,-13.401153564453125,1.391561508178711
1695713151448838100,7.423838134765625,-7.71782112121582,-16.064495086669922,1.0924072265625
1695713151458390000,7.43339013671875,-7.131490707397461,-18.48827362060547,2.1380996704101562
1695713151467942100,7.442942138671875,-9.087821960449219,-19.817548751831055,3.753053665161133
1695713151477494000,7.452493896484375,-12.328510284423828,-19.00962257385254,5.140722274780273
1695713151487015700,7.462015625,-11.280122756958008,-14.972087860107422,5.478206634521484
1695713151496567600,7.471567626953125,-6.33793830871582,-8.769203186035156,4.669382095336914
1695713151506119700,7.48111962890625,-2.709157943725586,-2.139596939086914,3.3487911224365234
1695713151515671600,7.490671630859375,-2.5444583892822266,2.182119369506836,2.626209259033203
1695713151525223700,7.5002236328125,-2.8804454803466797,3.499715805053711,2.379758834838867
1695713151534745000,7.5097451171875,-3.1544456481933594,1.8101978302001953,2.1189346313476562
1695713151544297200,7.519297119140625,-4.083950042724609,-1.94525146484375,1.2864532470703125
1695713151553849000,7.52884912109375,-5.854320526123047,-7.830715179443359,0.5614757537841797
1695713151563401200,7.538401123046875,-10.39134407043457,-16.116600036621094,0.3626384735107422
1695713151572922600,7.547922607421875,-11.589757919311523,-22.914199829101562,0.25992584228515625
1695713151582505200,7.557505126953125,-0.016469955444335938,-26.312101364135742,2.2003860473632812
1695713151592057000,7.56705712890625,15.691076278686523,-28.510690689086914,7.713029861450195
1695713151601609200,7.576609130859375,10.208377838134766,-23.722126007080078,7.988227844238281
1695713151611161000,7.5861611328125,-2.253988265991211,-9.66696548461914,1.6068687438964844
1695713151620682500,7.5956826171875,-2.084796905517578,0.15871047973632812,-1.2403373718261719
1695713151630234600,7.605234619140625,3.0406532287597656,3.7437705993652344,0.03743171691894531
1695713151639786500,7.614786376953125,3.7841968536376953,3.700948715209961,1.8437366485595703
1695713151649338600,7.624338623046875,2.4734878540039062,1.8646984100341797,3.0855712890625
1695713151658860000,7.633860107421875,-2.056049346923828,-3.8572635650634766,2.0806045532226562
1695713151668412200,7.643412109375,-3.421558380126953,-10.617132186889648,0.16410064697265625
1695713151677964000,7.652964111328125,-2.902006149291992,-15.867753982543945,-1.9485454559326172
1695713151687516200,7.66251611328125,-2.2372188568115234,-19.104249954223633,-2.8792476654052734
1695713151697068000,7.672068115234375,-0.026052474975585938,-19.30099105834961,-2.147083282470703
1695713151706589700,7.681589599609375,4.127370834350586,-16.581052780151367,-0.23057937622070312
1695713151716141600,7.6911416015625,6.190906524658203,-12.742654800415039,1.7745628356933594
1695713151725693700,7.700693603515625,4.139348983764648,-9.091415405273438,2.0638351440429688
1695713151735245600,7.71024560546875,2.295013427734375,-6.226840972900391,1.329275131225586
1695713151744767000,7.71976708984375,0.8270912170410156,-5.013753890991211,0.5995063781738281
1695713151754319000,7.729319091796875,-0.1260700225830078,-5.418914794921875,0.027849197387695312
1695713151763871000,7.73887109375,-0.5524921417236328,-6.650867462158203,-0.17787551879882812
1695713151773423000,7.748423095703125,-0.6048965454101562,-8.084352493286133,0.13535308837890625
1695713151782975000,7.75797509765625,-0.7504310607910156,-9.048593521118164,0.6905403137207031
1695713151792496600,7.76749658203125,-0.35724830627441406,-9.141124725341797,0.9010562896728516
1695713151802048500,7.777048583984375,-0.1428394317626953,-8.669485092163086,0.7887611389160156
1695713151811600600,7.7866005859375,-0.0068874359130859375,-7.984933853149414,0.4848155975341797
1695713151821152500,7.796152587890625,0.3434734344482422,-7.527667999267578,0.20961761474609375
1695713151830674000,7.805673828125,1.0438957214355469,-7.691169738769531,0.13295745849609375
1695713151840226000,7.81522607421875,1.458639144897461,-8.314033508300781,0.3698253631591797
1695713151849778200,7.824778076171875,1.6302261352539062,-9.02493667602539,0.4321117401123047
1695713151859330000,7.834330078125,1.4775047302246094,-9.401649475097656,0.3985729217529297
1695713151868912600,7.84391259765625,1.0058650970458984,-9.183647155761719,0.10660552978515625
1695713151878434000,7.85343408203125,0.3599433898925781,-8.882696151733398,-0.10391044616699219
1695713151887986200,7.862986083984375,-0.15451812744140625,-8.707515716552734,-0.2808876037597656
1695713151897538000,7.8725380859375,-0.5048789978027344,-8.558088302612305,-0.48900794982910156
1695713151907090200,7.882090087890625,-0.6692790985107422,-8.517961502075195,-0.6635894775390625
1695713151916611600,7.891611572265625,-0.6336441040039062,-8.78327751159668,-0.5896244049072266
1695713151926163500,7.90116357421875,-0.31891822814941406,-9.067758560180664,-0.3216133117675781
1695713151935715600,7.910715576171875,0.1907520294189453,-9.186042785644531,-0.010480880737304688
1695713151945267500,7.920267333984375,0.4958953857421875,-9.181251525878906,0.28627777099609375
1695713151954819600,7.929819580078125,0.45067787170410156,-9.21449089050293,0.5566844940185547
1695713151964341000,7.939341064453125,0.1979389190673828,-9.240543365478516,0.7097053527832031
1695713151973893000,7.94889306640625,-0.2952613830566406,-9.389970779418945,0.6737709045410156
1695713151983445000,7.958445068359375,-0.8148136138916016,-9.624443054199219,0.5063762664794922
1695713151992997000,7.9679970703125,-0.9100399017333984,-9.920602798461914,0.18326568603515625
1695713152002518500,7.9775185546875,-0.33808326721191406,-10.25718879699707,-0.04162406921386719
1695713152012070400,7.9870703125,0.5770473480224609,-10.54855728149414,-0.18027114868164062
1695713152021622500,7.99662255859375,1.2630958557128906,-10.676424026489258,-0.2641181945800781
1695713152031174700,8.006174560546874,1.2654914855957031,-10.787820816040039,-0.5033817291259766
1695713152040726500,8.0157265625,0.8055305480957031,-11.043554306030273,-0.8264923095703125
1695713152050248000,8.025248046875,0.14313888549804688,-11.463088989257812,-0.9076442718505859
1695713152059800000,8.034800048828124,-0.8788967132568359,-12.100326538085938,-0.43151283264160156
1695713152069352000,8.04435205078125,-1.8248710632324219,-12.728281021118164,0.3937816619873047
1695713152078904000,8.053904052734374,-2.0276012420654297,-12.986709594726562,1.06365966796875
1695713152088425500,8.063425537109374,-1.4484577178955078,-12.771102905273438,1.1762542724609375
1695713152097977600,8.0729775390625,-0.41204833984375,-12.837282180786133,0.6546058654785156
1695713152107529500,8.082529541015624,0.8914737701416016,-13.424810409545898,-0.3575477600097656
1695713152117081600,8.09208154296875,1.4227046966552734,-13.950950622558594,-1.5610523223876953
1695713152126603000,8.10160302734375,1.6850261688232422,-14.427082061767578,-2.489358901977539
1695713152136155000,8.11115478515625,2.4022178649902344,-14.962804794311523,-2.948720932006836
1695713152145707000,8.12070703125,2.9502182006835938,-15.064619064331055,-2.7046661376953125
1695713152155289600,8.13028955078125,3.057422637939453,-13.775470733642578,-1.7859420776367188
1695713152164841500,8.139841552734374,2.5070266723632812,-12.214118957519531,0.4488811492919922
1695713152174363100,8.149363037109374,2.1042613983154297,-10.944135665893555,3.4898338317871094
1695713152183915000,8.1589150390625,2.2926177978515625,-9.82597541809082,5.588405609130859
1695713152193467100,8.168467041015624,1.6206436157226562,-9.510650634765625,6.543064117431641
1695713152203019000,8.17801904296875,0.6842517852783203,-10.716850280761719,6.511920928955078
1695713152212571100,8.187571044921874,0.46505165100097656,-12.019773483276367,5.913612365722656
1695713152222092500,8.197092529296874,0.7459392547607422,-12.93460464477539,5.064361572265625
1695713152231644400,8.20664453125,1.2511177062988281,-13.649999618530273,4.31782341003418
1695713152241196500,8.216196533203124,1.2798652648925781,-14.069534301757812,3.820131301879883
1695713152250748400,8.22574853515625,0.08833885192871094,-13.77786636352539,3.279317855834961
1695713152260270000,8.23527001953125,-1.2864532470703125,-12.766311645507812,2.5136146545410156
1695713152269822000,8.244822021484374,-2.1084537506103516,-11.702352523803711,2.2411117553710938
1695713152279374000,8.2543740234375,-1.6344184875488281,-11.548433303833008,2.98974609375
1695713152288926000,8.263926025390624,-0.16410064697265625,-11.9014892578125,3.370351791381836
1695713152298447400,8.273447265625,2.311483383178711,-12.216514587402344,2.978067398071289
1695713152307999500,8.28299951171875,3.252666473388672,-12.117095947265625,2.1860122680664062
1695713152317551400,8.29255126953125,4.818210601806641,-11.027084350585938,0.5875282287597656
1695713152327103500,8.302103515625,3.2146358489990234,-9.273782730102539,-0.7067108154296875
1695713152336655600,8.311655517578124,0.7483348846435547,-8.006195068359375,-0.8645229339599609
1695713152346177000,8.321177001953124,-1.0576705932617188,-7.411479949951172,-0.42911720275878906
1695713152355729000,8.33072900390625,-1.6916141510009766,-6.991945266723633,0.19524383544921875
1695713152365281000,8.340281005859374,-1.258005142211914,-6.57750129699707,0.8483524322509766
1695713152374833000,8.3498330078125,-0.7192878723144531,-6.233728408813477,1.4897823333740234
1695713152384385000,8.359385009765624,-0.5572834014892578,-5.930681228637695,2.1213302612304688
1695713152393906400,8.368906494140624,-0.5000877380371094,-5.558460235595703,2.674121856689453
1695713152403458600,8.37845849609375,-0.035335540771484375,-5.075141906738281,2.891824722290039
1695713152413010400,8.388010498046874,-0.059291839599609375,-4.5421142578125,2.863077163696289
1695713152422562600,8.3975625,-0.2452526092529297,-4.035139083862305,2.549549102783203
1695713152432084000,8.407083984375,-0.5477008819580078,-3.464080810546875,2.1357040405273438
1695713152441666600,8.41666650390625,-1.1481056213378906,-2.9571056365966797,1.7290458679199219
1695713152451218400,8.426218505859374,-1.779653549194336,-2.6914901733398438,1.4035396575927734
1695713152460770600,8.4357705078125,-2.2920188903808594,-2.4998397827148438,1.1379241943359375
1695713152470292000,8.4452919921875,-2.7828235626220703,-2.468996047973633,0.9082431793212891
1695713152479843800,8.45484375,-3.1831932067871094,-2.665437698364258,0.8699131011962891
1695713152489396000,8.46439599609375,-3.442819595336914,-3.0873680114746094,1.0304203033447266
1695713152498948000,8.473947998046874,-3.7287979125976562,-3.736583709716797,1.453847885131836
1695713152508500000,8.4835,-4.081554412841797,-4.312433242797852,1.7958240509033203
1695713152518021400,8.493021484375,-4.434011459350586,-4.802639007568359,1.8437366485595703
1695713152527573500,8.502573486328124,-4.822702407836914,-5.307518005371094,1.7362327575683594
1695713152537125400,8.51212548828125,-5.3015289306640625,-6.05615234375,1.7266502380371094
1695713152546677500,8.521677490234374,-5.883068084716797,-7.224321365356445,1.8533191680908203
1695713152556229400,8.5312294921875,-7.114721298217773,-9.141124725341797,1.9826831817626953
1695713152565751000,8.5407509765625,-8.277799606323242,-11.946407318115234,1.9227924346923828
1695713152575303000,8.550302978515624,-8.377817153930664,-15.161642074584961,1.8149890899658203
1695713152584855000,8.55985498046875,-8.215812683105469,-18.234636306762695,2.4444408416748047
1695713152594407000,8.569406982421874,-8.284687042236328,-19.96218490600586,3.6958580017089844
1695713152603928300,8.57892822265625,-11.175313949584961,-19.80317497253418,4.9038543701171875
1695713152613480400,8.58848046875,-13.393667221069336,-17.40544891357422,5.889656066894531
1695713152623032300,8.5980322265625,-10.403022766113281,-12.318328857421875,5.851325988769531
1695713152632584400,8.60758447265625,-5.594694137573242,-5.774066925048828,4.769998550415039
1695713152642105900,8.61710595703125,-3.2379932403564453,-0.2132110595703125,4.150428771972656
1695713152651671300,8.62667138671875,-2.094379425048828,2.212963104248047,4.686151504516602
1695713152661223200,8.63622314453125,-0.31412696838378906,1.319692611694336,5.439876556396484
1695713152670775300,8.645775390625,-0.4096527099609375,-1.9973564147949219,5.12664794921875
1695713152680327200,8.6553271484375,-2.5423622131347656,-6.845212936401367,4.98291015625
1695713152689848800,8.664848876953124,-7.043451309204102,-14.005451202392578,4.9038543701171875
1695713152699400700,8.674400634765625,-9.042604446411133,-21.153711318969727,3.6048240661621094
1695713152708952800,8.683952880859374,-1.9227924346923828,-23.98295021057129,2.9085941314697266
1695713152718504700,8.693504638671875,7.613311767578125,-23.208263397216797,3.2912960052490234
1695713152728056800,8.703056884765624,-2.3228626251220703,-17.63782501220703,-0.8956661224365234
1695713152737608700,8.712608642578125,-2.432462692260742,-8.193353652954102,-3.797971725463867
1695713152747160800,8.722160888671874,5.530910491943359,-1.108877182006836,-2.3096866607666016
1695713152756712700,8.731712646484375,5.409332275390625,1.518829345703125,-0.38839149475097656
1695713152766264800,8.741264892578124,1.2346477508544922,0.40516090393066406,0.3985729217529297
1695713152775786200,8.7507861328125,-2.9592018127441406,-4.340581893920898,-0.3695259094238281
1695713152785338000,8.760338134765625,-2.61602783203125,-10.072126388549805,-0.8312835693359375
1695713152794890200,8.76989013671875,-0.10930061340332031,-14.19740104675293,-0.9076442718505859
1695713152804442000,8.779442138671875,2.345022201538086,-15.74228286743164,-0.8264923095703125
1695713152813963800,8.7889638671875,3.231405258178711,-15.519489288330078,-0.7929534912109375
1695713152823515600,8.798515625,3.0646095275878906,-14.735219955444336,-0.3192176818847656
1695713152833067800,8.80806787109375,1.9159049987792969,-13.029232025146484,1.106781005859375
1695713152842619600,8.81761962890625,-0.030843734741210938,-11.292400360107422,2.867868423461914
1695713152852171800,8.827171875,-2.325258255004883,-9.738235473632812,4.054603576660156
1695713152861693200,8.836693115234375,-3.585958480834961,-8.105613708496094,4.033042907714844
1695713152871245300,8.846245361328124,-2.809175491333008,-7.013505935668945,3.2077484130859375
1695713152880797200,8.855797119140625,-1.1505012512207031,-6.473291397094727,2.0877914428710938
1695713152890349300,8.865349365234374,0.7342605590820312,-6.2669677734375,1.037607192993164
1695713152899870700,8.87487060546875,2.3378353118896484,-6.605949401855469,0.08773994445800781
1695713152909422600,8.884422607421875,3.181396484375,-7.534555435180664,-0.39557838439941406
1695713152918974700,8.893974609375,2.7834224700927734,-8.458669662475586,-0.48661231994628906
1695713152928526600,8.903526611328125,1.7922306060791016,-8.996488571166992,-0.5728549957275391
1695713152938078700,8.91307861328125,0.41474342346191406,-8.776090621948242,-0.5944156646728516
1695713152947600100,8.92260009765625,-0.7264747619628906,-8.217010498046875,-0.5632724761962891
1695713152957152300,8.93215234375,-1.4484577178955078,-8.089143753051758,-0.3288002014160156
1695713152966704000,8.9417041015625,-1.334066390991211,-8.285884857177734,-0.10391044616699219
1695713152976256300,8.95125634765625,-0.5812397003173828,-8.473043441772461,-0.07755851745605469
1695713152985777700,8.960777587890625,0.3338909149169922,-8.645828247070312,-0.07995414733886719
1695713152995329500,8.97032958984375,1.2178783416748047,-8.79286003112793,-0.0032939910888671875
1695713153004881700,8.979881591796875,1.6038742065429688,-8.764411926269531,0.05659675598144531
1695713153014464300,8.98946435546875,1.449056625366211,-8.487117767333984,0.08534431457519531
1695713153024016100,8.99901611328125,1.0986957550048828,-8.257436752319336,0.11618804931640625
1695713153033537800,9.008537841796874,0.6411304473876953,-8.224197387695312,0.16889190673828125
1695713153043089700,9.018089599609375,0.014673233032226562,-8.425430297851562,0.24315643310546875
1695713153052641800,9.027641845703124,-0.8028354644775391,-8.78327751159668,0.29586029052734375
1695713153062193700,9.037193603515625,-1.5556621551513672,-9.297439575195312,0.4201335906982422
1695713153071715000,9.046715087890625,-1.9416580200195312,-9.844841003417969,0.6162757873535156
1695713153081267200,9.05626708984375,-1.8868579864501953,-10.131418228149414,0.7815742492675781
1695713153090819000,9.065819091796875,-1.348440170288086,-10.209575653076172,0.9345951080322266
1695713153100371200,9.07537109375,-0.5668659210205078,-10.342233657836914,1.0304203033447266
1695713153109923000,9.084923095703125,0.021860122680664062,-10.541370391845703,0.8459568023681641
1695713153119444700,9.09444482421875,0.46026039123535156,-10.906404495239258,0.5423107147216797
1695713153128996600,9.10399658203125,0.8007392883300781,-11.304378509521484,0.24076080322265625
1695713153138548700,9.113548828125,1.008260726928711,-11.562507629394531,-0.15631484985351562
1695713153148100600,9.1231005859375,0.8151130676269531,-11.624195098876953,-0.6300506591796875
1695713153157622300,9.132622314453124,0.014673233032226562,-11.602933883666992,-0.9747219085693359
1695713153167174100,9.142174072265625,-0.7336616516113281,-11.77122688293457,-0.9459743499755859
1695713153176726300,9.151726318359374,-1.2556095123291016,-12.335098266601562,-0.5632724761962891
1695713153186278100,9.161278076171875,-1.324483871459961,-12.908252716064453,-0.24495315551757812
1695713153195830300,9.170830322265624,-0.6240615844726562,-13.157098770141602,-0.45067787170410156
1695713153205351700,9.1803515625,0.17188644409179688,-13.659582138061523,-1.0777339935302734
1695713153214903600,9.189903564453125,0.6342430114746094,-14.49835205078125,-1.6565780639648438
1695713153224455700,9.19945556640625,0.7459392547607422,-14.742406845092773,-2.0919837951660156
1695713153234007600,9.209007568359375,1.0654563903808594,-14.280349731445312,-2.7477874755859375
1695713153243529200,9.218529296875,2.464204788208008,-13.969816207885742,-2.929555892944336
1695713153253081000,9.2280810546875,3.643453598022461,-13.351444244384766,-2.393533706665039
1695713153262633200,9.23763330078125,3.972553253173828,-12.351568222045898,-0.9172267913818359
1695713153272185000,9.24718505859375,3.512592315673828,-11.126502990722656,1.013650894165039
1695713153281737200,9.2567373046875,3.126596450805664,-10.233232498168945,2.915781021118164
1695713153291289000,9.2662890625,2.909791946411133,-9.622047424316406,4.779581069946289
1695713153300841200,9.27584130859375,2.111448287963867,-9.430097579956055,5.600383758544922
1695713153310393000,9.28539306640625,0.953460693359375,-10.1766357421875,5.382381439208984
1695713153319945200,9.2949453125,0.15032577514648438,-11.105241775512695,4.97332763671875
1695713153329466600,9.304466552734375,0.0598907470703125,-11.82093620300293,4.624164581298828
1695713153339018800,9.314018798828124,0.3958778381347656,-12.498600006103516,4.267515182495117
1695713153348570600,9.323570556640625,0.41953468322753906,-13.007970809936523,3.9279346466064453
1695713153358122800,9.333122802734374,-0.45007896423339844,-13.13583755493164,3.631175994873047
1695713153367674600,9.342674560546875,-1.684427261352539,-12.598018646240234,3.19097900390625
1695713153377196000,9.352196044921875,-2.284832000732422,-11.813749313354492,3.303274154663086
1695713153386748200,9.361748046875,-1.5484752655029297,-11.711935043334961,4.009086608886719
1695713153396300000,9.371300048828125,0.2171039581298828,-11.948802947998047,4.233976364135742
1695713153405852200,9.38085205078125,2.635791778564453,-12.05301284790039,3.602428436279297
1695713153415373600,9.39037353515625,4.306144714355469,-12.285388946533203,2.762460708618164
1695713153424925700,9.39992578125,4.9469757080078125,-11.645456314086914,1.343648910522461
1695713153434477600,9.4094775390625,4.375019073486328,-10.202688217163086,-0.18985366821289062
1695713153444029700,9.41902978515625,1.5990829467773438,-8.759620666503906,-0.8217010498046875
1695713153453581600,9.42858154296875,-0.6525096893310547,-7.984933853149414,-0.646820068359375
1695713153463103000,9.43810302734375,-1.8536186218261719,-7.754953384399414,-0.07516288757324219
1695713153472655000,9.447655029296875,-1.9512405395507812,-7.612712860107422,0.6570014953613281
1695713153482207200,9.457207275390624,-1.5176315307617188,-7.5582122802734375,1.391561508178711
1695713153491759000,9.466759033203125,-0.9576530456542969,-7.49921989440918,1.9778919219970703
1695713153501280500,9.476280517578125,-0.8028354644775391,-7.442323684692383,2.5615272521972656
1695713153510832600,9.48583251953125,-0.3120307922363281,-7.266843795776367,2.915781021118164
1695713153520384500,9.495384521484375,0.5174560546875,-6.785921096801758,2.944528579711914
1695713153529936600,9.5049365234375,0.9795131683349609,-5.913911819458008,2.7983951568603516
1695713153539488500,9.514488525390625,1.0295219421386719,-5.011358261108398,2.5854835510253906
1695713153549010200,9.52401025390625,0.5054779052734375,-4.158214569091797,2.3677806854248047
1695713153558562000,9.53356201171875,-0.20003509521484375,-3.390714645385742,2.0302963256835938
1695713153568114200,9.5431142578125,-1.1792488098144531,-2.6678333282470703,1.6236381530761719
1695713153577666000,9.552666015625,-2.006040573120117,-2.2602767944335938,1.343648910522461
1695713153587218200,9.56221826171875,-2.763957977294922,-2.3363380432128906,1.1858367919921875
1695713153596770000,9.57177001953125,-3.4595890045166016,-2.473787307739258,0.9513645172119141
1695713153606322200,9.581322265625,-3.7859935760498047,-2.9142837524414062,0.9561557769775391
1695713153615874000,9.5908740234375,-4.000402450561523,-3.601530075073242,1.1331329345703125
1695713153625426200,9.60042626953125,-4.281589508056641,-4.217506408691406,1.25531005859375
1695713153634947600,9.609947509765625,-4.805932998657227,-4.641532897949219,1.1954193115234375
1695713153644499700,9.619499755859374,-5.539894104003906,-5.170068740844727,1.1570892333984375
1695713153654051600,9.629051513671875,-6.349916458129883,-5.91630744934082,1.2050018310546875
1695713153663603700,9.638603759765624,-7.038660049438477,-7.150655746459961,1.3795833587646484
1695713153673125000,9.648125,-8.029851913452148,-9.221677780151367,1.6164512634277344
1695713153682677000,9.657677001953125,-9.037813186645508,-11.88232421875,2.1189346313476562
1695713153692229000,9.66722900390625,-9.035417556762695,-14.135713577270508,2.3725719451904297
1695713153701781000,9.676781005859375,-8.182273864746094,-15.718626022338867,2.0806045532226562
1695713153711333000,9.6863330078125,-8.461065292358398,-16.571470260620117,1.6811332702636719
1695713153720854500,9.6958544921875,-10.767757415771484,-16.211227416992188,1.6068687438964844
1695713153730406700,9.70540673828125,-12.221305847167969,-14.815773010253906,1.8964405059814453
1695713153739958500,9.71495849609375,-10.560535430908203,-11.780509948730469,2.394132614135742
1695713153749510700,9.7245107421875,-5.773168563842773,-7.574981689453125,2.978067398071289
1695713153759032000,9.734031982421875,-2.313579559326172,-3.3739452362060547,3.5042076110839844
1695713153768584000,9.743583984375,-1.5939922332763672,-0.6680812835693359,4.025856018066406
1695713153778136000,9.753135986328125,-1.4724140167236328,-0.7510299682617188,4.444492340087891
1695713153787688000,9.76268798828125,-1.6368141174316406,-3.485342025756836,4.198041915893555
1695713153797240000,9.772239990234375,-4.291172027587891,-8.098426818847656,4.640933990478516
1695713153806761500,9.781761474609375,-8.851852416992188,-14.675928115844727,4.825098037719727
1695713153816313600,9.791313720703124,-7.002725601196289,-20.537734985351562,4.571460723876953
1695713153825865500,9.800865478515625,5.335367202758789,-22.416807174682617,5.842042922973633
1695713153835417600,9.81041748046875,12.214717864990234,-23.407100677490234,5.798921585083008
1695713153844939000,9.81993896484375,-0.8956661224365234,-16.206436157226562,-0.2737007141113281
1695713153854491100,9.8294912109375,-1.3172969818115234,-6.885339736938477,-2.065631866455078
1695713153864073500,9.839073486328125,3.626983642578125,-1.3954544067382812,0.013475418090820312
1695713153873625600,9.84862548828125,0.5698604583740234,0.3695259094238281,1.2529144287109375
1695713153883177500,9.858177490234375,-4.977519989013672,-1.0852203369140625,0.3985729217529297
1695713153892699100,9.86769921875,-6.552646636962891,-5.686626434326172,-0.809722900390625
1695713153902251000,9.8772509765625,-1.8820667266845703,-10.991449356079102,-0.46265602111816406
1695713153911803100,9.88680322265625,2.3878440856933594,-14.600166320800781,-0.19224929809570312
1695713153921355000,9.89635498046875,4.372623443603516,-16.36305046081543,-0.5824375152587891
1695713153930876400,9.90587646484375,3.8961925506591797,-16.531044006347656,-1.0681514739990234
1695713153940428500,9.915428466796875,2.6046485900878906,-15.467384338378906,-0.71868896484375
1695713153949980400,9.92498046875,1.2202739715576172,-13.514945983886719,0.5947151184082031
1695713153959532500,9.934532470703125,-0.2737007141113281,-11.15974235534668,2.0782089233398438
1695713153969084700,9.944084716796874,-1.6008796691894531,-9.115072250366211,2.7936038970947266
1695713153978606000,9.953606201171874,-1.739227294921875,-7.335718154907227,2.602252960205078
1695713153988158000,9.963157958984375,-0.8648223876953125,-6.113048553466797,1.9587268829345703
1695713153997710000,9.9727099609375,0.06707763671875,-5.907024383544922,1.453847885131836
1695713154007262000,9.982261962890625,0.6842517852783203,-6.191205978393555,0.8794956207275391
1695713154016783600,9.99178369140625,1.0750389099121094,-6.755077362060547,0.3794078826904297
1695713154026335500,10.00133544921875,1.2154827117919922,-7.923246383666992,0.15212249755859375
1695713154035887600,10.0108876953125,1.2226696014404297,-9.065362930297852,0.09492683410644531
1695713154045439500,10.020439453125,0.953460693359375,-9.451358795166016,-0.10870170593261719
1695713154054991600,10.02999169921875,0.3027477264404297,-9.176759719848633,-0.3695259094238281
1695713154064513000,10.039512939453125,-0.2952613830566406,-8.875808715820312,-0.24016189575195312
1695713154074065000,10.04906494140625,-0.8860836029052734,-8.527544021606445,0.08773994445800781
1695713154083617000,10.058616943359375,-1.1340312957763672,-8.055904388427734,0.13295745849609375
1695713154093169000,10.0681689453125,-0.7408485412597656,-7.842693328857422,0.027849197387695312
1695713154102690600,10.077690673828124,-0.021261215209960938,-7.821432113647461,-0.1350536346435547
1695713154112242400,10.087242431640625,0.9082431793212891,-7.954090118408203,-0.3120307922363281
1695713154121794600,10.096794677734374,1.5038566589355469,-8.09153938293457,-0.48182106018066406
1695713154131346400,10.106346435546875,1.425100326538086,-8.240667343139648,-0.5441074371337891
1695713154140898600,10.115898681640624,0.9771175384521484,-8.333198547363281,-0.49379920959472656
1695713154150450400,10.125450439453125,0.3719215393066406,-8.406564712524414,-0.3120307922363281
1695713154160002600,10.13500244140625,-0.2356700897216797,-8.456274032592773,-0.10630607604980469
1695713154169554400,10.144554443359375,-0.7360572814941406,-8.671880722045898,0.14014434814453125
1695713154179106600,10.1541064453125,-1.0004749298095703,-9.188438415527344,0.3865947723388672
1695713154188628000,10.1636279296875,-1.1505012512207031,-9.754705429077148,0.5087718963623047
1695713154198180000,10.17318017578125,-1.2816619873046875,-10.110157012939453,0.5159587860107422
1695713154207732000,10.18273193359375,-1.214883804321289,-10.309293746948242,0.4345073699951172
1695713154217284000,10.1922841796875,-0.7384529113769531,-10.477287292480469,0.29586029052734375
1695713154226805500,10.201805419921875,-0.059291839599609375,-10.674028396606445,0.12816619873046875
1695713154236357400,10.211357421875,0.512664794921875,-10.882448196411133,0.06138801574707031
1695713154245909500,10.220909423828125,0.6078910827636719,-11.150459289550781,0.14493560791015625
1695713154255461400,10.23046142578125,0.2266864776611328,-11.356483459472656,0.20961761474609375
1695713154265013500,10.240013427734375,-0.2117137908935547,-11.32084846496582,-0.029645919799804688
1695713154274535000,10.249534912109375,-0.7073097229003906,-11.403797149658203,-0.38360023498535156
1695713154284087000,10.259087158203124,-0.8884792327880859,-11.560111999511719,-0.5800418853759766
1695713154293639000,10.268638916015625,-0.9313011169433594,-11.944011688232422,-0.38599586486816406
1695713154303191000,10.27819091796875,-1.27447509765625,-12.335098266601562,-0.012876510620117188
1695713154312743000,10.287742919921875,-1.5200271606445312,-12.424934387207031,0.14253997802734375
1695713154322264600,10.2972646484375,-1.3652095794677734,-12.337493896484375,-0.03922843933105469
1695713154331816400,10.30681640625,-0.8004398345947266,-12.278202056884766,-0.6396331787109375
1695713154341368600,10.31636865234375,-0.32850074768066406,-12.702228546142578,-1.3981494903564453
1695713154350920400,10.32592041015625,0.3767127990722656,-13.595499038696289,-2.218952178955078
1695713154360441900,10.33544189453125,1.6634654998779297,-14.093191146850586,-2.987051010131836
1695713154369994000,10.344993896484375,3.081378936767578,-14.05755615234375,-3.262248992919922
1695713154379545900,10.3545458984375,4.010583877563477,-13.737739562988281,-2.8552913665771484
1695713154389098000,10.364097900390625,3.9866275787353516,-12.89417839050293,-1.7068862915039062
1695713154398619400,10.373619384765625,3.276622772216797,-11.759248733520508,0.5279369354248047
1695713154408171500,10.383171630859374,2.850200653076172,-10.460817337036133,2.843912124633789
1695713154417723400,10.392723388671875,2.185413360595703,-9.66696548461914,4.894571304321289
1695713154427275500,10.402275634765624,0.7246780395507812,-10.105365753173828,6.275053024291992
1695713154436827400,10.411827392578125,-0.4857139587402344,-11.188190460205078,6.631402969360352
1695713154446379500,10.421379638671874,-0.6620922088623047,-11.927541732788086,6.528690338134766
1695713154455931400,10.430931396484375,-0.06408309936523438,-12.406068801879883,6.114545822143555
1695713154465483500,10.4404833984375,0.3458690643310547,-12.946283340454102,5.0188446044921875
1695713154475035400,10.450035400390625,-0.4833183288574219,-13.448766708374023,3.863252639770508
1695713154484587500,10.45958740234375,-2.2132625579833984,-13.420318603515625,2.688495635986328
1695713154494109000,10.46910888671875,-3.195171356201172,-12.71420669555664,1.6883201599121094
1695713154503661000,10.4786611328125,-2.8256454467773438,-12.157222747802734,1.240936279296875
1695713154513213000,10.488212890625,-1.358022689819336,-12.067386627197266,1.5469779968261719
1695713154522765000,10.49776513671875,1.4014434814453125,-12.420442581176758,2.6429786682128906
1695713154532286500,10.507286376953125,3.731792449951172,-13.216390609741211,3.5808677673339844
1695713154541838300,10.51683837890625,4.93499755859375,-13.010366439819336,3.0017242431640625
1695713154551390500,10.526390380859375,4.253440856933594,-11.150459289550781,1.2193756103515625
1695713154560942300,10.5359423828125,2.854991912841797,-9.205207824707031,0.09492683410644531
1695713154570464000,10.545464111328124,0.5770473480224609,-8.084352493286133,-0.42432594299316406
1695713154580015900,10.555015869140625,-1.5724315643310547,-7.378240585327148,-0.37641334533691406
1695713154589568000,10.564568115234374,-2.110849380493164,-6.9209747314453125,0.030244827270507812
1695713154599120000,10.574119873046875,-1.8727836608886719,-6.641284942626953,0.6450233459472656
1695713154608672000,10.583672119140624,-1.703592300415039,-6.352312088012695,1.405935287475586
1695713154618193400,10.593193359375,-1.0936050415039062,-6.011234283447266,2.1117477416992188
1695713154627745500,10.60274560546875,-0.37371826171875,-5.499467849731445,2.466001510620117
1695713154637297400,10.61229736328125,-0.044918060302734375,-4.992193222045898,2.5902748107910156
1695713154646849500,10.621849609375,-0.32370948791503906,-4.414247512817383,2.5759010314941406
1695713154656401400,10.6314013671875,-0.2069225311279297,-3.983034133911133,2.3821544647216797
1695713154665922800,10.6409228515625,-0.052104949951171875,-3.591947555541992,2.018617630004883
1695713154675475000,10.650474853515625,-0.32850074768066406,-3.181995391845703,1.7482109069824219
1695713154685026800,10.66002685546875,-0.8860836029052734,-2.7367076873779297,1.5613517761230469
1695713154694579000,10.669578857421875,-1.3700008392333984,-2.4474353790283203,1.4466609954833984
1695713154704100400,10.679100341796875,-1.7464141845703125,-2.438152313232422,1.4131221771240234
1695713154713652500,10.688652587890624,-2.4396495819091797,-2.5896759033203125,1.348440170288086
1695713154723234800,10.69823486328125,-3.002023696899414,-3.0140018463134766,1.3508358001708984
1695713154732787000,10.707786865234375,-3.338010787963867,-3.6087169647216797,1.415517807006836
1695713154742308400,10.717308349609375,-3.492828369140625,-4.395082473754883,1.4370784759521484
1695713154751860500,10.726860595703124,-3.9195499420166016,-5.513542175292969,1.468221664428711
1695713154761412400,10.736412353515625,-4.908346176147461,-6.741003036499023,1.5445823669433594
1695713154770964500,10.745964599609374,-6.121133804321289,-8.309541702270508,1.6451988220214844
1695713154780486000,10.75548583984375,-7.562704086303711,-10.456026077270508,1.6140556335449219
1695713154790038000,10.7650380859375,-9.557365417480469,-13.649999618530273,0.9250125885009766
1695713154799590000,10.77458984375,-9.623844146728516,-16.796659469604492,0.14014434814453125
1695713154809142000,10.78414208984375,-8.051412582397461,-18.222957611083984,0.8579349517822266
1695713154818694000,10.79369384765625,-8.001104354858398,-18.220561981201172,2.408506393432617
1695713154828215300,10.80321533203125,-10.670135498046875,-17.36532211303711,4.023460388183594
1695713154837767400,10.812767333984375,-12.023366928100586,-14.955617904663086,5.054779052734375
1695713154847319300,10.8223193359375,-9.564252853393555,-10.915687561035156,5.260503768920898
1695713154856871400,10.831871337890625,-5.217981338500977,-5.681835174560547,4.805932998657227
1695713154866423300,10.84142333984375,-2.5136146545410156,-0.9902935028076172,4.458866119384766
1695713154875945000,10.850945068359374,-2.3276538848876953,1.7224578857421875,4.516361236572266
1695713154885496800,10.860496826171875,-2.4636058807373047,2.4213829040527344,4.456470489501953
1695713154895049000,10.870049072265624,-1.9940624237060547,0.9381885528564453,4.494800567626953
1695713154904600800,10.879600830078125,-2.284832000732422,-2.350412368774414,4.262723922729492
1695713154914122500,10.88912255859375,-3.5383453369140625,-7.726505279541016,4.214811325073242
1695713154923674400,10.89867431640625,-6.752681732177734,-15.206560134887695,4.509174346923828
1695713154933226500,10.9082265625,-9.557365417480469,-23.82184410095215,4.148033142089844
1695713154942778400,10.9177783203125,-9.116270065307617,-29.977415084838867,2.757669448852539
1695713154952330500,10.92733056640625,1.429891586303711,-28.650535583496094,2.5375709533691406
1695713154961852000,10.936851806640625,5.68812370300293,-23.1229190826416,3.8896045684814453
1695713154971403800,10.94640380859375,-4.760715484619141,-12.761520385742188,-1.104085922241211
1695713154980956000,10.955955810546875,-2.4016189575195312,-2.1372013092041016,-4.432214736938477
1695713154990507800,10.9655078125,7.246480941772461,5.018245697021484,-3.209545135498047
1695713155000060000,10.975059814453125,8.0684814453125,6.364290237426758,-0.8600311279296875
1695713155009611800,10.98461181640625,5.078136444091797,3.9614734649658203,0.8127174377441406
1695713155019164000,10.994163818359375,0.25753021240234375,-2.2626724243164062,0.06378364562988281
1695713155028715800,11.0037158203125,-2.1656494140625,-9.695413589477539,-0.8217010498046875
1695713155038268000,11.013267822265625,-1.5104446411132812,-14.692697525024414,-1.2187767028808594
1695713155047789300,11.022789306640625,-0.07366561889648438,-17.16618537902832,-0.43630409240722656
1695713155057341400,11.032341552734374,1.365509033203125,-17.443479537963867,0.6019020080566406
1695713155066893300,11.041893310546875,2.190204620361328,-17.043109893798828,1.2433319091796875
1695713155076445400,11.051445556640624,2.306692123413086,-15.06941032409668,2.480375289916992
1695713155085966800,11.060966796875,1.0391044616699219,-11.934728622436523,3.650341033935547
1695713155095519000,11.07051904296875,-1.4484577178955078,-9.333074569702148,4.100120544433594
1695713155105070800,11.08007080078125,-2.6875972747802734,-7.328531265258789,3.4494075775146484
1695713155114623000,11.089623046875,-2.480375289916992,-6.295415878295898,2.0255050659179688
1695713155124174800,11.0991748046875,-1.1460094451904297,-6.184019088745117,0.5518932342529297
1695713155133696300,11.1086962890625,0.8938694000244141,-6.904504776000977,-0.5105686187744141
1695713155143248400,11.118248291015625,2.905000686645508,-8.465856552124023,-0.9555568695068359
1695713155152800300,11.12780029296875,3.707836151123047,-9.527420043945312,-0.8645229339599609
1695713155162352400,11.137352294921875,2.5354747772216797,-9.60557746887207,-0.5920200347900391
1695713155171873800,11.146873779296875,0.7031173706054688,-8.818912506103516,-0.44588661193847656
1695713155181426000,11.156426025390624,-0.37371826171875,-8.063091278076172,-0.1302623748779297
1695713155190977800,11.165977783203125,-0.7264747619628906,-7.686378479003906,0.15930938720703125
1695713155200530000,11.175530029296874,-0.6048965454101562,-7.745370864868164,0.4752330780029297
1695713155210081800,11.185081787109375,-0.1284656524658203,-8.100822448730469,0.6593971252441406
1695713155219603500,11.194603515625,0.46505165100097656,-8.44219970703125,0.5779457092285156
1695713155229155300,11.2041552734375,0.9654388427734375,-8.82370376586914,0.4153423309326172
1695713155238707500,11.21370751953125,1.1367263793945312,-8.94438362121582,0.15212249755859375
1695713155248259300,11.22325927734375,0.7007217407226562,-8.738359451293945,-0.12307548522949219
1695713155257780700,11.23278076171875,0.2051258087158203,-8.451482772827148,-0.3359870910644531
1695713155267332900,11.242332763671875,0.0455169677734375,-8.337989807128906,-0.41953468322753906
1695713155276884700,11.251884765625,0.02874755859375,-8.408960342407227,-0.5057773590087891
1695713155286436900,11.261436767578125,-0.3072395324707031,-8.631753921508789,-0.5393161773681641
1695713155295988700,11.27098876953125,-0.6692790985107422,-9.046197891235352,-0.46265602111816406
1695713155305540900,11.280540771484375,-0.7932529449462891,-9.588808059692383,-0.2784919738769531
1695713155315092700,11.2900927734375,-0.7692966461181641,-9.958633422851562,-0.0056896209716796875
1695713155324644900,11.299644775390625,-0.6312484741210938,-10.079313278198242,0.4105510711669922
1695713155334196700,11.30919677734375,-0.5312309265136719,-10.03679084777832,0.8339786529541016
1695713155343718400,11.318718505859374,-0.388092041015625,-9.984685897827148,1.087615966796875
1695713155353270300,11.328270263671875,-0.2548351287841797,-10.070030212402344,1.0304203033447266
1695713155362822400,11.337822509765624,0.0359344482421875,-10.24760627746582,0.7073097229003906
1695713155372374300,11.347374267578125,0.4006690979003906,-10.612340927124023,0.4273204803466797
1695713155381926400,11.356926513671874,0.5863304138183594,-10.974979400634766,0.25273895263671875
1695713155391447800,11.36644775390625,0.4815216064453125,-11.185794830322266,-0.0008983612060546875
1695713155401000000,11.376,0.038330078125,-11.294795989990234,-0.2880744934082031
1695713155410551800,11.3855517578125,-0.6596965789794922,-11.434640884399414,-0.40516090393066406
1695713155420104000,11.39510400390625,-1.1648750305175781,-11.683486938476562,-0.13954544067382812
1695713155429625300,11.404625244140625,-1.2316532135009766,-12.038938522338867,0.4201335906982422
1695713155439177200,11.41417724609375,-1.1672706604003906,-12.268619537353516,1.0400028228759766
1695713155448729300,11.423729248046875,-1.1052837371826172,-12.318328857421875,1.260101318359375
1695713155458281200,11.43328125,-0.5405139923095703,-12.057804107666016,0.8723087310791016
1695713155467833300,11.442833251953125,-0.11888313293457031,-12.126379013061523,-0.010480880737304688
1695713155477354800,11.452354736328125,0.17188644409179688,-12.782781600952148,-1.0010738372802734
1695713155486907000,11.461906982421874,0.9010562896728516,-13.607477188110352,-1.9725017547607422
1695713155496458800,11.471458740234375,2.004243850708008,-13.920106887817383,-2.886434555053711
1695713155506011000,11.481010986328124,3.360170364379883,-13.718574523925781,-3.269136428833008
1695713155515532300,11.4905322265625,4.294166564941406,-13.04360580444336,-3.0181941986083984
1695713155525084400,11.50008447265625,4.277397155761719,-11.697561264038086,-2.2165565490722656
1695713155534636300,11.50963623046875,3.5314579010009766,-10.631505966186523,-0.15871047973632812
1695713155544188400,11.5191884765625,2.7190399169921875,-10.181127548217773,2.3725719451904297
1695713155553740300,11.528740234375,1.5658435821533203,-9.939468383789062,4.408857345581055
1695713155563261700,11.53826171875,0.3862953186035156,-10.766559600830078,5.755800247192383
1695713155572813800,11.547813720703125,-0.3856964111328125,-11.572090148925781,6.313383102416992
1695713155582365700,11.55736572265625,-0.6884441375732422,-12.159618377685547,6.334644317626953
1695713155591948300,11.5669482421875,-0.7597141265869141,-12.917835235595703,5.865699768066406
1695713155601469700,11.5764697265625,-1.0624618530273438,-13.614364624023438,4.600208282470703
1695713155611021800,11.586021728515625,-2.4112014770507812,-13.851531982421875,3.1550445556640625
1695713155620573700,11.59557373046875,-3.828815460205078,-13.401153564453125,1.4706172943115234
1695713155630125800,11.605125732421875,-3.907571792602539,-12.586040496826172,0.4704418182373047
1695713155639677700,11.614677734375,-2.4444408416748047,-12.05301284790039,0.21920013427734375
1695713155649199400,11.624199462890624,0.18865585327148438,-11.59095573425293,0.29825592041015625
1695713155658751200,11.633751220703125,3.5149879455566406,-11.884719848632812,1.2337493896484375
1695713155668303400,11.643303466796874,5.306919097900391,-12.863334655761719,2.516010284423828
1695713155677855200,11.652855224609375,7.34410285949707,-12.211723327636719,2.2575817108154297
1695713155687377000,11.662376953125,6.00255012512207,-10.02720832824707,0.9106388092041016
1695713155696928800,11.6719287109375,3.3338184356689453,-8.250249862670898,0.26950836181640625
1695713155706481000,11.68148095703125,0.25034332275390625,-7.250373840332031,-0.12307548522949219
1695713155716032800,11.69103271484375,-2.115640640258789,-6.726629257202148,-0.20422744750976562
1695713155725585000,11.7005849609375,-2.8424148559570312,-6.629606246948242,0.12816619873046875
1695713155735106300,11.710106201171875,-2.9139842987060547,-6.556240081787109,0.7911567687988281
1695713155744658200,11.719658203125,-2.7924060821533203,-6.40681266784668,1.535299301147461
1695713155754210300,11.729210205078125,-2.349214553833008,-6.380760192871094,2.2123641967773438
1695713155763762200,11.73876220703125,-1.8940448760986328,-6.129518508911133,2.6381874084472656
1695713155773283800,11.748283935546874,-1.2624969482421875,-5.710283279418945,2.693286895751953
1695713155782835700,11.757835693359375,-0.36683082580566406,-5.259904861450195,2.4683971405029297
1695713155792387800,11.767387939453124,0.09792137145996094,-4.7696990966796875,2.274351119995117
1695713155801939700,11.776939697265625,0.08594322204589844,-4.20103645324707,2.1093521118164062
1695713155811491800,11.786491943359374,-0.1356525421142578,-3.705739974975586,1.9060230255126953
1695713155821013200,11.79601318359375,-0.5812397003173828,-3.3502883911132812,1.8173847198486328
1695713155830565400,11.8055654296875,-1.0292224884033203,-3.201160430908203,1.7793540954589844
1695713155840117200,11.8151171875,-1.6416053771972656,-3.101442337036133,1.7553977966308594
1695713155849669400,11.82466943359375,-2.289623260498047,-3.1679210662841797,1.7577934265136719
1695713155859190800,11.834190673828125,-2.8711624145507812,-3.464080810546875,1.7625846862792969
1695713155868773400,11.8437734375,-3.2951889038085938,-3.9024810791015625,1.8820667266845703
1695713155878325200,11.8533251953125,-3.6048240661621094,-4.463956832885742,1.9323749542236328
1695713155887877400,11.86287744140625,-3.888406753540039,-5.281465530395508,1.9132099151611328
1695713155897429200,11.87242919921875,-4.3959808349609375,-6.420886993408203,1.9180011749267578
1695713155906950700,11.88195068359375,-5.177555084228516,-7.7786102294921875,1.8988361358642578
1695713155916502800,11.891502685546875,-6.316677093505859,-9.413627624511719,1.8676929473876953
1695713155926054700,11.9010546875,-7.810651779174805,-11.749666213989258,1.5781211853027344
1695713155935606800,11.910606689453125,-9.102195739746094,-14.557344436645508,1.0064640045166016
1695713155945128200,11.920128173828125,-8.337091445922852,-16.870025634765625,1.0543766021728516
1695713155954680300,11.929680419921874,-7.207851409912109,-17.789348602294922,1.9132099151611328
1695713155964232200,11.939232177734375,-8.909048080444336,-17.91961097717285,3.13348388671875
1695713155973784300,11.948784423828124,-12.426132202148438,-16.670888900756836,4.430118560791016
1695713155983336200,11.958336181640625,-12.06618881225586,-13.413131713867188,5.351537704467773
1695713155992857900,11.96785791015625,-7.793882369995117,-8.660202026367188,5.296438217163086
1695713156002409700,11.97740966796875,-3.4404239654541016,-3.762636184692383,4.736459732055664
1695713156011961900,11.9869619140625,-1.9132099151611328,-0.6656856536865234,4.669382095336914
1695713156021513700,11.996513671875,-1.8272666931152344,-0.6066932678222656,5.0763397216796875
1695713156031035100,12.00603515625,-1.813192367553711,-3.4095802307128906,4.9278106689453125
1695713156040587300,12.015587158203125,-3.6144065856933594,-7.724109649658203,4.758020401000977
1695713156050139100,12.02513916015625,-5.859111785888672,-12.920230865478516,5.097900390625
1695713156059691300,12.034691162109375,-6.457120895385742,-18.009746551513672,5.0475921630859375
1695713156069243100,12.0442431640625,-4.605598449707031,-21.459453582763672,3.3583736419677734
1695713156078764800,12.053764892578124,1.5942916870117188,-19.976259231567383,1.449056625366211
1695713156088316700,12.063316650390625,3.731792449951172,-15.749170303344727,1.6667594909667969
1695713156097868800,12.072868896484374,-3.7075366973876953,-10.119739532470703,-1.0154476165771484
1695713156107420700,12.082420654296875,-3.917154312133789,-4.018369674682617,-3.8386974334716797
1695713156116942300,12.0919423828125,3.453001022338867,0.3578472137451172,-3.5706863403320312
1695713156126494200,12.101494140625,5.871389389038086,1.4050369262695312,-1.7308425903320312
1695713156136046300,12.11104638671875,4.0558013916015625,-1.066354751586914,-0.05839347839355469
1695713156145598200,12.12059814453125,1.1343307495117188,-6.624814987182617,0.3985729217529297
1695713156155150300,12.130150390625,-0.5716571807861328,-12.206932067871094,0.11139678955078125
1695713156164702200,12.1397021484375,-0.15691375732421875,-15.42007064819336,-0.3168220520019531
1695713156174254300,12.14925439453125,0.924713134765625,-15.777618408203125,-0.3455696105957031
1695713156183806200,12.15880615234375,1.7778568267822266,-15.529071807861328,0.07576179504394531
1695713156193358300,12.1683583984375,1.5134391784667969,-14.692697525024414,0.8031349182128906
