time,seconds_elapsed,z,y,x
1696082072966203600,0.04320361328125,9.026439666748047,3.404554843902588,0.5841852426528931
1696082072976179700,0.0531796875,9.198822021484375,3.4308910369873047,0.5506663918495178
1696082072986167600,0.06316748046875,9.308955192565918,3.450044631958008,0.5363011956214905
1696082072996159500,0.073159423828125,9.395146369934082,3.4596214294433594,0.646434485912323
1696082073006153700,0.08315380859375,9.452607154846191,3.4141316413879395,0.689530074596405
1696082073016148700,0.093148681640625,9.505280494689941,3.3494882583618164,0.6057330369949341
1696082073026144800,0.103144775390625,9.399934768676758,3.361459255218506,0.586579442024231
1696082073036141300,0.113141357421875,9.249100685119629,3.354276657104492,0.6224924325942993
1696082073046138400,0.123138427734375,9.091083526611328,3.339911460876465,0.6177040338516235
1696082073056135700,0.1331357421875,8.980949401855469,3.313575267791748,0.5722141861915588
1696082073066133200,0.14313330078125,8.913911819458008,3.335123062133789,0.5386953949928284
1696082073076131000,0.153131103515625,8.911518096923828,3.3710360527038574,0.5746083855628967
1696082073086129200,0.163129150390625,9.004891395568848,3.3901896476745605,0.6344634294509888
1696082073096127200,0.173127197265625,9.146149635314941,3.3231520652770996,0.6033388376235962
1696082073106125600,0.18312548828125,9.361627578735352,3.318363666534424,0.5722141861915588
1696082073116124000,0.1931240234375,9.543587684631348,3.318363666534424,0.6200982332229614
1696082073126122500,0.20312255859375,9.651326179504395,3.268085241317749,0.667982280254364
1696082073136121000,0.21312109375,9.648932456970215,3.292027235031128,0.6584054827690125
1696082073146119700,0.22311962890625,9.572318077087402,3.3255462646484375,0.6799532771110535
1696082073156118500,0.233118408203125,9.445425033569336,3.3877954483032227,0.5578489899635315
1696082073166117400,0.243117431640625,9.275436401367188,3.3470940589904785,0.5363011956214905
1696082073176116200,0.2531162109375,9.04319953918457,3.313575267791748,0.6416460275650024
1696082073186115000,0.263114990234375,9.0767183303833,3.251325845718384,0.7781155705451965
1696082073196114000,0.273114013671875,9.967360496520996,2.497152328491211,1.5203180313110352
1696082073206113000,0.283113037109375,9.792584419250488,2.561795711517334,1.316810965538025
1696082073216112000,0.293112060546875,9.22755241394043,2.829946517944336,1.216254472732544
1696082073226111200,0.303111328125,8.372822761535645,2.940079689025879,1.194706678390503
1696082073236110300,0.3131103515625,8.044816970825195,2.9520506858825684,0.667982280254364
1696082073246109400,0.323109375,7.93707799911499,3.332728862762451,0.13168109953403473
1696082073256108500,0.333108642578125,8.119037628173828,3.490746021270752,-0.6224924325942993
1696082073266107600,0.343107666015625,8.731952667236328,3.1292216777801514,-0.5315127968788147
1696082073276107800,0.353107666015625,8.662521362304688,3.0573954582214355,-0.49320554733276367
1696082073286107600,0.363107666015625,8.387187957763672,2.6791117191314697,-0.6033388376235962
1696082073296107800,0.373107666015625,8.169315338134766,2.4875755310058594,-0.16759411990642548
1696082073306107600,0.383107666015625,7.848492622375488,2.6216509342193604,0.7805097699165344
1696082073316107800,0.393107666015625,7.331345081329346,2.6384103298187256,0.9026140570640564
1696082073326107600,0.403107666015625,6.821380138397217,2.4899697303771973,0.7829039692878723
1696082073336107800,0.413107666015625,6.658574104309082,2.22660756111145,0.42856210470199585
1696082073346107600,0.423107666015625,6.431125164031982,2.276885747909546,0.5339069962501526
1696082073356107800,0.433107666015625,5.978621006011963,2.631227731704712,0.5650315880775452
1696082073366107600,0.443107666015625,5.820603370666504,3.0190882682800293,0.7541735172271729
1696082073376107800,0.453107666015625,6.048052787780762,2.6431987285614014,0.6248866319656372
1696082073386107600,0.463107666015625,6.519710540771484,2.6240451335906982,1.0414776802062988
1696082073396107800,0.473107666015625,7.673715591430664,1.7621324062347412,0.23702596127986908
1696082073406107600,0.483107666015625,8.37761116027832,1.900996208190918,0.35434186458587646
1696082073416107800,0.493107666015625,9.189245223999023,2.231395959854126,0.5410895943641663
1696082073426107600,0.503107666015625,9.538799285888672,2.470816135406494,0.7805097699165344
1696082073436107800,0.513107666015625,9.471760749816895,2.6575639247894287,1.278503656387329
1696082073446107600,0.523107666015625,9.241917610168457,2.808398485183716,1.7836803197860718
1696082073456107800,0.533107666015625,8.784625053405762,2.9328970909118652,2.190694570541382
1696082073466108000,0.54310791015625,8.21959400177002,3.2154128551483154,3.0095114707946777
1696082073476107800,0.553107666015625,7.8652520179748535,3.3662476539611816,3.5865142345428467
1696082073486108000,0.56310791015625,7.506121635437012,3.488351821899414,4.039018154144287
1696082073496107800,0.573107666015625,7.163750648498535,3.529053211212158,4.175487995147705
1696082073506108000,0.58310791015625,6.957849502563477,3.557783842086792,4.055777549743652
1696082073516107800,0.593107666015625,6.814197540283203,3.7229835987091064,4.0078935623168945
1696082073526107600,0.603107666015625,6.87405252456665,3.974374771118164,4.01268196105957
1696082073536107800,0.613107666015625,7.661744594573975,3.8977603912353516,3.224989652633667
1696082073546107600,0.623107666015625,7.343316078186035,3.0621838569641113,2.6886885166168213
1696082073556107800,0.633107666015625,4.469974517822266,2.5067291259765625,2.983175277709961
1696082073566107600,0.643107666015625,6.340145587921143,1.4844050407409668,3.579331636428833
1696082073576107800,0.653107666015625,4.946720123291016,0.5267243981361389,4.046200752258301
1696082073586107600,0.663107666015625,3.4165258407592773,-0.6392518281936646,4.343081951141357
1696082073596107800,0.673107666015625,2.3798365592956543,-1.7764976024627686,4.412513732910156
1696082073606107600,0.683107666015625,1.4389152526855469,-2.9017724990844727,4.481945514678955
1696082073616107800,0.693107666015625,0.629675030708313,-3.7253777980804443,4.527435302734375
1696082073626107600,0.703107666015625,0.16759411990642548,-4.122815132141113,4.235342979431152
1696082073636107800,0.713107666015625,-0.0694318488240242,-4.709394931793213,4.055777549743652
1696082073646107600,0.723107666015625,-0.07422025501728058,-5.46147346496582,4.326322555541992
1696082073656107800,0.733107666015625,0.33758243918418884,-6.143820762634277,4.69024133682251
1696082073666107600,0.743107666015625,1.4676456451416016,-6.414365768432617,5.004180908203125
1696082073676107800,0.753107666015625,3.220201253890991,-6.522104740142822,5.226841449737549
1696082073686108000,0.76310791015625,5.099948883056641,-6.838139533996582,5.289090633392334
1696082073696107800,0.773107666015625,6.086359977722168,-7.072771072387695,5.238812446594238
1696082073706108000,0.78310791015625,6.732794284820557,-7.099107265472412,5.188534259796143
1696082073716107800,0.793107666015625,7.048829078674316,-6.909965515136719,5.1238908767700195
1696082073726108000,0.80310791015625,6.577171325683594,-6.359299182891846,5.693710803985596
1696082073736107800,0.813107666015625,5.9881978034973145,-5.830180644989014,7.309797286987305
1696082073746108000,0.82310791015625,6.222829341888428,-5.617096424102783,10.1660795211792
1696082073756107800,0.833107666015625,7.10150146484375,-5.880458831787109,13.649642944335938
1696082073766108000,0.84310791015625,8.492532730102539,-6.658574104309082,17.28673553466797
1696082073776107800,0.853107666015625,10.091859817504883,-7.142202854156494,20.53327178955078
1696082073786108000,0.86310791015625,11.80371379852295,-6.718429088592529,23.341670989990234
1696082073796107800,0.873107666015625,13.563451766967773,-5.952284812927246,25.532665252685547
1696082073806108000,0.88310791015625,14.705785751342773,-5.245995044708252,27.24691390991211
1696082073816107800,0.893107666015625,15.100829124450684,-4.9922099113464355,28.17586326599121
1696082073826108000,0.90310791015625,14.976329803466797,-5.047276496887207,28.264448165893555
1696082073836107800,0.913107666015625,14.597746849060059,-4.838681697845459,27.73533058166504
1696082073846108000,0.92310791015625,13.18277359008789,-4.323928356170654,26.808774948120117
1696082073856107800,0.933107666015625,11.743858337402344,-4.19224739074707,24.426244735717773
1696082073866108000,0.94310791015625,10.35522174835205,-3.9169139862060547,22.755090713500977
1696082073876107800,0.953107666015625,9.524434089660645,-3.579331636428833,22.611438751220703
1696082073886108000,0.96310791015625,8.935460090637207,-3.6511576175689697,22.616228103637695
1696082073896107800,0.973107666015625,8.339303970336914,-4.089296340942383,21.419126510620117
1696082073906108000,0.98310791015625,6.625055313110352,-4.242525577545166,20.593128204345703
1696082073916107800,0.993107666015625,5.092766284942627,-4.244919776916504,19.25237464904785
1696082073926108000,1.00310791015625,3.8379054069519043,-3.971980571746826,17.30349349975586
1696082073936107800,1.013107666015625,2.808398485183716,-3.794809579849243,15.41207504272461
1696082073946108000,1.02310791015625,2.1954829692840576,-3.7876269817352295,13.4197998046875
1696082073956107800,1.033107666015625,1.8171991109848022,-3.5266590118408203,11.059117317199707
1696082073966108000,1.04310791015625,1.0893617868423462,-3.07415509223938,8.794201850891113
1696082073976107800,1.053107666015625,0.12928688526153564,-2.3989901542663574,6.79743766784668
1696082073986108000,1.06310791015625,-0.6584054827690125,-1.4389152526855469,4.951508522033691
1696082073996107800,1.073107666015625,-0.7637503147125244,-0.33758243918418884,2.736572504043579
1696082074006108000,1.08310791015625,-0.3064578175544739,0.608127236366272,0.5339069962501526
1696082074016107500,1.093107421875,0.4118026793003082,1.2737152576446533,-1.5298948287963867
1696082074026107600,1.103107666015625,1.0582371950149536,1.6400281190872192,-3.294421434402466
1696082074036107500,1.113107421875,1.5203180313110352,1.6927006244659424,-4.985027313232422
1696082074046107600,1.123107666015625,1.7932571172714233,1.8602946996688843,-6.22043514251709
1696082074056107500,1.133107421875,1.7094600200653076,1.9752163887023926,-6.744765281677246
1696082074066106600,1.143106689453125,1.2832920551300049,2.027888774871826,-6.778284072875977
1696082074076106800,1.153106689453125,0.6655880808830261,2.0422539710998535,-6.593930721282959
1696082074086106600,1.163106689453125,-0.040701430290937424,1.845929503440857,-6.189310550689697
1696082074096106800,1.173106689453125,-0.7589619159698486,1.6927006244659424,-5.5452704429626465
1696082074106107100,1.183107177734375,-1.2976573705673218,1.5203180313110352,-4.797980308532715
1696082074116107300,1.193107177734375,-1.6855180263519287,1.3024457693099976,-3.7636849880218506
1696082074126107100,1.203107177734375,-1.8842366933822632,1.1061211824417114,-2.5713725090026855
1696082074136107300,1.213107177734375,-1.7908629179000854,0.8331822156906128,-1.4700398445129395
1696082074146107100,1.223107177734375,-1.8291701078414917,0.12689268589019775,-0.8978256583213806
1696082074156106800,1.233106689453125,-2.0207061767578125,-0.7134721279144287,-0.6967126727104187
1696082074166106600,1.243106689453125,-2.1763293743133545,-1.0295066833496094,0.035913024097681046
1696082074176106800,1.253106689453125,-2.8155810832977295,-1.2449848651885986,1.5442601442337036
1696082074186106600,1.263106689453125,-3.406949043273926,-1.5298948287963867,3.536235809326172
1696082074196106800,1.273106689453125,-3.84269380569458,-1.8579005002975464,5.459079265594482
1696082074206106400,1.2831064453125,-4.393360137939453,-1.8842366933822632,7.501333236694336
1696082074216106500,1.2931064453125,-4.687847137451172,-2.183511972427368,8.265083312988281
1696082074226106400,1.3031064453125,-4.824316501617432,-2.868253707885742,8.662521362304688
1696082074236106500,1.3131064453125,-5.176563262939453,-3.6176388263702393,9.28261947631836
1696082074246106400,1.3231064453125,-5.626673221588135,-4.513070106506348,10.247482299804688
1696082074256106500,1.3331064453125,-6.124667167663574,-4.6040496826171875,12.122142791748047
1696082074266106400,1.3431064453125,-6.170156955718994,-3.864241600036621,14.466066360473633
1696082074276106500,1.3531064453125,-5.887641429901123,-2.9041666984558105,17.018583297729492
1696082074286106400,1.3631064453125,-5.133467674255371,-3.136404275894165,18.63945960998535
1696082074296106500,1.3731064453125,-4.925172328948975,-3.869029998779297,18.830995559692383
1696082074306106400,1.3831064453125,-5.696105003356934,-4.747702121734619,18.354549407958984
1696082074316106800,1.393106689453125,-7.158962249755859,-5.494992256164551,17.945140838623047
1696082074326107000,1.40310693359375,-8.090307235717773,-5.99298620223999,17.868526458740234
1696082074336106800,1.413106689453125,-7.901165008544922,-6.03847599029541,16.783952713012695
1696082074346107000,1.42310693359375,-2.5977089405059814,-5.765536785125732,16.93478775024414
1696082074356106800,1.433106689453125,4.888959884643555,-4.944325923919678,21.50531768798828
1696082074366107600,1.443107666015625,6.663362503051758,-3.7612907886505127,21.11985206604004
1696082074376107800,1.453107666015625,0.28730419278144836,-3.423708438873291,15.373767852783203
1696082074386107600,1.463107666015625,-1.7764976024627686,-3.397372245788574,9.933841705322266
1696082074399830300,1.476830322265625,-0.9888052940368652,-3.378218650817871,7.281066417694092
1696082074409829600,1.48682958984375,0.05506663769483566,-3.971980571746826,6.929119110107422
1696082074419829500,1.49682958984375,0.05506663769483566,-4.019864559173584,7.350498676300049
1696082074429829600,1.50682958984375,-1.625662922859192,-4.2090067863464355,7.989750385284424
1696082074439829500,1.51682958984375,-3.3039982318878174,-4.381389141082764,7.970596790313721
1696082074449829600,1.52682958984375,-3.1962592601776123,-4.793191909790039,7.836521625518799
1696082074459830000,1.536830078125,-2.4229321479797363,-4.54419469833374,8.236352920532227
1696082074469830000,1.546829833984375,-1.9560627937316895,-3.7660791873931885,8.365639686584473
1696082074479830000,1.556830078125,-1.1492167711257935,-3.2393548488616943,8.743924140930176
1696082074489830000,1.566829833984375,-1.534683346748352,-2.0901381969451904,8.552388191223145
1696082074499830000,1.576830078125,-0.5817909836769104,-0.9457096457481384,7.386411666870117
1696082074509830400,1.586830322265625,0.14844051003456116,-0.15322890877723694,6.352116584777832
1696082074519830300,1.596830322265625,-3.134010076522827,-1.5442601442337036,8.430283546447754
1696082074529830100,1.606830078125,-6.663362503051758,-2.6839001178741455,10.28818416595459
1696082074539830300,1.616830322265625,-5.583577632904053,-2.631227731704712,9.399934768676758
1696082074549830100,1.626830078125,-3.043030261993408,0.8810662031173706,0.22266076505184174
1696082074559830300,1.636830322265625,-11.42064094543457,4.1156325340271,-2.762908697128296
1696082074569830100,1.646830078125,-4.082113742828369,1.5729905366897583,2.1571757793426514
1696082074579830300,1.656830322265625,-1.7381904125213623,-1.3934253454208374,8.789413452148438
1696082074589830100,1.666830078125,-3.6343982219696045,-2.22660756111145,12.004826545715332
1696082074599830300,1.676830322265625,-7.075165271759033,-3.308786630630493,15.529390335083008
1696082074609830100,1.686830078125,-7.27148962020874,-2.896984100341797,18.402433395385742
1696082074619830300,1.696830322265625,-4.874594688415527,-1.015141487121582,18.833389282226562
1696082074629830100,1.706830078125,-2.650381326675415,1.0869675874710083,17.274763107299805
1696082074639830300,1.716830322265625,-0.49320554733276367,1.8938134908676147,17.523759841918945
1696082074649830100,1.726830078125,1.3263877630233765,1.9393033981323242,19.747974395751953
1696082074659830300,1.736830322265625,2.0829553604125977,1.0845733880996704,20.803817749023438
1696082074669830100,1.746830078125,3.6391866207122803,0.5195417404174805,20.02570152282715
1696082074679830300,1.756830322265625,4.127603530883789,0.6799532771110535,16.192584991455078
1696082074689830400,1.766830322265625,3.0166940689086914,1.580173134803772,8.624214172363281
1696082074699830300,1.776830322265625,1.4915876388549805,0.9816226959228516,1.8818424940109253
1696082074709830400,1.786830322265625,0.3208230137825012,0.033518824726343155,0.8930372595787048
1696082074719830300,1.796830322265625,-0.10055647045373917,-1.113303780555725,0.3974374830722809
1696082074729830400,1.806830322265625,-3.141192674636841,-3.404554843902588,-0.8834604024887085
1696082074739830300,1.816830322265625,-6.062417984008789,-4.917989730834961,-0.6344634294509888
1696082074749830400,1.826830322265625,-3.2585084438323975,-5.308244228363037,-2.5474305152893066
1696082074759830300,1.836830322265625,0.6009446382522583,-3.821146011352539,-2.2577321529388428
1696082074769830400,1.846830322265625,4.9060187339782715,-2.561795711517334,-2.6623523235321045
1696082074779830300,1.856830322265625,5.679345607757568,-4.223371982574463,-1.6041151285171509
1696082074789830400,1.866830322265625,2.097320795059204,-4.371812343597412,-2.535459518432617
1696082074799830300,1.876830322265625,1.7190368175506592,-4.857835292816162,-2.1787235736846924
1696082074809830400,1.886830322265625,3.6343982219696045,-5.727229595184326,-3.7445313930511475
1696082074819830300,1.896830322265625,2.959233283996582,-6.447884559631348,-5.760748386383057
1696082074829830400,1.906830322265625,-0.5817909836769104,-7.917924404144287,-4.7189717292785645
1696082074839830300,1.916830322265625,-1.7932571172714233,-10.510845184326172,-2.300827741622925
1696082074849830400,1.926830322265625,-1.1851298809051514,-12.05031681060791,-1.0414776802062988
1696082074859830300,1.936830322265625,-0.5363011956214905,-13.17080307006836,3.6080620288848877
1696082074869830400,1.946830322265625,-0.028730420395731926,-16.527772903442383,10.012850761413574
1696082074879830300,1.956830322265625,-0.033518824726343155,-21.419126510620117,14.9954833984375
1696082074889830400,1.966830322265625,0.47405192255973816,-23.842058181762695,17.861343383789062
1696082074899830300,1.976830322265625,7.228394031524658,-26.205434799194336,22.802974700927734
1696082074909830400,1.986830322265625,10.62576675415039,-22.78142738342285,26.28923225402832
1696082074919830300,1.996830322265625,10.091859817504883,-17.863737106323242,29.88532257080078
1696082074929830400,2.006830322265625,6.361693382263184,-11.04714584350586,24.203582763671875
1696082074939830300,2.016830322265625,5.377676486968994,-7.573159217834473,14.260164260864258
1696082074949830400,2.026830322265625,5.7415947914123535,-7.441478252410889,8.719982147216797
1696082074959830300,2.036830322265625,3.5194764137268066,-6.033687591552734,5.724835395812988
1696082074969830400,2.046830322265625,2.3750481605529785,-5.995380401611328,2.6216509342193604
1696082074979830300,2.056830322265625,2.6001031398773193,-6.380846977233887,0.8044517636299133
1696082074989830400,2.066830322265625,2.2194249629974365,-6.562806129455566,0.6248866319656372
1696082074999830300,2.076830322265625,1.338358759880066,-6.728005886077881,1.2306196689605713
1696082075009830400,2.086830322265625,0.4429273009300232,-6.122272968292236,1.173158884048462
1696082075019830300,2.096830322265625,-1.0127472877502441,-5.480627059936523,2.765302896499634
1696082075029830100,2.106830078125,-1.742978811264038,-5.686528205871582,4.683058738708496
1696082075039830300,2.116830322265625,-1.2066776752471924,-6.332962989807129,6.062417984008789
1696082075049830100,2.126830078125,-1.8555063009262085,-6.617872714996338,5.985803604125977
1696082075059830300,2.136830322265625,-1.7597382068634033,-6.507739543914795,5.708076000213623
1696082075069830100,2.146830078125,-1.3120225667953491,-7.395988464355469,4.939537525177002
1696082075079830300,2.156830322265625,-0.9648633003234863,-7.647379398345947,4.479551315307617
1696082075089830100,2.166830078125,-0.7422025203704834,-7.182904243469238,3.7181951999664307
1696082075099830300,2.176830322265625,0,-6.876446723937988,2.9448680877685547
1696082075109830100,2.186830078125,0.8475474119186401,-6.70645809173584,2.205059766769409
1696082075119830300,2.196830322265625,1.6663644313812256,-6.66096830368042,2.0590133666992188
1696082075129830100,2.206830078125,2.0925323963165283,-6.852504730224609,1.8722656965255737
1696082075139830300,2.216830322265625,2.4372973442077637,-7.606678009033203,1.6615760326385498
1696082075149830100,2.226830078125,3.0813376903533936,-8.789413452148438,1.0079588890075684
1696082075159830300,2.236830322265625,3.885789394378662,-9.96017837524414,0.2537853717803955
1696082075169830100,2.246830078125,4.003105163574219,-10.223540306091309,0.47405192255973816
1696082075179830300,2.256830322265625,2.671929121017456,-8.597877502441406,2.5067291259765625
1696082075189830100,2.266830078125,0.8307880163192749,-4.613626480102539,3.624821424484253
1696082075199830300,2.276830322265625,1.0630255937576294,-1.6879122257232666,1.6136919260025024
1696082075209830100,2.286830078125,-0.12210428714752197,-3.1220390796661377,2.5282769203186035
1696082075219830300,2.296830322265625,-1.3192051649093628,-4.19224739074707,2.7078421115875244
1696082075229830400,2.306830322265625,-2.6575639247894287,-4.367023944854736,2.209848165512085
1696082075239830300,2.316830322265625,-3.378218650817871,-5.028122901916504,1.599326729774475
1696082075249830400,2.326830322265625,-4.091690540313721,-6.110301971435547,1.237802267074585
1696082075259830300,2.336830322265625,-4.795586109161377,-8.459013938903809,1.3503297567367554
1696082075269830100,2.346830078125,-3.421314239501953,-14.681544303894043,1.2114660739898682
1696082075279830300,2.356830322265625,-0.8427590131759644,-21.206043243408203,0.47644615173339844
1696082075289830100,2.366830078125,2.183511972427368,-25.058612823486328,-1.764526605606079
1696082075299830300,2.376830322265625,4.338293552398682,-27.38577651977539,-1.4652514457702637
1696082075309830100,2.386830078125,5.193322658538818,-27.244518280029297,-0.2346317619085312
1696082075319830300,2.396830322265625,3.8091750144958496,-21.012113571166992,-0.17238251864910126
1696082075329830100,2.406830078125,2.027888774871826,-12.423811912536621,-1.0438719987869263
1696082075339830300,2.416830322265625,0.23942017555236816,-8.818143844604492,-0.569819986820221
1696082075349830100,2.426830078125,-0.002394201699644327,-8.748712539672852,0.031124621629714966
1696082075359830300,2.436830322265625,-0.8092401623725891,-8.784625053405762,-2.5234885215759277
1696082075369830100,2.446830078125,-2.8586769104003906,-7.93707799911499,-1.2521674633026123
1696082075379830300,2.456830322265625,-2.367865562438965,-8.736741065979004,-0.011971008032560349
1696082075389830100,2.466830078125,-0.5482721924781799,-8.949825286865234,0.7876923680305481
1696082075399830300,2.476830322265625,0.3064578175544739,-8.791808128356934,1.623268723487854
1696082075409830100,2.486830078125,1.4221558570861816,-8.320150375366211,1.522712230682373
1696082075419830300,2.496830322265625,1.5179238319396973,-7.965808391571045,0.15562310814857483
1696082075429830100,2.506830078125,1.0342950820922852,-7.841310024261475,-0.8643068075180054
1696082075439830300,2.516830322265625,1.0414776802062988,-8.135796546936035,-1.5275006294250488
1696082075449830100,2.526830078125,0.5386953949928284,-8.669703483581543,-1.7094600200653076
1696082075459830300,2.536830322265625,-0.23702596127986908,-9.098265647888184,-1.37906014919281
1696082075469830100,2.546830078125,-0.7924807667732239,-9.325715065002441,-0.646434485912323
1696082075479830300,2.556830322265625,-0.7829039692878723,-9.47654914855957,-0.18914192914962769
1696082075489830400,2.566830322265625,-0.5099649429321289,-9.74709415435791,-0.21547815203666687
1696082075499830300,2.576830322265625,-0.3208230137825012,-10.099041938781738,0.019153613597154617
1696082075509830100,2.586830078125,-0.24899697303771973,-10.194809913635254,0.395043283700943
1696082075519830300,2.596830322265625,-0.23702596127986908,-10.343250274658203,0.36152446269989014
1696082075529830100,2.606830078125,-0.4692635238170624,-10.419864654541016,0.4884171485900879
1696082075539830300,2.616830322265625,-0.6919242739677429,-10.338461875915527,0.8810662031173706
1696082075549830100,2.626830078125,-0.993593692779541,-10.113407135009766,1.259350061416626
1696082075559830300,2.636830322265625,-1.1037269830703735,-9.828496932983398,1.338358759880066
1696082075569830100,2.646830078125,-0.9457096457481384,-9.584288597106934,1.1779472827911377
1696082075579830300,2.656830322265625,-0.5937620401382446,-9.505280494689941,1.0319008827209473
1696082075589830100,2.666830078125,-0.2106897532939911,-9.605836868286133,0.9696516990661621
1696082075599830300,2.676830322265625,0.0933738648891449,-9.715970039367676,0.7852981686592102
1696082075609830100,2.686830078125,0.22505496442317963,-9.706393241882324,0.35673606395721436
1696082075619830300,2.696830322265625,0.22266076505184174,-9.5531644821167,-0.1149216815829277
1696082075629830100,2.706830078125,0.10773907601833344,-9.40711784362793,-0.5099649429321289
1696082075639830300,2.716830322265625,-0.10055647045373917,-9.347262382507324,-0.6943184733390808
1696082075649830100,2.726830078125,-0.3519476354122162,-9.38556957244873,-0.7493851184844971
1696082075659830300,2.736830322265625,-0.6200982332229614,-9.601048469543457,-0.6320692300796509
1696082075669830100,2.746830078125,-0.8762778043746948,-9.833285331726074,-0.304063618183136
1696082075679830300,2.756830322265625,-1.1348515748977661,-9.78061294555664,0.009576806798577309
1696082075689830100,2.766830078125,-1.3000515699386597,-9.555558204650879,0.33518823981285095
1696082075699830300,2.776830322265625,-1.2521674633026123,-9.431059837341309,0.5410895943641663
1696082075709830100,2.786830078125,-0.9864110946655273,-9.450213432312012,0.6057330369949341
1696082075719830300,2.796830322265625,-0.646434485912323,-9.541193008422852,0.5961562395095825
1696082075729830400,2.806830322265625,-0.35673606395721436,-9.65611457824707,0.49559974670410156
1696082075739830300,2.816830322265625,-0.21547815203666687,-9.725546836853027,0.36152446269989014
1696082075749830400,2.826830322265625,-0.21547815203666687,-9.759065628051758,0.29209262132644653
1696082075759830300,2.836830322265625,-0.33279404044151306,-9.754277229309082,0.2346317619085312
1696082075769830400,2.846830322265625,-0.545877993106842,-9.727940559387207,0.22026655077934265
1696082075779830300,2.856830322265625,-0.7422025203704834,-9.821314811706543,0.23702596127986908
1696082075789830400,2.866830322265625,-0.8595184087753296,-10.003273963928223,0.3232172429561615
1696082075799830300,2.876830322265625,-0.8643068075180054,-10.03918743133545,0.3902548849582672
1696082075809830400,2.886830322265625,-0.7948749661445618,-9.902717590332031,0.44532153010368347
1696082075819830300,2.896830322265625,-0.6416460275650024,-9.6896333694458,0.49559974670410156
1696082075829830400,2.906830322265625,-0.4620809257030487,-9.567529678344727,0.4165911078453064
1696082075839830300,2.916830322265625,-0.17238251864910126,-9.58668327331543,0.23942017555236816
1696082075849830400,2.926830322265625,-0.07661445438861847,-9.67766284942627,-0.021547814831137657
1696082075859830300,2.936830322265625,-0.014365210197865963,-9.706393241882324,-0.4429273009300232
1696082075869830400,2.946830322265625,0.07182604819536209,-9.62259578704834,-0.8858546018600464
1696082075879830300,2.956830322265625,0.11252748221158981,-9.548376083374023,-1.1899182796478271
1696082075889830400,2.966830322265625,0.05267243832349777,-9.524434089660645,-1.2976573705673218
1696082075899830300,2.976830322265625,-0.028730420395731926,-9.524434089660645,-1.2856862545013428
1696082075909830400,2.986830322265625,-0.0694318488240242,-9.356839179992676,-1.2042834758758545
1696082075919830300,2.996830322265625,-0.11252748221158981,-9.174880027770996,-1.0031704902648926
1696082075929830400,3.006830322265625,-0.19632454216480255,-9.064746856689453,-0.7230489253997803
1696082075939830300,3.016830322265625,-0.38067805767059326,-9.057564735412598,-0.35913026332855225
1696082075949830400,3.026830322265625,-0.5889736413955688,-9.177274703979492,0.0071826050989329815
1696082075959830300,3.036830322265625,-0.8044517636299133,-9.304166793823242,0.42377370595932007
1696082075969830400,3.046830322265625,-1.0773907899856567,-9.464578628540039,0.8068459630012512
1696082075979830300,3.056830322265625,-1.256955862045288,-9.557952880859375,1.2497732639312744
1696082075989830400,3.066830322265625,-1.2210428714752197,-9.65611457824707,1.7190368175506592
1696082075999830300,3.076830322265625,-1.0797849893569946,-9.742305755615234,2.0254945755004883
1696082076009830400,3.086830322265625,-0.7661445140838623,-9.766247749328613,2.2433669567108154
1696082076019830300,3.096830322265625,-0.40701428055763245,-9.754277229309082,2.3535003662109375
1696082076029830100,3.106830078125,-0.06464344263076782,-9.74709415435791,2.2649147510528564
1696082076039830300,3.116830322265625,0.19632454216480255,-9.756670951843262,2.0207061767578125
1696082076049830100,3.126830078125,0.3280056416988373,-9.65372085571289,1.6089035272598267
1696082076059830300,3.136830322265625,0.4165911078453064,-9.536404609680176,1.1252747774124146
1696082076069830100,3.146830078125,0.3495534360408783,-9.414299964904785,0.6991068720817566
1696082076079830300,3.156830322265625,0.12449848651885986,-9.323320388793945,0.2753331959247589
1696082076089830100,3.166830078125,-0.2082955539226532,-9.34965705871582,-0.11013327538967133
1696082076099830300,3.176830322265625,-0.5961562395095825,-9.390357971191406,-0.49559974670410156
1696082076109830100,3.186830078125,-0.9409212470054626,-9.402329444885254,-0.8906430602073669
1696082076119830300,3.196830322265625,-1.1779472827911377,-9.40711784362793,-1.2832920551300049
1696082076129830100,3.206830078125,-1.2018892765045166,-9.466972351074219,-1.5897499322891235
1696082076139830300,3.216830322265625,-1.05105459690094,-9.65611457824707,-1.7334020137786865
1696082076149830100,3.226830078125,-0.7493851184844971,-10.05115795135498,-1.6112977266311646
1696082076159830300,3.236830322265625,-0.36152446269989014,-10.585064888000488,-1.2641384601593018
1696082076169830100,3.246830078125,0.08379705995321274,-11.183615684509277,-0.8834604024887085
1696082076179830300,3.256830322265625,0.47644615173339844,-11.638513565063477,-0.5147533416748047
1696082076189830100,3.266830078125,0.8403648138046265,-11.8132905960083,-0.31364041566848755
1696082076199830300,3.276830322265625,1.1516109704971313,-11.707945823669434,-0.19393034279346466
1696082076209830100,3.286830078125,1.41257905960083,-11.391910552978516,0.07900865375995636
1696082076219830300,3.296830322265625,1.680729627609253,-11.037569046020508,0.38307225704193115
1696082076229830100,3.306830078125,2.008735179901123,-10.960954666137695,0.9241618514060974
1696082076239830300,3.316830322265625,2.2242133617401123,-11.224316596984863,1.5969325304031372
1696082076249830100,3.326830078125,2.3104045391082764,-11.643301963806152,2.1475989818573
1696082076259830300,3.336830322265625,1.9488801956176758,-11.861174583435059,2.6886885166168213
1696082076269830100,3.346830078125,1.381454348564148,-11.98327922821045,3.064578056335449
1696082076279830300,3.356830322265625,0.8307880163192749,-12.014403343200684,3.3734302520751953
1696082076289830100,3.366830078125,0.6823474764823914,-11.976096153259277,3.665522813796997
1696082076299830300,3.376830322265625,0.9888052940368652,-12.069470405578613,4.07014274597168
1696082076309830100,3.386830078125,1.3527239561080933,-12.311284065246582,4.479551315307617
1696082076319830300,3.396830322265625,1.5921441316604614,-12.371139526367188,4.7189717292785645
1696082076329830100,3.406830078125,1.4987702369689941,-12.114959716796875,4.862623691558838
1696082076340155400,3.4171552734375,1.2473790645599365,-11.87314510345459,4.951508522033691
1696082076350155500,3.427155517578125,1.5394717454910278,-11.504438400268555,4.469974517822266
1696082076360155400,3.4371552734375,2.434903144836426,-11.140520095825195,4.065354347229004
1696082076370155500,3.447155517578125,3.4763808250427246,-10.252270698547363,2.894589900970459
1696082076380155400,3.4571552734375,4.663905143737793,-9.107842445373535,1.1204863786697388
1696082076390155500,3.467155517578125,5.4135894775390625,-8.447042465209961,-0.43335050344467163
1696082076400155400,3.4771552734375,5.308244228363037,-8.964190483093262,-1.5873557329177856
1696082076410155500,3.487155517578125,4.4723687171936035,-10.503662109375,-2.470816135406494
1696082076420155400,3.4971552734375,2.913743495941162,-12.383110046386719,-2.8203697204589844
1696082076430155500,3.507155517578125,0.6440402865409851,-14.226645469665527,-2.9927520751953125
1696082076440155400,3.5171552734375,-1.6759412288665771,-15.191808700561523,-3.1268274784088135
1696082076450155500,3.527155517578125,-4.309563159942627,-15.443199157714844,-2.9879636764526367
1696082076460155400,3.5371552734375,-6.344933986663818,-15.134347915649414,-2.6216509342193604
1696082076470155500,3.547155517578125,-6.411971569061279,-14.133272171020508,-2.118868589401245
1696082076480155400,3.5571552734375,-4.745307922363281,-13.18277359008789,-1.53707754611969
1696082076490155500,3.567155517578125,-3.1292216777801514,-12.529156684875488,-1.0678139925003052
1696082076500155400,3.5771552734375,-1.9177556037902832,-12.105382919311523,-0.4381389021873474
1696082076510155500,3.587155517578125,-1.1635819673538208,-11.851597785949707,0.043095629662275314
1696082076520155400,3.5971552734375,-0.4644751250743866,-11.643301963806152,0.5793967843055725
1696082076530155500,3.607155517578125,0.26815059781074524,-11.413458824157715,1.0534487962722778
1696082076540155400,3.6171552734375,1.1348515748977661,-11.04475212097168,1.1348515748977661
1696082076550155500,3.627155517578125,0.8786720037460327,-10.767024040222168,1.1037269830703735
1696082076560155400,3.6371552734375,-0.33039984107017517,-10.393528938293457,0.8810662031173706
1696082076570155500,3.647155517578125,-1.1085153818130493,-10.161291122436523,0.28730419278144836
1696082076580155400,3.6571552734375,-0.8427590131759644,-9.636960983276367,-0.42856210470199585
1696082076590155500,3.667155517578125,-0.12449848651885986,-8.947430610656738,-1.216254472732544
1696082076600155400,3.6771552734375,0.5291185975074768,-8.193257331848145,-1.7908629179000854
1696082076610155500,3.687155517578125,0.5267243981361389,-7.439084053039551,-2.049436569213867
1696082076620155400,3.6971552734375,0.12928688526153564,-6.8285627365112305,-1.968033790588379
1696082076630155500,3.707155517578125,-0.6224924325942993,-6.352116584777832,-1.8052281141281128
1696082076640155400,3.7171552734375,-1.1779472827911377,-6.048052787780762,-1.6352397203445435
1696082076650155500,3.727155517578125,-1.3072341680526733,-6.057629585266113,-1.4891934394836426
1696082076660155400,3.7371552734375,-1.3623007535934448,-6.263530731201172,-1.2641384601593018
1696082076670155500,3.747155517578125,-1.3431471586227417,-6.4742207527160645,-1.1851298809051514
1696082076680155400,3.7571552734375,-1.3431471586227417,-6.716034889221191,-1.072602391242981
1696082076690155500,3.767155517578125,-1.4317326545715332,-6.835745334625244,-0.8834604024887085
1696082076700155400,3.7771552734375,-1.4389152526855469,-6.823774337768555,-0.8259995579719543
1696082076710155500,3.787155517578125,-1.4460978507995605,-6.6489973068237305,-1.036689281463623
1696082076720155400,3.7971552734375,-1.5203180313110352,-6.356904983520508,-1.522712230682373
1696082076730155500,3.807155517578125,-1.5849615335464478,-6.040870189666748,-2.1715409755706787
1696082076740155600,3.81715576171875,-1.5418659448623657,-5.6434326171875,-2.762908697128296
1696082076750155500,3.827155517578125,-1.3503297567367554,-5.1693806648254395,-3.093308687210083
1696082076760155600,3.83715576171875,-0.8810662031173706,-4.668693542480469,-3.0765492916107178
1696082076770155500,3.847155517578125,-0.17238251864910126,-4.347870349884033,-2.9257144927978516
1696082076780155400,3.8571552734375,0.6224924325942993,-4.3191399574279785,-2.5091233253479004
1696082076790155500,3.867155517578125,1.3718775510787964,-4.620809078216553,-1.577778935432434
1696082076800155400,3.8771552734375,2.164358377456665,-5.296273231506348,0.17717093229293823
1696082076810155500,3.887155517578125,3.643975019454956,-6.304232120513916,2.5977089405059814
1696082076820155400,3.8971552734375,6.014533996582031,-7.589918613433838,5.2555718421936035
1696082076830155500,3.907155517578125,8.882787704467773,-9.172486305236816,7.75751256942749
1696082076840155400,3.9171552734375,9.641749382019043,-10.671256065368652,9.007286071777344
1696082076850155500,3.927155517578125,10.13974380493164,-11.94018268585205,9.5531644821167
1696082076860155400,3.9371552734375,11.801319122314453,-13.14686107635498,9.483732223510742
1696082076870155500,3.947155517578125,12.342409133911133,-14.391845703125,8.798990249633789
1696082076880155400,3.9571552734375,10.64970874786377,-15.335460662841797,7.1781158447265625
1696082076890155500,3.967155517578125,8.605060577392578,-15.364191055297852,5.320215225219727
1696082076900155400,3.9771552734375,7.369652271270752,-13.982437133789062,3.464409828186035
1696082076910155500,3.987155517578125,6.282684326171875,-11.540351867675781,1.886630892753601
1696082076920155400,3.9971552734375,5.0376996994018555,-9.28261947631836,0.751779317855835
1696082076930155500,4.007155517578125,4.141968727111816,-8.854057312011719,-0.7757213711738586
1696082076940155400,4.0171552734375,2.6886885166168213,-10.826879501342773,-2.8586769104003906
1696082076950155500,4.027155517578125,2.03507137298584,-12.797307014465332,-4.151545524597168
1696082076960155400,4.0371552734375,2.7700912952423096,-14.281712532043457,-4.168305397033691
1696082076970155500,4.047155517578125,3.117250680923462,-15.294758796691895,-2.784456491470337
1696082076980155600,4.05715576171875,5.286696434020996,-15.522208213806152,0.10534487664699554
1696082076990155500,4.067155517578125,5.724835395812988,-13.570634841918945,2.6671407222747803
1696082077000155400,4.0771552734375,2.8634653091430664,-9.864410400390625,2.233790159225464
1696082077010155500,4.087155517578125,-3.337517261505127,-6.060023784637451,0.004788403399288654
1696082077020155400,4.0971552734375,-8.13100814819336,-3.181894063949585,-1.015141487121582
1696082077030155500,4.107155517578125,-9.311349868774414,-2.2242133617401123,-1.2330138683319092
1696082077040155400,4.1171552734375,-8.478167533874512,-2.537853717803955,-1.3024457693099976
1696082077050155500,4.127155517578125,-7.259518623352051,-4.503493309020996,-2.0685901641845703
1696082077060155400,4.1371552734375,-6.6489973068237305,-7.139808654785156,-3.4572272300720215
1696082077070155500,4.147155517578125,-6.079177379608154,-9.505280494689941,-4.067748546600342
1696082077080155400,4.1571552734375,-5.291484832763672,-11.478102684020996,-3.840299606323242
1696082077090155500,4.167155517578125,-4.240131378173828,-13.177985191345215,-3.5913026332855225
1696082077100155400,4.1771552734375,-3.201047658920288,-14.135665893554688,-3.224989652633667
1696082077110155500,4.187155517578125,-1.9033904075622559,-13.860332489013672,-2.580949544906616
1696082077120155400,4.1971552734375,-0.2992752194404602,-12.421417236328125,-1.9057846069335938
1696082077130155500,4.207155517578125,1.2497732639312744,-10.793360710144043,-1.2856862545013428
1696082077140155400,4.2171552734375,2.410961151123047,-9.435848236083984,-0.8092401623725891
1696082077150155500,4.227155517578125,2.868253707885742,-8.672098159790039,-0.5051765441894531
1696082077160155400,4.2371552734375,2.492363929748535,-8.492532730102539,-0.06224924325942993
1696082077170155500,4.247155517578125,1.577778935432434,-8.767866134643555,0.4836287498474121
1696082077180155400,4.2571552734375,0.5339069962501526,-9.083900451660156,0.9457096457481384
1696082077190155500,4.267155517578125,-0.3734954595565796,-9.220370292663574,1.3311761617660522
1696082077200155400,4.2771552734375,-0.9672574996948242,-9.182063102722168,1.599326729774475
1696082077210155500,4.287155517578125,-1.316810965538025,-9.071929931640625,1.6496049165725708
1696082077220155400,4.2971552734375,-1.6184803247451782,-9.059958457946777,1.6112977266311646
1696082077230155500,4.307155517578125,-1.5059528350830078,-9.016862869262695,1.359906554222107
1696082077240155400,4.3171552734375,-1.0342950820922852,-9.004891395568848,1.2880805730819702
1696082077250155500,4.327155517578125,-0.7757213711738586,-9.050381660461426,1.2761094570159912
1696082077260155400,4.3371552734375,-0.7086837291717529,-8.961795806884766,1.335964560508728
1696082077270155500,4.347155517578125,-0.9959878921508789,-8.882787704467773,1.2282254695892334
1696082077280155400,4.3571552734375,-1.5179238319396973,-8.813355445861816,1.1228805780410767
1696082077290155500,4.367155517578125,-2.1356279850006104,-8.909123420715332,1.0414776802062988
1696082077300155400,4.3771552734375,-2.1930887699127197,-9.208398818969727,0.8810662031173706
1696082077310155500,4.387155517578125,-1.678335428237915,-9.806949615478516,0.5985504388809204
1696082077320155400,4.3971552734375,-0.6799532771110535,-10.417470932006836,0.17717093229293823
1696082077330155500,4.407155517578125,0.40222588181495667,-10.601824760437012,0.10295066982507706
1696082077340155400,4.4171552734375,1.1683704853057861,-10.194809913635254,0.4189853072166443
1696082077350155500,4.427155517578125,1.2856862545013428,-9.514857292175293,0.8786720037460327
1696082077360155400,4.4371552734375,1.015141487121582,-8.913911819458008,0.8882488012313843
1696082077370155500,4.447155517578125,0.3926490843296051,-8.640973091125488,0.33758243918418884
1696082077380155400,4.4571552734375,-0.028730420395731926,-8.959402084350586,-0.6847416758537292
1696082077390155500,4.467155517578125,0.4381389021873474,-9.80216121673584,-1.5969325304031372
1696082077400155400,4.4771552734375,1.7381904125213623,-10.800542831420898,-2.006340980529785
1696082077410155500,4.487155517578125,3.2848446369171143,-11.602601051330566,-1.8483237028121948
1696082077420155400,4.4971552734375,4.584896087646484,-11.662455558776855,-1.091755986213684
1696082077430155500,4.507155517578125,4.89644193649292,-11.066299438476562,0.011971008032560349
1696082077440155400,4.5171552734375,3.794809579849243,-10.546757698059082,1.048660397529602
1696082077450155000,4.527155029296875,1.8626888990402222,-10.44859504699707,1.6519991159439087
1696082077460155100,4.537155029296875,-0.05027823522686958,-10.733505249023438,1.8746598958969116
1696082077470155300,4.5471552734375,-1.2401964664459229,-11.11178970336914,2.0685901641845703
1696082077480155100,4.557155029296875,-1.3910311460494995,-11.47331428527832,2.4803929328918457
1696082077490155300,4.5671552734375,-0.8786720037460327,-11.62175464630127,3.1100680828094482
1696082077500155100,4.577155029296875,-0.31364041566848755,-11.729493141174316,3.77565598487854
1696082077510155300,4.5871552734375,-0.0454898327589035,-11.808502197265625,4.352658748626709
1696082077520155100,4.597155029296875,0.3016694188117981,-11.715127944946289,4.608838081359863
1696082077530155000,4.607155029296875,0.7805097699165344,-11.56429386138916,4.501099109649658
1696082077540155100,4.617155029296875,1.1540051698684692,-12.14369010925293,4.402936935424805
1696082077550155000,4.627155029296875,0.9576807022094727,-13.527539253234863,4.345476150512695
1696082077560155100,4.637155029296875,0.6775590777397156,-14.597746849060059,4.101267337799072
1696082077570155000,4.647155029296875,1.070208191871643,-15.02900218963623,3.4955344200134277
1696082077580155100,4.657155029296875,2.762908697128296,-14.693514823913574,2.559401512145996
1696082077590155000,4.667155029296875,4.819528102874756,-13.915399551391602,1.2641384601593018
1696082077600155100,4.677155029296875,5.8780646324157715,-12.53633975982666,-0.5291185975074768
1696082077610155000,4.687155029296875,6.0959367752075195,-11.44458293914795,-2.2385785579681396
1696082077620155100,4.697155029296875,5.20289945602417,-11.324872970581055,-3.0813376903533936
1696082077630155000,4.707155029296875,3.7205893993377686,-11.921029090881348,-3.1651346683502197
1696082077640155100,4.717155029296875,1.5825673341751099,-12.828432083129883,-3.0813376903533936
1696082077650155000,4.727155029296875,-0.1149216815829277,-14.05186939239502,-3.162740468978882
1696082077660155100,4.737155029296875,-1.8363527059555054,-15.218144416809082,-3.7158010005950928
1696082077670155000,4.747155029296875,-3.6176388263702393,-16.07766342163086,-4.570530891418457
1696082077680155100,4.757155029296875,-5.224447250366211,-16.039356231689453,-4.699818134307861
1696082077690155300,4.7671552734375,-5.743988990783691,-15.093646049499512,-4.280832767486572
1696082077700155100,4.777155029296875,-5.583577632904053,-13.915399551391602,-3.1220390796661377
1696082077710155300,4.7871552734375,-4.1611223220825195,-12.725481033325195,-2.2601263523101807
1696082077720155100,4.797155029296875,-2.5019407272338867,-11.947365760803223,-1.2473790645599365
1696082077730155300,4.8071552734375,-1.5394717454910278,-11.53077507019043,0.15083470940589905
1696082077740155100,4.817155029296875,0.22744916379451752,-11.126154899597168,1.0606313943862915
1696082077750155500,4.827155517578125,2.477998733520508,-10.395922660827637,1.479616641998291
1696082077760155600,4.83715576171875,3.0119056701660156,-9.74470043182373,1.50355863571167
1696082077770155500,4.847155517578125,2.099714994430542,-9.06714153289795,1.0199298858642578
1696082077780155400,4.8571552734375,0.667982280254364,-8.573935508728027,0.304063618183136
1696082077790155500,4.867155517578125,-0.49559974670410156,-8.34648609161377,-0.08140286058187485
1696082077800155400,4.8771552734375,-1.8722656965255737,-8.090307235717773,-0.15801730751991272
1696082077810155500,4.887155517578125,-2.410961151123047,-7.546823024749756,-0.706289529800415
1696082077820155400,4.8971552734375,-1.86508309841156,-7.070376873016357,-1.436521053314209
1696082077830155500,4.907155517578125,-1.0007762908935547,-6.7351884841918945,-2.0470423698425293
1696082077840155400,4.9171552734375,-0.8786720037460327,-6.471826553344727,-2.432508945465088
1696082077850155500,4.927155517578125,-1.0654197931289673,-6.280290126800537,-2.6575639247894287
1696082077860155400,4.9371552734375,-1.4293384552001953,-6.182127952575684,-2.5953147411346436
1696082077870155500,4.947155517578125,-1.6112977266311646,-6.2084641456604,-2.3367409706115723
1696082077880155400,4.9571552734375,-1.5275006294250488,-6.258742332458496,-1.9321208000183105
1696082077890155500,4.967155517578125,-1.3623007535934448,-6.4071831703186035,-1.4460978507995605
1696082077900155400,4.9771552734375,-1.3239935636520386,-6.498162746429443,-1.072602391242981
1696082077910155500,4.987155517578125,-1.280897855758667,-6.5173163414001465,-0.912190854549408
1696082077920155400,4.9971552734375,-1.3431471586227417,-6.373664379119873,-0.9600749015808105
1696082077930155500,5.007155517578125,-1.434126853942871,-6.103119373321533,-1.3024457693099976
1696082077940155400,5.0171552734375,-1.5825673341751099,-5.684134006500244,-1.8315643072128296
1696082077950155500,5.027155517578125,-1.6615760326385498,-5.186140060424805,-2.1978771686553955
1696082077960155400,5.0371552734375,-1.4317326545715332,-4.548983097076416,-2.5115175247192383
1696082077970155500,5.047155517578125,-0.9720458984375,-3.9456443786621094,-2.8107926845550537
1696082077980155400,5.0571552734375,-0.524330198764801,-3.3854012489318848,-3.160346269607544
1696082077990155500,5.067155517578125,0.17717093229293823,-3.0765492916107178,-3.248931646347046
1696082078000155400,5.0771552734375,0.4141969084739685,-3.246537446975708,-2.559401512145996
1696082078010155500,5.087155517578125,0.8523358106613159,-4.0078935623168945,-0.6272808313369751
1696082078020155400,5.0971552734375,2.0661959648132324,-5.368099689483643,2.1523873805999756
1696082078030155500,5.107155517578125,5.483021259307861,-7.10150146484375,5.15740966796875
1696082078040155400,5.1171552734375,9.557952880859375,-9.44303035736084,7.970596790313721
1696082078050155500,5.127155517578125,12.009614944458008,-12.241852760314941,9.703998565673828
1696082078060155400,5.1371552734375,14.609718322753906,-15.71853256225586,11.075876235961914
1696082078070155500,5.147155517578125,18.46228790283203,-20.303428649902344,11.468525886535645
1696082078080155400,5.1571552734375,18.81662940979004,-24.222736358642578,10.111013412475586
1696082078090155500,5.167155517578125,11.628936767578125,-24.64441680908203,6.972214698791504
1696082078100155400,5.1771552734375,6.026504993438721,-20.473417282104492,2.561795711517334
1696082078110155500,5.187155517578125,4.290409564971924,-13.051093101501465,0.4429273009300232
1696082078120155400,5.1971552734375,2.983175277709961,-6.902782917022705,-0.16519992053508759
1696082078130155500,5.207155517578125,2.942473888397217,-2.2601263523101807,0.07661445438861847
1696082078140155400,5.2171552734375,3.40216064453125,0.8738836050033569,-0.28969839215278625
1696082078150155500,5.227155517578125,-0.7781155705451965,0.45010992884635925,-1.6831238269805908
1696082078160155400,5.2371552734375,-4.6255974769592285,-3.8331170082092285,-2.5977089405059814
1696082078170155500,5.247155517578125,-7.3600754737854,-9.364022254943848,-2.786850690841675
1696082078180155400,5.2571552734375,-5.820603370666504,-15.009848594665527,-2.5282769203186035
1696082078190155500,5.267155517578125,-0.9768342971801758,-21.31378173828125,-1.1492167711257935
1696082078200155400,5.2771552734375,3.359065055847168,-22.623411178588867,0.5841852426528931
1696082078210155500,5.287155517578125,2.6455929279327393,-17.49263572692871,0.49320554733276367
1696082078220155400,5.2971552734375,-0.768538773059845,-12.646472930908203,-0.828393816947937
1696082078230155500,5.307155517578125,-2.765302896499634,-9.534010887145996,-2.1308395862579346
1696082078240155400,5.3171552734375,-3.845088005065918,-7.137414455413818,-2.693476915359497
1696082078250155500,5.327155517578125,-5.231629848480225,-5.815814971923828,-3.138798475265503
1696082078260155400,5.3371552734375,-6.328174591064453,-6.196493148803711,-3.801992416381836
1696082078270155500,5.347155517578125,-6.876446723937988,-7.403171062469482,-4.010287761688232
1696082078280155400,5.3571552734375,-6.589142322540283,-8.889969825744629,-3.971980571746826
1696082078290155500,5.367155517578125,-5.995380401611328,-10.14213752746582,-3.5482068061828613
1696082078300155400,5.3771552734375,-5.418377876281738,-10.951377868652344,-3.2393548488616943
1696082078310155500,5.387155517578125,-4.865017890930176,-11.435006141662598,-3.620033025741577
1696082078320155400,5.3971552734375,-3.864241600036621,-11.281777381896973,-2.6001031398773193
1696082078330155500,5.407155517578125,-2.7700912952423096,-10.587459564208984,-1.4891934394836426
1696082078340155400,5.4171552734375,-1.3862427473068237,-9.644144058227539,-0.6248866319656372
1696082078350155500,5.427155517578125,-0.043095629662275314,-8.7391357421875,0.17956513166427612
1696082078360155400,5.4371552734375,1.3192051649093628,-8.13100814819336,0.7589619159698486
1696082078370155500,5.447155517578125,2.5091233253479004,-7.738358974456787,1.256955862045288
1696082078380155400,5.4571552734375,2.9233202934265137,-7.530063629150391,1.4652514457702637
1696082078390155500,5.467155517578125,2.2194249629974365,-7.49654483795166,1.4317326545715332
1696082078400155400,5.4771552734375,0.7829039692878723,-7.716811180114746,1.113303780555725
1696082078410155500,5.487155517578125,-0.8427590131759644,-8.119037628173828,0.7757213711738586
1696082078420155400,5.4971552734375,-1.9105730056762695,-8.652944564819336,0.5913678407669067
1696082078430155500,5.507155517578125,-2.5330653190612793,-9.31613826751709,0.44532153010368347
1696082078440155400,5.5171552734375,-2.557007312774658,-10.156502723693848,0.5937620401382446
1696082078450155500,5.527155517578125,-1.8746598958969116,-10.822091102600098,0.7637503147125244
1696082078460155400,5.5371552734375,0.4189853072166443,-11.126154899597168,0.4836287498474121
1696082078470155500,5.547155517578125,5.143044471740723,-11.423035621643066,0.3663128614425659
1696082078480155400,5.5571552734375,9.091083526611328,-11.643301963806152,1.091755986213684
1696082078490155500,5.567155517578125,10.034399032592773,-11.26262378692627,2.121262788772583
1696082078500155400,5.5771552734375,8.035240173339844,-10.443806648254395,3.1316158771514893
1696082078510155500,5.587155517578125,4.307168960571289,-9.28261947631836,3.339911460876465
1696082078520155400,5.5971552734375,0.24181437492370605,-8.444648742675781,2.7317841053009033
1696082078530155500,5.607155517578125,-2.8419175148010254,-8.023268699645996,1.678335428237915
1696082078540155400,5.6171552734375,-4.484339714050293,-7.834127426147461,0.7924807667732239
1696082078550155500,5.627155517578125,-4.961085319519043,-8.013691902160645,-0.033518824726343155
1696082078560155400,5.6371552734375,-5.099948883056641,-8.770259857177734,-0.7565677165985107
1696082078570155300,5.6471552734375,-4.6950297355651855,-9.684844970703125,-1.3096283674240112
1696082078580155100,5.657155029296875,-3.5051112174987793,-10.783783912658691,-1.5203180313110352
1696082078590155300,5.6671552734375,-1.5490485429763794,-11.628936767578125,-1.5298948287963867
1696082078600155100,5.677155029296875,1.1659762859344482,-11.827655792236328,-1.2473790645599365
1696082078610155300,5.6871552734375,4.022258758544922,-11.47331428527832,-0.7733271718025208
1696082078620155100,5.697155029296875,6.201281547546387,-10.939406394958496,-0.16759411990642548
1696082078630155300,5.7071552734375,6.8070149421691895,-10.654497146606445,0.6129156351089478
1696082078640155100,5.717155029296875,5.557241439819336,-10.826879501342773,1.2306196689605713
1696082078650155300,5.7271552734375,3.24414324760437,-11.253046989440918,1.3527239561080933
1696082078660155100,5.737155029296875,1.3239935636520386,-11.62414836883545,1.0797849893569946
1696082078670155300,5.7471552734375,0.40462008118629456,-11.784560203552246,1.1228805780410767
1696082078680155100,5.757155029296875,-0.2585737705230713,-11.894693374633789,1.6208745241165161
1696082078690155300,5.7671552734375,-0.7829039692878723,-11.913846969604492,2.406172752380371
1696082078700155100,5.777155029296875,-0.7254431247711182,-11.77977180480957,3.1747114658355713
1696082078710155300,5.7871552734375,0.5626373887062073,-11.559505462646484,3.7181951999664307
1696082078720155400,5.7971552734375,2.784456491470337,-11.516409873962402,3.907337188720703
1696082078730155300,5.8071552734375,4.714183330535889,-12.129324913024902,3.9695863723754883
1696082078740155400,5.8171552734375,5.243600845336914,-12.984055519104004,3.8738183975219727
1696082078750155300,5.8271552734375,4.424484729766846,-13.374309539794922,3.8379054069519043
1696082078760155400,5.8371552734375,3.315969467163086,-13.228263854980469,3.88818359375
1696082078770155300,5.8471552734375,2.784456491470337,-12.833220481872559,3.7924153804779053
1696082078780155400,5.8571552734375,2.5785553455352783,-12.47887897491455,3.471592426300049
1696082078790155300,5.8671552734375,1.9345149993896484,-12.222699165344238,2.4420857429504395
1696082078800155400,5.8771552734375,1.316810965538025,-12.270583152770996,1.0845733880996704
1696082078810155300,5.8871552734375,0.5817909836769104,-12.917016983032227,-0.2537853717803955
1696082078820155400,5.8971552734375,0.05746084079146385,-13.984831809997559,-1.7932571172714233
1696082078830155300,5.9071552734375,-0.1173158809542656,-15.44798755645752,-3.2369606494903564
1696082078840155400,5.9171552734375,-0.8092401623725891,-16.87732696533203,-4.24970817565918
1696082078850155300,5.9271552734375,-2.6455929279327393,-17.808670043945312,-5.4135894775390625
1696082078860155400,5.9371552734375,-4.491522312164307,-17.863737106323242,-6.239588737487793
1696082078870155500,5.947155517578125,-6.917148113250732,-16.666637420654297,-5.81342077255249
1696082078880155400,5.9571552734375,-6.435913562774658,-14.51634407043457,-5.104737281799316
1696082078890155500,5.967155517578125,-3.507505416870117,-12.4693021774292,-4.156333923339844
1696082078900155400,5.9771552734375,-1.3862427473068237,-11.245864868164062,-2.300827741622925
1696082078910155500,5.987155517578125,2.2218191623687744,-10.436624526977539,-1.0965443849563599
1696082078920155400,5.9971552734375,4.558559894561768,-9.897929191589355,0.009576806798577309
1696082078930155500,6.007155517578125,4.381389141082764,-9.5316162109375,0.5267243981361389
1696082078940155400,6.0171552734375,2.322375535964966,-9.122207641601562,0.1173158809542656
1696082078950155500,6.027155517578125,-0.026336219161748886,-8.693645477294922,-0.09576806426048279
1696082078960155400,6.0371552734375,-2.123656988143921,-7.984961986541748,-0.16759411990642548
1696082078970155500,6.047155517578125,-3.1196448802948,-7.3792290687561035,0.181959331035614
1696082078980155600,6.05715576171875,-2.7437551021575928,-6.598719120025635,0.26815059781074524
1696082078990155500,6.067155517578125,-1.5059528350830078,-5.990592002868652,-0.07182604819536209
1696082079000155400,6.0771552734375,-0.993593692779541,-5.681739807128906,-0.5913678407669067
1696082079010155500,6.087155517578125,-1.0319008827209473,-5.626673221588135,-1.1540051698684692
1696082079020155400,6.0971552734375,-1.2641384601593018,-5.693710803985596,-1.7094600200653076
1696082079030155500,6.107155517578125,-1.4293384552001953,-5.820603370666504,-2.0590133666992188
1696082079040155400,6.1171552734375,-1.4867992401123047,-6.012139797210693,-2.1140801906585693
1696082079050155500,6.127155517578125,-1.5753847360610962,-6.151003360748291,-1.9081788063049316
1696082079060155400,6.1371552734375,-1.5203180313110352,-6.201281547546387,-1.6519991159439087
1696082079070155500,6.147155517578125,-1.3982137441635132,-6.1629743576049805,-1.525106430053711
1696082079080155400,6.1571552734375,-1.41257905960083,-6.00495719909668,-1.4891934394836426
1696082079090155500,6.167155517578125,-1.5658079385757446,-5.710470199584961,-1.5131354331970215
1696082079100155400,6.1771552734375,-1.800439715385437,-5.250783443450928,-1.6615760326385498
1696082079110155500,6.187155517578125,-1.920149803161621,-4.812345504760742,-1.9057846069335938
1696082079120155400,6.1971552734375,-1.8555063009262085,-4.398148536682129,-2.250549554824829
1696082079130155300,6.2071552734375,-1.678335428237915,-4.010287761688232,-2.564189910888672
1696082079140155400,6.2171552734375,-1.2641384601593018,-3.6559460163116455,-2.7988216876983643
1696082079150155300,6.2271552734375,-0.5386953949928284,-3.4380736351013184,-2.9065608978271484
1696082079160155400,6.2371552734375,0.43335050344467163,-3.4141316413879395,-2.8419175148010254
1696082079170155300,6.2471552734375,1.3072341680526733,-3.8115692138671875,-2.190694570541382
1696082079180155400,6.2571552734375,2.027888774871826,-4.6734819412231445,-0.40701428055763245
1696082079190155300,6.2671552734375,3.667917013168335,-6.158185958862305,1.9752163887023926
1696082079200155400,6.2771552734375,7.374440670013428,-8.315361976623535,4.5394062995910645
1696082079210155300,6.2871552734375,12.909834861755371,-11.379940032958984,7.4223246574401855
1696082079220155400,6.2971552734375,17.777545928955078,-15.29715347290039,10.77660083770752
1696082079230155300,6.3071552734375,18.1342830657959,-19.66417694091797,12.483667373657227
1696082079240155400,6.3171552734375,16.625934600830078,-23.296180725097656,12.41662883758545
1696082079250155300,6.3271552734375,13.446136474609375,-24.747365951538086,9.909899711608887
1696082079260155400,6.3371552734375,7.755118370056152,-22.695236206054688,4.46518611907959
1696082079270155300,6.3471552734375,4.146757125854492,-17.068862915039062,0.8858546018600464
1696082079280155400,6.3571552734375,3.531447410583496,-10.261847496032715,0.4405331015586853
1696082079290155300,6.3671552734375,3.6128504276275635,-5.068824291229248,0.304063618183136
1696082079300155400,6.3771552734375,3.8714241981506348,-1.7693150043487549,-0.33518823981285095
1696082079310155300,6.3871552734375,4.1611223220825195,-2.477998733520508,-2.8443117141723633
1696082079320155400,6.3971552734375,3.8115692138671875,-5.849334239959717,-4.812345504760742
1696082079330155300,6.4071552734375,1.623268723487854,-10.798149108886719,-4.288015365600586
1696082079340155400,6.4171552734375,0.4381389021873474,-15.620370864868164,-1.8124107122421265
1696082079350155300,6.4271552734375,2.3798365592956543,-19.937116622924805,2.715024709701538
1696082079360155400,6.4371552734375,2.782062292098999,-20.315399169921875,4.02465295791626
1696082079370155300,6.4471552734375,-4.146757125854492,-14.162002563476562,1.843535304069519
1696082079380155400,6.4571552734375,-8.363245964050293,-8.066365242004395,-0.507570743560791
1696082079390155300,6.4671552734375,-8.214805603027344,-4.101267337799072,-0.5195417404174805
1696082079400155400,6.4771552734375,-7.194875240325928,-1.9584569931030273,-0.4668693244457245
1696082079410155300,6.4871552734375,-6.165368556976318,-1.867477297782898,-0.8690952062606812
1696082079420155400,6.4971552734375,-5.238812446594238,-4.592078685760498,-2.094926595687866
1696082079430155500,6.507155517578125,-4.699818134307861,-7.4462666511535645,-3.2321722507476807
1696082079440155400,6.5171552734375,-4.189853191375732,-10.10861873626709,-3.7014358043670654
1696082079450155500,6.527155517578125,-4.3406877517700195,-12.514791488647461,-4.261679172515869
1696082079460155400,6.5371552734375,-4.730942726135254,-14.355932235717773,-4.965873718261719
1696082079470155500,6.547155517578125,-3.9193081855773926,-14.770428657531738,-4.388571739196777
1696082079480155400,6.5571552734375,-2.652775526046753,-14.24579906463623,-3.028665065765381
1696082079490155500,6.567155517578125,-1.4389152526855469,-13.039121627807617,-1.3694833517074585
1696082079500155400,6.5771552734375,-0.5937620401382446,-11.56668758392334,-0.040701430290937424
1696082079510155500,6.587155517578125,0.09576806426048279,-10.032004356384277,0.6009446382522583
1696082079520155400,6.5971552734375,0.7086837291717529,-8.798990249633789,0.9050082564353943
1696082079530155500,6.607155517578125,1.3407529592514038,-8.16452693939209,1.3958195447921753
1696082079540155400,6.6171552734375,1.8579005002975464,-8.059182167053223,2.03507137298584
1696082079550155500,6.627155517578125,2.3080103397369385,-8.145373344421387,2.518700122833252
1696082079560155400,6.6371552734375,2.2864625453948975,-8.116642951965332,2.559401512145996
1696082079570155500,6.647155517578125,1.5945383310317993,-7.946654796600342,2.2649147510528564
1696082079580155400,6.6571552734375,0.5793967843055725,-7.925107002258301,1.802833914756775
1696082079590155500,6.667155517578125,-0.31124621629714966,-7.905953407287598,1.1228805780410767
1696082079600155400,6.6771552734375,-0.5913678407669067,-8.042423248291016,0.608127236366272
1696082079610155500,6.687155517578125,-0.5363011956214905,-8.312967300415039,0.38546648621559143
1696082079620155400,6.6971552734375,-0.8355764150619507,-8.61703109741211,-0.043095629662275314
1696082079630155500,6.707155517578125,-1.2497732639312744,-8.777442932128906,-0.3495534360408783
1696082079640155400,6.7171552734375,-1.6280571222305298,-8.779836654663086,-0.730231523513794
1696082079650155500,6.727155517578125,-2.0901381969451904,-8.736741065979004,-0.9457096457481384
1696082079660155400,6.7371552734375,-1.8076223134994507,-8.746317863464355,-1.1228805780410767
1696082079670155500,6.747155517578125,-0.4118026793003082,-8.873210906982422,-1.2186486721038818
1696082079680155400,6.7571552734375,1.8555063009262085,-9.28261947631836,-1.2090718746185303
1696082079690155500,6.767155517578125,3.7852327823638916,-10.005668640136719,-1.1803414821624756
1696082079700155400,6.7771552734375,4.4077253341674805,-10.522815704345703,-0.849941611289978
1696082079710155500,6.787155517578125,3.6176388263702393,-10.50126838684082,-0.26575639843940735
1696082079720155400,6.7971552734375,2.3511061668395996,-10.094253540039062,0.4644751250743866
1696082079730155500,6.807155517578125,1.113303780555725,-9.670479774475098,1.2330138683319092
1696082079740155600,6.81715576171875,0.22266076505184174,-9.593865394592285,1.7142484188079834
1696082079750155500,6.827155517578125,0.06464344263076782,-10.070311546325684,1.5897499322891235
1696082079760155600,6.83715576171875,0.8978256583213806,-10.824484825134277,1.115697979927063
1696082079770155500,6.847155517578125,2.47560453414917,-11.482891082763672,0.7541735172271729
1696082079780155400,6.8571552734375,3.667917013168335,-11.968914031982422,0.828393816947937
1696082079790155500,6.867155517578125,3.7229835987091064,-12.21072769165039,1.2832920551300049
1696082079800155400,6.8771552734375,2.911349296569824,-12.181997299194336,1.9752163887023926
1696082079810155500,6.887155517578125,1.9105730056762695,-11.858779907226562,2.609679937362671
1696082079820155400,6.8971552734375,0.9433154463768005,-11.578659057617188,3.1100680828094482
1696082079830155500,6.907155517578125,0.028730420395731926,-11.44218921661377,3.6104562282562256
1696082079840155400,6.9171552734375,-0.4884171485900879,-11.44218921661377,4.32871675491333
1696082079850155500,6.927155517578125,-0.5099649429321289,-11.516409873962402,4.989815711975098
1696082079860155400,6.9371552734375,0.14604631066322327,-11.516409873962402,5.509357452392578
1696082079870155500,6.947155517578125,1.3215993642807007,-11.35120964050293,5.703287601470947
1696082079880155400,6.9571552734375,2.896984100341797,-11.265018463134766,5.595548629760742
1696082079890156500,6.967156494140625,4.266467571258545,-11.681609153747559,5.099948883056641
1696082079900156700,6.97715673828125,4.9275665283203125,-12.50282096862793,4.299986362457275
1696082079910156500,6.987156494140625,4.829104900360107,-13.103765487670898,3.265691041946411
1696082079920156700,6.99715673828125,4.292803764343262,-13.393463134765625,2.2194249629974365
1696082079930156500,7.007156494140625,4.0078935623168945,-13.56824016571045,1.525106430053711
1696082079940156700,7.01715673828125,3.2082302570343018,-13.496414184570312,1.1492167711257935
1696082079950156500,7.027156494140625,1.6519991159439087,-13.683161735534668,1.213860273361206
1696082079960156700,7.03715673828125,-0.3519476354122162,-14.195521354675293,1.3694833517074585
1696082079970156500,7.047156494140625,-1.6543933153152466,-14.84704303741455,0.5123591423034668
1696082079980156700,7.05715673828125,-1.7764976024627686,-15.711350440979004,-1.2617442607879639
1696082079990156500,7.067156494140625,-1.2832920551300049,-17.28673553466797,-3.155557870864868
1696082080000155600,7.07715576171875,-1.7477672100067139,-19.046472549438477,-5.425560474395752
1696082080010155300,7.0871552734375,-2.779668092727661,-19.721637725830078,-7.0033392906188965
1696082080020155100,7.097155029296875,-4.163516521453857,-19.30744171142578,-7.910741806030273
1696082080030155000,7.107155029296875,-5.799055576324463,-17.341800689697266,-7.427113056182861
1696082080040155100,7.117155029296875,-3.801992416381836,-14.478036880493164,-6.711246490478516
1696082080050155000,7.127155029296875,-0.27054479718208313,-12.318467140197754,-5.830180644989014
1696082080060155100,7.137155029296875,2.255337953567505,-11.04475212097168,-3.5625722408294678
1696082080070155000,7.147155029296875,3.2752678394317627,-10.132560729980469,-2.4803929328918457
1696082080080155100,7.157155029296875,2.094926595687866,-9.58907699584961,-1.8842366933822632
1696082080090155000,7.167155029296875,0.23702596127986908,-9.081506729125977,-1.4293384552001953
1696082080100155100,7.177155029296875,-1.4939818382263184,-8.561964988708496,-1.173158884048462
1696082080110155000,7.187155029296875,-2.6168625354766846,-7.783848762512207,-0.6153098344802856
1696082080120155100,7.197155029296875,-2.8227639198303223,-7.072771072387695,0.26336219906806946
1696082080130155000,7.207155029296875,-2.3774423599243164,-6.189310550689697,1.1659762859344482
1696082080140155100,7.217155029296875,-1.403002142906189,-5.272331237792969,1.3766659498214722
1696082080150155000,7.227155029296875,-0.8212111592292786,-4.683058738708496,1.4987702369689941
1696082080160155100,7.237155029296875,-0.8954314589500427,-4.441244125366211,1.0869675874710083
1696082080170155000,7.247155029296875,-1.2042834758758545,-4.623203277587891,0.363918662071228
1696082080180155100,7.257155029296875,-1.8315643072128296,-5.219658851623535,-0.42616790533065796
1696082080190154000,7.267154052734375,-2.2433669567108154,-5.650615215301514,-1.0055646896362305
1696082080200154000,7.277154052734375,-2.4133553504943848,-6.110301971435547,-1.2401964664459229
1696082080210154000,7.287154052734375,-2.2673089504241943,-6.4502787590026855,-1.359906554222107
1696082080220154000,7.297154052734375,-1.9584569931030273,-6.5388641357421875,-1.577778935432434
1696082080230154000,7.307154052734375,-1.6304513216018677,-6.40000057220459,-1.8411411046981812
1696082080240154000,7.317154052734375,-1.558625340461731,-6.1414265632629395,-1.9967641830444336
1696082080250154000,7.327154052734375,-1.6112977266311646,-5.827786445617676,-2.1499931812286377
1696082080260154000,7.337154052734375,-1.7142484188079834,-5.439925670623779,-2.3487119674682617
1696082080270154000,7.347154052734375,-1.7980455160140991,-5.064035892486572,-2.451662540435791
1696082080280154000,7.357154052734375,-1.7549498081207275,-4.687847137451172,-2.4684219360351562
1696082080290154000,7.367154052734375,-1.292868971824646,-4.201824188232422,-2.451662540435791
1696082080300155000,7.37715478515625,-0.586579442024231,-3.6774938106536865,-2.540247917175293
1696082080310155500,7.387155517578125,0.014365210197865963,-3.550601005554199,-2.2840683460235596
1696082080320155400,7.3971552734375,0.40701428055763245,-4.010287761688232,-0.8858546018600464
1696082080330155500,7.407155517578125,1.4317326545715332,-5.183745861053467,1.556231141090393
1696082080340155400,7.4171552734375,3.995922565460205,-7.142202854156494,4.393360137939453
1696082080350155500,7.427155517578125,7.27148962020874,-9.399934768676758,6.8285627365112305
1696082080360155400,7.4371552734375,10.824484825134277,-11.085453033447266,7.795820236206055
1696082080370155500,7.447155517578125,13.005602836608887,-12.340014457702637,8.12861442565918
1696082080380155400,7.4571552734375,15.153501510620117,-14.114118576049805,8.023268699645996
1696082080390155000,7.467155029296875,16.072874069213867,-16.056114196777344,7.776666164398193
1696082080400155100,7.477155029296875,13.194745063781738,-17.60276985168457,5.521328449249268
1696082080410155000,7.487155029296875,10.3240966796875,-17.681777954101562,2.38462495803833
1696082080420155100,7.497155029296875,8.92348861694336,-14.949994087219238,0.7038952708244324
1696082080430155000,7.507155029296875,7.077559471130371,-10.59464168548584,-0.16519992053508759
1696082080440155100,7.517155029296875,5.095160484313965,-6.744765281677246,-0.5578489899635315
1696082080450155000,7.527155029296875,4.414907932281494,-3.8738183975219727,-1.2952631711959839
1696082080460155100,7.537155029296875,5.42795467376709,-2.6599581241607666,-2.631227731704712
1696082080470155000,7.547155029296875,2.1930887699127197,-3.5194764137268066,-3.9193081855773926
1696082080480155100,7.557155029296875,-2.580949544906616,-6.347328186035156,-5.571606636047363
1696082080490155000,7.567155029296875,-6.285078525543213,-10.101436614990234,-6.426336765289307
1696082080500155100,7.577155029296875,-8.312967300415039,-13.223475456237793,-6.275501728057861
1696082080510155000,7.587155029296875,-7.690474987030029,-16.487071990966797,-5.442319869995117
1696082080520155100,7.597155029296875,-1.98958158493042,-19.697696685791016,-3.5625722408294678
1696082080530155000,7.607155029296875,5.011363506317139,-22.1158390045166,0.27054479718208313
1696082080540155100,7.617155029296875,8.664915084838867,-20.073585510253906,3.6846764087677
1696082080550155000,7.627155029296875,3.711012601852417,-15.091252326965332,3.0166940689086914
1696082080560155100,7.637155029296875,-3.0621838569641113,-10.920252799987793,0.13407529890537262
1696082080570155000,7.647155029296875,-7.412747859954834,-7.855675220489502,-1.4915876388549805
1696082080580155100,7.657155029296875,-9.67766284942627,-5.459079265594482,-1.7046716213226318
1696082080590155000,7.667155029296875,-10.597036361694336,-4.390965938568115,-1.170764684677124
1696082080600155100,7.677155029296875,-9.629778861999512,-5.372888088226318,-0.8930372595787048
1696082080610155000,7.687155029296875,-7.216423034667969,-7.767089366912842,-0.3734954595565796
1696082080620155100,7.697155029296875,-5.035305500030518,-10.111013412475586,-0.7757213711738586
1696082080630155000,7.707155029296875,-3.6942532062530518,-11.818078994750977,-1.534683346748352
1696082080640155100,7.717155029296875,-3.069366693496704,-12.727875709533691,-1.2330138683319092
1696082080650155000,7.727155029296875,-2.557007312774658,-12.574646949768066,-0.13168109953403473
1696082080660155100,7.737155029296875,-1.4221558570861816,-11.686397552490234,0.8331822156906128
1696082080670155000,7.747155029296875,0.05027823522686958,-10.503662109375,1.3431471586227417
1696082080680155100,7.757155029296875,1.534683346748352,-9.25867748260498,1.5825673341751099
1696082080690155500,7.767155517578125,2.7964274883270264,-8.102277755737305,1.5658079385757446
1696082080700155400,7.7771552734375,3.6583402156829834,-7.343316078186035,1.2066776752471924
1696082080710155500,7.787155517578125,3.8786067962646484,-7.020098686218262,0.6536170840263367
1696082080720155400,7.7971552734375,3.4141316413879395,-7.161356449127197,0.1173158809542656
1696082080730155500,7.807155517578125,2.410961151123047,-7.5875244140625,-0.3064578175544739
1696082080740155400,7.8171552734375,1.1803414821624756,-8.07115364074707,-0.7158663272857666
1696082080750155500,7.827155517578125,-0.2298433631658554,-8.856451034545898,-0.7876923680305481
1696082080760155400,7.8371552734375,-1.601720929145813,-9.232340812683105,-0.9193734526634216
1696082080770155500,7.847155517578125,-2.3798365592956543,-9.306561470031738,-0.8834604024887085
1696082080780155400,7.8571552734375,-2.7078421115875244,-8.952219009399414,-0.6775590777397156
1696082080790155500,7.867155517578125,-2.7557260990142822,-8.511686325073242,-0.31842881441116333
1696082080800155400,7.8771552734375,-2.056619167327881,-8.329727172851562,-0.0071826050989329815
1696082080810155500,7.887155517578125,-0.1867477297782898,-8.561964988708496,0.07661445438861847
1696082080820155400,7.8971552734375,2.188300371170044,-9.378387451171875,0.3878606855869293
1696082080830155500,7.907155517578125,3.8283286094665527,-10.331279754638672,0.8954314589500427
1696082080840155400,7.9171552734375,4.23773717880249,-10.874763488769531,1.4772224426269531
1696082080850155500,7.927155517578125,3.488351821899414,-10.86518669128418,1.9823989868164062
1696082080860155400,7.9371552734375,2.0925323963165283,-10.647314071655273,2.387019157409668
1696082080870155500,7.947155517578125,0.40222588181495667,-10.252270698547363,2.4205379486083984
1696082080880155400,7.9571552734375,-0.9097966551780701,-10.012850761413574,1.7501614093780518
1696082080890155500,7.967155517578125,-1.170764684677124,-10.1660795211792,0.7589619159698486
1696082080900155400,7.9771552734375,-0.3208230137825012,-10.62576675415039,-0.05506663769483566
1696082080910155500,7.987155517578125,1.2186486721038818,-11.063905715942383,-0.608127236366272
1696082080920155400,7.9971552734375,3.0813376903533936,-11.090241432189941,-0.8810662031173706
1696082080930155500,8.007155517578125,4.627991676330566,-10.664073944091797,-0.6967126727104187
1696082080940155400,8.0171552734375,4.788403511047363,-10.304943084716797,0.038307227194309235
1696082080950155500,8.027155517578125,3.4308910369873047,-10.264242172241211,0.9768342971801758
1696082080960155400,8.0371552734375,1.4053963422775269,-10.400711059570312,1.5729905366897583
1696082080970155500,8.047155517578124,-0.38307225704193115,-10.704774856567383,1.9704279899597168
1696082080980155400,8.0571552734375,-1.623268723487854,-11.14770221710205,2.540247917175293
1696082080990155500,8.067155517578126,-2.161964178085327,-11.669638633728027,3.383007049560547
1696082081000155400,8.0771552734375,-1.941697597503662,-11.952154159545898,4.335899353027344
1696082081010155500,8.087155517578125,-0.6512228846549988,-11.763011932373047,5.071218490600586
1696082081020155400,8.0971552734375,1.5131354331970215,-11.157279014587402,5.0784010887146
1696082081030155500,8.107155517578125,3.9647979736328125,-10.647314071655273,4.426878929138184
1696082081040155400,8.1171552734375,5.56442403793335,-10.860398292541504,3.713406801223755
1696082081050155500,8.127155517578124,5.806238174438477,-11.87075138092041,3.0550012588500977
1696082081060155400,8.1371552734375,5.061641693115234,-12.77575969696045,2.6168625354766846
1696082081070155500,8.147155517578126,3.7852327823638916,-13.17080307006836,2.188300371170044
1696082081080155400,8.1571552734375,2.8610711097717285,-12.885892868041992,1.9033904075622559
1696082081090155500,8.167155517578125,2.736572504043579,-12.545916557312012,1.941697597503662
1696082081100155400,8.1771552734375,2.4372973442077637,-12.579435348510742,2.0374655723571777
1696082081110155500,8.187155517578125,1.6041151285171509,-13.278541564941406,2.1475989818573
1696082081120155400,8.1971552734375,-0.05027823522686958,-14.20988655090332,1.5322890281677246
1696082081130155500,8.207155517578125,-1.721431016921997,-14.918869018554688,-0.07661445438861847
1696082081140155400,8.2171552734375,-2.274491548538208,-15.948375701904297,-2.0853497982025146
1696082081150155500,8.227155517578124,-2.513911724090576,-17.375320434570312,-3.5745432376861572
1696082081160155400,8.2371552734375,-3.1938650608062744,-18.318635940551758,-5.126285076141357
1696082081170155500,8.247155517578125,-3.3901896476745605,-18.708890914916992,-6.258742332458496
1696082081180155400,8.2571552734375,-4.039018154144287,-18.182167053222656,-6.318597793579102
1696082081190155500,8.267155517578125,-4.812345504760742,-16.56847381591797,-5.420772075653076
1696082081200155400,8.2771552734375,-4.199429988861084,-14.839860916137695,-4.280832767486572
1696082081210155500,8.287155517578125,-0.40701428055763245,-13.434165000915527,-3.3949780464172363
1696082081220155400,8.2971552734375,1.2713210582733154,-12.560281753540039,-1.41257905960083
1696082081230155500,8.307155517578124,1.479616641998291,-11.786953926086426,-0.45489832758903503
1696082081240155400,8.3171552734375,0.7374141216278076,-11.063905715942383,-0.1364694982767105
1696082081250155500,8.327155517578126,0.29209262132644653,-10.283395767211914,-0.1843535304069519
1696082081260155400,8.3371552734375,-0.031124621629714966,-9.287407875061035,-0.3256114423274994
1696082081270155500,8.347155517578125,-0.44771572947502136,-8.238747596740723,-0.4644751250743866
1696082081280155400,8.3571552734375,-1.1468225717544556,-7.123049259185791,-0.49320554733276367
1696082081290155500,8.367155517578125,-1.6903064250946045,-6.08396577835083,-0.6967126727104187
1696082081300155400,8.3771552734375,-2.0685901641845703,-5.198111057281494,-1.072602391242981
1696082081310155500,8.387155517578124,-1.9991583824157715,-4.60165548324585,-1.623268723487854
1696082081320155400,8.3971552734375,-1.5466543436050415,-4.479551315307617,-2.0661959648132324
1696082081330155500,8.407155517578126,-1.5298948287963867,-4.517858505249023,-2.3271639347076416
1696082081340155400,8.4171552734375,-1.8148049116134644,-4.5825018882751465,-2.5689783096313477
1696082081350155500,8.427155517578125,-1.9752163887023926,-4.69024133682251,-2.494758129119873
1696082081360155400,8.4371552734375,-2.0183119773864746,-4.934749126434326,-2.2912509441375732
1696082081370155500,8.447155517578125,-1.965639591217041,-5.29387903213501,-2.2026655673980713
1696082081380155400,8.4571552734375,-1.8555063009262085,-5.657797813415527,-2.1954829692840576
1696082081390155500,8.467155517578124,-1.9393033981323242,-5.904400825500488,-2.382230758666992
1696082081400155400,8.4771552734375,-2.1332337856292725,-5.981015205383301,-2.9520506858825684
1696082081410155500,8.487155517578126,-2.3726539611816406,-5.995380401611328,-3.4093432426452637
1696082081420155400,8.4971552734375,-2.628833532333374,-5.822998046875,-3.7397429943084717
1696082081430155500,8.507155517578125,-2.676717519760132,-5.375282287597656,-3.9384617805480957
1696082081440155400,8.5171552734375,-2.161964178085327,-4.707000732421875,-3.97916316986084
1696082081450155500,8.527155517578125,-1.4867992401123047,-3.976768970489502,-4.084507942199707
1696082081460155400,8.5371552734375,-0.9552865028381348,-3.5170822143554688,-3.957615375518799
1696082081470155500,8.547155517578124,-0.5722141861915588,-3.691859006881714,-2.8227639198303223
1696082081480155400,8.5571552734375,0.8834604024887085,-4.479551315307617,-0.06464344263076782
1696082081490155500,8.567155517578126,4.031835556030273,-5.803843975067139,3.0885202884674072
1696082081500155400,8.5771552734375,8.389581680297852,-7.90355920791626,6.73997688293457
1696082081510155500,8.587155517578125,12.05271053314209,-10.53718090057373,11.990461349487305
1696082081520155400,8.5971552734375,11.109395027160645,-12.543521881103516,13.671191215515137
1696082081530155500,8.607155517578125,11.913846969604492,-14.478036880493164,13.824419975280762
1696082081540155400,8.6171552734375,14.458883285522461,-16.681001663208008,13.704710006713867
1696082081550155500,8.627155517578124,13.132495880126953,-18.737621307373047,11.482891082763672
1696082081560155400,8.6371552734375,9.775824546813965,-19.00098419189453,6.182127952575684
1696082081570155500,8.647155517578126,6.854898929595947,-15.730504035949707,1.4676456451416016
1696082081580155400,8.6571552734375,5.238812446594238,-10.822091102600098,0.5267243981361389
1696082081590155500,8.667155517578125,4.8722004890441895,-6.974608898162842,-0.24899697303771973
1696082081600155400,8.6771552734375,4.563348293304443,-5.851728439331055,-1.7908629179000854
1696082081610155500,8.687155517578125,3.095702886581421,-8.478167533874512,-3.7876269817352295
1696082081620155400,8.6971552734375,3.0095114707946777,-12.21072769165039,-6.136638164520264
1696082081630155500,8.707155517578125,0.768538773059845,-14.66239070892334,-6.96503210067749
1696082081640155400,8.7171552734375,-2.3487119674682617,-15.713744163513184,-5.732017993927002
1696082081650155500,8.727155517578124,-0.8427590131759644,-16.613964080810547,-1.6855180263519287
1696082081660155400,8.7371552734375,-0.16998831927776337,-14.748881340026855,1.1492167711257935
1696082081670155500,8.747155517578125,-0.29209262132644653,-11.77977180480957,1.3958195447921753
1696082081680155400,8.7571552734375,0.2298433631658554,-9.021651268005371,0.3447650372982025
1696082081690155500,8.767155517578125,-2.671929121017456,-7.22599983215332,-0.3208230137825012
1696082081700155400,8.7771552734375,-5.159803867340088,-6.378452777862549,-1.0342950820922852
1696082081710155500,8.787155517578125,-6.0743889808654785,-6.464643955230713,-1.6280571222305298
1696082081720155400,8.7971552734375,-6.541258335113525,-7.044040679931641,-2.03507137298584
1696082081730155500,8.807155517578124,-7.058405876159668,-8.042423248291016,-2.8634653091430664
1696082081740155400,8.8171552734375,-7.350498676300049,-9.378387451171875,-4.1180267333984375
1696082081750155500,8.827155517578126,-7.099107265472412,-10.731111526489258,-4.264073371887207
1696082081760155400,8.8371552734375,-6.282684326171875,-11.856386184692383,-3.0885202884674072
1696082081770155500,8.847155517578125,-5.514145851135254,-12.48127269744873,-2.027888774871826
1696082081780155400,8.8571552734375,-4.6734819412231445,-12.641684532165527,-1.5203180313110352
1696082081790155500,8.867155517578125,-3.9001545906066895,-11.832444190979004,-1.070208191871643
1696082081800155400,8.8771552734375,-2.205059766769409,-10.620978355407715,-0.304063618183136
1696082081810155500,8.887155517578124,0.4381389021873474,-9.651326179504395,0.38546648621559143
1696082081820155400,8.8971552734375,3.117250680923462,-8.822932243347168,0.9959878921508789
1696082081830155500,8.907155517578126,5.162198066711426,-8.200440406799316,1.3982137441635132
1696082081840155400,8.9171552734375,6.086359977722168,-7.807791233062744,1.41257905960083
1696082081850155500,8.927155517578125,5.480627059936523,-7.616254806518555,1.2282254695892334
1696082081860155400,8.9371552734375,3.581725835800171,-7.455843448638916,0.8810662031173706
1696082081870155500,8.947155517578125,1.1516109704971313,-7.551611423492432,0.6057330369949341
1696082081880155400,8.9571552734375,-1.072602391242981,-7.872434616088867,0.26336219906806946
1696082081890155500,8.967155517578124,-2.2361843585968018,-8.353669166564941,-0.11013327538967133
1696082081900155400,8.9771552734375,-2.695871114730835,-8.672098159790039,-0.31603461503982544
1696082081910155500,8.987155517578126,-3.2561142444610596,-8.911518096923828,-0.3208230137825012
1696082081920155400,8.9971552734375,-3.950432777404785,-8.95700740814209,-0.09576806426048279
1696082081930155500,9.007155517578125,-3.8355112075805664,-8.794201850891113,0.21308395266532898
1696082081940155400,9.0171552734375,-2.7006595134735107,-8.846874237060547,0.31842881441116333
1696082081950155500,9.027155517578125,-0.7733271718025208,-9.323320388793945,0.6607996821403503
1696082081960155400,9.0371552734375,2.1140801906585693,-10.19959831237793,1.161187767982483
1696082081970155500,9.047155517578124,4.857835292816162,-11.001656532287598,1.7956513166427612
1696082081980155400,9.0571552734375,6.292261123657227,-11.38712215423584,2.7437551021575928
1696082081990155500,9.067155517578126,5.9642558097839355,-11.068694114685059,3.6104562282562256
1696082082000155400,9.0771552734375,4.010287761688232,-10.187627792358398,3.8762125968933105
1696082082010155500,9.087155517578125,1.161187767982483,-9.366415977478027,3.0885202884674072
1696082082020155400,9.0971552734375,-1.7046716213226318,-9.028834342956543,1.4053963422775269
1696082082030155500,9.107155517578125,-3.5458126068115234,-9.28261947631836,-0.26815059781074524
1696082082040155400,9.1171552734375,-3.9408559799194336,-9.941024780273438,-1.5729905366897583
1696082082050155500,9.127155517578124,-2.7126305103302,-10.755053520202637,-2.3798365592956543
1696082082060155400,9.1371552734375,-0.1364694982767105,-11.375151634216309,-2.669534921646118
1696082082070155500,9.147155517578126,3.3207578659057617,-11.640908241271973,-2.4684219360351562
1696082082080155400,9.1571552734375,6.790255069732666,-11.607389450073242,-1.7836803197860718
1696082082090155500,9.167155517578125,8.312967300415039,-11.346421241760254,-0.5530605912208557
1696082082100155400,9.1771552734375,6.87405252456665,-10.853215217590332,0.8547300100326538
1696082082110155500,9.187155517578125,3.5027170181274414,-10.429441452026367,2.0901381969451904
1696082082120155400,9.1971552734375,0.3280056416988373,-10.235511779785156,2.9951462745666504
1696082082130155500,9.207155517578125,-1.4437036514282227,-10.340856552124023,4.0533833503723145
1696082082140155400,9.2171552734375,-2.2242133617401123,-10.604218482971191,5.339369297027588
1696082082150155500,9.227155517578124,-2.142810583114624,-11.008838653564453,6.672939300537109
1696082082160155400,9.2371552734375,-0.8140285611152649,-11.073482513427734,7.54203462600708
1696082082170155500,9.247155517578125,1.7477672100067139,-10.6832275390625,7.54203462600708
1696082082180155400,9.2571552734375,4.8267107009887695,-10.376769065856934,6.56998872756958
1696082082190155500,9.267155517578125,6.8285627365112305,-10.877157211303711,5.162198066711426
1696082082200155400,9.2771552734375,6.730400085449219,-11.997644424438477,3.794809579849243
1696082082210155500,9.287155517578125,5.535693645477295,-12.957718849182129,2.408566951751709
1696082082220155400,9.2971552734375,3.801992416381836,-13.343185424804688,1.1109095811843872
1696082082230155500,9.307155517578124,1.5394717454910278,-13.714286804199219,0.5578489899635315
1696082082240155400,9.3171552734375,-1.1516109704971313,-14.667179107666016,1.256955862045288
1696082082250155500,9.327155517578126,-3.445256233215332,-15.948375701904297,1.5083470344543457
1696082082260155400,9.3371552734375,-4.2951979637146,-17.262792587280273,0.8092401623725891
1696082082270155500,9.347155517578125,-3.6559460163116455,-18.08639907836914,-1.237802267074585
1696082082280155400,9.3571552734375,-2.875436305999756,-19.159000396728516,-3.315969467163086
1696082082290155500,9.367155517578125,-2.559401512145996,-19.97542381286621,-5.358522891998291
1696082082300155400,9.3771552734375,-2.1499931812286377,-20.310611724853516,-6.684910297393799
1696082082310155500,9.387155517578124,-2.1811177730560303,-20.061614990234375,-7.896376609802246
1696082082320155400,9.3971552734375,-2.5043349266052246,-18.622699737548828,-8.490138053894043
1696082082330155500,9.407155517578126,-2.7940332889556885,-16.0297794342041,-7.40556526184082
1696082082340155400,9.4171552734375,-0.011971008032560349,-13.673584938049316,-6.431125164031982
1696082082350155500,9.427155517578125,2.367865562438965,-12.246641159057617,-4.462791919708252
1696082082360155400,9.4371552734375,2.0374655723571777,-11.166855812072754,-2.6791117191314697
1696082082370155500,9.447155517578125,0.40940847992897034,-10.474931716918945,-1.5490485429763794
1696082082380155400,9.4571552734375,-1.1204863786697388,-9.87159252166748,-0.8236053586006165
1696082082390155500,9.467155517578124,-1.6831238269805908,-9.277831077575684,-0.1867477297782898
1696082082400155400,9.4771552734375,-1.764526605606079,-8.583512306213379,0.40940847992897034
1696082082410155500,9.487155517578126,-1.290474772453308,-7.7287821769714355,0.8523358106613159
1696082082420155400,9.4971552734375,-1.0462661981582642,-6.653785705566406,1.1252747774124146
1696082082430155500,9.507155517578125,-0.8571242094039917,-5.581183433532715,1.137245774269104
1696082082440155400,9.5171552734375,-1.01753568649292,-4.680664539337158,0.8643068075180054
1696082082450155500,9.527155517578125,-1.1516109704971313,-4.134786128997803,0.3926490843296051
1696082082460155400,9.5371552734375,-1.2282254695892334,-3.974374771118164,-0.24181437492370605
1696082082470155500,9.547155517578124,-1.259350061416626,-4.141968727111816,-0.9552865028381348
1696082082480155400,9.5571552734375,-1.3646949529647827,-4.266467571258545,-1.723825216293335
1696082082490155500,9.567155517578126,-1.7166426181793213,-4.527435302734375,-2.185906171798706
1696082082500155400,9.5771552734375,-1.965639591217041,-4.7620673179626465,-2.449268341064453
1696082082510155500,9.587155517578125,-2.075772762298584,-4.932354927062988,-2.612074136734009
1696082082520155400,9.5971552734375,-2.2146365642547607,-5.042488098144531,-2.7533318996429443
1696082082530155500,9.607155517578125,-2.3774423599243164,-4.965873718261719,-2.9544448852539062
1696082082540155400,9.6171552734375,-2.477998733520508,-4.774038314819336,-3.3470940589904785
1696082082550155500,9.627155517578124,-2.6671407222747803,-4.335899353027344,-3.7397429943084717
1696082082560155400,9.6371552734375,-2.7054479122161865,-3.8091750144958496,-4.151545524597168
1696082082570155500,9.647155517578126,-2.516305923461914,-3.2824504375457764,-4.508281707763672
1696082082580155400,9.6571552734375,-2.1140801906585693,-2.7485435009002686,-4.831499099731445
1696082082590155500,9.667155517578125,-1.4317326545715332,-2.2625205516815186,-4.876988887786865
1696082082600155400,9.6771552734375,-0.7996633648872375,-2.209848165512085,-4.448426723480225
1696082082610155500,9.687155517578125,-0.023942016065120697,-2.734178304672241,-3.093308687210083
1696082082620155400,9.6971552734375,1.50355863571167,-3.5673606395721436,-0.8068459630012512
1696082082630155500,9.707155517578125,3.466804027557373,-4.774038314819336,1.6639702320098877
1696082082640155400,9.7171552734375,7.738358974456787,-7.328950881958008,4.218583583831787
1696082082650155500,9.727155517578124,14.954782485961914,-11.188404083251953,7.690474987030029
1696082082660155100,9.737155029296876,17.305889129638672,-15.984289169311523,11.734281539916992
1696082082670155000,9.747155029296875,14.739304542541504,-21.833324432373047,16.171037673950195
1696082082680155100,9.757155029296875,11.825261116027832,-26.147974014282227,17.140687942504883
1696082082690155000,9.767155029296875,11.102212905883789,-25.99713897705078,14.17876148223877
1696082082700155100,9.777155029296875,8.147768020629883,-21.136611938476562,9.220370292663574
1696082082710155000,9.787155029296875,5.28190803527832,-15.155895233154297,4.4508209228515625
1696082082720155100,9.797155029296874,4.050989151000977,-9.718363761901855,2.5977089405059814
1696082082730155000,9.807155029296876,4.034229755401611,-5.636250019073486,1.6663644313812256
1696082082740155100,9.817155029296876,4.141968727111816,-4.304774761199951,-0.4668693244457245
1696082082750155000,9.827155029296875,3.421314239501953,-7.039252281188965,-2.9903578758239746
1696082082760155100,9.837155029296875,0.15322890877723694,-11.035175323486328,-3.797203779220581
1696082082770155000,9.847155029296875,-3.6583402156829834,-14.020744323730469,-3.5673606395721436
1696082082780155100,9.857155029296875,-3.600879430770874,-16.87732696533203,-3.5625722408294678
1696082082790155000,9.867155029296875,2.894589900970459,-19.163789749145508,-2.212242364883423
1696082082800155100,9.877155029296874,0.3064578175544739,-16.740856170654297,-2.7437551021575928
1696082082810155000,9.887155029296874,-3.3063924312591553,-12.471695899963379,-3.3949780464172363
1696082082820155100,9.897155029296876,-4.888959884643555,-9.438241958618164,-3.9240965843200684
1696082082830155000,9.907155029296876,-5.602731227874756,-6.943484306335449,-4.886565685272217
1696082082840155100,9.917155029296875,-6.316203594207764,-5.119102478027344,-5.257966041564941
1696082082850155000,9.927155029296875,-6.656179904937744,-5.214870452880859,-5.104737281799316
1696082082860155100,9.937155029296875,-6.610690116882324,-6.459855556488037,-4.994604110717773
1696082082870155000,9.947155029296875,-6.426336765289307,-8.032846450805664,-4.867412090301514
1696082082880155100,9.957155029296874,-5.937919616699219,-9.742305755615234,-4.163516521453857
1696082082890155000,9.967155029296874,-5.447108268737793,-11.018415451049805,-2.7006595134735107
1696082082900155100,9.977155029296876,-5.791872978210449,-11.68879222869873,-2.6791117191314697
1696082082910155000,9.987155029296876,-6.143820762634277,-11.87075138092041,-2.4851813316345215
1696082082920155100,9.997155029296875,-5.205293655395508,-11.976096153259277,-1.7286136150360107
1696082082930155000,10.007155029296875,-3.466804027557373,-11.631331443786621,-0.5937620401382446
1696082082940155100,10.017155029296875,-1.314416766166687,-10.95616626739502,0.6224924325942993
1696082082950155000,10.027155029296875,1.2761094570159912,-10.137349128723145,1.7956513166427612
1696082082960155400,10.0371552734375,4.120420932769775,-9.206005096435547,2.691082715988159
1696082082970155500,10.047155517578124,6.026504993438721,-8.480561256408691,3.0382418632507324
1696082082980155400,10.0571552734375,6.376058578491211,-7.929895401000977,2.889801502227783
1696082082990155500,10.067155517578126,5.442319869995117,-7.616254806518555,2.209848165512085
1696082083000155400,10.0771552734375,3.7660791873931885,-7.549217224121094,1.1276689767837524
1696082083010155500,10.087155517578125,2.051830768585205,-7.582736015319824,0.014365210197865963
1696082083020155400,10.0971552734375,0.395043283700943,-7.961019992828369,-0.8092401623725891
1696082083030155500,10.107155517578125,-1.259350061416626,-8.619425773620605,-1.3623007535934448
1696082083040155400,10.1171552734375,-2.7437551021575928,-9.0767183303833,-1.7094600200653076
1696082083050155500,10.127155517578124,-3.758896589279175,-9.074323654174805,-1.7525556087493896
1696082083060155400,10.1371552734375,-4.1156325340271,-8.851662635803223,-1.5179238319396973
1696082083070155500,10.147155517578126,-3.6367924213409424,-8.664915084838867,-0.7493851184844971
1696082083080155400,10.1571552734375,-1.9967641830444336,-8.933065414428711,0.011971008032560349
1696082083090155500,10.167155517578125,0.545877993106842,-9.644144058227539,0.7541735172271729
1696082083100155400,10.1771552734375,3.0406360626220703,-10.601824760437012,1.4915876388549805
1696082083110155500,10.187155517578125,4.383783340454102,-11.243470191955566,2.3918075561523438
1696082083120155400,10.1971552734375,4.338293552398682,-11.109395027160645,3.1675288677215576
1696082083130155500,10.207155517578125,3.112462282180786,-10.388740539550781,3.6990416049957275
1696082083140155400,10.2171552734375,1.072602391242981,-9.759065628051758,3.490746021270752
1696082083150155500,10.227155517578124,-0.7613561153411865,-9.483732223510742,2.6360161304473877
1696082083160155400,10.2371552734375,-1.3694833517074585,-9.754277229309082,1.5825673341751099
1696082083170155500,10.247155517578125,-0.272938996553421,-10.237905502319336,0.5913678407669067
1696082083180155400,10.2571552734375,1.7908629179000854,-10.699986457824707,-0.043095629662275314
1696082083190155500,10.267155517578125,3.7684733867645264,-11.13573169708252,-0.40940847992897034
1696082083200155400,10.2771552734375,4.771644115447998,-11.221922874450684,-0.5793967843055725
1696082083210155500,10.287155517578125,4.185064792633057,-10.862792015075684,-0.5674257874488831
1696082083220155400,10.2971552734375,2.387019157409668,-10.3240966796875,-0.37828385829925537
1696082083230155500,10.307155517578124,0.47165772318840027,-10.25466537475586,0.05267243832349777
1696082083240155400,10.3171552734375,-0.9241618514060974,-11.004050254821777,1.0295066833496094
1696082083250155500,10.327155517578126,-1.7334020137786865,-11.956942558288574,2.3032219409942627
1696082083260155400,10.3371552734375,-1.8842366933822632,-12.562675476074219,3.670311212539673
1696082083270155500,10.347155517578125,-0.8259995579719543,-12.368744850158691,5.061641693115234
1696082083280155400,10.3571552734375,1.2832920551300049,-11.47331428527832,5.935525417327881
1696082083290155500,10.367155517578125,3.624821424484253,-10.553940773010254,5.918766021728516
1696082083300155400,10.3771552734375,5.459079265594482,-10.300154685974121,5.4135894775390625
1696082083310155500,10.387155517578124,5.892429828643799,-10.9585599899292,4.757278919219971
1696082083320155400,10.3971552734375,4.963479518890381,-12.040740013122559,4.110844135284424
1696082083330155500,10.407155517578126,3.9671921730041504,-12.852374076843262,3.469198226928711
1696082083340155400,10.4171552734375,3.7181951999664307,-13.407828330993652,3.1435868740081787
1696082083350155500,10.427155517578125,3.485957622528076,-13.326425552368164,3.181894063949585
1696082083360155400,10.4371552734375,2.051830768585205,-13.029544830322266,3.2776620388031006
1696082083370155500,10.447155517578125,-0.2106897532939911,-13.54190444946289,3.047818660736084
1696082083380155400,10.4571552734375,-1.7860745191574097,-14.645630836486816,2.10210919380188
1696082083390155500,10.467155517578124,-2.4612393379211426,-15.886126518249512,0.3974374830722809
1696082083400155400,10.4771552734375,-2.6216509342193604,-17.408838272094727,-1.4963760375976562
1696082083410155500,10.487155517578126,-3.292027235031128,-18.809446334838867,-3.3662476539611816
1696082083420155400,10.4971552734375,-3.7038300037384033,-20.080768585205078,-5.210082054138184
1696082083430155500,10.507155517578125,-4.141968727111816,-20.439897537231445,-6.277895927429199
1696082083440155400,10.5171552734375,-4.9060187339782715,-19.542072296142578,-6.550835132598877
1696082083450155500,10.527155517578125,-4.76924991607666,-17.22927474975586,-5.535693645477295
1696082083460155400,10.5371552734375,-2.9281086921691895,-14.99308967590332,-4.563348293304443
1696082083470155500,10.547155517578124,1.9847931861877441,-13.166014671325684,-4.017470359802246
1696082083480155400,10.5571552734375,3.7229835987091064,-11.889904975891113,-1.987187385559082
1696082083490155500,10.567155517578126,2.8993782997131348,-10.824484825134277,-0.8810662031173706
1696082083500155400,10.5771552734375,1.3335703611373901,-9.890746116638184,-0.811634361743927
1696082083510155500,10.587155517578125,-0.12689268589019775,-9.16769790649414,-1.194706678390503
1696082083520155400,10.5971552734375,-1.1276689767837524,-8.360851287841797,-0.9720458984375
1696082083530155500,10.607155517578125,-1.599326729774475,-7.474997043609619,-0.8379706144332886
1696082083540155400,10.6171552734375,-1.9728221893310547,-6.5388641357421875,-0.9002198576927185
1696082083550155500,10.627155517578124,-1.886630892753601,-5.547664642333984,-0.9026140570640564
1696082083560155400,10.6371552734375,-1.3455413579940796,-4.757278919219971,-0.8427590131759644
1696082083570155500,10.647155517578126,-0.9193734526634216,-4.292803764343262,-1.048660397529602
1696082083580155400,10.6571552734375,-0.9672574996948242,-4.141968727111816,-1.1659762859344482
1696082083590155500,10.667155517578125,-1.4413094520568848,-4.352658748626709,-1.3096283674240112
1696082083600155400,10.6771552734375,-1.920149803161621,-4.592078685760498,-1.45806884765625
1696082083610155500,10.687155517578125,-2.169146776199341,-4.910807132720947,-1.7142484188079834
1696082083620155400,10.6971552734375,-2.3487119674682617,-5.260360240936279,-1.778891921043396
1696082083630155500,10.707155517578125,-2.2864625453948975,-5.480627059936523,-1.8770540952682495
1696082083640155400,10.7171552734375,-2.051830768585205,-5.533299446105957,-2.0805611610412598
1696082083650155500,10.727155517578124,-2.073378562927246,-5.47344446182251,-2.2433669567108154
1696082083660155400,10.7371552734375,-2.3056161403656006,-5.24838924407959,-2.449268341064453
1696082083670155500,10.747155517578125,-2.609679937362671,-4.932354927062988,-2.674323320388794
1696082083680155400,10.7571552734375,-2.8778305053710938,-4.623203277587891,-3.028665065765381
1696082083690155500,10.767155517578125,-2.8371291160583496,-4.331110954284668,-3.428496837615967
1696082083700155400,10.7771552734375,-2.43011474609375,-4.000710964202881,-3.8786067962646484
1696082083710155500,10.787155517578125,-1.7741034030914307,-3.648763418197632,-4.285621166229248
1696082083720155400,10.7971552734375,-0.7589619159698486,-3.3039982318878174,-4.422090530395508
1696082083730155500,10.807155517578124,0.24181437492370605,-3.4572272300720215,-3.840299606323242
1696082083740155400,10.8171552734375,1.5155296325683594,-4.2544965744018555,-2.209848165512085
1696082083750155500,10.827155517578126,3.251325845718384,-5.174169063568115,0.3423708379268646
1696082083760155400,10.8371552734375,6.012139797210693,-6.653785705566406,3.045424461364746
1696082083770155500,10.847155517578125,11.451766014099121,-9.371204376220703,6.366481781005859
1696082083780155400,10.8571552734375,14.068628311157227,-12.69675064086914,10.391134262084961
1696082083790155500,10.867155517578125,13.415011405944824,-16.45115852355957,14.382268905639648
1696082083800155400,10.8771552734375,13.774141311645508,-20.63382911682129,16.834230422973633
1696082083810155500,10.887155517578124,15.05294418334961,-23.159711837768555,14.823101043701172
1696082083820155400,10.8971552734375,13.4413480758667,-22.71438980102539,10.28818416595459
1696082083830155500,10.907155517578126,8.834903717041016,-19.446304321289062,5.4566850662231445
1696082083840155400,10.9171552734375,5.092766284942627,-14.296077728271484,1.6831238269805908
1696082083850155500,10.927155517578125,3.957615375518799,-9.083900451660156,0.33039984107017517
1696082083860155400,10.9371552734375,4.958691120147705,-5.064035892486572,-0.19393034279346466
1696082083870155500,10.947155517578125,4.434061527252197,-4.256890773773193,-1.6136919260025024
1696082083880155400,10.9571552734375,3.3734302520751953,-7.312191486358643,-3.531447410583496
1696082083890155500,10.967155517578124,1.5729905366897583,-11.016021728515625,-5.099948883056641
1696082083900155400,10.9771552734375,-2.1787235736846924,-13.522750854492188,-5.77990198135376
1696082083910155500,10.987155517578126,-3.3734302520751953,-16.111181259155273,-6.421548366546631
1696082083920155400,10.9971552734375,0.586579442024231,-18.191743850708008,-4.69024133682251
1696082083930155500,11.007155517578125,-3.4356794357299805,-14.71057415008545,-3.466804027557373
1696082083940155400,11.0171552734375,-6.493374347686768,-10.71914005279541,-2.6360161304473877
1696082083950155500,11.027155517578125,-6.304232120513916,-8.12861442565918,-1.9488801956176758
1696082083960155400,11.0371552734375,-5.645826816558838,-6.2707133293151855,-1.9967641830444336
1696082083970155500,11.047155517578124,-5.822998046875,-5.559635639190674,-2.190694570541382
1696082083980155400,11.0571552734375,-6.625055313110352,-5.983409404754639,-1.9488801956176758
1696082083990155500,11.067155517578126,-7.0248870849609375,-7.484573841094971,-2.166752576828003
1696082084000155400,11.0771552734375,-6.467038154602051,-9.426271438598633,-2.6168625354766846
1696082084010155500,11.087155517578125,-5.6769514083862305,-11.370363235473633,-2.9041666984558105
1696082084020155400,11.0971552734375,-5.614702224731445,-13.077428817749023,-3.3303346633911133
1696082084030155500,11.107155517578125,-5.5237226486206055,-13.833996772766113,-2.456450939178467
1696082084040155400,11.1171552734375,-4.817133903503418,-13.664008140563965,-1.2832920551300049
1696082084050155500,11.127155517578124,-3.557783842086792,-12.840402603149414,-0.12449848651885986
1696082084060155400,11.1371552734375,-1.946485996246338,-11.581052780151367,0.7661445140838623
1696082084070155500,11.147155517578126,0.1628057211637497,-10.206781387329102,1.436521053314209
1696082084080155400,11.1571552734375,2.6360161304473877,-8.901941299438477,2.0183119773864746
1696082084090155500,11.167155517578125,4.72376012802124,-7.93707799911499,2.4420857429504395
1696082084100155400,11.1771552734375,5.712864398956299,-7.393594264984131,2.47560453414917
1696082084110155500,11.187155517578125,5.411195278167725,-7.151779651641846,2.2146365642547607
1696082084120155400,11.1971552734375,4.1874589920043945,-7.182904243469238,1.7980455160140991
1696082084130155500,11.207155517578125,2.494758129119873,-7.398382663726807,1.259350061416626
1696082084140155400,11.2171552734375,1.113303780555725,-7.67850399017334,0.6631938815116882
1696082084150155500,11.227155517578124,0.2561795711517334,-7.970596790313721,-0.08379705995321274
1696082084160155400,11.2371552734375,-0.5746083855628967,-8.588300704956055,-0.5650315880775452
1696082084170155500,11.247155517578125,-1.7932571172714233,-9.375992774963379,-0.7757213711738586
1696082084180155400,11.2571552734375,-2.583343744277954,-9.569923400878906,-0.9768342971801758
1696082084190155500,11.267155517578125,-2.8993782997131348,-9.277831077575684,-1.0630255937576294
1696082084200155400,11.2771552734375,-2.9281086921691895,-8.95700740814209,-0.9528923034667969
1696082084210155500,11.287155517578125,-2.0853497982025146,-8.7391357421875,-1.0055646896362305
1696082084220155400,11.2971552734375,0.06703764945268631,-9.206005096435547,-1.0414776802062988
1696082084230155500,11.307155517578124,2.717418909072876,-10.235511779785156,-0.5913678407669067
1696082084240155400,11.3171552734375,4.570530891418457,-11.039963722229004,0.014365210197865963
1696082084250155500,11.327155517578126,4.886565685272217,-11.154885292053223,0.49799394607543945
1696082084260155400,11.3371552734375,3.6535518169403076,-10.479720115661621,1.0821791887283325
1696082084270155500,11.347155517578125,1.525106430053711,-9.462183952331543,1.601720929145813
1696082084280155400,11.3571552734375,-0.5746083855628967,-8.736741065979004,1.601720929145813
1696082084290155500,11.367155517578125,-1.9752163887023926,-8.820538520812988,1.1779472827911377
1696082084300155400,11.3771552734375,-1.9081788063049316,-9.639355659484863,0.4644751250743866
1696082084310155500,11.387155517578124,-0.23942017555236816,-10.666467666625977,-0.2944868206977844
1696082084320155400,11.3971552734375,2.164358377456665,-11.502044677734375,-0.6057330369949341
1696082084330155500,11.407155517578126,4.072536945343018,-11.964125633239746,-0.4165911078453064
1696082084340155400,11.4171552734375,4.668693542480469,-11.954548835754395,0.2585737705230713
1696082084350155500,11.427155517578125,3.9863457679748535,-11.391910552978516,1.115697979927063
1696082084360155400,11.4371552734375,2.456450939178467,-10.659285545349121,1.8986018896102905
1696082084370155500,11.447155517578125,0.5386953949928284,-10.340856552124023,2.5522189140319824
1696082084380155400,11.4571552734375,-1.139639973640442,-10.55872917175293,3.3638534545898438
1696082084390155500,11.467155517578124,-2.3702597618103027,-11.126154899597168,4.402936935424805
1696082084400155400,11.4771552734375,-2.7940332889556885,-11.616966247558594,5.449502468109131
1696082084410155500,11.487155517578126,-1.8602946996688843,-11.755829811096191,6.469432353973389
1696082084420155400,11.4971552734375,0.31124621629714966,-11.379940032958984,6.8022260665893555
1696082084430155500,11.507155517578125,2.873042106628418,-10.913070678710938,6.258742332458496
1696082084440155400,11.5171552734375,4.790797710418701,-10.93222427368164,5.394435882568359
1696082084450155500,11.527155517578125,5.574000835418701,-11.607389450073242,4.369418144226074
1696082084460155400,11.5371552734375,5.490203857421875,-12.512397766113281,3.1244332790374756
1696082084470155500,11.547155517578124,5.15740966796875,-13.142072677612305,1.9560627937316895
1696082084480155400,11.5571552734375,4.937143325805664,-13.367127418518066,0.9864110946655273
1696082084490155500,11.567155517578126,5.143044471740723,-13.230657577514648,0.2777273952960968
1696082084500155400,11.5771552734375,4.426878929138184,-12.945748329162598,0.05027823522686958
1696082084510155500,11.587155517578125,2.3582887649536133,-13.192350387573242,0.7781155705451965
1696082084520155400,11.5971552734375,-0.09816227108240128,-13.714286804199219,1.4915876388549805
1696082084530155500,11.607155517578125,-2.011129379272461,-14.274529457092285,1.1516109704971313
1696082084540155400,11.6171552734375,-2.9257144927978516,-15.419257164001465,-0.13168109953403473
1696082084550155500,11.627155517578124,-3.1699230670928955,-17.222091674804688,-2.0254945755004883
1696082084560155400,11.6371552734375,-3.3877954483032227,-18.900426864624023,-3.799597978591919
1696082084570155500,11.647155517578126,-3.7014358043670654,-19.60910987854004,-5.50696325302124
1696082084580155400,11.6571552734375,-4.6471452713012695,-19.034502029418945,-6.347328186035156
1696082084590155500,11.667155517578125,-5.317821025848389,-17.219697952270508,-6.057629585266113
1696082084600155400,11.6771552734375,-4.089296340942383,-15.019425392150879,-5.380070686340332
1696082084610155500,11.687155517578125,-0.23942017555236816,-13.27135944366455,-4.49870491027832
1696082084620155400,11.6971552734375,3.3016040325164795,-12.239458084106445,-2.9041666984558105
1696082084630155500,11.707155517578125,3.955221176147461,-11.631331443786621,-0.9576807022094727
1696082084640155400,11.7171552734375,2.5689783096313477,-11.200374603271484,-0.4908113479614258
1696082084650155500,11.727155517578124,0.6967126727104187,-10.755053520202637,-0.3663128614425659
1696082084660155400,11.7371552734375,-0.24181437492370605,-9.897929191589355,-0.38546648621559143
1696082084670155500,11.747155517578125,-0.7709329724311829,-8.976161003112793,-0.4429273009300232
1696082084680155400,11.7571552734375,-0.7158663272857666,-7.956231594085693,-0.524330198764801
1696082084690155500,11.767155517578125,-0.5650315880775452,-7.029675483703613,-0.7469909191131592
1696082084700155400,11.7771552734375,-1.3431471586227417,-6.213252544403076,-0.8307880163192749
1696082084710155500,11.787155517578125,-2.097320795059204,-5.418377876281738,-0.912190854549408
1696082084720155400,11.7971552734375,-1.659181833267212,-4.888959884643555,-1.292868971824646
1696082084730155500,11.807155517578124,-0.7589619159698486,-4.8937482833862305,-1.7405846118927002
1696082084740155400,11.8171552734375,-0.7038952708244324,-4.985027313232422,-2.1308395862579346
1696082084750155500,11.827155517578126,-1.0007762908935547,-5.018546104431152,-2.4684219360351562
1696082084760155400,11.8371552734375,-1.290474772453308,-5.183745861053467,-2.473210334777832
1696082084770155500,11.847155517578125,-1.5394717454910278,-5.406406879425049,-2.33913516998291
1696082084780155400,11.8571552734375,-1.699883222579956,-5.511751651763916,-2.1523873805999756
1696082084790155500,11.867155517578125,-1.742978811264038,-5.5883660316467285,-2.051830768585205
1696082084800155400,11.8771552734375,-1.9081788063049316,-5.557241439819336,-2.006340980529785
1696082084810155500,11.887155517578124,-1.9560627937316895,-5.320215225219727,-2.2170307636260986
1696082084820155400,11.8971552734375,-1.9560627937316895,-4.953902721405029,-2.5282769203186035
1696082084830155500,11.907155517578126,-1.9608511924743652,-4.5394062995910645,-2.889801502227783
1696082084840155400,11.9171552734375,-1.9057846069335938,-4.10366153717041,-3.3494882583618164
1696082084850155500,11.927155517578125,-1.5897499322891235,-3.6990416049957275,-3.641580820083618
1696082084860155400,11.9371552734375,-1.1228805780410767,-3.3231520652770996,-3.758896589279175
1696082084870155500,11.947155517578125,-0.5482721924781799,-3.0621838569641113,-3.60566782951355
1696082084880155400,11.9571552734375,0.21787235140800476,-3.0597896575927734,-3.047818660736084
1696082084890155500,11.967155517578124,1.1971008777618408,-3.512293815612793,-1.625662922859192
1696082084900155400,11.9771552734375,2.652775526046753,-4.525041103363037,0.6344634294509888
1696082084910155500,11.987155517578126,5.20289945602417,-6.352116584777832,3.335123062133789
1696082084920155400,11.9971552734375,9.447818756103516,-9.110237121582031,6.526893138885498
1696082084930155500,12.007155517578125,12.641684532165527,-12.4262056350708,10.257059097290039
1696082084940155000,12.01715478515625,12.565070152282715,-16.08724021911621,13.647249221801758
1696082084950155000,12.027155029296875,11.913846969604492,-19.690513610839844,15.890914916992188
1696082084960155000,12.03715478515625,12.033556938171387,-21.876419067382812,16.45355224609375
1696082084970155000,12.047155029296874,11.74625301361084,-21.957822799682617,14.51634407043457
1696082084980155100,12.057155029296876,8.95461368560791,-19.855712890625,9.112630844116211
1696082084990155000,12.067155029296876,5.425560474395752,-15.742474555969238,3.869029998779297
1696082085000155100,12.077155029296875,3.7636849880218506,-11.126154899597168,1.091755986213684
1696082085010155000,12.087155029296875,3.5649664402008057,-7.060800075531006,0.009576806798577309
1696082085320155100,12.397155029296876,-1.1061211824417114,-7.537246227264404,1.8962076902389526
1696082085330155000,12.407155029296876,-1.4844050407409668,-7.601889610290527,1.1827356815338135
1696082085340155100,12.417155029296875,-1.702277421951294,-8.07115364074707,0.7086837291717529
1696082085350155000,12.427155029296875,-2.3774423599243164,-8.619425773620605,0.5195417404174805
1696082085360155100,12.437155029296875,-2.760514497756958,-9.052776336669922,0.3256114423274994
1696082085370155000,12.447155029296875,-2.7533318996429443,-9.10066032409668,-0.011971008032560349
1696082085380155100,12.457155029296874,-2.0231003761291504,-8.789413452148438,-0.028730420395731926
1696082085390155000,12.467155029296874,-1.2114660739898682,-8.602665901184082,-0.2298433631658554
1696082085400155100,12.477155029296876,-0.023942016065120697,-8.736741065979004,-0.4405331015586853
1696082085446729000,12.52372900390625,2.434903144836426,-9.943418502807617,0.667982280254364
1696082085456729000,12.53372900390625,0.8762778043746948,-9.047987937927246,0.5770025849342346
1696082085466730000,12.54372998046875,-0.6655880808830261,-8.626607894897461,0.22026655077934265
1696082085476729900,12.553729736328124,-1.8291701078414917,-8.846874237060547,-0.20350714027881622
1696082085486730000,12.56372998046875,-2.4013843536376953,-9.421483039855957,-0.6799532771110535
1696082085496730000,12.573730224609376,-1.867477297782898,-10.067917823791504,-1.1994950771331787
1696082085506730000,12.58372998046875,-0.40222588181495667,-10.795754432678223,-1.5753847360610962
1696082085516729900,12.593729736328125,1.6400281190872192,-11.150096893310547,-1.6208745241165161
1696082085526730000,12.60372998046875,3.6774938106536865,-11.121366500854492,-1.1635819673538208
1696082085536730000,12.613730224609375,4.812345504760742,-10.874763488769531,-0.038307227194309235
1696082085546730000,12.62372998046875,4.2544965744018555,-10.484508514404297,1.3335703611373901
1696082085556729900,12.633729736328124,2.5306711196899414,-10.237905502319336,2.2840683460235596
1696082085566730000,12.64372998046875,0.5985504388809204,-10.257059097290039,2.9233202934265137
1696082085576730000,12.653730224609374,-1.0007762908935547,-10.529998779296875,3.4332852363586426
1696082085586730000,12.66372998046875,-2.2026655673980713,-10.874763488769531,4.079719543457031
1696082085596729900,12.673729736328125,-2.6671407222747803,-11.087847709655762,4.855441093444824
1696082085606730000,12.68372998046875,-1.8291701078414917,-10.98968505859375,5.193322658538818
1696082085616730000,12.693730224609375,-0.0071826050989329815,-10.522815704345703,4.745307922363281
1696082085626730000,12.70372998046875,1.845929503440857,-10.221146583557129,4.067748546600342
1696082085636729900,12.713729736328125,3.098097085952759,-10.386345863342285,3.584120035171509
1696082085646730000,12.72372998046875,3.3423056602478027,-11.341632843017578,3.550601005554199
1696082085656730000,12.733730224609374,2.8227639198303223,-12.600982666015625,3.4332852363586426
1696082085666730000,12.74372998046875,2.4468741416931152,-13.924976348876953,3.134010076522827
1696082085676729900,12.753729736328125,2.8395233154296875,-14.818312644958496,2.3965959548950195
1696082085686730000,12.76372998046875,4.393360137939453,-15.055338859558105,1.4245500564575195
1696082085696730000,12.773730224609375,6.100725173950195,-14.461277961730957,0.3734954595565796
1696082085706730000,12.78372998046875,5.6769514083862305,-13.561058044433594,-0.16759411990642548
1696082085716730000,12.793730224609375,2.9688100814819336,-13.012785911560059,-0.0071826050989329815
1696082085726730000,12.80372998046875,0.3974374830722809,-12.87870979309082,-0.08858546614646912
1696082085736730000,12.813730224609374,-1.235408067703247,-13.213898658752441,-1.173158884048462
1696082085746730000,12.82372998046875,-2.4133553504943848,-14.506767272949219,-2.497152328491211
1696082085756730000,12.833730224609376,-3.251325845718384,-15.972317695617676,-3.780444383621216
1696082085766730000,12.84372998046875,-3.093308687210083,-17.511789321899414,-5.624279022216797
1696082085776730000,12.853730224609375,-3.6607344150543213,-18.33060646057129,-7.094318866729736
1696082085786730000,12.86372998046875,-4.599261283874512,-18.174983978271484,-7.819762229919434
1696082085796730000,12.873730224609375,-4.197035789489746,-16.862960815429688,-7.879617214202881
1696082085806730000,12.88372998046875,-2.387019157409668,-15.069704055786133,-6.119878768920898
1696082085816730000,12.893730224609374,-1.0869675874710083,-13.721468925476074,-4.089296340942383
1696082085826730000,12.90372998046875,1.4437036514282227,-12.411840438842773,-2.9712042808532715
1696082085836730000,12.913730224609376,2.2409727573394775,-11.38712215423584,-2.051830768585205
1696082085846730000,12.92372998046875,0.8930372595787048,-10.573094367980957,-1.2234370708465576
1696082085856730000,12.933730224609375,-0.5027823448181152,-9.792584419250488,-0.5793967843055725
1696082085866730000,12.94372998046875,-1.2832920551300049,-9.024045944213867,-0.043095629662275314
1696082085876730000,12.953730224609375,-1.580173134803772,-8.078335762023926,0.33758243918418884
1696082085886730000,12.96372998046875,-1.2641384601593018,-7.065588474273682,0.4118026793003082
1696082085896730000,12.973730224609374,-0.6536170840263367,-6.3640875816345215,0.49320554733276367
1696082085906730000,12.98372998046875,-0.5674257874488831,-5.746383190155029,0.4812345504760742
1696082085916730000,12.993730224609376,-0.5626373887062073,-5.384859085083008,0.4596867263317108
1696082085926730000,13.00372998046875,-0.5841852426528931,-5.243600845336914,0.06224924325942993
