time,seconds_elapsed,z,y,x
1695712701555584800,0.136584716796875,8.39394760131836,5.065164566040039,-0.23694485425949097
1695712701565652700,0.14665283203125,8.37919807434082,5.089720726013184,-0.23275785148143768
1695712701575720700,0.156720703125,8.367767333984375,5.10870885848999,-0.2279004454612732
1695712701585702400,0.166702392578125,8.35987377166748,5.121711254119873,-0.22575773298740387
1695712701595902200,0.176902099609375,8.346698760986328,5.143190383911133,-0.22493503987789154
1695712701605789200,0.1867890625,8.332598686218262,5.165821552276611,-0.22908352315425873
1695712701615837400,0.19683740234375,8.314618110656738,5.194262504577637,-0.23904001712799072
1695712701625882400,0.20688232421875,8.295774459838867,5.223836898803711,-0.24908995628356934
1695712701635900700,0.216900634765625,8.283495903015137,5.242879390716553,-0.25748106837272644
1695712701645924600,0.226924560546875,8.27824878692627,5.250991344451904,-0.2609151601791382
1695712701655899600,0.236899658203125,8.278465270996094,5.250848293304443,-0.2568916082382202
1695712701665972700,0.24697265625,8.281682014465332,5.245901107788086,-0.2543014883995056
1695712701675989200,0.2569892578125,8.285088539123535,5.240689277648926,-0.25073471665382385
1695712701686064600,0.267064697265625,8.287610054016113,5.236882209777832,-0.24691088497638702
1695712701696106000,0.27710595703125,8.287383079528809,5.237167835235596,-0.248493030667305
1695712701706095900,0.287095947265625,8.286917686462402,5.237708568572998,-0.25255128741264343
1695712701716115700,0.29711572265625,8.284660339355469,5.2409987449646,-0.25831398367881775
1695712701726189600,0.307189453125,8.281097412109375,5.246252536773682,-0.26578864455223083
1695712701736232200,0.317232177734375,8.279167175292969,5.249044418334961,-0.2707540988922119
1695712701746257700,0.327257568359375,8.275960922241211,5.25406551361084,-0.27139729261398315
1695712701756292900,0.33729296875,8.271682739257812,5.26084041595459,-0.27055296301841736
1695712701766289400,0.347289306640625,8.267436981201172,5.267700672149658,-0.2668159306049347
1695712701776308200,0.35730810546875,8.265511512756348,5.270951747894287,-0.26226794719696045
1695712701786381800,0.3673818359375,8.26692008972168,5.269021034240723,-0.25659850239753723
1695712701796424000,0.377423828125,8.278383255004883,5.252004146575928,-0.23498757183551788
1695712701806437400,0.387437255859375,8.270773887634277,5.263792037963867,-0.23911504447460175
1695712701816467200,0.39746728515625,8.265534400939941,5.272589206695557,-0.22611598670482635
1695712701826504400,0.40750439453125,8.251996994018555,5.294373035430908,-0.21106933057308197
1695712701836537300,0.417537353515625,8.23110294342041,5.32722806930542,-0.19994036853313446
1695712701846577400,0.427577392578125,8.208052635192871,5.362973213195801,-0.19176046550273895
1695712701856613400,0.43761328125,8.186596870422363,5.395909309387207,-0.18487997353076935
1695712701866630000,0.4476298828125,8.172061920166016,5.418059825897217,-0.18005549907684326
1695712701876657400,0.457657470703125,8.167363166809082,5.425438404083252,-0.17082606256008148
1695712701886692900,0.46769287109375,8.174079895019531,5.4157185554504395,-0.15742330253124237
1695712701896723700,0.4777236328125,8.187955856323242,5.395138740539551,-0.1422969251871109
1695712701906755300,0.48775537109375,8.205418586730957,5.369112014770508,-0.118870809674263
1695712701916786400,0.497786376953125,8.221181869506836,5.345571994781494,-0.08618590980768204
1695712701926845400,0.507845458984375,8.222557067871094,5.343891143798828,-0.05271715670824051
1695712701936888300,0.517888427734375,8.216383934020996,5.353626251220703,0.009984321892261505
1695712701946910700,0.52791064453125,8.197731971740723,5.381626129150391,0.07543978095054626
1695712701956945000,0.53794482421875,8.16046142578125,5.437000274658203,0.12767326831817627
1695712701966944300,0.5479443359375,8.11429214477539,5.504298210144043,0.17710675299167633
1695712701976975000,0.55797509765625,8.06529426574707,5.573879718780518,0.23083175718784332
1695712701987045600,0.568045654296875,8.01004409790039,5.6525983810424805,0.2402421087026596
1695712701997080000,0.578080078125,7.961929798126221,5.722744464874268,0.1680987924337387
1695712702007101200,0.58810107421875,7.929560661315918,5.769125938415527,0.09821540862321854
1695712702017134300,0.59813427734375,7.927831172943115,5.771807670593262,0.07811611890792847
1695712702027168000,0.60816796875,7.941473960876465,5.753305435180664,0.05340944975614548
1695712702037201400,0.618201416015625,7.973222255706787,5.70944881439209,0.017412954941391945
1695712702047205600,0.62820556640625,8.018058776855469,5.646336555480957,0.0034417901188135147
1695712702057236000,0.638236083984375,8.07877254486084,5.559012413024902,0.03474947437644005
1695712702067282000,0.648281982421875,8.148716926574707,5.455325126647949,0.09068621695041656
1695712702077313800,0.658313720703125,8.216134071350098,5.351962566375732,0.14840206503868103
1695712702087355000,0.66835498046875,8.275298118591309,5.258719444274902,0.1889575868844986
1695712702097387500,0.678387451171875,8.328951835632324,5.1732282638549805,0.19147652387619019
1695712702107399700,0.688399658203125,8.39099407196045,5.073378562927246,0.14978857338428497
1695712702117430300,0.69843017578125,8.464643478393555,4.950795650482178,0.09913115203380585
1695712702127476200,0.708476318359375,8.544703483581543,4.8116374015808105,0.08116433769464493
1695712702137676300,0.71867626953125,8.627017974853516,4.661549091339111,0.12212712317705154
1695712702147709700,0.728709716796875,8.701408386230469,4.520124435424805,0.15602943301200867
1695712702157742000,0.7387421875,8.772137641906738,4.3834662437438965,0.07214565575122833
1695712702167618300,0.748618408203125,8.829231262207031,4.266460418701172,0.11131466180086136
1695712702177638700,0.758638671875,8.877141952514648,4.159721374511719,0.2518743872642517
1695712702187691300,0.768691162109375,8.894882202148438,4.10215425491333,0.47307875752449036
1695712702197715000,0.77871484375,8.86856460571289,4.11020565032959,0.790669322013855
1695712702207735300,0.7887353515625,8.803624153137207,4.149088382720947,1.2048475742340088
1695712702217758700,0.7987587890625,8.696014404296875,4.190739631652832,1.728420615196228
1695712702227798800,0.808798828125,8.531441688537598,4.2242231369018555,2.353896141052246
1695712702237824000,0.818823974609375,8.300405502319336,4.23848819732666,3.0510435104370117
1695712702247865000,0.828864990234375,7.999654769897461,4.209544658660889,3.8020596504211426
1695712702257891800,0.838891845703125,7.625923156738281,4.109360218048096,4.596611499786377
1695712702267923500,0.84892333984375,7.172209739685059,3.920289993286133,5.418590068817139
1695712702277950700,0.85895068359375,6.64227294921875,3.6284427642822266,6.235782623291016
1695712702288003800,0.86900390625,6.044746398925781,3.236379623413086,7.01122522354126
1695712702298033700,0.87903369140625,5.402494430541992,2.749232769012451,7.708771705627441
1695712702308053500,0.889053466796875,4.742669105529785,2.1674208641052246,8.305405616760254
1695712702318082300,0.899082275390625,4.092512130737305,1.510235071182251,8.782990455627441
1695712702328128000,0.9091279296875,3.4882307052612305,0.8058440685272217,9.129799842834473
1695712702338158600,0.91915869140625,2.9496307373046875,0.08780451864004135,9.352131843566895
1695712702348185900,0.929185791015625,2.462059259414673,-0.6137696504592896,9.472695350646973
1695712702358216200,0.93921630859375,2.036381244659424,-1.277093768119812,9.507500648498535
1695712702368260900,0.9492607421875,1.6787999868392944,-1.8786208629608154,9.477489471435547
1695712702378292500,0.95929248046875,1.4148130416870117,-2.4108221530914307,9.399821281433105
1695712702388324000,0.969323974609375,1.2492209672927856,-2.869684934616089,9.293801307678223
1695712702398355700,0.979355712890625,1.1831609010696411,-3.241774082183838,9.179401397705078
1695712702408377300,0.98937744140625,1.1901441812515259,-3.509859561920166,9.079363822937012
1695712702418408000,0.999407958984375,1.2353712320327759,-3.678934335708618,9.006092071533203
1695712702428444700,1.009444580078125,1.299841046333313,-3.769547939300537,8.959425926208496
1695712702438476000,1.01947607421875,1.3590995073318481,-3.800086736679077,8.937705039978027
1695712702448503300,1.02950341796875,1.3988010883331299,-3.7874035835266113,8.936963081359863
1695712702458534100,1.0395341796875,1.4247541427612305,-3.734215497970581,8.955227851867676
1695712702468578000,1.049578125,1.4485288858413696,-3.638385534286499,8.990789413452148
1695712702478610200,1.059610107421875,1.4512823820114136,-3.5056235790252686,9.042940139770508
1695712702488641500,1.0696416015625,1.4065556526184082,-3.3469691276550293,9.109872817993164
1695712702498673400,1.07967333984375,1.3041009902954102,-3.174272060394287,9.186604499816895
1695712702508694300,1.0896943359375,1.1242855787277222,-3.0044262409210205,9.267135620117188
1695712702518725000,1.09972509765625,0.8366842269897461,-2.8548715114593506,9.344520568847656
1695712702528771800,1.109771728515625,0.4123583436012268,-2.79496693611145,9.390873908996582
1695712702538804200,1.11980419921875,0.1581953912973404,-2.7581851482391357,9.40945053100586
1695712702548825000,1.1298251953125,0.044093307107686996,-2.6831202507019043,9.432353973388672
1695712702558856400,1.1398564453125,-0.07226185500621796,-2.609348773956299,9.452855110168457
1695712702568895700,1.149895751953125,-0.22855497896671295,-2.581376314163208,9.458046913146973
1695712702578927900,1.159927978515625,-0.37627822160720825,-2.5532829761505127,9.46094799041748
1695712702588930000,1.169929931640625,-0.44509655237197876,-2.5194108486175537,9.467040061950684
1695712702598959000,1.179958984375,-0.48767730593681335,-2.4836983680725098,9.474376678466797
1695712702609016600,1.1900166015625,-0.6229982972145081,-2.4595954418182373,9.472732543945312
1695712702619048700,1.200048583984375,-0.7929825782775879,-2.4194090366363525,9.470376014709473
1695712702629094000,1.210093994140625,-0.8039035797119141,-2.401918649673462,9.473906517028809
1695712702639127000,1.220126953125,-0.7449033856391907,-2.36975359916687,9.486821174621582
1695712702649152800,1.23015283203125,-0.7023787498474121,-2.3664608001708984,9.490885734558105
1695712702659185400,1.240185302734375,-0.7261621356010437,-2.3721210956573486,9.487682342529297
1695712702669219600,1.250219482421875,-0.7579935789108276,-2.398836851119995,9.478471755981445
1695712702679252200,1.260252197265625,-0.769469141960144,-2.417311668395996,9.472851753234863
1695712702689286000,1.270285888671875,-0.760380208492279,-2.337111234664917,9.493687629699707
1695712702699318500,1.280318603515625,-0.7487543225288391,-2.256307601928711,9.514138221740723
1695712702709336000,1.290336181640625,-0.7496635913848877,-2.2311694622039795,9.519993782043457
1695712702719367400,1.300367431640625,-0.7825300097465515,-2.228226661682129,9.518036842346191
1695712702729401300,1.3104013671875,-0.7876974940299988,-2.2429208755493164,9.514159202575684
1695712702739433000,1.320432861328125,-0.7658815979957581,-2.2926127910614014,9.504091262817383
1695712702749467400,1.33046728515625,-0.7378661632537842,-2.321911096572876,9.499192237854004
1695712702759499300,1.340499267578125,-0.7007756233215332,-2.3641297817230225,9.491584777832031
1695712702769529900,1.35052978515625,-0.6564593315124512,-2.44684100151062,9.473775863647461
1695712702779561500,1.3605615234375,-0.6466636657714844,-2.5761454105377197,9.440110206604004
1695712702789603800,1.370603759765625,-0.6657111644744873,-2.719571352005005,9.398466110229492
1695712702799636500,1.380636474609375,-0.6864960789680481,-2.870854139328003,9.351861000061035
1695712702809658600,1.39065869140625,-0.695923924446106,-3.0299232006073,9.300841331481934
1695712702819690200,1.400690185546875,-0.6951082944869995,-3.200216770172119,9.243691444396973
1695712702829721900,1.410721923828125,-0.6795810461044312,-3.3882391452789307,9.177602767944336
1695712702839919900,1.420919921875,-0.65366530418396,-3.590247869491577,9.102375030517578
1695712702849951500,1.430951416015625,-0.627301812171936,-3.790071725845337,9.022872924804688
1695712702859976400,1.4409765625,-0.6101763844490051,-3.9787182807922363,8.942475318908691
1695712702870007600,1.451007568359375,-0.6085172891616821,-4.138171672821045,8.869927406311035
1695712702879876900,1.460876953125,-0.5995005369186401,-4.276740550994873,8.804571151733398
1695712702889888300,1.47088818359375,-0.5675079226493835,-4.39785623550415,8.746838569641113
1695712702899963000,1.480962890625,-0.5238035321235657,-4.50056791305542,8.69717788696289
1695712702909981200,1.490981201171875,-0.4866732656955719,-4.582479000091553,8.65646743774414
1695712702920005400,1.50100537109375,-0.4680503010749817,-4.642402648925781,8.625509262084961
1695712702930024200,1.511024169921875,-0.4109809994697571,-4.699390888214111,8.59751033782959
1695712702940075300,1.5210751953125,-0.3576749265193939,-4.73235559463501,8.581798553466797
1695712702950097400,1.531097412109375,-0.4389999210834503,-4.6985182762146,8.596602439880371
1695712702960158500,1.541158447265625,-0.5170174241065979,-4.628401279449463,8.630236625671387
1695712702970184700,1.551184814453125,-0.5630861520767212,-4.536261081695557,8.676154136657715
1695712702980222000,1.561221923828125,-0.6632635593414307,-4.4418559074401855,8.717819213867188
1695712702990249500,1.57124951171875,-0.8149239420890808,-4.342735767364502,8.754822731018066
1695712703000287200,1.581287353515625,-0.9694257974624634,-4.218117713928223,8.799890518188477
1695712703010315500,1.5913154296875,-1.0915741920471191,-4.058097839355469,8.860626220703125
1695712703020343800,1.60134375,-1.2057141065597534,-3.850560188293457,8.938111305236816
1695712703030372000,1.6113720703125,-1.3167167901992798,-3.6112897396087646,9.021930694580078
1695712703040411100,1.6214111328125,-1.418956995010376,-3.3605685234069824,9.102940559387207
1695712703050440400,1.6314404296875,-1.5027018785476685,-3.1019036769866943,9.180984497070312
1695712703060441000,1.641441162109375,-1.560401201248169,-2.826162815093994,9.260039329528809
1695712703070467300,1.65146728515625,-1.5995607376098633,-2.5490097999572754,9.33350658416748
1695712703080533800,1.66153369140625,-1.6483787298202515,-2.286278247833252,9.392878532409668
1695712703090564000,1.671564208984375,-1.679043173789978,-2.0424065589904785,9.443504333496094
1695712703100588800,1.6815888671875,-1.6928212642669678,-1.8216331005096436,9.486115455627441
1695712703110618600,1.69161865234375,-1.6141853332519531,-1.6226485967636108,9.535816192626953
1695712703120671000,1.7016708984375,-1.4918714761734009,-1.5089837312698364,9.574324607849121
1695712703130702800,1.711702880859375,-1.3656002283096313,-1.5139727592468262,9.592362403869629
1695712703140698400,1.721698486328125,-1.2587803602218628,-1.6783751249313354,9.579609870910645
1695712703150726400,1.731726318359375,-1.1923940181732178,-1.961850881576538,9.534134864807129
1695712703160787000,1.741786865234375,-1.1901768445968628,-2.2658886909484863,9.466764450073242
1695712703170818300,1.751818359375,-1.2052432298660278,-2.5677123069763184,9.387472152709961
1695712703180846000,1.76184619140625,-1.1502759456634521,-2.8536527156829834,9.311492919921875
1695712703190877200,1.771877197265625,-0.9357101321220398,-3.1317765712738037,9.2459077835083
1695712703200892200,1.78189208984375,-0.5752372741699219,-3.401489496231079,9.179834365844727
1695712703210921500,1.79192138671875,-0.13631808757781982,-3.6796796321868896,9.089101791381836
1695712703220980000,1.80197998046875,0.32528525590896606,-3.9858527183532715,8.954192161560059
1695712703231012000,1.81201220703125,0.7135398387908936,-4.3456315994262695,8.76223373413086
1695712703241041400,1.82204150390625,0.9366180896759033,-4.757426738739014,8.52408504486084
1695712703251073300,1.8320732421875,0.9411638379096985,-5.1918745040893555,8.26613712310791
1695712703261079000,1.8420791015625,0.8992082476615906,-5.659561634063721,7.9580888748168945
1695712703271107800,1.85210791015625,0.9203140735626221,-6.105835437774658,7.618541717529297
1695712703281172700,1.8621728515625,0.9409715533256531,-6.4609503746032715,7.317176818847656
1695712703291205000,1.872205078125,0.9307079911231995,-6.723852157592773,7.0777106285095215
1695712703301229300,1.882229248046875,0.9006706476211548,-6.913312911987305,6.896758079528809
1695712703311261000,1.892260986328125,0.7973343729972839,-7.053386211395264,6.766415119171143
1695712703321299200,1.90229931640625,0.6206282377243042,-7.208642482757568,6.619719982147217
1695712703331331600,1.91233154296875,0.3900265097618103,-7.416542053222656,6.404153347015381
1695712703341358000,1.922358154296875,0.14466825127601624,-7.655649662017822,6.127030372619629
1695712703351390000,1.932389892578125,-0.09039619565010071,-7.893398761749268,5.818631172180176
1695712703361415200,1.942415283203125,-0.33811113238334656,-8.098252296447754,5.520360469818115
1695712703371446000,1.952446044921875,-0.5600739121437073,-8.235420227050781,5.294767379760742
1695712703381509000,1.962509033203125,-0.6252097487449646,-8.280251502990723,5.216984748840332
1695712703391543600,1.97254345703125,-0.548932671546936,-8.264814376831055,5.249943256378174
1695712703401551400,1.98255126953125,-0.47629356384277344,-8.246187210083008,5.286201000213623
1695712703411583500,1.99258349609375,-0.42639273405075073,-8.233511924743652,5.3101654052734375
1695712703421599000,2.002598876953125,-0.3802889883518219,-8.21766185760498,5.338146686553955
1695712703431629300,2.01262939453125,-0.3470422923564911,-8.199309349060059,5.368544578552246
1695712703441670700,2.022670654296875,-0.3179965913295746,-8.178168296813965,5.402482032775879
1695712703451702000,2.032701904296875,-0.28439897298812866,-8.163140296936035,5.427030563354492
1695712703461736000,2.04273583984375,-0.2530519962310791,-8.150219917297363,5.447960376739502
1695712703471767800,2.052767822265625,-0.36467018723487854,-8.138978958129883,5.458426475524902
1695712703481796000,2.062796142578125,-0.5440179109573364,-8.161225318908691,5.410068988800049
1695712703491827200,2.0728271484375,-0.5719504356384277,-8.198406219482422,5.350645542144775
1695712703501868500,2.08286865234375,-0.5611138343811035,-8.260330200195312,5.255710124969482
1695712703511901000,2.09290087890625,-0.5285085439682007,-8.346552848815918,5.121144771575928
1695712703521956900,2.102956787109375,-0.4640728235244751,-8.429804801940918,4.989330291748047
1695712703531991300,2.1129912109375,-0.38699793815612793,-8.507804870605469,4.861880779266357
1695712703541994500,2.122994384765625,-0.44673898816108704,-8.646770477294922,4.604798316955566
1695712703552025900,2.13302587890625,-0.46545320749282837,-8.840834617614746,4.218221187591553
1695712703562057200,2.14305712890625,-0.3351936638355255,-9.07758617401123,3.6953301429748535
1695712703572088600,2.153088623046875,-0.08491837978363037,-9.297734260559082,3.1169421672821045
1695712703582115300,2.163115234375,0.13509167730808258,-9.474738121032715,2.5261614322662354
1695712703592146400,2.173146484375,0.2355612814426422,-9.621620178222656,1.8813101053237915
1695712703602208000,2.1832080078125,0.27082300186157227,-9.728148460388184,1.208375096321106
1695712703612242200,2.1932421875,0.263318806886673,-9.78991413116455,0.5085488557815552
1695712703622254800,2.2032548828125,0.20803861320018768,-9.802422523498535,-0.19903993606567383
1695712703632286700,2.21328662109375,0.11504381895065308,-9.768031120300293,-0.8618119955062866
1695712703642334500,2.22333447265625,0.02355813980102539,-9.694331169128418,-1.479788064956665
1695712703652367600,2.23336767578125,-0.04630235955119133,-9.591792106628418,-2.04101824760437
1695712703662371300,2.243371337890625,-0.10196368396282196,-9.47332763671875,-2.5329904556274414
1695712703672401400,2.2534013671875,-0.1731242537498474,-9.356966972351074,-2.9304568767547607
1695712703682463500,2.26346337890625,-0.2740662097930908,-9.299066543579102,-3.1020357608795166
1695712703692496600,2.27349658203125,-0.39393293857574463,-9.340410232543945,-2.9617490768432617
1695712703702514000,2.283513916015625,-0.47725293040275574,-9.403578758239746,-2.741405963897705
1695712703712545800,2.2935458984375,-0.4987523555755615,-9.446356773376465,-2.5861127376556396
1695712703722573800,2.30357373046875,-0.47404593229293823,-9.468907356262207,-2.507082462310791
1695712703732605200,2.313605224609375,-0.43532538414001465,-9.472275733947754,-2.5013742446899414
1695712703742632700,2.3236328125,-0.4095134735107422,-9.461557388305664,-2.5459001064300537
1695712703752663600,2.33366357421875,-0.4053218960762024,-9.45293140411377,-2.5784084796905518
1695712703762703600,2.34370361328125,-0.41567757725715637,-9.452804565429688,-2.5772223472595215
1695712703772735200,2.3537353515625,-0.4182887077331543,-9.459732055664062,-2.5512514114379883
1695712703782790000,2.363789794921875,-0.41125360131263733,-9.470125198364258,-2.513561248779297
1695712703792824000,2.373823974609375,-0.4038655459880829,-9.482569694519043,-2.4674172401428223
1695712703802836000,2.3838359375,-0.3957810699939728,-9.497413635253906,-2.4109959602355957
1695712703812867600,2.39386767578125,-0.3915631175041199,-9.51060676574707,-2.3591182231903076
1695712703822895400,2.403895263671875,-0.4023435711860657,-9.519268035888672,-2.3220741748809814
1695712703832926700,2.4139267578125,-0.4335351288318634,-9.522418975830078,-2.3034677505493164
1695712703842973400,2.423973388671875,-0.48489832878112793,-9.521634101867676,-2.296463966369629
1695712703853006000,2.434006103515625,-0.5465787053108215,-9.518682479858398,-2.2948451042175293
1695712703863049200,2.44404931640625,-0.6078655123710632,-9.514270782470703,-2.2977261543273926
1695712703873083100,2.454083251953125,-0.6644396781921387,-9.509424209594727,-2.3021178245544434
1695712703883082000,2.46408203125,-0.7155015468597412,-9.505021095275879,-2.305002450942993
1695712703893112300,2.4741123046875,-0.759823739528656,-9.501949310302734,-2.303480625152588
1695712703903141600,2.4841416015625,-0.7936220765113831,-9.501632690429688,-2.293365716934204
1695712703913172200,2.494172119140625,-0.816456139087677,-9.502886772155762,-2.2801146507263184
1695712703923204600,2.50420458984375,-0.835602879524231,-9.504408836364746,-2.266792058944702
1695712703933235200,2.514235107421875,-0.8534570336341858,-9.504170417785645,-2.261139154434204
1695712703943293000,2.52429296875,-0.867700457572937,-9.502347946166992,-2.2633748054504395
1695712703953326000,2.534326171875,-0.877517819404602,-9.499909400939941,-2.269820213317871
1695712703963345200,2.54434521484375,-0.8876461386680603,-9.497353553771973,-2.2765636444091797
1695712703973377000,2.554376953125,-0.9025492072105408,-9.496354103088379,-2.2748734951019287
1695712703983423500,2.564423583984375,-0.91411954164505,-9.496580123901367,-2.269306182861328
1695712703993457000,2.574456787109375,-0.9178816676139832,-9.49754810333252,-2.263723850250244
1695712704003471400,2.584471435546875,-0.9202629327774048,-9.499032974243164,-2.256516933441162
1695712704013503000,2.5945029296875,-0.9274539351463318,-9.50024700164795,-2.2484519481658936
1695712704023539500,2.60453955078125,-0.9397932291030884,-9.500807762145996,-2.2409470081329346
1695712704033571600,2.614571533203125,-0.9549934267997742,-9.50019645690918,-2.2371041774749756
1695712704043584500,2.62458447265625,-0.9703332781791687,-9.498204231262207,-2.2389607429504395
1695712704053614300,2.6346142578125,-0.9833078980445862,-9.49614429473877,-2.242039918899536
1695712704063681000,2.644680908203125,-0.9920092225074768,-9.494877815246582,-2.243567705154419
1695712704073714700,2.654714599609375,-0.9963918328285217,-9.493474960327148,-2.2475576400756836
1695712704083748400,2.664748291015625,-0.9980012774467468,-9.491864204406738,-2.253640651702881
1695712704093782000,2.674781982421875,-0.9979379177093506,-9.490784645080566,-2.258213758468628
1695712704103816400,2.68481640625,-0.9980950355529785,-9.49050521850586,-2.2593164443969727
1695712704113850000,2.69485009765625,-1.0007566213607788,-9.49082088470459,-2.2568113803863525
1695712704123852500,2.7048525390625,-1.0067954063415527,-9.491058349609375,-2.2531239986419678
1695712704133883100,2.714883056640625,-1.0175529718399048,-9.490647315979004,-2.2500216960906982
1695712704143922400,2.72492236328125,-1.0344682931900024,-9.488592147827148,-2.2509734630584717
1695712704153954000,2.7349541015625,-1.0569435358047485,-9.48450756072998,-2.257734775543213
1695712704164003800,2.74500390625,-1.0820351839065552,-9.479015350341797,-2.268885374069214
1695712704174037200,2.755037353515625,-1.1072702407836914,-9.473033905029297,-2.281656265258789
1695712704184068600,2.765068603515625,-1.1292473077774048,-9.467573165893555,-2.2935218811035156
1695712704194102000,2.77510205078125,-1.1445486545562744,-9.463188171386719,-2.3040149211883545
1695712704204125200,2.785125244140625,-1.1522880792617798,-9.460213661193848,-2.312351703643799
1695712704214157300,2.7951572265625,-1.1540063619613647,-9.458500862121582,-2.318498134613037
1695712704224172800,2.8051728515625,-1.1509754657745361,-9.458141326904297,-2.3214643001556396
1695712704234203100,2.815203125,-1.1442950963974,-9.459033012390137,-2.321134567260742
1695712704244233700,2.825233642578125,-1.1359796524047852,-9.46017837524414,-2.320554733276367
1695712704254264300,2.835264404296875,-1.1278053522109985,-9.46059513092041,-2.322838306427002
1695712704264311600,2.8453115234375,-1.1226288080215454,-9.459952354431152,-2.3279547691345215
1695712704274343700,2.85534375,-1.1214054822921753,-9.45866584777832,-2.333770513534546
1695712704284380200,2.865380126953125,-1.1250563859939575,-9.457139015197754,-2.338192939758301
1695712704294412800,2.875412841796875,-1.1336133480072021,-9.45541763305664,-2.3410232067108154
1695712704304464100,2.885464111328125,-1.1444480419158936,-9.453779220581055,-2.3423686027526855
1695712704314498600,2.89549853515625,-1.1554408073425293,-9.452469825744629,-2.3422539234161377
1695712704324656000,2.90565625,-1.1628590822219849,-9.452079772949219,-2.3401577472686768
1695712704334701600,2.91570166015625,-1.1643552780151367,-9.452461242675781,-2.3378686904907227
1695712704344747000,2.9257470703125,-1.1590852737426758,-9.453240394592285,-2.3373398780822754
1695712704354600000,2.935599853515625,-1.1497706174850464,-9.454353332519531,-2.337437152862549
1695712704364631300,2.94563134765625,-1.1402744054794312,-9.455865859985352,-2.335972785949707
1695712704374669600,2.955669677734375,-1.134137749671936,-9.456619262695312,-2.335907459259033
1695712704384701400,2.965701416015625,-1.1322021484375,-9.45674991607666,-2.336320400238037
1695712704394752500,2.97575244140625,-1.1324687004089355,-9.456599235534668,-2.3367998600006104
1695712704404786200,2.9857861328125,-1.1330522298812866,-9.456408500671387,-2.337285041809082
1695712704414789000,2.9957890625,-1.132424235343933,-9.456177711486816,-2.3385255336761475
1695712704424819700,3.00581982421875,-1.1318280696868896,-9.456034660339355,-2.3393912315368652
1695712704434852400,3.015852294921875,-1.1325430870056152,-9.455849647521973,-2.3397984504699707
1695712704444883000,3.025883056640625,-1.1337268352508545,-9.455655097961426,-2.340008497238159
1695712704454918400,3.03591845703125,-1.1358366012573242,-9.455523490905762,-2.3395161628723145
1695712704464949500,3.045949462890625,-1.1363294124603271,-9.455093383789062,-2.3410160541534424
1695712704474998500,3.05599853515625,-1.1327826976776123,-9.454109191894531,-2.3467025756835938
1695712704485031700,3.06603173828125,-1.1307036876678467,-9.452947616577148,-2.352379083633423
1695712704495044900,3.076044921875,-1.128981590270996,-9.450823783874512,-2.361717939376831
1695712704505075700,3.08607568359375,-1.126572608947754,-9.448229789733887,-2.373217821121216
1695712704515109400,3.096109375,-1.127672791481018,-9.446087837219238,-2.3812129497528076
1695712704525140500,3.106140380859375,-1.128319501876831,-9.444479942321777,-2.3872735500335693
1695712704535175200,3.116175048828125,-1.1273159980773926,-9.442752838134766,-2.3945693969726562
1695712704545206800,3.126206787109375,-1.125051498413086,-9.441089630126953,-2.402181386947632
1695712704555268600,3.1362685546875,-1.1229170560836792,-9.43923282623291,-2.410461902618408
1695712704565303300,3.14630322265625,-1.117773413658142,-9.437686920166016,-2.4188926219940186
1695712704575328500,3.15632861328125,-1.1113979816436768,-9.436566352844238,-2.4261913299560547
1695712704585362200,3.166362060546875,-1.1045290231704712,-9.436369895935059,-2.430084705352783
1695712704595388200,3.17638818359375,-1.0992728471755981,-9.436501502990723,-2.431960344314575
1695712704605421000,3.186421142578125,-1.0932625532150269,-9.437100410461426,-2.4323432445526123
1695712704615453200,3.196453125,-1.092410683631897,-9.43929672241211,-2.4241931438446045
1695712704625486000,3.206486083984375,-1.0921965837478638,-9.437637329101562,-2.4307401180267334
1695712704635507000,3.2165068359375,-1.0983723402023315,-9.437241554260254,-2.4294934272766113
1695712704645538600,3.22653857421875,-1.1048113107681274,-9.434271812438965,-2.4380910396575928
1695712704655585800,3.236585693359375,-1.1119823455810547,-9.432991027832031,-2.439788341522217
1695712704665619200,3.246619140625,-1.1220353841781616,-9.432371139526367,-2.43758225440979
1695712704675636700,3.25663671875,-1.1306102275848389,-9.431378364562988,-2.437459707260132
1695712704685668600,3.266668701171875,-1.1376386880874634,-9.431920051574707,-2.4320900440216064
1695712704695682600,3.2766826171875,-1.1434763669967651,-9.432957649230957,-2.4253170490264893
1695712704705712600,3.286712646484375,-1.1429250240325928,-9.433099746704102,-2.4250242710113525
1695712704715769600,3.29676953125,-1.1383038759231567,-9.431341171264648,-2.434016466140747
1695712704725802200,3.30680224609375,-1.1314080953598022,-9.429877281188965,-2.442890167236328
1695712704735835400,3.31683544921875,-1.1238731145858765,-9.427145957946777,-2.4568705558776855
1695712704745868000,3.326867919921875,-1.119924545288086,-9.424406051635742,-2.4691531658172607
1695712704755877400,3.33687744140625,-1.1139869689941406,-9.421126365661621,-2.4843101501464844
1695712704765907700,3.34690771484375,-1.1054716110229492,-9.417757987976074,-2.5008277893066406
1695712704775957800,3.356957763671875,-1.0975632667541504,-9.413778305053711,-2.519227981567383
1695712704785990100,3.366990234375,-1.0980420112609863,-9.4132080078125,-2.5211548805236816
1695712704796177700,3.377177734375,-1.109175443649292,-9.411096572875977,-2.5241572856903076
1695712704806210000,3.3872099609375,-1.1219061613082886,-9.406794548034668,-2.534548759460449
1695712704816235500,3.397235595703125,-1.1353029012680054,-9.403581619262695,-2.540497303009033
1695712704826267600,3.407267578125,-1.1484578847885132,-9.399328231811523,-2.550307273864746
1695712704836300300,3.41730029296875,-1.1541519165039062,-9.397177696228027,-2.5556552410125732
1695712704846323500,3.427323486328125,-1.1489876508712769,-9.396069526672363,-2.5620474815368652
1695712704856349000,3.437348876953125,-1.1387085914611816,-9.397019386291504,-2.5631515979766846
1695712704866381600,3.447381591796875,-1.1240907907485962,-9.396822929382324,-2.570315361022949
1695712704876432100,3.45743212890625,-1.1038013696670532,-9.395903587341309,-2.582441806793213
1695712704886476300,3.467476318359375,-1.0790040493011475,-9.39327335357666,-2.602410078048706
1695712704896508700,3.4775087890625,-1.0537903308868408,-9.387478828430176,-2.6334686279296875
1695712704906517800,3.487517822265625,-1.0293633937835693,-9.379915237426758,-2.669832944869995
1695712704916550000,3.4975498046875,-1.011536717414856,-9.370280265808105,-2.710172414779663
1695712704926582300,3.507582275390625,-0.9999085664749146,-9.357057571411133,-2.759718418121338
1695712704936614700,3.51761474609375,-0.9956743121147156,-9.341628074645996,-2.81300687789917
1695712704946647000,3.52764697265625,-0.9819419980049133,-9.337011337280273,-2.833092212677002
1695712704956676900,3.5376767578125,-0.9586431384086609,-9.33629035949707,-2.84342622756958
1695712704966706400,3.54770654296875,-0.9196124076843262,-9.338715553283691,-2.84835147857666
1695712704976577000,3.557576904296875,-0.8701282143592834,-9.342121124267578,-2.8527255058288574
1695712704986594300,3.56759423828125,-0.8192870616912842,-9.345311164855957,-2.857325553894043
1695712704996672000,3.577672119140625,-0.7712732553482056,-9.349912643432617,-2.8556385040283203
1695712705006695400,3.5876953125,-0.7284601330757141,-9.35516357421875,-2.849672317504883
1695712705016715300,3.59771533203125,-0.6942174434661865,-9.360422134399414,-2.840940237045288
1695712705026738200,3.60773828125,-0.6689718961715698,-9.365458488464355,-2.8303799629211426
1695712705036798700,3.617798828125,-0.6491074562072754,-9.370348930358887,-2.8187954425811768
1695712705046825500,3.627825439453125,-0.6286137700080872,-9.375471115112305,-2.8063817024230957
1695712705056832800,3.637832763671875,-0.6026638150215149,-9.380828857421875,-2.794142246246338
1695712705066857500,3.647857421875,-0.5694248676300049,-9.38594913482666,-2.7838993072509766
1695712705076926500,3.657926513671875,-0.5301033854484558,-9.391077995300293,-2.7743561267852783
1695712705086955800,3.667955810546875,-0.4855465292930603,-9.39563274383545,-2.7670769691467285
1695712705096989700,3.67798974609375,-0.43813827633857727,-9.399937629699707,-2.7603626251220703
1695712705107019500,3.68801953125,-0.3881235122680664,-9.403680801391602,-2.755091428756714
1695712705117048800,3.698048828125,-0.3346898555755615,-9.407081604003906,-2.7504873275756836
1695712705127078400,3.708078369140625,-0.2764458656311035,-9.409738540649414,-2.7478713989257812
1695712705137123800,3.718123779296875,-0.21199026703834534,-9.412343978881836,-2.744671583175659
1695712705147155200,3.7281552734375,-0.14176452159881592,-9.41499137878418,-2.7401130199432373
1695712707023168300,5.604168212890625,1.5260732173919678,-9.230690956115723,-2.938678503036499
1695712707033200000,5.6142001953125,1.2158397436141968,-9.294071197509766,-2.8831167221069336
1695712707043232300,5.624232177734375,0.8903348445892334,-9.349605560302734,-2.821803092956543
1695712707053265000,5.634264892578125,0.5928817391395569,-9.393141746520996,-2.754594087600708
1695712707063298600,5.644298583984375,0.3497403860092163,-9.42582893371582,-2.683619976043701
1695712707073332500,5.65433251953125,0.1563611477613449,-9.45077896118164,-2.6131815910339355
1695712707083366400,5.664366455078125,-0.010592701844871044,-9.47024917602539,-2.546499013900757
1695712707093400300,5.674400390625,-0.17383980751037598,-9.484695434570312,-2.4861066341400146
1695712707103434000,5.68443408203125,-0.34536013007164,-9.494284629821777,-2.4309847354888916
1695712707113468000,5.694468017578125,-0.5279973745346069,-9.498056411743164,-2.382970094680786
1695712707123501800,5.704501708984375,-0.7139778733253479,-9.495203971862793,-2.3455755710601807
1695712707133535500,5.714535400390625,-0.9126520156860352,-9.485507011413574,-2.3157312870025635
1695712707143569400,5.7245693359375,-1.1431820392608643,-9.468188285827637,-2.284062385559082
1695712707153603300,5.734603271484375,-1.4122782945632935,-9.440643310546875,-2.247244358062744
1695712707163635200,5.74463525390625,-1.7147794961929321,-9.400771141052246,-2.2035000324249268
1695712707173665000,5.7546650390625,-2.041268825531006,-9.3466796875,-2.1548080444335938
1695712707183694600,5.764694580078125,-2.3780884742736816,-9.277999877929688,-2.1056573390960693
1695712707193724400,5.774724365234375,-2.708747148513794,-9.19677448272705,-2.062135696411133
1695712707203754000,5.78475390625,-3.01505708694458,-9.106783866882324,-2.0362467765808105
1695712707213783800,5.79478369140625,-3.2838516235351562,-9.014559745788574,-2.0308682918548584
1695712707223813400,5.8048134765625,-3.51496958732605,-8.924663543701172,-2.041020154953003
1695712707233843200,5.81484326171875,-3.7156572341918945,-8.837846755981445,-2.0631895065307617
1695712707243872800,5.824872802734375,-3.8909599781036377,-8.754132270812988,-2.0966620445251465
1695712707253902600,5.834902587890625,-4.04558801651001,-8.672699928283691,-2.1419386863708496
1695712707263932200,5.84493212890625,-4.182806491851807,-8.592529296875,-2.200674533843994
1695712707273968600,5.85496875,-4.301031589508057,-8.515393257141113,-2.271472454071045
1695712707284030500,5.865030517578125,-4.396430969238281,-8.445230484008789,-2.3494410514831543
1695712707294092300,5.87509228515625,-4.462779521942139,-8.387646675109863,-2.429272174835205
1695712707304154000,5.885154052734375,-4.496840476989746,-8.347338676452637,-2.5041487216949463
1695712707314216000,5.8952158203125,-4.498927116394043,-8.328556060791016,-2.562264919281006
1695712707324277800,5.90527783203125,-4.4711151123046875,-8.330362319946289,-2.604722499847412
1695712707334310400,5.915310302734375,-4.412186622619629,-8.35056209564209,-2.640284776687622
1695712707344329200,5.9253291015625,-4.324103355407715,-8.385774612426758,-2.674191951751709
1695712707354348000,5.93534814453125,-4.208885192871094,-8.433340072631836,-2.7082159519195557
1695712707364366800,5.945366943359375,-4.069482803344727,-8.490229606628418,-2.7432990074157715
1695712707374386000,5.955385986328125,-3.9106884002685547,-8.553265571594238,-2.7782297134399414
1695712707384404700,5.96540478515625,-3.7398688793182373,-8.618165969848633,-2.812643051147461
1695712707394423600,5.975423583984375,-3.5655856132507324,-8.679933547973633,-2.8488171100616455
1695712707404442400,5.9854423828125,-3.393113374710083,-8.734532356262207,-2.8922526836395264
1695712707414461200,5.995461181640625,-3.234377384185791,-8.776655197143555,-2.9461002349853516
1695712707424480300,6.005480224609375,-3.130496025085449,-8.795120239257812,-3.0027072429656982
1695712707434499000,6.0154990234375,-3.1252620220184326,-8.778365135192871,-3.0567002296447754
1695712707444531200,6.02553125,-3.2048754692077637,-8.727926254272461,-3.118088722229004
1695712707454560500,6.035560546875,-3.3273768424987793,-8.650174140930176,-3.2052199840545654
1695712707464589600,6.045589599609375,-3.4579102993011475,-8.563910484313965,-3.2973759174346924
1695712707474619000,6.055618896484375,-3.569455623626709,-8.496651649475098,-3.352055311203003
1695712707484648200,6.065648193359375,-3.657792091369629,-8.458276748657227,-3.3538801670074463
1695712707494677500,6.075677490234375,-3.7349307537078857,-8.437952041625977,-3.31988525390625
1695712707504706800,6.085706787109375,-3.809000253677368,-8.423816680908203,-3.271272897720337
1695712707514735900,6.09573583984375,-3.8612220287323,-8.413118362426758,-3.2374041080474854
1695712707524765200,6.10576513671875,-3.8756914138793945,-8.40621280670166,-3.2380504608154297
1695712707534794500,6.11579443359375,-3.868496894836426,-8.40326976776123,-3.254253625869751
1695712707544827100,6.1258271484375,-3.8414759635925293,-8.412353515625,-3.2627854347229004
1695712707554861800,6.13586181640625,-3.7611196041107178,-8.452746391296387,-3.2519898414611816
1695712707564896300,6.145896240234375,-3.6174442768096924,-8.52507495880127,-3.2260780334472656
1695712707574931000,6.155930908203125,-3.451949119567871,-8.607832908630371,-3.187417507171631
1695712707584965600,6.165965576171875,-3.2947776317596436,-8.68913745880127,-3.1326863765716553
1695712707595000300,6.176000244140625,-3.147028923034668,-8.764217376708984,-3.0749127864837646
1695712707605035000,6.186034912109375,-3.0078041553497314,-8.82954216003418,-3.0269954204559326
1695712707615069400,6.1960693359375,-2.879847288131714,-8.880780220031738,-3.001434326171875
1695712707625104100,6.206104248046875,-2.7471354007720947,-8.923724174499512,-2.9984638690948486
1695712707635138800,6.216138916015625,-2.5849673748016357,-8.970202445983887,-3.003965377807617
1695712707645171500,6.22617138671875,-2.3867743015289307,-9.020821571350098,-3.0163683891296387
1695712707655204600,6.23620458984375,-2.1545536518096924,-9.071447372436523,-3.0392651557922363
1695712707665237800,6.24623779296875,-1.9021217823028564,-9.118183135986328,-3.067744731903076
1695712707675271000,6.25627099609375,-1.6432255506515503,-9.160956382751465,-3.089834451675415
1695712707685304000,6.266303955078125,-1.3844867944717407,-9.199091911315918,-3.103271007537842
1695712707695337200,6.276337158203125,-1.131649136543274,-9.231450080871582,-3.1096770763397217
1695712707705370400,6.286370361328125,-0.883926510810852,-9.260751724243164,-3.1028289794921875
1695712707715403500,6.296403564453125,-0.6401543617248535,-9.286856651306152,-3.084622621536255
1695712707725436700,6.306436767578125,-0.4029076099395752,-9.310309410095215,-3.053880453109741
1695712707735469600,6.316469482421875,-0.17190459370613098,-9.330422401428223,-3.0139758586883545
1695712707745504800,6.3265048828125,0.04393051937222481,-9.345810890197754,-2.970566987991333
1695712707755551700,6.3365517578125,0.2367904633283615,-9.355116844177246,-2.931910991668701
1695712707765598500,6.346598388671875,0.4022434949874878,-9.358169555664062,-2.9040067195892334
1695712707775645200,6.356645263671875,0.542380154132843,-9.355597496032715,-2.88946795463562
1695712707785692000,6.36669189453125,0.6631060242652893,-9.348150253295898,-2.8883824348449707
1695712707795738600,6.376738525390625,0.7692862153053284,-9.338196754455566,-2.894249677658081
1695712707805785300,6.386785400390625,0.8657544255256653,-9.327030181884766,-2.9029910564422607
1695712707815832000,6.39683203125,0.957834005355835,-9.314421653747559,-2.9145307540893555
1695712707825879000,6.406879150390625,1.0589556694030762,-9.299864768981934,-2.9260082244873047
1695712707835911200,6.4169111328125,1.1780277490615845,-9.282587051391602,-2.935340166091919
1695712707845932000,6.42693212890625,1.315175175666809,-9.261613845825195,-2.943331003189087
1695712707855953000,6.436952880859375,1.457976222038269,-9.23702335357666,-2.9533190727233887
1695712707865973800,6.446973876953125,1.5939453840255737,-9.210006713867188,-2.967406749725342
1695712707875994600,6.45699462890625,1.717050313949585,-9.181478500366211,-2.987067222595215
1695712707886015200,6.46701513671875,1.8260948657989502,-9.151018142700195,-3.0157315731048584
1695712707896036000,6.4770361328125,1.927608847618103,-9.116308212280273,-3.0573902130126953
1695712707906057000,6.487056884765625,2.034008741378784,-9.075662612915039,-3.108945369720459
1695712707916077800,6.497077880859375,2.1542725563049316,-9.02944278717041,-3.1620655059814453
1695712707926098700,6.5070986328125,2.2866294384002686,-8.979763984680176,-3.2102251052856445
1695712707936119600,6.51711962890625,2.422060489654541,-8.929357528686523,-3.2512447834014893
1695712707946151200,6.527151123046875,2.5440514087677,-8.882233619689941,-3.2869608402252197
1695712707956180000,6.537179931640625,2.637113571166992,-8.842814445495605,-3.319737672805786
1695712707966209000,6.547208984375,2.696842670440674,-8.814626693725586,-3.3466055393218994
1695712707976238000,6.557238037109375,2.730400562286377,-8.798317909240723,-3.362278699874878
1695712707986267000,6.567266845703125,2.745059013366699,-8.792868614196777,-3.364593029022217
1695712707996296000,6.5772958984375,2.7463295459747314,-8.795310020446777,-3.3571693897247314
1695712708006325000,6.587324951171875,2.737946033477783,-8.802705764770508,-3.3446083068847656
1695712708016353800,6.597353759765625,2.7196037769317627,-8.814291000366211,-3.329026699066162
1695712708026382800,6.6073828125,2.6906211376190186,-8.832923889160156,-3.303088665008545
1695712708036412000,6.617411865234375,2.64569091796875,-8.863183975219727,-3.2580177783966064
1695712708046443800,6.62744384765625,2.5790963172912598,-8.90555477142334,-3.1952695846557617
1695712708056476700,6.6374765625,2.4804837703704834,-8.956829071044922,-3.1293418407440186
1695712708066509600,6.647509521484375,2.3334126472473145,-9.018627166748047,-3.0643022060394287
1695712708076542500,6.65754248046875,2.1245980262756348,-9.092110633850098,-2.998330593109131
1695712708086575400,6.667575439453125,1.8506548404693604,-9.173957824707031,-2.9298417568206787
1695712708096608300,6.677608154296875,1.5256928205490112,-9.255542755126953,-2.859647512435913
1695712708106641200,6.68764111328125,1.1753541231155396,-9.328442573547363,-2.7873079776763916
1695712708116674000,6.697674072265625,0.8270914554595947,-9.38657283782959,-2.7163524627685547
1695712708126707000,6.70770703125,0.5120189785957336,-9.427105903625488,-2.652904510498047
1695712708136739800,6.71773974609375,0.24922636151313782,-9.45403003692627,-2.594146728515625
1695712708146771700,6.727771728515625,0.028156662359833717,-9.471698760986328,-2.540969133377075
1695712708156803300,6.73780322265625,-0.1752202957868576,-9.483131408691406,-2.491966724395752
1695712708166835200,6.747835205078125,-0.3800831437110901,-9.48985481262207,-2.4430675506591797
1695712708176867000,6.7578671875,-0.5920303463935852,-9.489322662353516,-2.40263295173645
1695712708186898700,6.767898681640625,-0.8088042736053467,-9.479174613952637,-2.379385471343994
1695712708196930600,6.7779306640625,-1.0334700345993042,-9.459510803222656,-2.37065052986145
1695712708206962400,6.78796240234375,-1.302405834197998,-9.42866039276123,-2.361034393310547
1695712708216994000,6.797994140625,-1.62881600856781,-9.383252143859863,-2.3392133712768555
1695712708227026000,6.80802587890625,-1.992324709892273,-9.323261260986328,-2.2973527908325195
1695712708237057800,6.818057861328125,-2.3736414909362793,-9.248486518859863,-2.2364516258239746
1695712708247092700,6.8280927734375,-2.7532219886779785,-9.160329818725586,-2.1629865169525146
1695712708257143300,6.838143310546875,-3.1066031455993652,-9.063724517822266,-2.0900449752807617
1695712708267193600,6.848193603515625,-3.4077749252319336,-8.966348648071289,-2.040107250213623
1695712708277244000,6.858243896484375,-3.659097909927368,-8.87205982208252,-2.016916036605835
1695712708287294500,6.86829443359375,-3.8748366832733154,-8.78107738494873,-2.0121374130249023
1695712708297344800,6.8783447265625,-4.063627243041992,-8.6913480758667,-2.0292344093322754
1695712708307395000,6.88839501953125,-4.234192848205566,-8.599480628967285,-2.0714597702026367
1695712708317445400,6.8984453125,-4.39170503616333,-8.503647804260254,-2.138056993484497
1695712708327496000,6.908495849609375,-4.535594463348389,-8.40431022644043,-2.2285284996032715
1695712708337527300,6.91852734375,-4.66383695602417,-8.304097175598145,-2.3368730545043945
1695712708347544300,6.92854443359375,-4.77146577835083,-8.208791732788086,-2.4534144401550293
1695712708357561000,6.93856103515625,-4.851025104522705,-8.126500129699707,-2.5686464309692383
1695712708367578000,6.948578125,-4.895188808441162,-8.065566062927246,-2.674727201461792
1695712708377595100,6.95859521484375,-4.900879859924316,-8.031045913696289,-2.766599178314209
1695712708387612000,6.96861181640625,-4.868737697601318,-8.025066375732422,-2.8397367000579834
1695712708397629000,6.97862890625,-4.797236919403076,-8.047683715820312,-2.8968420028686523
1695712708407645700,6.988645751953125,-4.686187744140625,-8.096818923950195,-2.9413540363311768
1695712708417662700,6.998662841796875,-4.53734016418457,-8.168060302734375,-2.9775331020355225
1695712708427679700,7.0086796875,-4.353296756744385,-8.256560325622559,-3.008053779602051
1695712708437696500,7.018696533203125,-4.138222694396973,-8.357983589172363,-3.0314347743988037
1695712708447728400,7.028728271484375,-3.8991007804870605,-8.466272354125977,-3.047888994216919
1695712708457761800,7.03876171875,-3.645639419555664,-8.57259464263916,-3.0643622875213623
1695712708467795500,7.04879541015625,-3.405942678451538,-8.664302825927734,-3.0821735858917236
1695712708477828900,7.058828857421875,-3.269178628921509,-8.711395263671875,-3.09749174118042
1695712708487862300,7.0688623046875,-3.293699026107788,-8.691841125488281,-3.126312732696533
1695712708497896000,7.07889599609375,-3.3876283168792725,-8.62270736694336,-3.216096878051758
1695712708507929300,7.088929443359375,-3.5258185863494873,-8.513596534729004,-3.3552463054656982
1695712708517962800,7.098962646484375,-3.6675519943237305,-8.406281471252441,-3.471869707107544
1695712708527996200,7.10899609375,-3.777815580368042,-8.338781356811523,-3.5161356925964355
1695712708538029800,7.11902978515625,-3.868279218673706,-8.306863784790039,-3.4932541847229004
1695712708548061700,7.129061767578125,-3.945035219192505,-8.294729232788086,-3.435774803161621
1695712708558094300,7.13909423828125,-4.0034074783325195,-8.28831958770752,-3.3833234310150146
1695712708568126700,7.149126708984375,-4.039455413818359,-8.278133392333984,-3.365368127822876
1695712708578159000,7.1591591796875,-4.071603298187256,-8.25529670715332,-3.382676839828491
1695712708588191700,7.169191650390625,-4.086982727050781,-8.241255760192871,-3.3983352184295654
1695712708598224100,7.17922412109375,-4.033946990966797,-8.273795127868652,-3.382598400115967
1695712708608256500,7.189256591796875,-3.8792803287506104,-8.363628387451172,-3.3423471450805664
1695712708618289200,7.1992890625,-3.6527814865112305,-8.483261108398438,-3.295731782913208
1695712708628321500,7.209321533203125,-3.4404306411743164,-8.596107482910156,-3.2312166690826416
1695712708638354000,7.21935400390625,-3.3012583255767822,-8.679056167602539,-3.1537394523620605
1695712708648386000,7.229385986328125,-3.237070322036743,-8.727614402770996,-3.085533618927002
1695712708658417700,7.239417724609375,-3.207932472229004,-8.751581192016602,-3.0478503704071045
1695712708668449500,7.249449462890625,-3.151327610015869,-8.775208473205566,-3.0389528274536133
1695712708678481200,7.259481201171875,-3.0116398334503174,-8.822083473205566,-3.044875144958496
1695712708688513000,7.269512939453125,-2.795578956604004,-8.89055347442627,-3.0517516136169434
1695712708698544600,7.279544677734375,-2.5374755859375,-8.968485832214355,-3.0492405891418457
1695712708708576500,7.289576416015625,-2.2574121952056885,-9.048622131347656,-3.0326426029205322
1695712708718608100,7.299608154296875,-1.9686782360076904,-9.124282836914062,-3.007018566131592
1695712708728640000,7.309639892578125,-1.67904531955719,-9.189925193786621,-2.9826972484588623
1695712708738671600,7.319671630859375,-1.3857353925704956,-9.242897033691406,-2.969679117202759
1695712708748706800,7.329706787109375,-1.0963324308395386,-9.283470153808594,-2.9640538692474365
1695712708758757400,7.33975732421875,-0.8166075944900513,-9.317902565002441,-2.946223020553589
1695712708768808000,7.349807861328125,-0.5452165007591248,-9.348929405212402,-2.9104368686676025
1695712708778858500,7.3598583984375,-0.2861717939376831,-9.375328063964844,-2.8621175289154053
1695712708788909000,7.369908935546875,-0.044616106897592545,-9.393376350402832,-2.8165383338928223
1695712708798959400,7.37995947265625,0.17203593254089355,-9.401926040649414,-2.7829091548919678
1695712708809010000,7.390010009765625,0.3581744432449341,-9.402730941772461,-2.762380599975586
1695712708819060500,7.400060546875,0.5204219222068787,-9.396759986877441,-2.7568914890289307
1695712708829111000,7.410111083984375,0.6668221950531006,-9.384039878845215,-2.768667459487915
1695712708839142400,7.420142333984375,0.800925076007843,-9.367289543151855,-2.7897660732269287
1695712708849157600,7.43015771484375,0.9287203550338745,-9.348066329956055,-2.814519166946411
1695712708859173000,7.440173095703125,1.0583144426345825,-9.325550079345703,-2.8433189392089844
1695712708869188400,7.450188232421875,1.1974835395812988,-9.298678398132324,-2.8759336471557617
1695712708879203600,7.46020361328125,1.3483999967575073,-9.267070770263672,-2.910945415496826
1695712708889218800,7.47021875,1.5048104524612427,-9.231768608093262,-2.9462497234344482
1695712708899234000,7.480234130859375,1.6553306579589844,-9.194188117980957,-2.982813596725464
1695712708909249500,7.49024951171875,1.7931736707687378,-9.15435791015625,-3.0253336429595947
1695712708919264800,7.5002646484375,1.9181098937988281,-9.111515998840332,-3.077580213546753
1695712708929280000,7.510280029296875,2.032036781311035,-9.06499195098877,-3.141200065612793
1695712708939311600,7.5203115234375,2.1397318840026855,-9.014678001403809,-3.213646173477173
1695712708949343000,7.530343017578125,2.2503836154937744,-8.961091041564941,-3.2870969772338867
1695712708959374300,7.540374267578125,2.3735554218292236,-8.905150413513184,-3.351853609085083
1695712708969405700,7.55040576171875,2.5058481693267822,-8.84940242767334,-3.4028191566467285
1695712708979437000,7.56043701171875,2.629443883895874,-8.79841136932373,-3.441565990447998
1695712708989468700,7.57046875,2.7254207134246826,-8.75790786743164,-3.4700896739959717
1695712708999500000,7.5805,2.7878940105438232,-8.731760025024414,-3.4863154888153076
1695712709009531400,7.590531494140625,2.8208165168762207,-8.720401763916016,-3.4882636070251465
1695712709019562800,7.600562744140625,2.831272602081299,-8.720451354980469,-3.4796550273895264
1695712709029594000,7.610593994140625,2.824862480163574,-8.727331161499023,-3.4675955772399902
1695712709039625700,7.620625732421875,2.804300308227539,-8.738021850585938,-3.4573476314544678
1695712709049657900,7.630657958984375,2.768007755279541,-8.752246856689453,-3.4506096839904785
1695712709059693600,7.640693603515625,2.7157974243164062,-8.773649215698242,-3.4377195835113525
1695712709069729500,7.6507294921875,2.649996042251587,-8.804240226745605,-3.410754919052124
1695712709079765200,7.66076513671875,2.5702412128448486,-8.844466209411621,-3.3674395084381104
1695712709089801000,7.670801025390625,2.4670798778533936,-8.892845153808594,-3.316804885864258
1695712709099836700,7.680836669921875,2.3162171840667725,-8.951165199279785,-3.26835560798645
1695712709109872400,7.690872314453125,2.101994752883911,-9.022600173950195,-3.216315746307373
1695712709119908400,7.700908447265625,1.826419711112976,-9.105039596557617,-3.1516411304473877
1695712709129944000,7.710944091796875,1.4968849420547485,-9.189781188964844,-3.0785796642303467
1695712709139979800,7.720979736328125,1.1292762756347656,-9.267705917358398,-3.00079345703125
1695712709150012000,7.731011962890625,0.7596591711044312,-9.330700874328613,-2.9208428859710693
1695712709160043000,7.74104296875,0.43599802255630493,-9.374879837036133,-2.8446297645568848
1695712709170074400,7.751074462890625,0.17822381854057312,-9.404306411743164,-2.774463176727295
1695712709180105500,7.76110546875,-0.02956654503941536,-9.424585342407227,-2.710481643676758
1695712709190136600,7.771136474609375,-0.21395254135131836,-9.439454078674316,-2.649775505065918
1695712709200168000,7.78116796875,-0.4039393663406372,-9.448805809020996,-2.5937013626098633
1695712709210199000,7.791198974609375,-0.6078292727470398,-9.451959609985352,-2.541926145553589
1695712709220230400,7.80123046875,-0.8210893273353577,-9.447154998779297,-2.49949049949646
1695712709230261800,7.81126171875,-1.0396697521209717,-9.43455982208252,-2.4654738903045654
1695712709240292900,7.82129296875,-1.2722344398498535,-9.414413452148438,-2.433232069015503
1695712709250328600,7.83132861328125,-1.5317343473434448,-9.385431289672852,-2.3953816890716553
1695712709260380400,7.84138037109375,-1.8212432861328125,-9.345046043395996,-2.350226879119873
1695712709270432500,7.8514326171875,-2.1317567825317383,-9.291460990905762,-2.3010313510894775
1695712709280484600,7.861484619140625,-2.4478983879089355,-9.224710464477539,-2.2545292377471924
1695712709290536400,7.871536376953125,-2.7578840255737305,-9.145181655883789,-2.220386028289795
1695712709300588500,7.881588623046875,-3.056938648223877,-9.054423332214355,-2.2006657123565674
1695712709310640600,7.891640625,-3.3412399291992188,-8.954859733581543,-2.1947638988494873
1695712709320692500,7.9016923828125,-3.605231761932373,-8.849597930908203,-2.2039339542388916
1695712709330744600,7.91174462890625,-3.837750196456909,-8.749748229980469,-2.209970712661743
1695712709340776400,7.9217763671875,-4.038257598876953,-8.650787353515625,-2.2420403957366943
1695712709350793000,7.93179296875,-4.215206146240234,-8.548088073730469,-2.3092494010925293
1695712709360809500,7.9418095703125,-4.366206645965576,-8.452407836914062,-2.3797953128814697
1695712709370825700,7.95182568359375,-4.489661693572998,-8.36467456817627,-2.4587693214416504
1695712709380842200,7.96184228515625,-4.585914134979248,-8.283799171447754,-2.5531249046325684
1695712709390858800,7.971858642578125,-4.6526618003845215,-8.215119361877441,-2.6523449420928955
1695712709400875300,7.981875244140625,-4.6862711906433105,-8.163915634155273,-2.749498128890991
1695712709410891800,7.991891845703125,-4.686929702758789,-8.131867408752441,-2.841794967651367
1695712709420908000,8.001907958984376,-4.655947208404541,-8.11983585357666,-2.9258880615234375
1695712709430924500,8.011924560546875,-4.595396995544434,-8.12793254852295,-2.998239040374756
1695712709440941000,8.021941162109375,-4.504229545593262,-8.156219482421875,-3.059148073196411
1695712709450973000,8.031972900390626,-4.382042407989502,-8.203638076782227,-3.109405279159546
1695712709461005600,8.042005615234375,-4.229243755340576,-8.267242431640625,-3.152235746383667
1695712709471038200,8.0520380859375,-4.048222541809082,-8.34282112121582,-3.190552234649658
1695712709481070800,8.06207080078125,-3.8464038372039795,-8.424763679504395,-3.2247354984283447
1695712709491103500,8.072103515625,-3.6314163208007812,-8.506991386413574,-3.257957696914673
1695712709501136100,8.08213623046875,-3.4180374145507812,-8.58043098449707,-3.2959983348846436
1695712709511168800,8.092168701171875,-3.2635273933410645,-8.625324249267578,-3.3351998329162598
1695712709521201400,8.102201416015625,-3.242856025695801,-8.617019653320312,-3.376570224761963
1695712709531234000,8.112234130859376,-3.3240840435028076,-8.559057235717773,-3.444326400756836
1695712709541266400,8.122266357421875,-3.44718337059021,-8.465746879577637,-3.552245855331421
1695712709551298000,8.132298095703124,-3.5863595008850098,-8.363479614257812,-3.6552200317382812
1695712709561326600,8.14232666015625,-3.7085373401641846,-8.289631843566895,-3.7012338638305664
1695712709571355400,8.15235546875,-3.7998595237731934,-8.253545761108398,-3.689232110977173
1695712709581384200,8.16238427734375,-3.8636417388916016,-8.24245834350586,-3.6475398540496826
1695712709591413000,8.1724130859375,-3.901790142059326,-8.244880676269531,-3.601163148880005
1695712709601441800,8.18244189453125,-3.9099700450897217,-8.253719329833984,-3.5719218254089355
1695712709611470600,8.192470703125,-3.8872625827789307,-8.261375427246094,-3.57900071144104
1695712709621499100,8.2024990234375,-3.844698905944824,-8.280121803283691,-3.5816569328308105
1695712709631528000,8.21252783203125,-3.7559468746185303,-8.33458137512207,-3.549365997314453
1695712709641556700,8.222556640625,-3.5762507915496826,-8.435325622558594,-3.496582508087158
1695712709651588400,8.23258837890625,-3.313981056213379,-8.560356140136719,-3.4508280754089355
1695712709661621000,8.24262109375,-3.101649045944214,-8.663748741149902,-3.389634847640991
1695712709671653600,8.252653564453125,-3.0632574558258057,-8.709256172180176,-3.306917905807495
1695712709681686300,8.262686279296876,-3.109281539916992,-8.708536148071289,-3.265601396560669
1695712709691718700,8.27271875,-3.120027542114258,-8.701437950134277,-3.274258613586426
1695712709701751300,8.282751220703124,-3.0382373332977295,-8.720098495483398,-3.301424264907837
1695712709711784000,8.292783935546876,-2.8417341709136963,-8.772791862487793,-3.3366217613220215
1695712709721816600,8.302816650390625,-2.5628063678741455,-8.847220420837402,-3.3658711910247803
1695712709731849200,8.31284912109375,-2.259221315383911,-8.927190780639648,-3.3721742630004883
1695712709741881600,8.322881591796875,-1.9634857177734375,-9.00495719909668,-3.3505001068115234
1695712709751914200,8.332914306640625,-1.666329264640808,-9.078587532043457,-3.3125476837158203
1695712709761950200,8.3429501953125,-1.3686710596084595,-9.143269538879395,-3.270740270614624
1695712709772010800,8.3530107421875,-1.0784310102462769,-9.19540786743164,-3.2329294681549072
1695712709782071300,8.3630712890625,-0.8030589818954468,-9.236166000366211,-3.19667387008667
1695712709792131600,8.373131591796875,-0.544703483581543,-9.269384384155273,-3.1547091007232666
1695712709802192100,8.383192138671875,-0.3061901926994324,-9.296939849853516,-3.1054060459136963
1695712709812252700,8.393252685546875,-0.08008985221385956,-9.318472862243652,-3.0545144081115723
1695712709822313000,8.40331298828125,0.12985607981681824,-9.331374168395996,-3.013136386871338
1695712709832344800,8.4133447265625,0.313014954328537,-9.336003303527832,-2.9852054119110107
1695712709842361600,8.423361572265625,0.46907976269721985,-9.334409713745117,-2.96970272064209
1695712709852378400,8.43337841796875,0.6011208891868591,-9.327995300292969,-2.9660677909851074
1695712709862395000,8.443394775390624,0.7137220501899719,-9.317789077758789,-2.9731781482696533
1695712709872411600,8.45341162109375,0.8066935539245605,-9.30605411529541,-2.9861326217651367
1695712709882428200,8.46342822265625,0.8854197263717651,-9.2931547164917,-3.0039477348327637
1695712709892445000,8.47344482421875,0.9616497755050659,-9.278745651245117,-3.0249743461608887
1695712709902461400,8.48346142578125,1.0505768060684204,-9.262650489807129,-3.044663190841675
1695712709912478200,8.493478271484374,1.1539334058761597,-9.24585247039795,-3.0582752227783203
1695712709922494700,8.50349462890625,1.2646714448928833,-9.22960376739502,-3.0635628700256348
1695712709932511500,8.513511474609375,1.3795530796051025,-9.21302604675293,-3.0638790130615234
1695712709942542800,8.52354296875,1.4976791143417358,-9.193172454833984,-3.068047046661377
1695712709952572200,8.533572265625,1.6155451536178589,-9.167719841003418,-3.084367036819458
1695712709962601500,8.5436015625,1.733864426612854,-9.135198593139648,-3.1164464950561523
1695712709972630800,8.553630859375,1.858445405960083,-9.094209671020508,-3.1641623973846436
1695712709982660000,8.56366015625,1.9949846267700195,-9.044597625732422,-3.222684621810913
1695712709992689400,8.573689453125,2.1429603099823,-8.988544464111328,-3.2839255332946777
1695712710002718700,8.58371875,2.296645402908325,-8.928682327270508,-3.3428165912628174
1695712710012748000,8.593748046875,2.439486026763916,-8.869765281677246,-3.3980233669281006
1695712710022777300,8.60377734375,2.5490353107452393,-8.819164276123047,-3.4489340782165527
1695712710032806700,8.613806640625,2.620171070098877,-8.784305572509766,-3.484402894973755
1695712710042846700,8.6238466796875,2.663496255874634,-8.766448020935059,-3.49650502204895
1695712710052961300,8.633961181640625,2.689985513687134,-8.759775161743164,-3.492950439453125
1695712710063076000,8.644076171875,2.701268196105957,-8.76002025604248,-3.4836156368255615
1695712710073116000,8.654115966796875,2.6904475688934326,-8.766006469726562,-3.4769277572631836
1695712710083143200,8.66414306640625,2.644266128540039,-8.780854225158691,-3.474886894226074
1695712710093170400,8.67417041015625,2.558363199234009,-8.808502197265625,-3.4692161083221436
1695712710103210500,8.68421044921875,2.435187578201294,-8.851433753967285,-3.4485325813293457
1695712710113250300,8.694250244140624,2.288233995437622,-8.905731201171875,-3.409151792526245
1695712710123113200,8.70411328125,2.1255688667297363,-8.96562385559082,-3.3570716381073
1695712710133138400,8.714138427734374,1.917519450187683,-9.036649703979492,-3.2912724018096924
1695712710143324700,8.72432470703125,1.6511017084121704,-9.117953300476074,-3.2104763984680176
1695712710153388300,8.73438818359375,1.3468141555786133,-9.200488090515137,-3.115685224533081
1695712710163413200,8.744413330078125,1.0290194749832153,-9.27602481842041,-3.011122941970825
1695712710173420800,8.7544208984375,0.709748387336731,-9.338024139404297,-2.909976005554199
1695712710183445800,8.76444580078125,0.41118714213371277,-9.38294792175293,-2.821632146835327
1695712710193488600,8.774488525390625,0.14789649844169617,-9.412230491638184,-2.749260425567627
1695712710203541200,8.784541259765625,-0.0885670855641365,-9.42978286743164,-2.6910486221313477
1695712710213566500,8.79456640625,-0.3193508982658386,-9.43836784362793,-2.643030881881714
1695712710223608300,8.8046083984375,-0.5681883096694946,-9.439757347106934,-2.5958704948425293
1695712710233612300,8.8146123046875,-0.8204461932182312,-9.435797691345215,-2.5422370433807373
1695712710243637200,8.82463720703125,-1.0493606328964233,-9.426128387451172,-2.4934563636779785
1695712710253691100,8.834691162109374,-1.2616404294967651,-9.410440444946289,-2.4540257453918457
1695712710263717600,8.844717529296876,-1.4814480543136597,-9.387476921081543,-2.418879508972168
1695712710273752300,8.85475244140625,-1.7365148067474365,-9.353532791137695,-2.380404472351074
1695712710283786800,8.864786865234375,-2.021646022796631,-9.307209968566895,-2.3364851474761963
1695712710293821400,8.874821533203125,-2.3200244903564453,-9.249957084655762,-2.2860777378082275
1695712710303855900,8.88485595703125,-2.6153528690338135,-9.185103416442871,-2.2280468940734863
1695712710313890600,8.894890625,-2.8919150829315186,-9.11661434173584,-2.166691780090332
1695712710323925000,8.904925048828124,-3.1411516666412354,-9.04631233215332,-2.1137137413024902
1695712710333951700,8.91495166015625,-3.3634421825408936,-8.973967552185059,-2.07979679107666
1695712710343959600,8.92495947265625,-3.5651962757110596,-8.898116111755371,-2.069615364074707
1695712710353986300,8.934986328125,-3.751262903213501,-8.817655563354492,-2.085036039352417
1695712710364029400,8.945029541015625,-3.9206247329711914,-8.733246803283691,-2.1282594203948975
1695712710374056000,8.955055908203125,-4.077776908874512,-8.644109725952148,-2.1957905292510986
1695712710384109300,8.965109375,-4.224642753601074,-8.550797462463379,-2.2818055152893066
1695712710394123800,8.975123779296876,-4.356775760650635,-8.456583976745605,-2.3822407722473145
1695712710404150300,8.985150390625,-4.468410491943359,-8.367005348205566,-2.4893596172332764
1695712710414187800,8.995187744140624,-4.549546718597412,-8.290703773498535,-2.5954248905181885
1695712710424214500,9.005214599609374,-4.592024803161621,-8.234829902648926,-2.6965293884277344
1695712710434242000,9.015241943359374,-4.592769145965576,-8.203712463378906,-2.7885396480560303
1695712710444289300,9.025289306640625,-4.554217338562012,-8.198304176330566,-2.866586208343506
1695712710454310100,9.03531005859375,-4.478884696960449,-8.217135429382324,-2.9306423664093018
1695712710464338400,9.04533837890625,-4.366035461425781,-8.258036613464355,-2.985459089279175
1695712710474374700,9.055374755859376,-4.216794013977051,-8.31797981262207,-3.0331904888153076
1695712710484411000,9.065410888671876,-4.036212921142578,-8.392505645751953,-3.0733096599578857
1695712710494447000,9.075447021484376,-3.8328750133514404,-8.475378036499023,-3.106031894683838
1695712710504483300,9.0854833984375,-3.6207339763641357,-8.55805492401123,-3.1337461471557617
1695712710514519600,9.09551953125,-3.4115517139434814,-8.633254051208496,-3.162060260772705
1695712710524556000,9.10555615234375,-3.2234604358673096,-8.69208812713623,-3.198012590408325
1695712710534584300,9.115584228515624,-3.1108169555664062,-8.717521667480469,-3.240065574645996
1695712710544564000,9.12556396484375,-3.1193413734436035,-8.695693969726562,-3.290137529373169
1695712710554458400,9.135458251953125,-3.209104299545288,-8.634268760681152,-3.3647336959838867
1695712710564472000,9.14547216796875,-3.346205949783325,-8.541123390197754,-3.467345952987671
1695712710574534700,9.15553466796875,-3.491668701171875,-8.44405746459961,-3.560412645339966
1695712710584553200,9.16555322265625,-3.6036570072174072,-8.37593936920166,-3.6093878746032715
1695712710594618600,9.17561865234375,-3.687121868133545,-8.340275764465332,-3.6076745986938477
1695712710604641800,9.185641845703126,-3.756160020828247,-8.325538635253906,-3.5703039169311523
1695712710614658800,9.195658935546875,-3.815695285797119,-8.319933891296387,-3.519883155822754
1695712710624681500,9.205681396484374,-3.85680890083313,-8.319364547729492,-3.4761459827423096
1695712710634730800,9.215730712890625,-3.852456569671631,-8.322946548461914,-3.4723973274230957
1695712710644756000,9.225755859375,-3.8041234016418457,-8.337946891784668,-3.489651918411255
1695712710654811000,9.235810791015625,-3.7075259685516357,-8.382414817810059,-3.4870827198028564
1695712710664839200,9.245839111328126,-3.5330522060394287,-8.468025207519531,-3.4612834453582764
1695712710674879000,9.25587890625,-3.28178334236145,-8.584908485412598,-3.4204728603363037
1695712710684908300,9.265908203125,-3.0322883129119873,-8.69858169555664,-3.363079071044922
1695712710694935800,9.275935791015625,-2.9230058193206787,-8.772644996643066,-3.2660560607910156
1695712710704965000,9.285965087890625,-2.940361499786377,-8.800859451293945,-3.173250436782837
1695712710714999000,9.2959990234375,-2.967149257659912,-8.803306579589844,-3.1413698196411133
1695712710725028600,9.306028564453126,-2.9242687225341797,-8.810394287109375,-3.1616458892822266
1695712710735046700,9.316046630859375,-2.782064437866211,-8.843953132629395,-3.1960926055908203
1695712710745177600,9.326177490234375,-2.5528757572174072,-8.90087890625,-3.229174852371216
1695712710755308300,9.336308349609375,-2.266608953475952,-8.967315673828125,-3.2588539123535156
1695712710765337600,9.346337646484375,-1.9727915525436401,-9.032103538513184,-3.271024465560913
1695712710775366100,9.3563662109375,-1.6700632572174072,-9.09533977508545,-3.264362096786499
1695712710785389600,9.3663896484375,-1.3401439189910889,-9.154733657836914,-3.250422239303589
1695712710795435800,9.376435791015625,-0.9969686269760132,-9.203546524047852,-3.2359206676483154
1695712710805464600,9.386464599609376,-0.6727936863899231,-9.235374450683594,-3.2288670539855957
1695712710815473000,9.396472900390625,-0.38277339935302734,-9.252330780029297,-3.227733612060547
1695712710825489700,9.40648974609375,-0.1272653490304947,-9.26212215423584,-3.2198307514190674
1695712710835518500,9.4165185546875,0.10187724977731705,-9.270938873291016,-3.1952626705169678
1695712710845570800,9.42657080078125,0.3064507246017456,-9.27724838256836,-3.1637229919433594
1695712710855599400,9.436599365234375,0.48170095682144165,-9.277151107788086,-3.142103910446167
1695712710865628200,9.446628173828126,0.6275760531425476,-9.268645286560059,-3.14145827293396
1695712710875660000,9.456659912109375,0.7476273775100708,-9.254389762878418,-3.1571669578552246
1695712710885692000,9.46669189453125,0.8452586531639099,-9.238218307495117,-3.179818630218506
1695712710895723800,9.476723876953125,0.9265905022621155,-9.222214698791504,-3.2035253047943115
1695712710905755600,9.486755615234374,0.9968975186347961,-9.206812858581543,-3.226635217666626
1695712710915787300,9.496787353515625,1.061604619026184,-9.191181182861328,-3.2504727840423584
1695712710925816300,9.50681640625,1.1403343677520752,-9.173770904541016,-3.2729110717773438
1695712710935842300,9.51684228515625,1.2521306276321411,-9.152685165405273,-3.291034698486328
1695712710945868000,9.526867919921875,1.3890460729599,-9.127540588378906,-3.305894374847412
1695712710955777000,9.536777099609376,1.5308204889297485,-9.098339080810547,-3.323735475540161
1695712710965932800,9.546932861328125,1.665960669517517,-9.06584644317627,-3.3474462032318115
1695712710976016100,9.55701611328125,1.7875571250915527,-9.031264305114746,-3.378060817718506
1695712710986033400,9.567033447265626,1.8938761949539185,-8.994434356689453,-3.4181525707244873
1695712710996071000,9.57707080078125,1.9915598630905151,-8.9535493850708,-3.4695868492126465
1695712711006101200,9.587101318359375,2.0903329849243164,-8.90835189819336,-3.5273451805114746
1695712711016118300,9.5971181640625,2.1986453533172607,-8.859728813171387,-3.5835113525390625
1695712711026146300,9.607146240234375,2.3171920776367188,-8.810803413391113,-3.6291539669036865
1695712711036185600,9.617185546875,2.4404208660125732,-8.766336441040039,-3.6559648513793945
1695712711046202600,9.62720263671875,2.554511070251465,-8.731728553771973,-3.6608450412750244
1695712711056241200,9.6372412109375,2.6428382396698,-8.709784507751465,-3.6504030227661133
1695712711066287000,9.647287109375,2.690751314163208,-8.699828147888184,-3.6391243934631348
1695712711076304400,9.657304443359376,2.7013230323791504,-8.69975471496582,-3.6314616203308105
1695712711086321400,9.6673212890625,2.6820459365844727,-8.708723068237305,-3.6242456436157227
1695712711096418600,9.67741845703125,2.6382341384887695,-8.725521087646484,-3.615990400314331
1695712711106440700,9.687440673828124,2.5688962936401367,-8.751752853393555,-3.602497100830078
1695712711116458000,9.6974580078125,2.4790773391723633,-8.789088249206543,-3.5744211673736572
1695712711126475500,9.7074755859375,2.374332904815674,-8.840017318725586,-3.5195212364196777
1695712711136497400,9.717497314453125,2.2490313053131104,-8.904233932495117,-3.4390196800231934
1695712711146532000,9.727531982421874,2.091460704803467,-8.978606224060059,-3.343770742416382
1695712711156583200,9.737583251953126,1.8837661743164062,-9.062685012817383,-3.2387590408325195
1695712711166605300,9.747605224609375,1.6158618927001953,-9.154195785522461,-3.124112129211426
1695712711176620500,9.75762060546875,1.3068091869354248,-9.244450569152832,-3.0004630088806152
1695712711186647300,9.767647216796876,0.9840570688247681,-9.324281692504883,-2.8739869594573975
1695712711196691200,9.777691162109376,0.675713300704956,-9.386608123779297,-2.7577872276306152
1695712711206713000,9.787713134765625,0.4103187024593353,-9.430501937866211,-2.6585047245025635
1695712711216765000,9.797764892578124,0.18921306729316711,-9.459671974182129,-2.578599691390991
1695712711226815700,9.807815673828125,-0.003701179986819625,-9.481653213500977,-2.503720283508301
1695712711236838000,9.817837890625,-0.18979030847549438,-9.50141429901123,-2.420222520828247
1695712711246860000,9.827860107421875,-0.3783711791038513,-9.517651557922363,-2.33270525932312
1695712711256883500,9.837883544921874,-0.5706895589828491,-9.527310371398926,-2.252788782119751
1695712711266915000,9.8479150390625,-0.770725429058075,-9.52776050567627,-2.190467119216919
1695712711276947000,9.857947021484375,-0.9923062920570374,-9.518104553222656,-2.142759084701538
1695712711286978600,9.867978515625,-1.258165717124939,-9.496450424194336,-2.098771095275879
1695712711297010200,9.87801025390625,-1.5695329904556274,-9.461344718933105,-2.046929359436035
1695712711307041800,9.888041748046875,-1.9109779596328735,-9.413105010986328,-1.9778751134872437
1695712711317073400,9.898073486328125,-2.26596999168396,-9.352395057678223,-1.889040231704712
1695712711327105300,9.908105224609375,-2.6208746433258057,-9.279194831848145,-1.788285255432129
1695712711337127200,9.918127197265624,-2.959235429763794,-9.196135520935059,-1.6865382194519043
1695712711347143400,9.928143310546876,-3.2641284465789795,-9.106322288513184,-1.6095832586288452
1695712711357159700,9.93815966796875,-3.528486967086792,-9.012646675109863,-1.5787286758422852
1695712711367175700,9.94817578125,-3.7567434310913086,-8.91769790649414,-1.5911999940872192
1695712711377192000,9.95819189453125,-3.9601738452911377,-8.820862770080566,-1.6370046138763428
1695712711387208000,9.9682080078125,-4.147902488708496,-8.719841003417969,-1.7116215229034424
1695712711397224200,9.97822412109375,-4.322076320648193,-8.613336563110352,-1.8167215585708618
1695712711407240400,9.988240478515625,-4.483490467071533,-8.501172065734863,-1.9490456581115723
1695712711417256400,9.99825634765625,-4.626241683959961,-8.386640548706055,-2.1053571701049805
1695712711427272700,10.008272705078125,-4.739437103271484,-8.279285430908203,-2.2719035148620605
1695712711437289000,10.0182890625,-4.81212854385376,-8.190168380737305,-2.4361724853515625
1695712711447313400,10.0283134765625,-4.839007377624512,-8.126876831054688,-2.5900330543518066
1695712711457349400,10.038349365234374,-4.819640159606934,-8.093358993530273,-2.727447509765625
1695712711467385600,10.048385498046875,-4.752788066864014,-8.091959953308105,-2.8463268280029297
1695712711477421800,10.058421875,-4.639557361602783,-8.122162818908691,-2.9453954696655273
1695712711487457800,10.068457763671875,-4.4844746589660645,-8.178448677062988,-3.028672218322754
1695712711497494000,10.078493896484375,-4.294257164001465,-8.253067016601562,-3.1010687351226807
1695712711507530000,10.088530029296875,-4.076877593994141,-8.338791847229004,-3.164492130279541
1695712711517566200,10.098566162109375,-3.844832420349121,-8.427910804748535,-3.2183797359466553
1695712711527602400,10.1086025390625,-3.6106929779052734,-8.513471603393555,-3.2640609741210938
1695712711537638400,10.118638427734375,-3.3917083740234375,-8.587262153625488,-3.3053934574127197
1695712711547665200,10.1286650390625,-3.2376062870025635,-8.630735397338867,-3.346446990966797
1695712711557700900,10.138700927734375,-3.2086691856384277,-8.622337341308594,-3.3956072330474854
1695712711567736800,10.14873681640625,-3.266141891479492,-8.564696311950684,-3.4854936599731445
1695712711577772800,10.158772705078125,-3.373164653778076,-8.464486122131348,-3.6255502700805664
1695712711587808800,10.168808837890625,-3.5039865970611572,-8.35245132446289,-3.7588579654693604
1695712711597844700,10.1788447265625,-3.6279780864715576,-8.27211856842041,-3.8184070587158203
1695712711607880400,10.18888037109375,-3.744746446609497,-8.226395606994629,-3.804429292678833
1695712711617916400,10.19891650390625,-3.8460168838500977,-8.201371192932129,-3.7571346759796143
1695712711627952400,10.208952392578125,-3.9226980209350586,-8.184962272644043,-3.713383436203003
1695712711637988400,10.21898828125,-3.978753089904785,-8.172669410705566,-3.6806769371032715
1695712711648018700,10.229018798828125,-4.011291027069092,-8.163901329040527,-3.664785385131836
1695712711658067200,10.239067138671874,-4.034438610076904,-8.1565523147583,-3.6557259559631348
1695712711668116000,10.249115966796875,-4.034054756164551,-8.160421371459961,-3.647507905960083
1695712711678164500,10.25916455078125,-3.9569013118743896,-8.199429512023926,-3.644543409347534
1695712711688213000,10.269212890625,-3.7854647636413574,-8.285677909851074,-3.6315531730651855
1695712711698261800,10.27926171875,-3.5532138347625732,-8.402814865112305,-3.5969090461730957
1695712711708310300,10.289310302734375,-3.312509536743164,-8.5245361328125,-3.539767265319824
1695712711718359000,10.299359130859376,-3.107675790786743,-8.629993438720703,-3.469287872314453
1695712711728407600,10.309407470703125,-2.957811117172241,-8.709211349487305,-3.4016716480255127
1695712711738456300,10.319456298828126,-2.8499207496643066,-8.762923240661621,-3.355522871017456
1695712711748486700,10.329486572265624,-2.7384281158447266,-8.805094718933105,-3.337920904159546
1695712711758486000,10.339486083984376,-2.582099199295044,-8.85686206817627,-3.325526475906372
1695712711768516400,10.349516357421875,-2.3672544956207275,-8.919718742370605,-3.317394733428955
1695712711778391800,10.359391845703126,-2.1206462383270264,-8.980226516723633,-3.3209614753723145
1695712711788591600,10.369591552734375,-1.8629169464111328,-9.0365629196167,-3.322721004486084
1695712711798652000,10.37965185546875,-1.6118502616882324,-9.088072776794434,-3.313498020172119
1695712711808669200,10.389669189453125,-1.3723911046981812,-9.134586334228516,-3.293367385864258
1695712711818695000,10.39969482421875,-1.1373043060302734,-9.175578117370605,-3.2688987255096436
1695712711828751400,10.40975146484375,-0.9027560353279114,-9.210262298583984,-3.2444534301757812
1695712711838768600,10.4197685546875,-0.6794025301933289,-9.238509178161621,-3.2185018062591553
1695712711848783000,10.429783203125,-0.47502127289772034,-9.26108455657959,-3.190150260925293
1695712711858851800,10.439851806640625,-0.2879832983016968,-9.278382301330566,-3.1621294021606445
1695712711868869400,10.449869384765625,-0.11607363075017929,-9.289021492004395,-3.1418116092681885
1695712711878896600,10.459896728515625,0.04517317935824394,-9.29322624206543,-3.1311800479888916
1695712711888912600,10.46991259765625,0.194648876786232,-9.291387557983398,-3.1309099197387695
1695712711898930200,10.47993017578125,0.33588945865631104,-9.284626960754395,-3.138991355895996
1695712711908947500,10.489947509765624,0.4706714153289795,-9.274252891540527,-3.152312994003296
1695712711918968600,10.499968505859375,0.5958830714225769,-9.261176109313965,-3.169532537460327
1695712711929015300,10.510015380859375,0.7111498117446899,-9.246325492858887,-3.1890642642974854
1695712711939062300,10.520062255859376,0.8206972479820251,-9.23126220703125,-3.206343650817871
1695712711949109000,10.53010888671875,0.9297046661376953,-9.2161226272583,-3.2201144695281982
1695712711959156000,10.540156005859375,1.0449048280715942,-9.199551582336426,-3.2321529388427734
1695712711969176800,10.5501767578125,1.1680841445922852,-9.18161392211914,-3.240976333618164
1695712711979153200,10.560153076171876,1.2964898347854614,-9.162368774414062,-3.2466113567352295
1695712711989055200,10.57005517578125,1.4279029369354248,-9.141196250915527,-3.2511537075042725
1695712711999064000,10.58006396484375,1.5608713626861572,-9.116093635559082,-3.260507345199585
1695712712009264000,10.59026416015625,1.6924570798873901,-9.086246490478516,-3.278127431869507
1695712712019273000,10.60027294921875,1.8173656463623047,-9.052545547485352,-3.3043901920318604
1695712712029383400,10.610383544921875,1.9429664611816406,-9.01378059387207,-3.3387184143066406
1695712712039416600,10.62041650390625,2.071462631225586,-8.971609115600586,-3.3748579025268555
1695712712049412600,10.63041259765625,2.2038371562957764,-8.928023338317871,-3.406446933746338
1695712712059421400,10.64042138671875,2.3353309631347656,-8.885396003723145,-3.4302127361297607
1695712712069496000,10.65049609375,2.4540998935699463,-8.846381187438965,-3.448090076446533
1695712712079555600,10.6605556640625,2.5424458980560303,-8.81627082824707,-3.4611756801605225
1695712712089564400,10.670564453125,2.590749979019165,-8.799437522888184,-3.468186140060425
1695712712099583200,10.680583251953125,2.604661464691162,-8.79574966430664,-3.4671175479888916
1695712712109599000,10.690598876953125,2.5951220989227295,-8.801678657531738,-3.4592158794403076
1695712712119654400,10.700654296875,2.5710408687591553,-8.814106941223145,-3.4455270767211914
1695712712129709800,10.710709716796876,2.5290565490722656,-8.832419395446777,-3.4296698570251465
1695712712139765200,10.72076513671875,2.4616622924804688,-8.857197761535645,-3.4147703647613525
1695712712149820700,10.730820556640625,2.3665976524353027,-8.892468452453613,-3.390220880508423
1695712712159876000,10.7408759765625,2.2443044185638428,-8.940437316894531,-3.3469481468200684
1695712712169891800,10.750891845703125,2.0931687355041504,-8.999244689941406,-3.2867367267608643
1695712712179816700,10.760816650390625,1.899353265762329,-9.066153526306152,-3.2198917865753174
1695712712189832400,10.77083251953125,1.6299208402633667,-9.1426420211792,-3.1505281925201416
1695712712199759400,10.78075927734375,1.2922252416610718,-9.221539497375488,-3.0763211250305176
1695712712209949400,10.790949462890625,0.9262956380844116,-9.294940948486328,-2.9860403537750244
1695712712219958300,10.800958251953125,0.5880414247512817,-9.354785919189453,-2.883152723312378
1695712712230008800,10.8110087890625,0.3037932813167572,-9.400630950927734,-2.776008367538452
1695712712240049400,10.82104931640625,0.07883075624704361,-9.434113502502441,-2.6761324405670166
1695712712250057000,10.831056884765625,-0.10930635780096054,-9.456709861755371,-2.594048500061035
1695712712260065800,10.841065673828124,-0.28540167212486267,-9.47008228302002,-2.5311009883880615
1695712712270155000,10.851155029296875,-0.475300669670105,-9.47677230834961,-2.4769504070281982
1695712712280166100,10.861166259765625,-0.6887251138687134,-9.47804069519043,-2.421318292617798
1695712712290231800,10.871231689453126,-0.9106200337409973,-9.474397659301758,-2.361555337905884
1695712712300240600,10.88124072265625,-1.1250228881835938,-9.464176177978516,-2.309560537338257
1695712712310249500,10.89124951171875,-1.3524272441864014,-9.444600105285645,-2.267345428466797
1695712712320291800,10.901291748046875,-1.6101195812225342,-9.414168357849121,-2.2251570224761963
1695712712330304300,10.91130419921875,-1.900929570198059,-9.371282577514648,-2.1762170791625977
1695712712340319700,10.92131982421875,-2.2104310989379883,-9.316328048706055,-2.119058132171631
1695712712350335500,10.93133544921875,-2.5216970443725586,-9.250964164733887,-2.0569629669189453
1695712712360351200,10.941351318359375,-2.818274974822998,-9.17788028717041,-1.9985547065734863
1695712712370366700,10.95136669921875,-3.0887064933776855,-9.100275039672852,-1.9532735347747803
1695712712380382500,10.961382568359374,-3.329005718231201,-9.021486282348633,-1.9237756729125977
1695712712390398000,10.97139794921875,-3.5430448055267334,-8.943026542663574,-1.9077484607696533
1695712712400413700,10.98141357421875,-3.73728609085083,-8.862430572509766,-1.9132200479507446
1695712712410429400,10.991429443359374,-3.916837215423584,-8.777338027954102,-1.9460514783859253
1695712712420445000,11.00144482421875,-4.084685325622559,-8.687170028686523,-2.0047013759613037
1695712712430462000,11.0114619140625,-4.241438388824463,-8.591778755187988,-2.088524341583252
1695712712440499200,11.021499267578125,-4.384765625,-8.492297172546387,-2.19661021232605
1695712712450536400,11.031536376953126,-4.507240295410156,-8.393800735473633,-2.3236348628997803
1695712712460573700,11.04157373046875,-4.602103233337402,-8.303887367248535,-2.456929922103882
1695712712470611000,11.05161083984375,-4.663539409637451,-8.230562210083008,-2.584498167037964
1695712712480648200,11.061648193359375,-4.6869916915893555,-8.179884910583496,-2.7003657817840576
1695712712490685400,11.071685546875,-4.669653415679932,-8.15551471710205,-2.802192449569702
1695712712500723000,11.081722900390625,-4.607606410980225,-8.159982681274414,-2.890507698059082
1695712712510760200,11.09176025390625,-4.502087116241455,-8.191971778869629,-2.9653337001800537
1695712712520797400,11.10179736328125,-4.358033657073975,-8.247361183166504,-3.026376962661743
1695712712530817000,11.111817138671874,-4.178983688354492,-8.32125473022461,-3.0762312412261963
1695712712540849200,11.12184912109375,-3.9703712463378906,-8.407638549804688,-3.117396593093872
1695712712550881300,11.13188134765625,-3.7415382862091064,-8.498767852783203,-3.1531271934509277
1695712712560913200,11.1419130859375,-3.5034801959991455,-8.5870361328125,-3.1872925758361816
1695712712570945300,11.1519453125,-3.2745823860168457,-8.66422176361084,-3.221608877182007
1695712712580977400,11.161977294921876,-3.1122426986694336,-8.71017074584961,-3.2584140300750732
1695712712591009500,11.172009521484375,-3.0989959239959717,-8.695466995239258,-3.309904098510742
1695712712601041400,11.18204150390625,-3.187601089477539,-8.627556800842285,-3.4021830558776855
1695712712611073500,11.192073486328125,-3.3032307624816895,-8.524323463439941,-3.548938751220703
1695712712621105700,11.202105712890624,-3.4372639656066895,-8.410075187683105,-3.691373586654663
1695712712631127800,11.2121279296875,-3.560426950454712,-8.324877738952637,-3.766983985900879
1695712712641160000,11.222159912109374,-3.656215190887451,-8.275293350219727,-3.784440517425537
1695712712651191800,11.23219189453125,-3.728966474533081,-8.24930477142334,-3.7701680660247803
1695712712661224000,11.242223876953124,-3.7843120098114014,-8.236418724060059,-3.7430977821350098
1695712712671255800,11.252255859375,-3.8115439414978027,-8.232830047607422,-3.7233080863952637
1695712712681288000,11.262287841796875,-3.8056564331054688,-8.236570358276367,-3.7210583686828613
1695712712691320000,11.272320068359376,-3.7865793704986572,-8.248032569885254,-3.7151260375976562
1695712712701352000,11.28235205078125,-3.7445578575134277,-8.276796340942383,-3.6936848163604736
1695712712711384000,11.292384033203126,-3.6451385021209717,-8.33666706085205,-3.6583237648010254
1695712712721416000,11.302416015625,-3.482714891433716,-8.428141593933105,-3.606590747833252
1695712712731448000,11.312447998046874,-3.3254446983337402,-8.524591445922852,-3.5274834632873535
1695712712741499600,11.322499755859376,-3.2439889907836914,-8.601751327514648,-3.41420578956604
1695712712751551200,11.33255126953125,-3.205890655517578,-8.657306671142578,-3.3081259727478027
1695712712761603000,11.34260302734375,-3.152297019958496,-8.703989028930664,-3.236351490020752
1695712712771654700,11.352654541015625,-3.0468056201934814,-8.75241470336914,-3.206648349761963
1695712712781706200,11.362706298828124,-2.8817179203033447,-8.810036659240723,-3.2014589309692383
1695712712791757800,11.3727578125,-2.6716787815093994,-8.87641716003418,-3.200272560119629
1695712712801809400,11.382809326171875,-2.448988199234009,-8.939484596252441,-3.2028841972351074
1695712712811861000,11.392861083984375,-2.225863218307495,-8.995417594909668,-3.209111213684082
1695712712821912600,11.40291259765625,-1.9861317873001099,-9.049171447753906,-3.215301275253296
1695712712831937300,11.412937255859376,-1.727001667022705,-9.101202011108398,-3.2180707454681396
1695712712841952300,11.4229521484375,-1.4642763137817383,-9.14984130859375,-3.210404396057129
1695712712851967500,11.432967529296874,-1.2137959003448486,-9.191951751708984,-3.1945455074310303
1695712712861982500,11.442982421875,-0.9795783758163452,-9.227998733520508,-3.170940399169922
1695712712871997400,11.45299755859375,-0.7543894648551941,-9.259756088256836,-3.1397764682769775
1695712712882012400,11.463012451171876,-0.5325971841812134,-9.286824226379395,-3.1050970554351807
1695712712892027400,11.47302734375,-0.31506553292274475,-9.306909561157227,-3.0745010375976562
1695712712902042400,11.48304248046875,-0.10655045509338379,-9.320629119873047,-3.047114372253418
1695712712912057300,11.493057373046875,0.09075581282377243,-9.328667640686035,-3.02293062210083
1695712712922072300,11.503072265625,0.27200934290885925,-9.331594467163086,-3.0029540061950684
1695712712932087300,11.51308740234375,0.43245455622673035,-9.330277442932129,-2.9881904125213623
1695712712942113800,11.52311376953125,0.5691200494766235,-9.324259757995605,-2.9840657711029053
1695712712952147200,11.533147216796875,0.6836078763008118,-9.31380558013916,-2.9926750659942627
1695712712962180600,11.5431806640625,0.7792077660560608,-9.30049991607666,-3.010634422302246
1695712712972214000,11.553214111328124,0.8601341843605042,-9.28586483001709,-3.033689260482788
1695712712982247400,11.563247314453125,0.9335803389549255,-9.26999568939209,-3.0603911876678467
1695712712992281000,11.573281005859375,1.017309308052063,-9.252115249633789,-3.087691307067871
1695712713002314500,11.583314453125,1.1309130191802979,-9.231642723083496,-3.1093738079071045
1695712713012348000,11.593347900390626,1.2760897874832153,-9.206207275390625,-3.1285316944122314
1695712713022381300,11.60338134765625,1.4395818710327148,-9.173989295959473,-3.152127742767334
1695712713032414700,11.613414794921875,1.5995049476623535,-9.135927200317383,-3.1854071617126465
1695712713042448100,11.6234482421875,1.737571120262146,-9.095160484313965,-3.2294414043426514
1695712713052479000,11.63347900390625,1.8522899150848389,-9.052716255187988,-3.2844672203063965
1695712713062534100,11.6435341796875,1.9594929218292236,-9.007325172424316,-3.3464715480804443
1695712713072589300,11.65358935546875,2.0751843452453613,-8.958984375,-3.40596342086792
1695712713082644700,11.663644775390624,2.2043845653533936,-8.908821105957031,-3.456005811691284
1695712713092700000,11.673699951171875,2.3365533351898193,-8.860465049743652,-3.49328875541687
1695712713102755000,11.683755126953125,2.450277805328369,-8.820401191711426,-3.516683340072632
1695712713112810500,11.693810546875,2.527682304382324,-8.795218467712402,-3.5249574184417725
1695712713122865700,11.70386572265625,2.564626693725586,-8.786795616149902,-3.519275665283203
1695712713132920800,11.7139208984375,2.5681707859039307,-8.790569305419922,-3.5072460174560547
1695712713142951400,11.723951416015625,2.547010898590088,-8.802002906799316,-3.493975877761841
1695712713152980700,11.733980712890625,2.507460355758667,-8.818635940551758,-3.480616331100464
1695712713163010000,11.744010009765624,2.4540493488311768,-8.840102195739746,-3.464191436767578
1695712713172871000,11.753870849609376,2.390153169631958,-8.868900299072266,-3.435136318206787
1695712713182884000,11.763884033203125,2.3002355098724365,-8.90920352935791,-3.3919613361358643
1695712713192953900,11.773953857421875,2.1682393550872803,-8.960911750793457,-3.3423333168029785
1695712713202972400,11.783972412109375,1.9902458190917969,-9.019977569580078,-3.2938296794891357
1695712713213042000,11.7940419921875,1.746391773223877,-9.087437629699707,-3.246377468109131
1695712713223065900,11.80406591796875,1.4318050146102905,-9.161855697631836,-3.1907236576080322
1695712713233074000,11.814073974609375,1.0800820589065552,-9.236250877380371,-3.1137547492980957
1695712713243096300,11.824096435546876,0.7291709780693054,-9.304174423217773,-3.011815071105957
1695712713253125600,11.834125732421874,0.39981529116630554,-9.360017776489258,-2.898376941680908
1695712713263148500,11.8441484375,0.10704836249351501,-9.40106201171875,-2.789081335067749
1695712713273203200,11.854203125,-0.1474337875843048,-9.429409980773926,-2.689769983291626
1695712713283229400,11.8642294921875,-0.3722722828388214,-9.447210311889648,-2.60422945022583
1695712713293265200,11.87426513671875,-0.5854952335357666,-9.45480728149414,-2.5365707874298096
1695712713303292400,11.88429248046875,-0.8009215593338013,-9.45186996459961,-2.4881837368011475
1695712713313340700,11.894340576171874,-1.023882269859314,-9.440423965454102,-2.449580430984497
1695712713323370000,11.904369873046875,-1.2503695487976074,-9.422290802001953,-2.4140005111694336
1695712713333395200,11.914395263671874,-1.4771395921707153,-9.397867202758789,-2.380872964859009
1695712713343560700,11.924560791015624,-1.7240238189697266,-9.363901138305664,-2.348506450653076
1695712713353613000,11.934613037109376,-2.0021352767944336,-9.318288803100586,-2.3089661598205566
1695712713363641900,11.944641845703124,-2.297791004180908,-9.2619047164917,-2.260012149810791
1695712713373657000,11.954656982421875,-2.5959761142730713,-9.196537971496582,-2.2034037113189697
1695712713383686100,11.96468603515625,-2.8806638717651367,-9.12572193145752,-2.1432113647460938
1695712713393751300,11.974751220703125,-3.140014171600342,-9.052665710449219,-2.088048219680786
1695712713403802400,11.98480224609375,-3.3696255683898926,-8.979226112365723,-2.0468297004699707
1695712713413831400,11.99483154296875,-3.5736751556396484,-8.905385971069336,-2.023198366165161
1695712713423836700,12.004836669921875,-3.761554002761841,-8.8287935256958,-2.0182883739471436
1695712713433851600,12.0148515625,-3.935460329055786,-8.749855995178223,-2.030407190322876
1695712713443880700,12.024880615234375,-4.1004557609558105,-8.665199279785156,-2.066631317138672
1695712713453933800,12.034933837890625,-4.2578654289245605,-8.574962615966797,-2.123908281326294
1695712713463963000,12.044962890625,-4.403866767883301,-8.482316017150879,-2.1969680786132812
1695712713473991700,12.05499169921875,-4.534042835235596,-8.389423370361328,-2.287010908126831
1695712713484020700,12.065020751953124,-4.6428608894348145,-8.298773765563965,-2.3967840671539307
1695712713494052400,12.07505224609375,-4.722612380981445,-8.216651916503906,-2.5207016468048096
1695712713504105500,12.08510546875,-4.764109134674072,-8.152861595153809,-2.6466012001037598
1695712713514137000,12.09513720703125,-4.76118278503418,-8.116395950317383,-2.7614552974700928
1695712713524166100,12.105166259765625,-4.711628437042236,-8.111112594604492,-2.860210418701172
1695712713534177500,12.115177490234375,-4.617684841156006,-8.135664939880371,-2.94250226020813
1695712713544209200,12.125209228515626,-4.483312129974365,-8.186339378356934,-3.009014368057251
1695712713554259000,12.135259033203125,-4.310546875,-8.258804321289062,-3.0629589557647705
1695712713564293600,12.145293701171875,-4.105618476867676,-8.346359252929688,-3.106858015060425
1695712713574325200,12.1553251953125,-3.8783042430877686,-8.441437721252441,-3.141857624053955
1695712713584356900,12.16535693359375,-3.642767906188965,-8.536599159240723,-3.1665587425231934
1695712713594385700,12.1753857421875,-3.4111273288726807,-8.624310493469238,-3.186824083328247
1695712713604402200,12.185402099609375,-3.20971417427063,-8.694442749023438,-3.205430746078491
1695712713614419000,12.1954189453125,-3.1044046878814697,-8.725719451904297,-3.224108934402466
1695712713624435500,12.205435546875,-3.1320650577545166,-8.70299243927002,-3.2585997581481934
1695712713634452000,12.215451904296875,-3.2328150272369385,-8.634018898010254,-3.342604637145996
1695712713644468700,12.22546875,-3.374027967453003,-8.52802562713623,-3.4726200103759766
1695712713654485200,12.2354853515625,-3.5198395252227783,-8.418374061584473,-3.5933382511138916
1695712713664501800,12.245501708984374,-3.649829387664795,-8.340127944946289,-3.645735025405884
1695712713674518300,12.255518310546876,-3.7626023292541504,-8.293716430664062,-3.6369576454162598
1695712713684535000,12.26553515625,-3.8559305667877197,-8.264883995056152,-3.6047041416168213
1695712713694551600,12.275551513671875,-3.9267125129699707,-8.246105194091797,-3.571143388748169
1695712713704580900,12.285580810546875,-3.969764471054077,-8.237709045410156,-3.5428121089935303
1695712713714612500,12.295612548828124,-3.9761648178100586,-8.240320205688477,-3.529536008834839
1695712713724644000,12.30564404296875,-3.965428113937378,-8.246026039123535,-3.5282881259918213
1695712713734676000,12.315676025390625,-3.9349160194396973,-8.261622428894043,-3.5259628295898438
1695712713744707600,12.32570751953125,-3.849224805831909,-8.306208610534668,-3.515787124633789
1695712713754739200,12.3357392578125,-3.6910996437072754,-8.388875961303711,-3.4889702796936035
1695712713764770800,12.345770751953125,-3.5066208839416504,-8.491238594055176,-3.4311602115631104
1695712713774802700,12.355802734375,-3.376547336578369,-8.585264205932617,-3.3260412216186523
1695712713784834300,12.365834228515626,-3.3053534030914307,-8.659968376159668,-3.20155930519104
1695712713794866000,12.375865966796875,-3.2533695697784424,-8.716141700744629,-3.100782871246338
1695712713804906000,12.385906005859376,-3.1894118785858154,-8.759900093078613,-3.0433812141418457
1695712713815009000,12.396009033203125,-3.0772931575775146,-8.802289009094238,-3.0365052223205566
1695712713825112300,12.4061123046875,-2.897563934326172,-8.855484008789062,-3.058579683303833
1695712713835147800,12.416147705078124,-2.674671173095703,-8.917820930480957,-3.080421209335327
1695712713845165800,12.426165771484374,-2.438056230545044,-8.98327922821045,-3.086578607559204
1695712713855184000,12.436183837890624,-2.1814208030700684,-9.051536560058594,-3.0791988372802734
1695712713865202200,12.4462021484375,-1.8977153301239014,-9.119621276855469,-3.0661983489990234
1695712713875220200,12.45622021484375,-1.5998153686523438,-9.181777954101562,-3.0505619049072266
1695712713885238300,12.46623828125,-1.3031392097473145,-9.232959747314453,-3.0372142791748047
1695712713895256300,12.47625634765625,-1.0157694816589355,-9.269599914550781,-3.0353119373321533
1695712713905274400,12.4862744140625,-0.742274284362793,-9.29697322845459,-3.0307936668395996
1695712713915292400,12.49629248046875,-0.48851072788238525,-9.318870544433594,-3.0150279998779297
1695712713925310700,12.506310791015625,-0.2546840310096741,-9.33670711517334,-2.9885506629943848
1695712713935328800,12.516328857421875,-0.03735369071364403,-9.349696159362793,-2.9584062099456787
1695712713945363500,12.526363525390625,0.16542181372642517,-9.356136322021484,-2.933553695678711
1695712713955395600,12.5363955078125,0.3528168201446533,-9.356483459472656,-2.915839433670044
1695712713965427700,12.546427734375,0.5215235352516174,-9.35136604309082,-2.9069488048553467
1695712713975459600,12.55645947265625,0.669442892074585,-9.342865943908691,-2.9039788246154785
1695712713985491700,12.56649169921875,0.7961850762367249,-9.332324981689453,-2.9058899879455566
1695712713995523600,12.576523681640625,0.9021260142326355,-9.317995071411133,-2.920879364013672
1695712714005555700,12.5865556640625,0.9870613813400269,-9.300588607788086,-2.948753833770752
1695712714015587600,12.596587646484375,1.056515097618103,-9.28244400024414,-2.981677532196045
1695712714025619700,12.60661962890625,1.1256874799728394,-9.262423515319824,-3.0183956623077393
1695712714035651600,12.616651611328125,1.2137463092803955,-9.239251136779785,-3.0550684928894043
1695712714045692700,12.626692626953124,1.325528860092163,-9.21234130859375,-3.089681386947632
1695712714055788500,12.63678857421875,1.455248475074768,-9.181839942932129,-3.1219305992126465
1695712714065884700,12.646884765625,1.59194016456604,-9.14865779876709,-3.1524884700775146
1695712714075925500,12.656925537109375,1.7230342626571655,-9.113792419433594,-3.1843881607055664
1695712714085970400,12.666970458984375,1.8449428081512451,-9.076627731323242,-3.2220168113708496
1695712714096015000,12.67701513671875,1.9598259925842285,-9.03608512878418,-3.2678170204162598
1695712714105866000,12.686865966796875,2.0706589221954346,-8.992525100708008,-3.3192222118377686
1695712714115890000,12.696889892578126,2.185685873031616,-8.945913314819336,-3.3710222244262695
1695712714126107400,12.707107421875,2.305004119873047,-8.898360252380371,-3.41709303855896
1695712714136134400,12.717134521484375,2.410238265991211,-8.855037689208984,-3.4567983150482178
1695712714146158300,12.727158447265625,2.481663465499878,-8.818471908569336,-3.4994688034057617
1695712714156202200,12.7372021484375,2.5116231441497803,-8.793383598327637,-3.5409786701202393
1695712714166237200,12.7472373046875,2.5138511657714844,-8.780059814453125,-3.5723226070404053
1695712714176261000,12.75726123046875,2.5058434009552,-8.773221969604492,-3.5946764945983887
1695712714186283000,12.767282958984374,2.49074387550354,-8.76966667175293,-3.613797187805176
1695712714196341200,12.77734130859375,2.459428071975708,-8.77185344696045,-3.629903554916382
1695712714206365000,12.787364990234375,2.404531478881836,-8.783028602600098,-3.6396472454071045
1695712714216390400,12.797390380859374,2.328906297683716,-8.804926872253418,-3.6359121799468994
1695712714226415400,12.807415283203126,2.232191801071167,-8.838106155395508,-3.616018533706665
1695712714236446200,12.8174462890625,2.113363027572632,-8.881765365600586,-3.5802674293518066
1695712714246477000,12.82747705078125,1.968440294265747,-8.932872772216797,-3.535451889038086
1695712714256508000,12.8375078125,1.768795371055603,-8.993436813354492,-3.4870996475219727
1695712714266538800,12.847538818359375,1.4927473068237305,-9.06391716003418,-3.4332919120788574
1695712714276569300,12.8575693359375,1.162184238433838,-9.135517120361328,-3.3707633018493652
1695712714286600200,12.86760009765625,0.8120648860931396,-9.199498176574707,-3.2985126972198486
1695712714296625400,12.87762548828125,0.48028266429901123,-9.25137710571289,-3.2174131870269775
1695712714306651400,12.8876513671875,0.20866659283638,-9.291220664978027,-3.1305065155029297
1695712714316522200,12.897522216796874,0.006938927341252565,-9.321795463562012,-3.045401096343994
1695712714326529800,12.90752978515625,-0.15477292239665985,-9.346892356872559,-2.9634532928466797
1695712714336661000,12.917660888671875,-0.30535614490509033,-9.367648124694824,-2.8851892948150635
1695712714346792000,12.9277919921875,-0.46363362669944763,-9.382866859436035,-2.8137598037719727
1695712714356843800,12.93784375,-0.628978431224823,-9.392292976379395,-2.7494752407073975
1695712714366895900,12.947895751953125,-0.7938650846481323,-9.397249221801758,-2.6892130374908447
1695712714376903700,12.957903564453124,-0.9510810375213623,-9.398726463317871,-2.6324448585510254
1695712714386935800,12.967935791015625,-1.1203832626342773,-9.396454811096191,-2.573279619216919
1695712714396986400,12.977986328125,-1.320051670074463,-9.388514518737793,-2.5067179203033447
1695712714406994200,12.987994140625,-1.5525174140930176,-9.371903419494629,-2.4346487522125244
1695712714417017300,12.998017333984375,-1.8125609159469604,-9.343474388122559,-2.363151788711548
1695712714427030500,13.008030517578124,-2.0878052711486816,-9.302166938781738,-2.298077344894409
1695712714437070600,13.018070556640625,-2.368169069290161,-9.2499361038208,-2.236257314682007
1695712714447110400,13.0281103515625,-2.6396613121032715,-9.189955711364746,-2.1788220405578613
1695712714457150200,13.038150146484375,-2.893529176712036,-9.124635696411133,-2.1304714679718018
1695712714467190300,13.048190185546876,-3.12287974357605,-9.055532455444336,-2.101276397705078
1695712714477230000,13.05822998046875,-3.3246355056762695,-8.984464645385742,-2.0968053340911865
1695712714487270100,13.068270263671875,-3.4997518062591553,-8.904934883117676,-2.1504104137420654
1695712714497310000,13.07831005859375,-3.8314926624298096,-8.696873664855957,-2.4195940494537354
1695712714507323400,13.088323486328125,-4.110162734985352,-8.512600898742676,-2.610089063644409
1695712714517322000,13.098322021484375,-4.313708782196045,-8.368791580200195,-2.74328875541687
1695712714527228200,13.108228271484375,-4.445685386657715,-8.269763946533203,-2.831476926803589
1695712714537229800,13.118229736328125,-4.523520469665527,-8.205510139465332,-2.8944342136383057
1695712714547297500,13.128297607421874,-4.549038410186768,-8.171529769897461,-2.950040817260742
1695712714557305600,13.1383056640625,-4.517799377441406,-8.176217079162598,-2.984853506088257
1695712714567327500,13.148327392578125,-4.436709880828857,-8.216569900512695,-2.995657444000244
1695712714577337000,13.158337158203125,-4.316196441650391,-8.279240608215332,-2.999168872833252
1695712714587390000,13.168389892578125,-4.169244289398193,-8.349669456481934,-3.0117781162261963
1695712714597404200,13.178404052734376,-4.005002021789551,-8.420939445495605,-3.036135196685791
1695712714607458600,13.18845849609375,-3.826960563659668,-8.49238395690918,-3.066622257232666
1695712714617476600,13.1984765625,-3.636950969696045,-8.566801071166992,-3.090776205062866
1695712714627545600,13.208545654296875,-3.4371848106384277,-8.642796516418457,-3.1077651977539062
1695712714637568800,13.21856884765625,-3.2397332191467285,-8.713699340820312,-3.1218490600585938
1695712714647597800,13.228597900390625,-3.052764654159546,-8.775050163269043,-3.1383957862854004
1695712714657621800,13.238621826171874,-2.8989975452423096,-8.819987297058105,-3.158170700073242
1695712714667674000,13.248674072265626,-2.8244614601135254,-8.835824966430664,-3.1813526153564453
1695712714677700900,13.258700927734376,-2.86629056930542,-8.810518264770508,-3.213956356048584
1695712714687732500,13.268732421875,-2.993494987487793,-8.746005058288574,-3.273648500442505
1695712714697759700,13.278759765625,-3.159489154815674,-8.655652046203613,-3.356736421585083
1695712714707959800,13.288959716796874,-3.3208067417144775,-8.565969467163086,-3.4302778244018555
1695712714717968600,13.29896875,-3.4373509883880615,-8.500336647033691,-3.478400468826294
1695712714727996000,13.308995849609374,-3.5156309604644775,-8.465052604675293,-3.4862027168273926
1695712714738025200,13.319025146484375,-3.583818197250366,-8.452760696411133,-3.4463703632354736
1695712714748063200,13.329063232421875,-3.6491785049438477,-8.452286720275879,-3.378272294998169
1695712714758090500,13.339090576171875,-3.6733524799346924,-8.45848560333252,-3.3362984657287598
1695712714768126700,13.349126708984375,-3.646857976913452,-8.476906776428223,-3.3185644149780273
1695712714778157800,13.35915771484375,-3.5757319927215576,-8.512743949890137,-3.3041982650756836
1695712714788185000,13.36918505859375,-3.4576001167297363,-8.569053649902344,-3.2843117713928223
1695712714798222000,13.37922216796875,-3.3210391998291016,-8.640558242797852,-3.2375664710998535
1695712714808264200,13.38926416015625,-3.2399110794067383,-8.700704574584961,-3.1577060222625732
1695712714818291700,13.399291748046876,-3.219970703125,-8.740076065063477,-3.0681042671203613
1695712714828318700,13.409318603515626,-3.2121145725250244,-8.767004013061523,-2.998725652694702
1695712714838347500,13.419347412109374,-3.164940357208252,-8.794684410095215,-2.967672109603882
1695712714848385300,13.42938525390625,-3.0458948612213135,-8.83316421508789,-2.9779410362243652
1695712714858423300,13.43942333984375,-2.842196464538574,-8.888145446777344,-3.015488624572754
1695712714868461300,13.44946142578125,-2.5686557292938232,-8.954987525939941,-3.0627737045288086
1695712714878499300,13.459499267578124,-2.269982099533081,-9.020163536071777,-3.1071243286132812
1695712714888528000,13.46952783203125,-1.9816018342971802,-9.075891494750977,-3.141946792602539
1695712714898545400,13.47954541015625,-1.6893999576568604,-9.123991966247559,-3.173180341720581
1695712714908422700,13.489422607421876,-1.4039838314056396,-9.16200065612793,-3.2026498317718506
1695712714918549000,13.499549072265625,-1.1461381912231445,-9.188127517700195,-3.230335235595703
1695712714928675000,13.509675048828125,-0.9209155440330505,-9.204268455505371,-3.2563424110412598
1695712714938716000,13.5197158203125,-0.7219758629798889,-9.216633796691895,-3.271514415740967
1695712714948728600,13.529728515625,-0.5298070311546326,-9.22983455657959,-3.2710609436035156
1695712714958762000,13.539761962890625,-0.3345189690589905,-9.242501258850098,-3.2610812187194824
1695712714968815900,13.54981591796875,-0.13938604295253754,-9.253238677978516,-3.2447683811187744
1695712714978828500,13.55982861328125,0.0472305491566658,-9.263762474060059,-3.2172741889953613
1695712714988867800,13.569867919921874,0.2238936722278595,-9.273320198059082,-3.182105541229248
1695712714998900500,13.579900390625,0.39525744318962097,-9.281721115112305,-3.14067006111145
1695712715008913200,13.5899130859375,0.5682486295700073,-9.288395881652832,-3.094058036804199
1695712715018936000,13.59993603515625,0.7471012473106384,-9.2943754196167,-3.037566900253296
1695712715028949800,13.60994970703125,0.9261264204978943,-9.299447059631348,-2.972031593322754
1695712715038966000,13.619966064453125,1.0968658924102783,-9.302542686462402,-2.903444290161133
1695712715048982300,13.629982177734375,1.2543901205062866,-9.303105354309082,-2.837097406387329
1695712715058998500,13.63999853515625,1.39422607421875,-9.300600051879883,-2.7794530391693115
1695712715069014800,13.650014892578126,1.5174401998519897,-9.292902946472168,-2.740389823913574
1695712715079031300,13.66003125,1.6249645948410034,-9.280156135559082,-2.7218737602233887
1695712715089047600,13.670047607421875,1.7217507362365723,-9.26286792755127,-2.721257448196411
1695712715099063800,13.680063720703124,1.8206156492233276,-9.238821983337402,-2.7385952472686768
1695712715109080000,13.690080078125,1.933686375617981,-9.207525253295898,-2.766357898712158
1695712715119096300,13.700096435546875,2.063554525375366,-9.170900344848633,-2.794050693511963
1695712715129114000,13.710114013671875,2.2122905254364014,-9.126867294311523,-2.824262857437134
1695712715139150300,13.720150390625,2.3798534870147705,-9.075175285339355,-2.85444712638855
1695712715149186600,13.7301865234375,2.550154209136963,-9.021108627319336,-2.8786630630493164
1695712715159222800,13.740222900390625,2.6973414421081543,-8.969865798950195,-2.9045228958129883
1695712715169259000,13.750259033203125,2.8008501529693604,-8.92642879486084,-2.940150022506714
1695712715179295200,13.760295166015625,2.858518123626709,-8.894463539123535,-2.9812347888946533
1695712715189331500,13.77033154296875,2.8835678100585938,-8.875417709350586,-3.013700008392334
1695712715199367700,13.78036767578125,2.894468307495117,-8.865684509277344,-3.0318427085876465
1695712715209404000,13.79040380859375,2.9045348167419434,-8.860325813293457,-3.0378756523132324
1695712715219440000,13.800440185546876,2.908377170562744,-8.862103462219238,-3.0290019512176514
1695712715229460200,13.810460205078124,2.8956246376037598,-8.873064994812012,-3.009063720703125
1695712715239491800,13.820491943359375,2.866218328475952,-8.892404556274414,-2.979987144470215
1695712715249523200,13.830523193359374,2.8243167400360107,-8.917798042297363,-2.9438908100128174
1695712715259554600,13.840554443359375,2.766174077987671,-8.950112342834473,-2.900716781616211
1695712715269586000,13.8505859375,2.6819074153900146,-8.992280006408691,-2.8489749431610107
1695712715279617500,13.860617431640625,2.5524423122406006,-9.046424865722656,-2.7960028648376465
1695712715289649000,13.87064892578125,2.364719867706299,-9.113289833068848,-2.743434429168701
1695712715299680300,13.88068017578125,2.116222381591797,-9.192138671875,-2.6826438903808594
1695712715309711600,13.890711669921876,1.8097503185272217,-9.279595375061035,-2.6046676635742188
1695712715319743200,13.9007431640625,1.4558448791503906,-9.366150856018066,-2.5151777267456055
1695712715329766100,13.91076611328125,1.0837225914001465,-9.437129020690918,-2.4364984035491943
1695712715339802000,13.920802001953126,0.7357456088066101,-9.489402770996094,-2.3622660636901855
1695712715349838300,13.93083837890625,0.4428803622722626,-9.530609130859375,-2.267540693283081
1695712715359874300,13.940874267578126,0.20329390466213226,-9.563362121582031,-2.161289691925049
1695712715369910300,13.95091015625,-0.012047414667904377,-9.588433265686035,-2.05722713470459
1695712715379946500,13.960946533203124,-0.23759505152702332,-9.603588104248047,-1.971047282218933
1695712715389982500,13.970982421875,-0.4932350516319275,-9.607537269592285,-1.9032466411590576
1695712715400018400,13.981018310546874,-0.7628834247589111,-9.603055953979492,-1.8356760740280151
1695712715410054700,13.9910546875,-1.0209007263183594,-9.59299373626709,-1.761426568031311
1695712715420090600,14.001090576171874,-1.2510197162628174,-9.577430725097656,-1.6965105533599854
1695712715430115600,14.011115478515626,-1.4535359144210815,-9.554829597473145,-1.6621822118759155
1695712715440148500,14.0211484375,-1.6533899307250977,-9.522516250610352,-1.6608320474624634
1695712715450181400,14.031181396484374,-1.8704408407211304,-9.478161811828613,-1.6841272115707397
1695712715460214500,14.041214599609376,-2.118760824203491,-9.420731544494629,-1.7120317220687866
1695712715470247400,14.051247314453125,-2.3899776935577393,-9.35295295715332,-1.7264647483825684
1695712715480280600,14.061280517578124,-2.662996530532837,-9.279184341430664,-1.7249826192855835
1695712715490313500,14.0713134765625,-2.921513080596924,-9.20341968536377,-1.712373971939087
1695712715500346400,14.081346435546875,-3.1612131595611572,-9.127123832702637,-1.6949114799499512
1695712715510379500,14.091379638671874,-3.382336139678955,-9.049566268920898,-1.6839072704315186
1695712715520412400,14.101412353515625,-3.5871474742889404,-8.968905448913574,-1.691595196723938
1695712715530438700,14.111438720703125,-3.778153896331787,-8.885004997253418,-1.7183173894882202
1695712715540471000,14.121470947265625,-3.9547324180603027,-8.799507141113281,-1.7604455947875977
1695712715550503400,14.13150341796875,-4.114098072052002,-8.714950561523438,-1.815000295639038
1695712715560535600,14.14153564453125,-4.2480645179748535,-8.636414527893066,-1.8806058168411255
1695712715570568000,14.15156787109375,-4.353281497955322,-8.56779956817627,-1.9524720907211304
1695712715580600300,14.161600341796875,-4.428938388824463,-8.511022567749023,-2.029132127761841
1695712715590632700,14.1716328125,-4.470993518829346,-8.469435691833496,-2.109323501586914
1695712715600664800,14.181664794921875,-4.474781036376953,-8.447464942932129,-2.1879312992095947
1695712715610697200,14.191697265625,-4.4382476806640625,-8.448131561279297,-2.2586309909820557
1695712715620729600,14.2017294921875,-4.359464168548584,-8.473068237304688,-2.317880392074585
1695712715630757400,14.21175732421875,-4.234986305236816,-8.521676063537598,-2.369877815246582
1695712715640791600,14.22179150390625,-4.06593656539917,-8.589882850646973,-2.419189214706421
1695712715650825700,14.23182568359375,-3.8582866191864014,-8.671523094177246,-2.467524766921997
1695712715660860200,14.241860107421875,-3.622037887573242,-8.758893013000488,-2.516552686691284
1695712715670894300,14.251894287109375,-3.3739354610443115,-8.84404182434082,-2.5631766319274902
1695712715680928500,14.261928466796874,-3.1321303844451904,-8.921290397644043,-2.602062463760376
1695712715690963000,14.271962890625,-2.929920196533203,-8.981318473815918,-2.63094162940979
1695712715700997000,14.2819970703125,-2.8304216861724854,-9.00556468963623,-2.656860828399658
1695712715711031300,14.29203125,-2.8619935512542725,-8.985034942626953,-2.6923084259033203
1695712715721065700,14.302065673828125,-2.9661052227020264,-8.929769515991211,-2.762573719024658
1695712715731096300,14.312096435546875,-3.123582601547241,-8.843856811523438,-2.8635318279266357
1695712715741140500,14.322140380859375,-3.321176290512085,-8.737556457519531,-2.9656825065612793
1695712715751185000,14.332184814453125,-3.5109450817108154,-8.636981964111328,-3.040755033493042
1695712715761229000,14.34222900390625,-3.6613354682922363,-8.559775352478027,-3.0814366340637207
1695712715771273200,14.352273193359375,-3.757875680923462,-8.513641357421875,-3.093005418777466
1695712715781317400,14.3623173828125,-3.806868314743042,-8.494607925415039,-3.0854153633117676
1695712715791361500,14.372361572265625,-3.8167412281036377,-8.491503715515137,-3.081761121749878
1695712715801405700,14.38240576171875,-3.792083501815796,-8.498039245605469,-3.0941576957702637
1695712715811449900,14.392449951171875,-3.7395966053009033,-8.52028751373291,-3.096853733062744
1695712715821494000,14.402493896484375,-3.6537015438079834,-8.565827369689941,-3.07367205619812
1695712715831538200,14.4125380859375,-3.5234553813934326,-8.64128303527832,-3.0139477252960205
1695712715841566500,14.42256640625,-3.366562604904175,-8.733175277709961,-2.9271633625030518
1695712715851585000,14.4325849609375,-3.2514233589172363,-8.807951927185059,-2.831714391708374
1695712715861603600,14.442603515625,-3.2240378856658936,-8.847517013549805,-2.7381396293640137
1695712715871622000,14.452621826171875,-3.2384068965911865,-8.858248710632324,-2.685990571975708
1695712715881640400,14.462640380859375,-3.2190933227539062,-8.863948822021484,-2.6903960704803467
1695712715891659000,14.472658935546875,-3.1333630084991455,-8.882940292358398,-2.7286970615386963
1695712715901677300,14.48267724609375,-2.9783127307891846,-8.92326831817627,-2.770437240600586
1695712715911696000,14.49269580078125,-2.7698538303375244,-8.979337692260742,-2.805316209793091
1695712715921714400,14.50271435546875,-2.5337371826171875,-9.041391372680664,-2.829099655151367
1695712715931732700,14.512732666015625,-2.2766497135162354,-9.107874870300293,-2.8344078063964844
1695712715941751300,14.522751220703125,-1.9843018054962158,-9.179780960083008,-2.822155237197876
1695712715951780600,14.532780517578125,-1.6666315793991089,-9.252978324890137,-2.7883896827697754
1695712715961813800,14.542813720703125,-1.3661552667617798,-9.321819305419922,-2.721705913543701
1695712715971847200,14.55284716796875,-1.110244870185852,-9.380515098571777,-2.635085344314575
1695712715981880300,14.56288037109375,-0.9065839648246765,-9.42719841003418,-2.5448832511901855
1695712715991913700,14.572913818359375,-0.7338066101074219,-9.463738441467285,-2.4636478424072266
1695712716001947100,14.582947021484374,-0.56988525390625,-9.491302490234375,-2.400167465209961
1695712716011980300,14.592980224609375,-0.40991392731666565,-9.514041900634766,-2.342083692550659
1695712716022013700,14.603013671875,-0.26352164149284363,-9.534124374389648,-2.2806596755981445
1695712716032046800,14.613046875,-0.13112331926822662,-9.549019813537598,-2.2292168140411377
1695712716042080300,14.623080322265626,-0.00666688522323966,-9.55845832824707,-2.192309856414795
1695712716052113400,14.633113525390625,0.12102287262678146,-9.561257362365723,-2.1767146587371826
1695712716062143500,14.6431435546875,0.2677660882472992,-9.556497573852539,-2.184499979019165
1695712716072177000,14.653177001953125,0.441462904214859,-9.5444974899292,-2.208634376525879
1695712716082210600,14.66321044921875,0.634461522102356,-9.526930809020996,-2.237279176712036
1695712716092244200,14.673244140625,0.8307238221168518,-9.506381034851074,-2.260310173034668
1695712716102277600,14.683277587890625,1.0232902765274048,-9.485309600830078,-2.2698349952697754
