time,seconds_elapsed,z,y,x
1696081822247187500,0.0511875,-1.1000127792358398,0.706780195236206,-0.9508910179138184
1696081822257187600,0.0611875,-1.1037864685058594,0.7205917835235596,-0.9634538888931274
1696081822267187500,0.0711875,-1.4712715148925781,0.6140255928039551,-0.7909502983093262
1696081822277187600,0.0811875,-1.704620361328125,0.5600855350494385,-0.7190698981285095
1696081822287187500,0.0911875,-1.6315369606018066,0.5799782276153564,-0.8514699339866638
1696081822297187600,0.1011875,-1.623983383178711,0.5390298366546631,-1.1238267421722412
1696081822307187500,0.1111875,-1.9060664176940918,0.5932040214538574,-1.0373297929763794
1696081822317187600,0.1211875,-1.519515037536621,0.3590281009674072,-1.1845673322677612
1696081822327187500,0.1311875,-1.5229535102844238,0.22517037391662598,-0.8455092906951904
1696081822337187600,0.1411875,-1.3610572814941406,0.35439443588256836,-0.7115471959114075
1696081822347187500,0.1511875,-1.2103090286254883,0.5264508724212646,-0.8047317266464233
1696081822357187600,0.1611875,-1.1467037200927734,0.4268021583557129,-0.8173536062240601
1696081822367187500,0.1711875,-0.9321622848510742,0.7297797203063965,-0.9517378211021423
1696081822377187600,0.1811875,-0.7828521728515625,0.7424478530883789,-0.9469501376152039
1696081822387187500,0.1911875,-0.5963344573974609,0.5659105777740479,-1.0122796297073364
1696081822397187600,0.2011875,-0.5477056503295898,0.6635477542877197,-0.9601013660430908
1696081822407187500,0.2111875,-0.5857410430908203,0.6450576782226562,-1.0329557657241821
1696081822417187600,0.2211875,-0.5601377487182617,0.7793285846710205,-0.989948034286499
1696081822427187500,0.2311875,-0.5911293029785156,0.785956859588623,-0.9347268342971802
1696081822437187600,0.2411875,-0.6606101989746094,0.46891045570373535,-0.9895676374435425
1696081822447187500,0.2511875,-0.7897796630859375,0.24096441268920898,-0.8883447647094727
1696081822457187600,0.2611875,-0.8526124954223633,0.13111376762390137,-0.8477489948272705
1696081822467187500,0.2711875,-0.7671346664428711,0.12511920928955078,-1.1438552141189575
1696081822477187600,0.2811875,-0.6520748138427734,0.1342000961303711,-1.5808557271957397
1696081822487187500,0.2911875,-0.6778936386108398,0.04364371299743652,-1.7129868268966675
1696081822497187600,0.3011875,-0.7373685836791992,-0.0016794204711914062,-1.6733043193817139
1696081822507187500,0.3111875,-0.8369970321655273,-0.15775632858276367,-1.5225067138671875
1696081822517187600,0.3211875,-0.7656488418579102,-0.4873948097229004,-0.8029191493988037
1696081822527187500,0.3311875,-0.6607017517089844,-0.7113633155822754,-0.6524636745452881
1696081822537187600,0.3411875,-0.6778879165649414,-0.6909785270690918,-0.9202073812484741
1696081822547187500,0.3511875,-0.6553440093994141,-0.536090612411499,-1.2737207412719727
1696081822557187600,0.3611875,-0.3733386993408203,-0.2761871814727783,-1.6529735326766968
1696081822567187500,0.3711875,-0.3167276382446289,0.029608964920043945,-2.023108959197998
1696081822577187600,0.3811875,-0.4832019805908203,0.1222693920135498,-1.9267098903656006
1696081822587187500,0.3911875,-0.8349776268005371,0.08715343475341797,-1.5989128351211548
1696081822597187600,0.4011875,-1.2202587127685547,0.05017733573913574,-1.2582423686981201
1696081822607187500,0.4111875,-1.2673158645629883,0.0380403995513916,-1.0792980194091797
1696081822617187600,0.4211875,-1.1356701850891113,0.06757974624633789,-1.2783901691436768
1696081822627187500,0.4311875,-0.9543781280517578,0.23206353187561035,-1.6393816471099854
1696081822637187600,0.4411875,-0.7275428771972656,0.42566967010498047,-2.0024733543395996
1696081822647187500,0.4511875,-0.39896726608276367,0.5218987464904785,-2.0632922649383545
1696081822657187600,0.4611875,-0.028776168823242188,0.47574400901794434,-1.7870063781738281
1696081822667187500,0.4711875,0.1892833709716797,0.26563382148742676,-1.5813350677490234
1696081822677187600,0.4811875,0.12106180191040039,-0.016972064971923828,-1.2033944129943848
1696081822687187500,0.4911875,0.3782191276550293,-0.02785801887512207,-0.9219598770141602
1696081822697187600,0.5011875,1.882181167602539,-0.17499971389770508,-1.2667346000671387
1696081822707187500,0.5111875,1.3200836181640625,-0.08522796630859375,-1.2580032348632812
1696081822717187600,0.5211875,1.2075114250183105,-0.2695446014404297,-0.8617701530456543
1696081822727187500,0.5311875,0.9675297737121582,-0.3335123062133789,-0.20961666107177734
1696081822737187600,0.5411875,0.6944198608398438,-0.5257916450500488,0.33062028884887695
1696081822747187500,0.5511875,0.5026984214782715,-0.5012795925140381,0.6261754035949707
1696081822757187600,0.5611875,-1.111898422241211,-0.4134690761566162,0.5400676727294922
1696081822767187500,0.5711875,-1.3075737953186035,0.8896059989929199,-0.08203411102294922
1696081822777187600,0.5811875,0.12373638153076172,1.012007713317871,-0.8284454345703125
1696081822787187500,0.5911875,1.046985149383545,0.8952617645263672,-1.5427446365356445
1696081822797187600,0.6011875,1.0573344230651855,0.9647073745727539,-2.913473129272461
1696081822807187500,0.6111875,0.4111785888671875,0.15873384475708008,-3.291210651397705
1696081822817187600,0.6211875,-0.4262106418609619,-1.1476378440856934,-2.4290523529052734
1696081822827187500,0.6311875,-1.2414157390594482,-1.7794731855392456,-2.313973903656006
1696081822837187600,0.6411875,-1.9778636693954468,-1.9359815120697021,-2.1689529418945312
1696081822847187200,0.651187255859375,-2.448244094848633,-1.8967440128326416,-2.4073734283447266
1696081822857187000,0.66118701171875,-2.253878593444824,-2.707118034362793,-2.019937038421631
1696081822867187200,0.671187255859375,-2.8426384925842285,-4.309136390686035,-0.4791593551635742
1696081822877187000,0.68118701171875,-3.896235466003418,-5.301138877868652,0.6953544616699219
1696081822887187200,0.691187255859375,-4.5310821533203125,-5.166555881500244,1.0087099075317383
1696081822897187300,0.701187255859375,-4.158761024475098,-5.128306865692139,0.4294700622558594
1696081822907187500,0.7111875,-2.8875250816345215,-5.022798538208008,-0.7126436233520508
1696081822917187300,0.721187255859375,-1.2238582372665405,-4.719982624053955,-1.956589698791504
1696081822927187500,0.7311875,0.06499886512756348,-4.472993850708008,-3.4355759620666504
1696081822937187300,0.741187255859375,1.056427240371704,-4.320846080780029,-5.062488079071045
1696081822947187000,0.75118701171875,1.7861790657043457,-3.906167984008789,-6.194894790649414
1696081822957187000,0.76118701171875,1.7631711959838867,-3.3756229877471924,-6.148028373718262
1696081822967187000,0.77118701171875,1.5648164749145508,-2.9278712272644043,-4.88498592376709
1696081822977187000,0.78118701171875,1.3413832187652588,-2.5266613960266113,-2.4195361137390137
1696081822987187000,0.79118701171875,1.033104419708252,-2.2670681476593018,0.37579917907714844
1696081822997186600,0.8011865234375,0.7686421871185303,-2.4706034660339355,3.362460136413574
1696081823007186700,0.811186767578125,0.2857966423034668,-2.8575775623321533,6.444768905639648
1696081823017186600,0.8211865234375,-0.027163982391357422,-2.873931646347046,9.538043975830078
1696081823027186700,0.831186767578125,-0.04228782653808594,-2.291943073272705,12.15092945098877
1696081823037186600,0.8411865234375,0.18464231491088867,-1.5440399646759033,14.182138442993164
1696081823047186400,0.8511865234375,0.7761588096618652,-1.2111790180206299,15.334325790405273
1696081823057186300,0.861186279296875,1.6625332832336426,-0.5926284790039062,16.339996337890625
1696081823067186400,0.8711865234375,2.302766799926758,0.27474308013916016,17.981082916259766
1696081823077186600,0.8811865234375,2.9172325134277344,0.19461584091186523,18.273357391357422
1696081823087186400,0.8911865234375,2.820364236831665,0.1873149871826172,17.268775939941406
1696081823097186000,0.90118603515625,2.548988103866577,0.6310410499572754,17.20429229736328
1696081823107186200,0.911186279296875,2.530177593231201,1.574915885925293,18.14651107788086
1696081823117186000,0.92118603515625,2.6116504669189453,1.4843542575836182,17.017223358154297
1696081823127186200,0.931186279296875,2.5052058696746826,0.8939118385314941,14.716007232666016
1696081823137186000,0.94118603515625,1.9128377437591553,0.823732852935791,13.428085327148438
1696081823147187000,0.95118701171875,0.6310226917266846,0.9791059494018555,12.720870971679688
1696081823157187000,0.96118701171875,-0.5176618099212646,1.272134780883789,10.900818824768066
1696081823167187000,0.97118701171875,-0.877784252166748,1.3946845531463623,9.356168746948242
1696081823177187000,0.98118701171875,-0.5276248455047607,1.3689558506011963,7.723514080047607
1696081823187187000,0.99118701171875,0.33183789253234863,0.8458428382873535,5.354586124420166
1696081823197186300,1.001186279296875,0.844590425491333,0.4995565414428711,2.5829386711120605
1696081823207186400,1.0111865234375,1.454408884048462,0.9477024078369141,-0.043589115142822266
1696081823217186300,1.021186279296875,1.985112190246582,1.4044921398162842,-2.5001401901245117
1696081823227186400,1.0311865234375,2.8015098571777344,2.069063425064087,-4.8715362548828125
1696081823237186300,1.041186279296875,3.805192470550537,2.603865623474121,-7.052419185638428
1696081823247186400,1.0511865234375,4.781678676605225,2.91737961769104,-9.023876190185547
1696081823257186600,1.0611865234375,5.514188766479492,3.1495604515075684,-10.712309837341309
1696081823267186400,1.0711865234375,5.9952802658081055,3.514585018157959,-12.041563034057617
1696081823277186600,1.0811865234375,6.274979591369629,4.076427459716797,-13.039076805114746
1696081823287186400,1.0911865234375,6.3433637619018555,4.624982833862305,-13.88751220703125
1696081823297186800,1.101186767578125,5.416150093078613,4.736636638641357,-15.181306838989258
1696081823307187000,1.11118701171875,5.670124530792236,5.060979843139648,-15.056404113769531
1696081823317186800,1.121186767578125,6.254301071166992,4.90641975402832,-14.578680038452148
1696081823327187000,1.13118701171875,6.9517974853515625,4.365181922912598,-13.691617965698242
1696081823337186800,1.141186767578125,7.1256327629089355,3.5938656330108643,-12.71712589263916
1696081823347187000,1.15118701171875,6.899474620819092,2.9018678665161133,-11.636255264282227
1696081823357186800,1.161186767578125,5.790329456329346,2.727311611175537,-10.3528413772583
1696081823367186700,1.171186767578125,4.232074737548828,2.835875988006592,-9.128207206726074
1696081823377186800,1.181186767578125,2.8269665241241455,2.8765456676483154,-7.81473970413208
1696081823387186700,1.191186767578125,1.6032052040100098,3.1094470024108887,-5.661803245544434
1696081823397187000,1.20118701171875,0.23992300033569336,3.0339794158935547,-4.410388469696045
1696081823407187200,1.211187255859375,-0.42978477478027344,3.4066171646118164,-1.8274784088134766
1696081823417187000,1.22118701171875,-0.9155731201171875,3.5417940616607666,0.22285079956054688
1696081823427187200,1.231187255859375,-1.3226065635681152,2.738290786743164,1.1767797470092773
1696081823437187000,1.24118701171875,-1.7987408638000488,1.152043104171753,0.9376506805419922
1696081823447186400,1.2511865234375,-2.2637557983398438,0.25144004821777344,0.7060422897338867
1696081823457186600,1.2611865234375,-3.0695438385009766,0.281724214553833,1.8978796005249023
1696081823467186400,1.2711865234375,-3.747954845428467,0.43939948081970215,3.564663887023926
1696081823477186600,1.2811865234375,-3.7909293174743652,0.42833757400512695,5.189432144165039
1696081823487186400,1.2911865234375,-2.834872245788574,0.30777621269226074,6.7214813232421875
1696081823497186800,1.301186767578125,-1.482877254486084,-0.07352113723754883,7.447648048400879
1696081823507186400,1.3111865234375,-0.452808141708374,-0.09186601638793945,6.48252010345459
1696081823517186600,1.3211865234375,-0.24635553359985352,0.6185188293457031,6.265050888061523
1696081823527186400,1.3311865234375,0.9300789833068848,0.8271584510803223,7.221867561340332
1696081823537186600,1.3411865234375,6.065769195556641,-0.78462815284729,12.53136920928955
1696081823547187000,1.35118701171875,5.569940090179443,-0.703021764755249,14.080451965332031
1696081823557186800,1.361186767578125,4.8792877197265625,3.4181923866271973,8.624706268310547
1696081823567187000,1.37118701171875,-1.7784411907196045,2.7827959060668945,9.553271293640137
1696081823577186800,1.381186767578125,-0.8578023910522461,0.8768224716186523,9.953304290771484
1696081823587186400,1.3911865234375,1.1318442821502686,1.284918189048767,10.957643508911133
1696081823597186300,1.401186279296875,4.673973083496094,1.6253637075424194,9.669975280761719
1696081823607185700,1.411185546875,6.551103591918945,2.2402195930480957,6.519240379333496
1696081823617185800,1.421185791015625,6.027629852294922,2.526219606399536,1.6619863510131836
1696081823627185700,1.431185546875,4.39945650100708,2.657754898071289,-2.524230480194092
1696081823637185800,1.441185791015625,2.7002265453338623,2.209746837615967,-5.375740051269531
1696081823647185700,1.451185546875,2.092045783996582,1.298448085784912,-5.41173791885376
1696081823657185500,1.461185546875,1.2691869735717773,1.4526195526123047,-5.107717514038086
1696081823667185700,1.471185546875,0.25587034225463867,0.6213564872741699,-4.403933048248291
1696081823677185500,1.481185546875,-0.07820773124694824,0.021567702293395996,-4.4665846824646
1696081823687185700,1.491185546875,-0.6163835525512695,0.7366006970405579,-6.260989189147949
1696081823697185500,1.501185546875,-0.47669458389282227,1.2821624279022217,-8.498860359191895
1696081823710751500,1.51475146484375,-0.35541629791259766,1.910595417022705,-10.920151710510254
1696081823720751400,1.52475146484375,-0.8193578720092773,1.8550996780395508,-12.226959228515625
1696081823730751500,1.53475146484375,-1.408390998840332,0.09550619125366211,-10.01961612701416
1696081823740751400,1.54475146484375,-0.7409670352935791,-1.3281360864639282,-7.938091278076172
1696081823750751500,1.55475146484375,-0.16674673557281494,-1.824169397354126,-6.389911651611328
1696081823760751000,1.564751220703125,2.197153091430664,-3.4203615188598633,-6.02097225189209
1696081823770751000,1.5747509765625,6.109579086303711,-4.817713260650635,-6.747113227844238
1696081823780751000,1.584751220703125,8.098026275634766,-6.059695243835449,-6.632929801940918
1696081823790751000,1.5947509765625,4.509617328643799,-5.235750198364258,-6.922328948974609
1696081823800751000,1.604751220703125,0.9797422885894775,-9.34755802154541,-1.7049779891967773
1696081823810751500,1.61475146484375,-1.3296757936477661,-10.013969421386719,2.337766647338867
1696081823820751400,1.62475146484375,-3.5148210525512695,-10.025856018066406,6.715453147888184
1696081823830751500,1.63475146484375,-3.3498048782348633,-8.635988235473633,8.468901634216309
1696081823840751400,1.64475146484375,-1.91108238697052,-9.465980529785156,7.697818756103516
1696081823850751500,1.65475146484375,-1.4514141082763672,-10.988828659057617,8.357778549194336
1696081823860751400,1.66475146484375,0.9147454500198364,-14.528335571289062,12.138129234313965
1696081823870751500,1.67475146484375,7.4633660316467285,-9.691165924072266,6.32175350189209
1696081823880751400,1.68475146484375,10.835646629333496,-5.0519561767578125,2.337737560272217
1696081823890751700,1.694751708984375,10.800093650817871,-1.7471733093261719,0.4137582778930664
1696081823900752000,1.704751953125,9.681317329406738,0.8709654808044434,-2.1004979610443115
1696081823910752500,1.71475244140625,6.667666912078857,2.3293323516845703,-3.5503506660461426
1696081823920752400,1.72475244140625,3.0337939262390137,2.831545352935791,-2.519728422164917
1696081823930752500,1.73475244140625,0.4396066665649414,2.431133270263672,-0.3551750183105469
1696081823940752400,1.74475244140625,-2.1288022994995117,2.2810893058776855,1.427398681640625
1696081823950752500,1.75475244140625,-3.7087185382843018,2.657829761505127,1.8937501907348633
1696081823960752600,1.764752685546875,-3.831165313720703,2.5263161659240723,2.3138132095336914
1696081823970752500,1.77475244140625,-3.0273590087890625,2.623490810394287,2.061532497406006
1696081823980752600,1.784752685546875,-2.144085645675659,3.046903133392334,1.1228342056274414
1696081823990752500,1.79475244140625,-0.7884135246276855,3.1581597328186035,0.33770132064819336
1696081824000752600,1.804752685546875,0.1545526385307312,3.1538610458374023,-0.8714048862457275
1696081824010752800,1.814752685546875,1.8950484991073608,3.337271213531494,-1.3717319965362549
1696081824020752600,1.824752685546875,2.8490774631500244,2.5412988662719727,-1.9350128173828125
1696081824030752800,1.834752685546875,3.9304561614990234,2.3067169189453125,-2.3510475158691406
1696081824040752600,1.844752685546875,5.315158367156982,2.3321924209594727,-3.2789275646209717
1696081824050752800,1.854752685546875,4.5015645027160645,2.3257508277893066,-2.8449857234954834
1696081824060753200,1.864753173828125,1.802558422088623,3.5334701538085938,-3.445446252822876
1696081824070753000,1.8747529296875,0.07756903767585754,4.055943965911865,-2.372962236404419
1696081824080753200,1.884753173828125,-0.28775256872177124,4.4314985275268555,-1.1976770162582397
1696081824090753000,1.8947529296875,0.2202620506286621,4.879526615142822,-0.2863321304321289
1696081824100753200,1.904753173828125,0.8602851629257202,5.200952529907227,0.018335342407226562
1696081824110753000,1.9147529296875,0.1402227282524109,5.685647487640381,0.1246180534362793
1696081824120753200,1.924753173828125,-0.45043933391571045,6.034297466278076,-0.16007792949676514
1696081824130753000,1.9347529296875,-1.4669817686080933,6.3443193435668945,-0.40535688400268555
1696081824140753200,1.944753173828125,-1.5275219678878784,6.6274027824401855,-0.4360830783843994
1696081824150753000,1.9547529296875,-0.7815929651260376,6.852217674255371,-0.37371522188186646
1696081824160753200,1.964753173828125,0.6662077903747559,2.1827239990234375,0.38196176290512085
1696081824170753000,1.9747529296875,1.4251941442489624,-5.417839050292969,2.2885119915008545
1696081824180753200,1.984753173828125,2.1266207695007324,-12.015623092651367,1.947692632675171
1696081824190753000,1.9947529296875,2.6089816093444824,-17.578670501708984,0.5985317230224609
1696081824200753200,2.004753173828125,2.392683982849121,-22.362857818603516,-0.989526629447937
1696081824210753000,2.0147529296875,-1.2091939449310303,-25.908327102661133,-2.1876487731933594
1696081824220753200,2.024753173828125,-2.6976447105407715,-18.85097885131836,-1.748138666152954
1696081824230753300,2.034753173828125,3.439206123352051,-5.8933515548706055,0.21705986559391022
1696081824240753200,2.044753173828125,3.386899471282959,1.7947802543640137,1.9007304906845093
1696081824250753300,2.054753173828125,1.5177713632583618,1.9895505905151367,1.8784674406051636
1696081824260753400,2.06475341796875,2.020479202270508,2.0768675804138184,1.0230693817138672
1696081824270753300,2.074753173828125,3.305605411529541,2.0186986923217773,-0.2344759702682495
1696081824280753400,2.08475341796875,4.136523723602295,1.8577179908752441,-1.5955036878585815
1696081824290753300,2.094753173828125,3.8385660648345947,2.0440845489501953,-2.7943801879882812
1696081824300753400,2.10475341796875,2.9553744792938232,2.3322348594665527,-3.034630060195923
1696081824310753300,2.114753173828125,2.3740670680999756,2.3423399925231934,-2.8340108394622803
1696081824320753400,2.12475341796875,1.7044626474380493,1.8531203269958496,-2.403024911880493
1696081824330753300,2.134753173828125,0.8207972049713135,1.0801734924316406,-1.5081088542938232
1696081824340753400,2.14475341796875,-0.17593514919281006,0.4043312072753906,-0.8703160285949707
1696081824350753300,2.154753173828125,-0.7028849124908447,-0.08461380004882812,-0.4818132221698761
1696081824360753400,2.16475341796875,-0.7018425464630127,-0.3140068054199219,-0.038463298231363297
1696081824370753300,2.174753173828125,-0.2575950622558594,-0.3898305892944336,0.42757076025009155
1696081824380753400,2.18475341796875,0.3396364450454712,-0.5215835571289062,0.9104825854301453
1696081824390753300,2.194753173828125,0.7756563425064087,-0.40106201171875,1.063042163848877
1696081824400753400,2.20475341796875,1.2941064834594727,-0.00380706787109375,1.290911078453064
1696081824410753300,2.214753173828125,1.5473326444625854,-0.016427040100097656,1.5058128833770752
1696081824420753400,2.22475341796875,1.500695824623108,-0.16263294219970703,1.5639938116073608
1696081824430753300,2.234753173828125,1.3016035556793213,-0.18806076049804688,1.4079644680023193
1696081824440753400,2.24475341796875,1.1221129894256592,-0.14769840240478516,1.2905162572860718
1696081824450753300,2.254753173828125,0.964097261428833,0.004002571105957031,1.123866081237793
1696081824460753400,2.26475341796875,0.8697354197502136,0.15900611877441406,1.0546165704727173
1696081824470753500,2.27475341796875,0.8248814344406128,0.12533187866210938,1.1454589366912842
1696081824480753400,2.28475341796875,0.9130085706710815,0.029168128967285156,1.143129587173462
1696081824490753500,2.29475341796875,1.0993127822875977,-0.1013031005859375,1.0454152822494507
1696081824500753400,2.30475341796875,1.3244291543960571,-0.15838241577148438,0.7743933200836182
1696081824510753300,2.314753173828125,1.50245201587677,-0.11783981323242188,0.39181846380233765
1696081824520753400,2.32475341796875,1.5920379161834717,-0.05816936492919922,-0.0018313080072402954
1696081824530753300,2.334753173828125,1.6363153457641602,-0.00775909423828125,-0.2763230800628662
1696081824540753400,2.34475341796875,1.5228878259658813,-0.01171112060546875,-0.4925573170185089
1696081824550753300,2.354753173828125,1.3470338582992554,0.037766456604003906,-0.6161556243896484
1696081824560753400,2.36475341796875,1.1215747594833374,0.08308887481689453,-0.6226224899291992
1696081824570753300,2.374753173828125,0.9727975130081177,0.08327960968017578,-0.5177820920944214
1696081824580753400,2.38475341796875,0.9679646492004395,0.033135414123535156,-0.3638309836387634
1696081824590753300,2.394753173828125,1.0878832340240479,-0.09639263153076172,-0.1827767789363861
1696081824600753400,2.40475341796875,1.277692437171936,-0.19043731689453125,0.1044476330280304
1696081824610753300,2.414753173828125,1.4428373575210571,-0.15544986724853516,0.3576955497264862
1696081824620753400,2.42475341796875,1.531627893447876,0.047077178955078125,0.5078004598617554
1696081824630753300,2.434753173828125,1.5416254997253418,0.2495555877685547,0.5559905171394348
1696081824640753400,2.44475341796875,1.518741250038147,0.3944673538208008,0.547490119934082
1696081824650753300,2.454753173828125,1.4607619047164917,0.38600826263427734,0.5256736874580383
1696081824660753400,2.46475341796875,1.3818995952606201,0.2481536865234375,0.5122814178466797
1696081824670753300,2.474753173828125,1.2964856624603271,0.11020183563232422,0.46660861372947693
1696081824680753400,2.48475341796875,1.1206462383270264,0.06793403625488281,0.4149324893951416
1696081824690753300,2.494753173828125,0.9477729201316833,0.12612438201904297,0.32380905747413635
1696081824700753400,2.50475341796875,0.8241612315177917,0.2391834259033203,0.24829058349132538
1696081824710753300,2.514753173828125,0.7602982521057129,0.33753299713134766,0.2010144591331482
1696081824720753400,2.52475341796875,0.7190945744514465,0.327667236328125,0.15144523978233337
1696081824730753500,2.53475341796875,0.7196560502052307,0.2718229293823242,0.03942366689443588
1696081824740753400,2.54475341796875,0.7739273309707642,0.18434810638427734,-0.06051526218652725
1696081824750753500,2.55475341796875,0.8377493023872375,0.17315387725830078,-0.09764350205659866
1696081824760753400,2.56475341796875,0.9274886846542358,0.190399169921875,-0.13880962133407593
1696081824770753300,2.574753173828125,0.6887334585189819,0.2955770492553711,-0.2595972716808319
1696081824780753400,2.58475341796875,0.5680438280105591,0.3404388427734375,-0.4187868535518646
1696081824790753300,2.594753173828125,0.42925503849983215,0.2561626434326172,-0.481797993183136
1696081824800753400,2.60475341796875,0.29879230260849,0.10515975952148438,-0.46849721670150757
1696081824810753300,2.614753173828125,0.23683124780654907,-0.032680511474609375,-0.4061194062232971
1696081824820753400,2.62475341796875,0.2226753830909729,-0.025855064392089844,-0.3170812129974365
1696081824830753300,2.634753173828125,0.2568364143371582,0.11665153503417969,-0.18880727887153625
1696081824840753400,2.64475341796875,0.2130661904811859,0.30899715423583984,0.0008165761828422546
1696081824850753300,2.654753173828125,0.154197096824646,0.37644004821777344,0.18990355730056763
1696081824860753400,2.66475341796875,0.04910692572593689,0.27611637115478516,0.32440119981765747
1696081824870753300,2.674753173828125,-0.015067636966705322,0.15085220336914062,0.46196579933166504
1696081824880753400,2.68475341796875,-0.04892846941947937,0.09028148651123047,0.5067068338394165
1696081824890753300,2.694753173828125,0.028868377208709717,0.16383743286132812,0.4842085838317871
1696081824900753400,2.70475341796875,0.08144602179527283,0.23267555236816406,0.36104631423950195
1696081824910753300,2.714753173828125,0.01966613531112671,0.3279600143432617,0.24651303887367249
1696081824920753400,2.72475341796875,-0.08360254764556885,0.40888404846191406,0.23424497246742249
1696081824930753300,2.734753173828125,-0.16218948364257812,0.43465614318847656,0.3757439851760864
1696081824940753400,2.74475341796875,-0.1763150691986084,0.3884267807006836,0.6415899395942688
1696081824950753300,2.754753173828125,-0.2645845413208008,0.2821979522705078,0.896966814994812
1696081824960753400,2.76475341796875,-0.4463766813278198,0.22374248504638672,0.9994128942489624
1696081824970753500,2.77475341796875,-0.6305315494537354,0.25373077392578125,1.1203031539916992
1696081824980753400,2.78475341796875,-0.7638226747512817,0.27877235412597656,1.1777570247650146
1696081824990753500,2.79475341796875,-0.7275635004043579,0.17183685302734375,1.3154630661010742
1696081825000753400,2.80475341796875,-0.5787530541419983,0.0477752685546875,1.422439455986023
1696081825010753500,2.81475341796875,-0.4071890711784363,-0.08374881744384766,1.4991248846054077
1696081825020753400,2.82475341796875,-0.308856725692749,-0.18912601470947266,1.5102564096450806
1696081825030753300,2.834753173828125,-0.15144330263137817,-0.20123958587646484,1.525114893913269
1696081825040753400,2.84475341796875,0.043138206005096436,-0.19896984100341797,1.533589482307434
1696081825050753300,2.854753173828125,0.2962285876274109,-0.20379352569580078,1.5120904445648193
1696081825060753400,2.86475341796875,0.5450668334960938,-0.20848941802978516,1.4822200536727905
1696081825070753300,2.874753173828125,0.5898267030715942,-0.22249794006347656,1.372154951095581
1696081825080753400,2.88475341796875,0.6195878982543945,-0.1596240997314453,1.1167888641357422
1696081825090753300,2.894753173828125,0.6345208883285522,0.01838970184326172,0.6605920195579529
1696081825100753400,2.90475341796875,0.6466979384422302,0.15115737915039062,0.11870557069778442
1696081825110753300,2.914753173828125,0.6419851183891296,0.18602657318115234,-0.4099060595035553
1696081825120753400,2.92475341796875,0.5573216676712036,0.1663808822631836,-0.8861601948738098
1696081825130753300,2.934753173828125,0.47783172130584717,0.08171463012695312,-1.1343679428100586
1696081825140753400,2.94475341796875,0.419292688369751,0.011836051940917969,-1.3783917427062988
1696081825150753300,2.954753173828125,0.26323622465133667,0.014065742492675781,-1.548995018005371
1696081825160753400,2.96475341796875,0.18067795038223267,0.08358192443847656,-1.64059317111969
1696081825170753300,2.974753173828125,0.13171517848968506,0.1101999282836914,-1.6838409900665283
1696081825180753400,2.98475341796875,0.08399885892868042,0.043548583984375,-1.4377440214157104
1696081825190753300,2.994753173828125,-0.0847930908203125,-0.16417503356933594,-0.9440126419067383
1696081825200753400,3.00475341796875,-0.3496463894844055,-0.33101654052734375,-0.3697286546230316
1696081825210753300,3.014753173828125,-0.5673298835754395,-0.37329864501953125,0.1521987020969391
1696081825220753400,3.02475341796875,-0.7158238291740417,-0.35340023040771484,0.6686338782310486
1696081825230753500,3.03475341796875,-0.8159813284873962,-0.22360610961914062,1.0578827857971191
1696081825240753400,3.04475341796875,-0.8032346367835999,0.011199951171875,1.4242842197418213
1696081825250753500,3.05475341796875,-0.5939621925354004,0.2334585189819336,1.6909433603286743
1696081825260753400,3.06475341796875,-0.4054039716720581,0.2946453094482422,1.723383903503418
1696081825270753300,3.074753173828125,-0.09655177593231201,0.230743408203125,1.901528239250183
1696081825280753400,3.08475341796875,0.13520878553390503,-0.1353445053100586,1.9604367017745972
1696081825290753300,3.094753173828125,0.2655718922615051,-0.4202737808227539,1.6808416843414307
1696081825300753400,3.10475341796875,0.21846896409988403,-0.5664272308349609,1.2819585800170898
1696081825310753300,3.114753173828125,0.176399827003479,-0.5666675567626953,0.8891096115112305
1696081825320753400,3.12475341796875,0.28943079710006714,-0.3804759979248047,0.46729356050491333
1696081825330753300,3.134753173828125,0.46365463733673096,-0.12775135040283203,0.10223463177680969
1696081825340753400,3.14475341796875,0.5289478302001953,0.12449455261230469,-0.18199089169502258
1696081825350753300,3.154753173828125,0.6615371704101562,0.3284721374511719,-0.3615339398384094
1696081825360753400,3.16475341796875,0.8199554681777954,0.4339933395385742,-0.41400590538978577
1696081825370753300,3.174753173828125,0.9595228433609009,0.4771280288696289,-0.41853874921798706
1696081825380753400,3.18475341796875,1.1010682582855225,0.4627218246459961,-0.3591005802154541
1696081825390753300,3.194753173828125,1.280413269996643,0.4027423858642578,-0.28209155797958374
1696081825400753400,3.20475341796875,1.4687319993972778,0.3474721908569336,-0.16659897565841675
1696081825410753300,3.214753173828125,1.6732569932937622,0.3184232711791992,0.04972513020038605
1696081825420753400,3.22475341796875,1.899863839149475,0.28431224822998047,0.31764206290245056
1696081825430753300,3.234753173828125,2.1566526889801025,0.2952146530151367,0.6159539818763733
1696081825440753400,3.24475341796875,2.3069233894348145,0.3655261993408203,0.8364394307136536
1696081825450753300,3.254753173828125,2.3180108070373535,0.5241279602050781,0.978557288646698
1696081825460753400,3.26475341796875,2.1777100563049316,0.6086225509643555,1.1136285066604614
1696081825470753500,3.27475341796875,2.068012237548828,0.4925346374511719,1.3803354501724243
1696081825480753400,3.28475341796875,2.066546678543091,0.1354055404663086,1.8025285005569458
1696081825490753500,3.29475341796875,2.0942330360412598,-0.32338714599609375,2.2373440265655518
1696081825500753400,3.30475341796875,2.081803321838379,-0.7827634811401367,2.540058135986328
1696081825510753300,3.314753173828125,2.0483500957489014,-1.0701942443847656,2.746565341949463
1696081825520753400,3.32475341796875,2.086183547973633,-1.1053495407104492,2.966524362564087
1696081825530753300,3.334753173828125,2.2166330814361572,-1.0619382858276367,3.1984643936157227
1696081825540753400,3.34475341796875,2.4413681030273438,-0.9934072494506836,3.548201084136963
1696081825550753300,3.354753173828125,2.54894757270813,-1.1607141494750977,4.055060863494873
1696081825560753400,3.36475341796875,2.568747043609619,-1.644423484802246,4.539071559906006
1696081825570753300,3.374753173828125,2.5691750049591064,-2.1156272888183594,4.8671183586120605
1696081825580753400,3.38475341796875,2.4538495540618896,-2.218456268310547,4.947300910949707
1696081825590753300,3.394753173828125,2.2405686378479004,-2.011913299560547,4.899115085601807
1696081825600753400,3.40475341796875,2.0829873085021973,-1.7615699768066406,4.8004913330078125
1696081825610753300,3.414753173828125,2.435013771057129,-1.6667165756225586,4.575559139251709
1696081825620753400,3.42475341796875,3.298577308654785,-1.4697370529174805,4.040960311889648
1696081825630753300,3.434753173828125,4.5113983154296875,-0.9938526153564453,3.0001449584960938
1696081825640753400,3.44475341796875,5.7230024337768555,-0.4497184753417969,1.7675389051437378
1696081825650753300,3.454753173828125,6.436651229858398,-0.3303108215332031,0.6171679496765137
1696081825660753400,3.46475341796875,6.371047019958496,-0.7070226669311523,-0.6503020524978638
1696081825670753300,3.474753173828125,5.561481475830078,-1.8601016998291016,-1.61824631690979
1696081825680753400,3.48475341796875,3.7631595134735107,-3.1778669357299805,-2.46054744720459
1696081825690753300,3.494753173828125,1.3774796724319458,-4.152823448181152,-3.488786458969116
1696081825700753400,3.50475341796875,-1.1751002073287964,-4.700183868408203,-4.28531551361084
1696081825710753300,3.514753173828125,-3.0175533294677734,-5.046489715576172,-4.652132987976074
1696081825720753400,3.52475341796875,-4.114274024963379,-5.304610252380371,-4.511478424072266
1696081825730753500,3.53475341796875,-4.247598648071289,-5.403104782104492,-3.7018346786499023
1696081825740753400,3.54475341796875,-3.5746846199035645,-5.383570671081543,-2.7602481842041016
1696081825750753500,3.55475341796875,-3.1475517749786377,-5.123430252075195,-2.2499868869781494
1696081825760753400,3.56475341796875,-2.5836687088012695,-4.602511405944824,-1.6010940074920654
1696081825770753300,3.574753173828125,-2.2392067909240723,-4.111048698425293,-0.7785831689834595
1696081825780753400,3.58475341796875,-1.3808233737945557,-3.59429931640625,-0.28060877323150635
1696081825790753300,3.594753173828125,-1.2768217325210571,-2.947686195373535,-0.24086642265319824
1696081825800753400,3.60475341796875,-2.5592901706695557,-2.3207263946533203,-0.5947893857955933
1696081825810753300,3.614753173828125,-3.312371253967285,-1.720794677734375,-0.44227659702301025
1696081825820753400,3.62475341796875,-3.0192198753356934,-1.1150360107421875,-0.3958413600921631
1696081825830753300,3.634753173828125,-2.4867868423461914,-0.4997110366821289,-0.21605288982391357
1696081825840753400,3.64475341796875,-1.7075244188308716,0.20622634887695312,0.08339476585388184
1696081825850753300,3.654753173828125,-0.6520093083381653,1.106266975402832,-0.2220139503479004
1696081825860753400,3.66475341796875,0.3492070436477661,1.8528785705566406,-0.9901055097579956
1696081825870753300,3.674753173828125,-0.3111438751220703,2.489896297454834,-1.4236286878585815
1696081825880753400,3.68475341796875,-1.3802846670150757,3.0150046348571777,-1.6324684619903564
1696081825890753300,3.694753173828125,-1.9437541961669922,3.4734067916870117,-2.060188055038452
1696081825900753400,3.70475341796875,-1.9105068445205688,3.84281587600708,-2.8564417362213135
1696081825910753300,3.714753173828125,-1.8701659440994263,3.729889392852783,-3.574885368347168
1696081825920753400,3.72475341796875,-2.1471004486083984,3.409003734588623,-4.153318405151367
1696081825930753300,3.734753173828125,-2.634491443634033,3.1254963874816895,-4.588686466217041
1696081825940753400,3.74475341796875,-3.0916802883148193,2.7510247230529785,-4.811722755432129
1696081825950753300,3.754753173828125,-3.5041003227233887,2.416161060333252,-4.971055507659912
1696081825960753400,3.76475341796875,-3.8239123821258545,2.1597981452941895,-5.241365432739258
1696081825970753500,3.77475341796875,-4.068122863769531,2.0636415481567383,-5.517416954040527
1696081825980753400,3.78475341796875,-4.240103721618652,2.104663848876953,-5.891091346740723
1696081825990753500,3.79475341796875,-4.32833194732666,2.247990608215332,-6.180469512939453
1696081826000753400,3.80475341796875,-4.325614929199219,2.5185179710388184,-6.248438835144043
1696081826010753000,3.8147529296875,-4.244866847991943,2.8454837799072266,-6.131348609924316
1696081826020753200,3.824753173828125,-3.9227614402770996,3.133723258972168,-5.803229331970215
1696081826030753000,3.8347529296875,-3.4941389560699463,3.359574794769287,-5.376175880432129
1696081826040753200,3.844753173828125,-2.9323461055755615,3.503610134124756,-4.770174026489258
1696081826050753000,3.8547529296875,-2.280439615249634,3.4891695976257324,-3.8079991340637207
1696081826060753200,3.864753173828125,-1.5716956853866577,3.3761978149414062,-2.421980619430542
1696081826070753000,3.8747529296875,-0.7701754570007324,3.0536179542541504,-0.635195255279541
1696081826080753200,3.884753173828125,0.4613323211669922,2.5648574829101562,1.2779672145843506
1696081826090753000,3.8947529296875,2.0913126468658447,1.7057695388793945,3.093407154083252
1696081826100753000,3.9047529296875,3.5710229873657227,0.5326366424560547,4.858633995056152
1696081826110753000,3.9147529296875,4.58016300201416,-0.8377370834350586,6.548596382141113
1696081826120753000,3.9247529296875,4.718598365783691,-2.2080020904541016,7.636858940124512
1696081826130753000,3.9347529296875,5.251837253570557,-3.4535388946533203,8.549564361572266
1696081826140753000,3.9447529296875,6.428727626800537,-4.8024187088012695,9.565718650817871
1696081826150753000,3.9547529296875,6.577683448791504,-6.0166521072387695,10.386738777160645
1696081826160753000,3.9647529296875,5.616482257843018,-6.572170257568359,9.974143981933594
1696081826170753000,3.9747529296875,4.2122697830200195,-5.9423627853393555,7.11055850982666
1696081826180753000,3.9847529296875,2.572385311126709,-3.7972230911254883,3.3100900650024414
1696081826190753000,3.9947529296875,1.5086846351623535,-0.752741813659668,0.6505918502807617
1696081826200753000,4.0047529296875,0.8230414390563965,2.3191633224487305,-0.8333480358123779
1696081826210753000,4.0147529296875,0.8272571563720703,4.971027374267578,-2.1349520683288574
1696081826220753200,4.024753173828125,0.09483218193054199,6.214357376098633,-3.7339165210723877
1696081826230753000,4.0347529296875,-1.5295273065567017,4.413224697113037,-5.276488304138184
1696081826240753200,4.044753173828125,-2.5402612686157227,0.9519753456115723,-6.193722248077393
1696081826250753000,4.0547529296875,-2.397460699081421,-2.673360824584961,-6.506944179534912
1696081826260753200,4.064753173828125,-3.05611252784729,-5.9415435791015625,-5.1791815757751465
1696081826270753000,4.0747529296875,-1.9130396842956543,-8.774947166442871,-2.1656529903411865
1696081826280753200,4.084753173828125,0.7142868041992188,-9.776504516601562,1.0558586120605469
1696081826290753000,4.0947529296875,3.9418466091156006,-6.81959342956543,2.1034865379333496
1696081826300753200,4.104753173828125,2.483837127685547,-2.686947822570801,-0.5647354125976562
1696081826310753300,4.114753173828125,-2.3272311687469482,0.7148456573486328,-3.9473376274108887
1696081826320753400,4.12475341796875,-5.620143890380859,2.608198642730713,-5.865230560302734
1696081826330753300,4.134753173828125,-7.24867057800293,3.105715274810791,-6.942339897155762
1696081826340753400,4.14475341796875,-7.827510833740234,2.485034465789795,-7.22099494934082
1696081826350753300,4.154753173828125,-7.593056678771973,1.2921743392944336,-7.575186252593994
1696081826360753400,4.16475341796875,-7.430776596069336,0.008974075317382812,-8.222861289978027
1696081826370753300,4.174753173828125,-7.760397911071777,-0.9269218444824219,-8.081031799316406
1696081826380753400,4.18475341796875,-7.84473991394043,-2.001354217529297,-7.246661186218262
1696081826390753300,4.194753173828125,-7.584575653076172,-2.901453971862793,-5.883539199829102
1696081826400753400,4.20475341796875,-7.405094146728516,-3.1226272583007812,-4.510420799255371
1696081826410753300,4.214753173828125,-6.8133955001831055,-2.5588808059692383,-3.233957529067993
1696081826420753400,4.22475341796875,-5.691653251647949,-1.4995861053466797,-2.5739364624023438
1696081826430753300,4.234753173828125,-3.800222396850586,-0.7286252975463867,-2.159468412399292
1696081826440753400,4.24475341796875,-0.9557818174362183,-0.2533092498779297,-1.5747804641723633
1696081826450753300,4.254753173828125,2.228649616241455,0.0548858642578125,-0.8900961875915527
1696081826460753400,4.26475341796875,4.18690299987793,0.2536439895629883,-0.18173491954803467
1696081826470753500,4.27475341796875,4.181728839874268,0.5437278747558594,0.2521066665649414
1696081826480753400,4.28475341796875,2.592653751373291,0.8974094390869141,0.39244794845581055
1696081826490753500,4.29475341796875,0.658298671245575,1.1455459594726562,0.44789576530456543
1696081826500753400,4.30475341796875,-0.824410080909729,1.364288330078125,0.4536858797073364
1696081826510753300,4.314753173828125,-1.5527234077453613,1.4668188095092773,0.40950214862823486
1696081826520753400,4.32475341796875,-1.7567219734191895,1.3539142608642578,0.38565313816070557
1696081826530753300,4.334753173828125,-1.9175362586975098,1.143636703491211,0.5724891424179077
1696081826540753400,4.34475341796875,-2.2962915897369385,1.0107965469360352,0.6431286334991455
1696081826550753300,4.354753173828125,-2.760671377182007,0.9739723205566406,0.40085136890411377
1696081826560753400,4.36475341796875,-2.9598400592803955,1.117070198059082,0.12161761522293091
1696081826570753300,4.374753173828125,-2.7179338932037354,1.1413192749023438,0.06569570302963257
1696081826580753400,4.38475341796875,-1.8344392776489258,1.0256900787353516,0.2942624092102051
1696081826590753300,4.394753173828125,-0.7873574495315552,0.5045719146728516,0.7974755167961121
1696081826600753400,4.40475341796875,0.5082682967185974,-0.13976669311523438,1.20833420753479
1696081826610753300,4.414753173828125,1.851052165031433,-0.7044496536254883,1.5898525714874268
1696081826620753400,4.42475341796875,2.7868008613586426,-1.0772590637207031,1.8977869749069214
1696081826630753300,4.434753173828125,3.3122599124908447,-1.059330940246582,2.2866575717926025
1696081826640753400,4.44475341796875,3.3050830364227295,-0.7030496597290039,2.6911191940307617
1696081826650753300,4.454753173828125,2.6296563148498535,0.020778656005859375,2.704904794692993
1696081826660753400,4.46475341796875,1.6683871746063232,0.6342849731445312,2.335155963897705
1696081826670753300,4.474753173828125,0.7830421924591064,0.8648185729980469,1.5878398418426514
1696081826680753400,4.48475341796875,0.25890302658081055,0.5833616256713867,0.6991753578186035
1696081826690753300,4.494753173828125,0.28633803129196167,-0.007122993469238281,-0.052400410175323486
1696081826700753400,4.50475341796875,0.8684630990028381,-0.8739013671875,-0.5003260374069214
1696081826710753300,4.514753173828125,1.7656126022338867,-1.5889892578125,-0.9105274677276611
1696081826720753400,4.52475341796875,2.8239564895629883,-1.9394474029541016,-1.1565358638763428
1696081826730753800,4.53475390625,3.6987571716308594,-1.9609251022338867,-1.0514897108078003
1696081826740754000,4.54475390625,4.208242416381836,-1.8083858489990234,-0.4791167974472046
1696081826750753800,4.55475390625,4.304879665374756,-1.6244421005249023,0.19133567810058594
1696081826760754000,4.56475390625,4.17374324798584,-1.1755809783935547,0.8036490082740784
1696081826770753800,4.57475390625,3.537745237350464,-0.9279441833496094,1.7799363136291504
1696081826780754000,4.58475390625,2.1224653720855713,-1.173421859741211,3.2592997550964355
1696081826790753800,4.59475390625,0.4167898893356323,-1.586318016052246,4.930305004119873
1696081826800754000,4.60475390625,-0.8803695440292358,-1.884073257446289,6.225235939025879
1696081826810753800,4.61475390625,-1.1982240676879883,-2.189483642578125,7.225499629974365
1696081826820754000,4.62475390625,-0.021042943000793457,-2.409517288208008,8.189269065856934
1696081826830753800,4.63475390625,2.614579439163208,-2.1192197799682617,8.311773300170898
1696081826840754000,4.64475390625,5.175667762756348,-1.6197195053100586,7.366671562194824
1696081826850753800,4.65475390625,6.751247406005859,-1.4474906921386719,6.443357944488525
1696081826860754000,4.66475390625,6.9256591796875,-1.7840681076049805,5.962276458740234
1696081826870753800,4.67475390625,6.163313865661621,-2.055936813354492,5.20339822769165
1696081826880754000,4.68475390625,5.092749118804932,-1.9450445175170898,3.7472376823425293
1696081826890753800,4.69475390625,4.736258029937744,-1.7360286712646484,2.3019979000091553
1696081826900754000,4.70475390625,4.4771528244018555,-1.7149953842163086,1.236607551574707
1696081826910753800,4.71475390625,3.360419273376465,-2.014507293701172,0.6341943740844727
1696081826920754000,4.72475390625,1.5671892166137695,-2.482680320739746,-0.09063088893890381
1696081826930753800,4.73475390625,-0.12202942371368408,-2.9799013137817383,-0.8394219875335693
1696081826940754000,4.74475390625,-1.0187056064605713,-4.008844375610352,-1.5972956418991089
1696081826950753800,4.75475390625,-0.9347769618034363,-5.312938690185547,-2.818967342376709
1696081826960754000,4.76475390625,-1.8429968357086182,-6.494790077209473,-4.178556442260742
1696081826970753800,4.77475390625,-3.908452033996582,-7.616559028625488,-5.133610248565674
1696081826980754000,4.78475390625,-4.89676570892334,-7.387568473815918,-5.700872421264648
1696081826990753800,4.79475390625,-5.34688663482666,-6.40399169921875,-5.522599697113037
1696081827000754000,4.80475390625,-5.865950107574463,-5.007579803466797,-4.5650835037231445
1696081827010753500,4.81475341796875,-5.239617347717285,-3.6767730712890625,-3.3568100929260254
1696081827020753400,4.82475341796875,-4.147914409637451,-2.6463747024536133,-1.7621806859970093
1696081827030753000,4.8347529296875,-1.9647102355957031,-1.9746170043945312,-0.5404459238052368
1696081827040753000,4.8447529296875,-0.029039859771728516,-1.418259620666504,0.23259592056274414
1696081827050753000,4.8547529296875,0.8495066165924072,-0.8958845138549805,0.707634449005127
1696081827060753000,4.8647529296875,0.4444950819015503,-0.3641824722290039,0.21068716049194336
1696081827070753000,4.8747529296875,-1.0428228378295898,-0.08729362487792969,-0.5029287338256836
1696081827080753000,4.8847529296875,-3.002999782562256,0.4308509826660156,-1.5619149208068848
1696081827090753000,4.8947529296875,-3.6061153411865234,1.0524778366088867,-2.341876983642578
1696081827100753000,4.9047529296875,-3.186032295227051,1.6866941452026367,-3.3302512168884277
1696081827110753000,4.9147529296875,-2.682619094848633,2.1657705307006836,-4.303313255310059
1696081827120753000,4.9247529296875,-2.730229377746582,2.6036858558654785,-4.936851501464844
1696081827130753000,4.9347529296875,-3.0406599044799805,2.9703497886657715,-5.351995468139648
1696081827140753000,4.9447529296875,-3.457606554031372,3.1202611923217773,-5.5631327629089355
1696081827150753000,4.9547529296875,-3.6534042358398438,3.211554527282715,-5.651065826416016
1696081827160753000,4.9647529296875,-3.5700266361236572,3.205918312072754,-5.72576904296875
1696081827170753000,4.9747529296875,-3.4865429401397705,2.99564790725708,-5.74965238571167
1696081827180753000,4.9847529296875,-3.788942813873291,2.6716747283935547,-5.60044002532959
1696081827190753000,4.9947529296875,-4.141970157623291,2.3640122413635254,-5.33705472946167
1696081827200753000,5.0047529296875,-4.2616777420043945,2.2298622131347656,-5.084765434265137
1696081827210753000,5.0147529296875,-4.169938087463379,2.316716194152832,-5.176158905029297
1696081827220753200,5.024753173828125,-4.168631553649902,2.5447564125061035,-5.468123435974121
1696081827230753000,5.0347529296875,-4.342185974121094,2.8625431060791016,-5.945555686950684
1696081827240753200,5.044753173828125,-4.323362350463867,3.254560947418213,-6.3941779136657715
1696081827250753000,5.0547529296875,-3.9862539768218994,3.5739617347717285,-6.719585418701172
1696081827260753200,5.064753173828125,-3.5799317359924316,3.901991844177246,-6.762880325317383
1696081827270753000,5.0747529296875,-2.9165077209472656,4.229079246520996,-6.599159240722656
1696081827280753000,5.0847529296875,-2.161344051361084,4.3847551345825195,-6.148342609405518
1696081827290753000,5.0947529296875,-1.645777940750122,4.193224906921387,-4.920942783355713
1696081827300753000,5.1047529296875,-0.788799524307251,3.6095056533813477,-2.471540689468384
1696081827310753300,5.114753173828125,1.0702359676361084,2.4204177856445312,0.4871995449066162
1696081827320753400,5.12475341796875,4.544201850891113,0.5601463317871094,4.018219947814941
1696081827330753300,5.134753173828125,7.864433288574219,-1.7378158569335938,7.614675045013428
1696081827340753400,5.14475341796875,8.497969627380371,-4.057797431945801,10.71591567993164
1696081827350753300,5.154753173828125,8.06519889831543,-6.35295295715332,11.806829452514648
1696081827360753400,5.16475341796875,8.843256950378418,-8.401938438415527,12.067238807678223
1696081827370753300,5.174753173828125,10.340620994567871,-10.20722770690918,11.971054077148438
1696081827380753400,5.18475341796875,7.130239963531494,-10.510588645935059,9.546547889709473
1696081827390753300,5.194753173828125,3.145150899887085,-8.09583568572998,4.13211727142334
1696081827400753400,5.20475341796875,0.6523535251617432,-3.744206428527832,-0.2191331386566162
1696081827410753300,5.214753173828125,-0.29296231269836426,0.5836763381958008,-2.490617275238037
1696081827420753400,5.22475341796875,0.10558462142944336,4.421719074249268,-3.914161205291748
1696081827430753300,5.234753173828125,1.3886840343475342,7.807837963104248,-5.220033645629883
1696081827440753400,5.24475341796875,0.9019424915313721,8.706257820129395,-6.341237545013428
1696081827450753300,5.254753173828125,-2.6815786361694336,5.015168190002441,-6.923982620239258
1696081827460753400,5.26475341796875,-4.126570701599121,-0.6715707778930664,-7.7773237228393555
1696081827470753300,5.274753173828125,-5.650150299072266,-5.687868118286133,-7.928468704223633
1696081827480753400,5.28475341796875,-4.21127986907959,-9.607658386230469,-7.118880271911621
1696081827490753300,5.294753173828125,-0.6508340835571289,-12.315513610839844,-3.833955764770508
1696081827500753400,5.30475341796875,-0.5899641513824463,-9.976800918579102,-1.53849196434021
1696081827510753300,5.314753173828125,-0.02495396137237549,-4.897406578063965,-1.5709965229034424
1696081827520753400,5.32475341796875,-2.0390102863311768,-0.5380334854125977,-3.140019416809082
1696081827530753300,5.334753173828125,-4.926599502563477,2.03792142868042,-3.861262321472168
1696081827540753400,5.34475341796875,-6.080738544464111,3.4062561988830566,-4.220983505249023
1696081827550753300,5.354753173828125,-6.494324684143066,3.2925076484680176,-5.210208892822266
1696081827560753400,5.36475341796875,-6.781862735748291,1.8212218284606934,-5.790173530578613
1696081827570752500,5.37475244140625,-6.986538410186768,0.2641916275024414,-5.897660255432129
1696081827580752400,5.38475244140625,-7.184366226196289,-1.3053483963012695,-5.544694900512695
1696081827590752500,5.39475244140625,-7.208344459533691,-2.3434228897094727,-4.79802942276001
1696081827600752400,5.40475244140625,-7.486145496368408,-2.671299934387207,-4.112689018249512
1696081827610752500,5.41475244140625,-7.103798866271973,-2.4036388397216797,-3.1611859798431396
1696081827620752400,5.42475244140625,-6.167125701904297,-1.9708967208862305,-2.0624547004699707
1696081827630752500,5.43475244140625,-4.624743938446045,-1.2546586990356445,-1.1168519258499146
1696081827640752400,5.44475244140625,-2.4922444820404053,-0.4608802795410156,-0.3970036506652832
1696081827650752500,5.45475244140625,0.01673424243927002,0.2473764419555664,0.29390060901641846
1696081827660752400,5.46475244140625,2.353689670562744,0.7740659713745117,1.0235129594802856
1696081827670752500,5.47475244140625,3.698012113571167,1.1718759536743164,1.4822421073913574
1696081827680752400,5.48475244140625,3.702942132949829,1.4154911041259766,1.5603702068328857
1696081827690752500,5.49475244140625,2.88761043548584,1.4617156982421875,1.2720407247543335
1696081827700752400,5.50475244140625,1.4254462718963623,1.5772380828857422,0.720566987991333
1696081827710752500,5.51475244140625,0.13810524344444275,1.5244827270507812,0.2177269458770752
1696081827720752400,5.52475244140625,-0.7135658264160156,1.3342657089233398,0.07532906532287598
1696081827730752500,5.53475244140625,-1.3486608266830444,1.247340202331543,-0.11552804708480835
1696081827740752400,5.54475244140625,-1.852024793624878,1.1540822982788086,-0.28061002492904663
1696081827750752500,5.55475244140625,-2.716360330581665,0.932795524597168,-0.4756779968738556
1696081827760752400,5.56475244140625,-3.3831241130828857,0.9597196578979492,-0.7368177175521851
1696081827770752500,5.57475244140625,-3.343022108078003,1.1850948333740234,-0.7148529887199402
1696081827780752400,5.58475244140625,-2.5851643085479736,1.3769378662109375,-0.4332948625087738
1696081827790752500,5.59475244140625,-1.2804292440414429,0.9961528778076172,-0.037644147872924805
1696081827800752400,5.60475244140625,0.3404696583747864,-0.10897636413574219,0.679842472076416
1696081827810752500,5.61475244140625,2.6803231239318848,-1.4724035263061523,1.125969648361206
1696081827820752400,5.62475244140625,4.714544296264648,-2.098881721496582,1.2492318153381348
1696081827830752500,5.63475244140625,5.085592269897461,-1.4208545684814453,1.492765188217163
1696081827840752400,5.64475244140625,4.436000347137451,-0.15525341033935547,2.0437021255493164
1696081827850752500,5.65475244140625,3.3725340366363525,1.3095359802246094,2.5380070209503174
1696081827860752400,5.66475244140625,2.2560629844665527,2.230215072631836,2.40598464012146
1696081827870753300,5.674753173828125,1.012315273284912,1.957625389099121,1.598522663116455
1696081827880753400,5.68475341796875,0.3893638253211975,0.6986484527587891,0.5701034665107727
1696081827890753300,5.694753173828125,0.4182802438735962,-0.5545158386230469,-0.23242008686065674
1696081827900753400,5.70475341796875,0.7511340379714966,-1.4788179397583008,-0.5540603995323181
1696081827910753300,5.714753173828125,1.4540164470672607,-2.0283451080322266,-0.34305816888809204
1696081827920753400,5.72475341796875,2.5262904167175293,-2.0711421966552734,0.37220296263694763
1696081827930753300,5.734753173828125,3.507615566253662,-1.6238059997558594,1.264577031135559
1696081827940753400,5.74475341796875,3.714324712753296,-1.1266241073608398,2.0772526264190674
1696081827950753300,5.754753173828125,2.8937630653381348,-0.9570999145507812,2.8302669525146484
1696081827960753400,5.76475341796875,1.6780614852905273,-1.1907281875610352,3.6639583110809326
1696081827970753300,5.774753173828125,0.593848466873169,-1.5755128860473633,4.418583393096924
1696081827980753400,5.78475341796875,-0.08924150466918945,-1.8649911880493164,5.09187126159668
1696081827990753300,5.794753173828125,-0.011064648628234863,-1.8543987274169922,5.686104774475098
1696081828000753400,5.80475341796875,1.1861354112625122,-1.4424657821655273,5.921878814697266
1696081828010753300,5.814753173828125,3.2005538940429688,-0.8838920593261719,5.527087688446045
1696081828020753400,5.82475341796875,5.06619930267334,-0.8168420791625977,4.8997321128845215
1696081828030753300,5.834753173828125,5.974788665771484,-1.442368507385254,4.528524875640869
1696081828040753400,5.84475341796875,5.948318958282471,-2.319525718688965,4.356606483459473
1696081828050753300,5.854753173828125,5.5479888916015625,-2.838433265686035,4.05220890045166
1696081828060753400,5.86475341796875,4.866061687469482,-2.762401580810547,3.718977212905884
1696081828070753300,5.874753173828125,4.484829902648926,-2.29953670501709,3.6058878898620605
1696081828080753400,5.88475341796875,3.98779296875,-1.718048095703125,3.7148971557617188
1696081828090753300,5.894753173828125,2.9279892444610596,-1.6156091690063477,3.9209980964660645
1696081828100753400,5.90475341796875,1.723197102546692,-1.9767541885375977,3.681546926498413
1696081828110753300,5.914753173828125,0.08171065151691437,-2.8079309463500977,2.968099594116211
1696081828120753400,5.92475341796875,-1.0885181427001953,-3.8102598190307617,1.6620960235595703
1696081828130753300,5.934753173828125,-1.3010040521621704,-4.941929817199707,0.010683313012123108
1696081828140753400,5.94475341796875,-1.7614279985427856,-6.190347671508789,-1.5291953086853027
1696081828150753300,5.954753173828125,-2.693866729736328,-6.953141212463379,-2.8472726345062256
1696081828160753400,5.96475341796875,-3.869866371154785,-7.264998435974121,-3.709886312484741
1696081828170753300,5.974753173828125,-5.127351760864258,-6.933985710144043,-4.226487636566162
1696081828180753400,5.98475341796875,-6.176839828491211,-5.851059913635254,-4.133657932281494
1696081828190753300,5.994753173828125,-6.487662315368652,-4.607854843139648,-3.439572811126709
1696081828200753400,6.00475341796875,-3.890556812286377,-3.346487045288086,-2.500392436981201
1696081828210753300,6.014753173828125,0.19828450679779053,-2.267573356628418,-1.5189810991287231
1696081828220753400,6.02475341796875,3.7261829376220703,-1.5109539031982422,-0.9912480115890503
1696081828230753300,6.034753173828125,4.289973258972168,-0.841130256652832,-0.6299872398376465
1696081828240753400,6.04475341796875,1.761094570159912,-0.48003387451171875,-0.9284845590591431
1696081828250753300,6.054753173828125,-0.9550091624259949,-0.3195018768310547,-1.8653581142425537
1696081828260753400,6.06475341796875,-2.812945604324341,0.052215576171875,-3.329591989517212
1696081828270753300,6.074753173828125,-3.714376926422119,0.6756525039672852,-4.2284016609191895
1696081828280753400,6.08475341796875,-3.542877197265625,1.3311200141906738,-4.562567234039307
1696081828290753300,6.094753173828125,-3.6049604415893555,2.0408310890197754,-4.544836044311523
1696081828300753400,6.10475341796875,-3.53090500831604,2.5262861251831055,-4.518766403198242
1696081828310753300,6.114753173828125,-3.4285054206848145,2.816133975982666,-4.656313896179199
1696081828320753400,6.12475341796875,-3.1014528274536133,2.7792744636535645,-4.8396806716918945
1696081828330753300,6.134753173828125,-3.133056163787842,2.7366442680358887,-4.959421634674072
1696081828340753400,6.14475341796875,-3.4127931594848633,2.6006393432617188,-4.890757083892822
1696081828350753300,6.154753173828125,-3.6738128662109375,2.3494653701782227,-4.695308208465576
1696081828360753400,6.16475341796875,-3.9726901054382324,1.961298942565918,-4.470516681671143
1696081828370753000,6.1747529296875,-4.156027317047119,1.6678252220153809,-4.39066743850708
1696081828380753000,6.1847529296875,-4.382533073425293,1.5707311630249023,-4.587371349334717
1696081828390753000,6.1947529296875,-4.610905647277832,1.6969499588012695,-5.129604339599609
1696081828400753000,6.2047529296875,-4.845174789428711,2.0381360054016113,-5.857623100280762
1696081828410753000,6.2147529296875,-5.111590385437012,2.4908623695373535,-6.437455654144287
1696081828420753000,6.2247529296875,-5.157965660095215,3.1528682708740234,-6.942873954772949
1696081828430753000,6.2347529296875,-4.883520603179932,3.83864688873291,-7.310080051422119
1696081828440753000,6.2447529296875,-4.194336414337158,4.473182201385498,-7.685655117034912
1696081828450753000,6.2547529296875,-3.45634388923645,5.015668869018555,-8.153326988220215
1696081828460753000,6.2647529296875,-2.9934914112091064,5.219880104064941,-8.175572395324707
1696081828470753000,6.2747529296875,-2.7137699127197266,4.778810501098633,-7.257756233215332
1696081828480753200,6.284753173828125,-2.5705385208129883,3.855867385864258,-4.995321750640869
1696081828490753000,6.2947529296875,0.17061805725097656,2.573176860809326,-1.5457407236099243
1696081828500753200,6.304753173828125,5.95740270614624,0.33770275115966797,2.904279947280884
1696081828510753000,6.3147529296875,9.85074234008789,-2.203213691711426,7.6023454666137695
1696081828520753000,6.3247529296875,9.62857437133789,-4.5649003982543945,11.828084945678711
1696081828530753000,6.3347529296875,9.282148361206055,-7.190243721008301,13.060169219970703
1696081828540753000,6.3447529296875,12.126522064208984,-10.261064529418945,13.903388023376465
1696081828550753000,6.3547529296875,11.366113662719727,-11.777907371520996,12.763748168945312
1696081828560753000,6.3647529296875,5.660276412963867,-9.58914852142334,8.494431495666504
1696081828570753000,6.3747529296875,2.4169907569885254,-4.142914772033691,2.907442331314087
1696081828580753000,6.3847529296875,1.1924374103546143,1.1052746772766113,-0.02792191505432129
1696081828590753000,6.3947529296875,0.7150156497955322,5.312549591064453,-1.7162293195724487
1696081828600753000,6.4047529296875,2.048328399658203,8.470010757446289,-4.00335168838501
1696081828610753000,6.4147529296875,0.2059941291809082,8.54970645904541,-5.692352294921875
1696081828620753000,6.4247529296875,-4.192958354949951,3.879683017730713,-6.439930438995361
1696081828630753000,6.4347529296875,-7.4447832107543945,-2.463703155517578,-6.4946136474609375
1696081828640753000,6.4447529296875,-9.46511459350586,-6.697127342224121,-5.998416900634766
1696081828650753000,6.4547529296875,-7.7799811363220215,-10.448014259338379,-5.5362443923950195
1696081828660753000,6.4647529296875,-5.393115997314453,-11.498947143554688,-3.7173242568969727
1696081828670753300,6.474753173828125,-3.2596402168273926,-7.884016036987305,-2.277920722961426
1696081828680753400,6.48475341796875,-1.5827219486236572,-4.572568893432617,-1.4447418451309204
1696081828690753300,6.494753173828125,-2.2450830936431885,-1.615732192993164,-2.65710711479187
1696081828700753400,6.50475341796875,-2.1099023818969727,0.1512470245361328,-4.420508861541748
1696081828710753300,6.514753173828125,-2.457883358001709,0.8561801910400391,-5.7142720222473145
1696081828720753400,6.52475341796875,-4.045019626617432,0.6717472076416016,-6.963370323181152
1696081828730753300,6.534753173828125,-5.054452896118164,-0.47603321075439453,-8.085552215576172
1696081828740753400,6.54475341796875,-5.153484344482422,-1.7210721969604492,-8.72960090637207
1696081828750753300,6.554753173828125,-5.381292819976807,-2.5682830810546875,-8.169454574584961
1696081828760753400,6.56475341796875,-5.839347839355469,-2.4324350357055664,-7.423262596130371
1696081828770753300,6.574753173828125,-6.438331604003906,-1.6716804504394531,-6.28931999206543
1696081828780753400,6.58475341796875,-6.665005683898926,-1.1043758392333984,-4.258059024810791
1696081828790753300,6.594753173828125,-5.599668502807617,-0.683720588684082,-2.516953706741333
1696081828800753400,6.60475341796875,-4.51725959777832,-0.21907806396484375,-1.6950430870056152
1696081828810753300,6.614753173828125,-3.268418788909912,0.5412282943725586,-1.1929759979248047
1696081828820753400,6.62475341796875,-1.6647758483886719,1.2883644104003906,-0.5965955257415771
1696081828830753300,6.634753173828125,0.34343230724334717,1.7070746421813965,0.3096165657043457
1696081828840753400,6.64475341796875,2.070101499557495,1.8221230506896973,1.391231656074524
1696081828850753300,6.654753173828125,3.102322578430176,1.772824764251709,2.1870312690734863
1696081828860753400,6.66475341796875,3.332838773727417,1.7415580749511719,2.2939677238464355
1696081828870753300,6.674753173828125,2.75696063041687,1.9028029441833496,1.8460161685943604
1696081828880753400,6.68475341796875,1.8210103511810303,1.8965277671813965,1.2614167928695679
1696081828890753300,6.694753173828125,1.1273982524871826,1.3346424102783203,0.9402419328689575
1696081828900753400,6.70475341796875,0.6475178003311157,0.9995079040527344,0.502682089805603
1696081828910753300,6.714753173828125,-0.04616598039865494,0.745819091796875,0.1263669729232788
1696081828920753400,6.72475341796875,-0.979125440120697,0.8304510116577148,-0.2061644196510315
1696081828930753300,6.734753173828125,-2.093744993209839,1.1272602081298828,-0.48032864928245544
1696081828940753400,6.74475341796875,-2.2491979598999023,1.2753801345825195,-0.20029842853546143
1696081828950753300,6.754753173828125,-1.2034813165664673,1.0380353927612305,0.39891523122787476
1696081828960753400,6.76475341796875,0.49927836656570435,0.27573680877685547,0.9315595030784607
1696081828970753300,6.774753173828125,2.2356560230255127,-0.6149568557739258,1.3811192512512207
1696081828980753400,6.78475341796875,3.116305351257324,-1.1773109436035156,1.8327871561050415
1696081828990753300,6.794753173828125,2.988617181777954,-1.085494041442871,2.277592182159424
1696081829000753400,6.80475341796875,1.9343576431274414,-0.2023448944091797,2.6775307655334473
1696081829010753500,6.81475341796875,0.23628920316696167,0.8529129028320312,2.6830737590789795
1696081829020753700,6.824753662109375,-0.9741858243942261,1.3027534484863281,2.1669516563415527
1696081829030753500,6.83475341796875,-0.9612566828727722,0.9312582015991211,1.4522665739059448
1696081829040753700,6.844753662109375,0.2986353635787964,0.2663698196411133,0.8514432311058044
1696081829050753500,6.85475341796875,2.26552152633667,-0.21697711944580078,0.32746806740760803
1696081829060753700,6.864753662109375,4.027084827423096,-0.6461372375488281,0.16195358335971832
1696081829070753500,6.87475341796875,4.937262058258057,-1.1806983947753906,0.4392813444137573
1696081829080753700,6.884753662109375,4.661263465881348,-1.5383358001708984,1.1580839157104492
1696081829090753500,6.89475341796875,3.6047921180725098,-1.5012407302856445,1.9061434268951416
1696081829100753700,6.904753662109375,2.494565010070801,-1.2288284301757812,2.347714424133301
1696081829110753500,6.91475341796875,1.425114631652832,-1.1427583694458008,2.936403512954712
1696081829120753700,6.924753662109375,0.4012789726257324,-1.4160451889038086,3.95058274269104
1696081829130753500,6.93475341796875,-0.36633753776550293,-1.872314453125,5.252850532531738
1696081829140753700,6.944753662109375,-0.47659122943878174,-2.1795568466186523,6.508904457092285
1696081829150753500,6.95475341796875,0.36144131422042847,-2.12839412689209,7.474363327026367
1696081829160753700,6.964753662109375,2.128365993499756,-1.7607297897338867,7.738801002502441
1696081829170753500,6.97475341796875,3.692936897277832,-2.002455711364746,7.6056904792785645
1696081829180753700,6.984753662109375,4.637187480926514,-2.802623748779297,7.324636459350586
1696081829190753500,6.99475341796875,5.107100486755371,-3.3317251205444336,6.871635437011719
1696081829200753700,7.004753662109375,5.088040351867676,-3.5233840942382812,6.550699710845947
1696081829210753500,7.01475341796875,5.224545955657959,-3.4357471466064453,5.983861446380615
1696081829220753700,7.024753662109375,5.854959964752197,-3.111569404602051,5.045988082885742
1696081829230753500,7.03475341796875,6.533450603485107,-2.646803855895996,3.44126296043396
1696081829240753700,7.044753662109375,5.50813102722168,-2.4033002853393555,1.7383089065551758
1696081829250753500,7.05475341796875,2.864321231842041,-2.652284622192383,0.6301330327987671
1696081829260753700,7.064753662109375,0.37129127979278564,-3.2390546798706055,-0.35009557008743286
1696081829270753500,7.07475341796875,-0.788607656955719,-4.4182586669921875,-1.1083934307098389
1696081829280753700,7.084753662109375,-1.1859148740768433,-5.881109237670898,-2.1187033653259277
1696081829290753500,7.09475341796875,-2.3733866214752197,-7.395522117614746,-3.7046501636505127
1696081829300753700,7.104753662109375,-3.940300941467285,-8.489690780639648,-4.868728160858154
1696081829310753300,7.114753173828125,-5.487981796264648,-8.536242485046387,-5.833347320556641
1696081829320753400,7.12475341796875,-5.929534912109375,-7.57172966003418,-6.223514080047607
1696081829330753300,7.134753173828125,-4.971012592315674,-5.82773494720459,-5.811339855194092
1696081829340753400,7.14475341796875,-2.8332319259643555,-4.1897172927856445,-5.0330095291137695
1696081829350753300,7.154753173828125,-0.8241400718688965,-2.9981470108032227,-3.917489528656006
1696081829360753400,7.16475341796875,-0.46053576469421387,-2.0384387969970703,-2.840121269226074
1696081829370753300,7.174753173828125,-0.7791822552680969,-1.2472820281982422,-1.8946352005004883
1696081829380753400,7.18475341796875,-1.6018543243408203,-0.6729412078857422,-1.4616700410842896
1696081829390753300,7.194753173828125,-2.3856844902038574,-0.2510652542114258,-1.4730827808380127
1696081829400753400,7.20475341796875,-3.0142822265625,0.12106704711914062,-1.3519055843353271
1696081829410753800,7.21475390625,-3.1096625328063965,0.8661623001098633,-1.46580171585083
1696081829420754000,7.22475390625,-2.883406400680542,1.6538958549499512,-1.8569321632385254
1696081829430753800,7.23475390625,-2.723947525024414,2.4029746055603027,-2.1637423038482666
1696081829440754000,7.24475390625,-2.9428961277008057,3.1114721298217773,-2.543976068496704
1696081829450753800,7.25475390625,-3.3161134719848633,3.6772093772888184,-2.8560023307800293
1696081829460754000,7.26475390625,-3.8360681533813477,4.047178268432617,-3.1987907886505127
1696081829470753800,7.27475390625,-4.110363960266113,4.1766533851623535,-3.586505651473999
1696081829480754000,7.28475390625,-4.181297302246094,4.038395404815674,-4.012404441833496
1696081829490753800,7.29475390625,-4.2369232177734375,3.7473597526550293,-4.550962448120117
1696081829500754000,7.30475390625,-4.28488826751709,3.38731050491333,-4.983792304992676
1696081829510753800,7.31475390625,-4.408225059509277,3.0737600326538086,-5.3547282218933105
1696081829520753700,7.324753662109375,-4.360136032104492,2.826857566833496,-5.696706771850586
1696081829530753800,7.33475390625,-4.36739444732666,2.733952522277832,-6.03059196472168
1696081829540753700,7.344753662109375,-4.553473949432373,2.800579071044922,-6.342177391052246
1696081829550753800,7.35475390625,-4.7586565017700195,3.029129981994629,-6.754656791687012
1696081829560753700,7.364753662109375,-4.9428277015686035,3.2924561500549316,-7.091285705566406
1696081829570753800,7.37475390625,-4.855706214904785,3.645249843597412,-7.390151500701904
1696081829580753700,7.384753662109375,-4.393754959106445,4.087834358215332,-7.755359649658203
1696081829590753800,7.39475390625,-3.904409646987915,4.553529262542725,-8.03300666809082
1696081829600753700,7.404753662109375,-3.429553508758545,4.879962921142578,-7.939698219299316
1696081829610753300,7.414753173828125,-2.8383865356445312,4.764064788818359,-7.084408283233643
1696081829620753400,7.42475341796875,-1.989673137664795,4.270928382873535,-5.429036617279053
1696081829630753300,7.434753173828125,-0.7576031684875488,3.42421293258667,-3.1197891235351562
1696081829640753400,7.44475341796875,1.4937701225280762,2.015500068664551,-0.7854135036468506
1696081829650753300,7.454753173828125,7.104424476623535,-0.3763399124145508,2.6244122982025146
1696081829660753400,7.46475341796875,10.406877517700195,-3.09366512298584,6.644501686096191
1696081829670753300,7.474753173828125,8.929925918579102,-5.883018493652344,10.252176284790039
1696081829680753400,7.48475341796875,7.4659423828125,-8.610431671142578,13.570175170898438
1696081829690753300,7.494753173828125,7.110523700714111,-9.999287605285645,13.52944564819336
1696081829700753400,7.50475341796875,8.198713302612305,-9.392434120178223,12.328079223632812
1696081829710752800,7.514752685546875,5.870243549346924,-6.850683212280273,8.422327041625977
1696081829720753000,7.5247529296875,3.308499574661255,-3.51016902923584,3.824347972869873
1696081829730753000,7.5347529296875,1.7634694576263428,-0.24458789825439453,0.7314434051513672
1696081829740753000,7.5447529296875,0.8929214477539062,2.8952746391296387,-0.830416202545166
1696081829750753000,7.5547529296875,0.8626847267150879,5.861117362976074,-2.1598777770996094
1696081829760753000,7.5647529296875,0.9728938341140747,6.901965141296387,-3.5118744373321533
1696081829770753000,7.5747529296875,-1.9455580711364746,3.4787635803222656,-4.775143623352051
1696081829780753000,7.5847529296875,-3.855961322784424,-2.281010627746582,-5.688726902008057
1696081829790753000,7.5947529296875,-5.79791259765625,-7.174406051635742,-5.288723945617676
1696081829800753000,7.6047529296875,-6.742876052856445,-9.203389167785645,-4.452079772949219
1696081829810753000,7.6147529296875,-4.804220199584961,-9.65753173828125,-1.4165587425231934
1696081829820753000,7.6247529296875,-1.841181993484497,-8.911970138549805,0.310636043548584
1696081829830753000,7.6347529296875,0.7295438051223755,-7.603652000427246,-0.5947568416595459
1696081829840753000,7.6447529296875,1.6052268743515015,-4.963876724243164,-2.867849111557007
1696081829850753000,7.6547529296875,-0.12136197090148926,-1.7032957077026367,-5.604249000549316
1696081829860753000,7.6647529296875,-1.3527308702468872,1.104325294494629,-7.26619815826416
1696081829870753000,7.6747529296875,-2.7748284339904785,3.0240554809570312,-8.369795799255371
1696081829880753000,7.6847529296875,-4.30556058883667,3.1932735443115234,-9.234603881835938
1696081829890753000,7.6947529296875,-5.584224700927734,2.4434447288513184,-9.71803092956543
1696081829900753000,7.7047529296875,-6.795686721801758,1.5005054473876953,-9.235176086425781
1696081829910753300,7.714753173828125,-7.804096221923828,0.3934812545776367,-7.29128885269165
1696081829920753400,7.72475341796875,-8.73085880279541,-0.7336502075195312,-6.095264434814453
1696081829930753300,7.734753173828125,-8.529190063476562,-1.3128433227539062,-5.292047500610352
1696081829940753400,7.74475341796875,-7.657541275024414,-1.3947439193725586,-3.8335249423980713
1696081829950753300,7.754753173828125,-6.5192790031433105,-1.0593023300170898,-2.7683980464935303
1696081829960753400,7.76475341796875,-5.563805103302002,-0.35577869415283203,-2.590038299560547
1696081829970753300,7.774753173828125,-3.481987714767456,0.1421833038330078,-1.7880113124847412
1696081829980753400,7.78475341796875,-0.19651460647583008,0.24594593048095703,-0.1470578908920288
1696081829990753300,7.794753173828125,3.149129867553711,0.3975105285644531,1.5706067085266113
1696081830000753400,7.80475341796875,5.9932861328125,1.1806364059448242,3.0843727588653564
1696081830010752500,7.81475244140625,6.233359336853027,1.212693214416504,3.2418770790100098
1696081830020752100,7.824752197265625,5.386166572570801,1.4511079788208008,2.9139957427978516
1696081830030752000,7.834751953125,3.5011730194091797,1.3295021057128906,2.0437538623809814
1696081830040752000,7.844752197265625,1.2998533248901367,1.2442588806152344,1.0395300388336182
1696081830050752000,7.854751953125,-0.6089990735054016,1.336562156677246,0.1564030647277832
1696081830060752100,7.864752197265625,-2.0259206295013428,1.5211353302001953,-0.4905844032764435
1696081830070752000,7.874751953125,-3.021350145339966,1.5470027923583984,-0.8751555681228638
1696081830080752000,7.884752197265625,-3.443159341812134,1.12713623046875,-0.9077869653701782
1696081830090752000,7.894751953125,-2.5541038513183594,0.5707225799560547,-0.71942138671875
1696081830100752100,7.904752197265625,-0.7929341197013855,-0.03391551971435547,-0.14681941270828247
1696081830110752000,7.914751953125,0.9733478426933289,-0.7784957885742188,0.5381262302398682
1696081830120752000,7.924752197265625,1.9795647859573364,-1.0962886810302734,1.1577086448669434
1696081830130752000,7.934751953125,2.37137508392334,-0.7884750366210938,1.9779304265975952
1696081830140752100,7.944752197265625,2.2435741424560547,-0.01951122283935547,2.901639699935913
1696081830150752000,7.954751953125,1.5383801460266113,0.9671421051025391,3.321302652359009
1696081830160752000,7.964752197265625,0.7330268025398254,1.5947771072387695,2.9072442054748535
1696081830170752000,7.974751953125,0.02720797061920166,1.494328498840332,1.8341312408447266
1696081830180752100,7.984752197265625,0.033017754554748535,0.8540935516357422,0.5034588575363159
1696081830190752000,7.994751953125,0.65313321352005,0.09924602508544922,-0.4407835006713867
1696081830200752000,8.004752197265624,1.6900677680969238,-0.6461706161499023,-0.801632285118103
1696081830210752000,8.014751953125,3.0252938270568848,-1.0949268341064453,-0.8063905239105225
1696081830220752100,8.024752197265625,4.350688934326172,-1.3233156204223633,-0.428446501493454
1696081830230752000,8.034751953125,5.0085039138793945,-1.2898015975952148,0.39862996339797974
1696081830240752000,8.044752197265625,4.569668769836426,-1.2105693817138672,1.4423584938049316
1696081830250752000,8.054751953125,3.4464187622070312,-0.9951019287109375,2.3773550987243652
1696081830260752100,8.064752197265625,2.375947952270508,-0.7114791870117188,2.960212469100952
1696081830270752000,8.074751953125,1.6777507066726685,-0.7188730239868164,3.726801633834839
1696081830280752000,8.084752197265624,1.0242946147918701,-1.0902833938598633,4.807590484619141
1696081830290752000,8.094751953125,0.3998638391494751,-1.6807241439819336,6.1684393882751465
1696081830300752100,8.104752197265626,0.1272825002670288,-2.1819448471069336,7.4001288414001465
1696081830310753000,8.1147529296875,0.7304678559303284,-2.1640405654907227,8.321159362792969
1696081830320753400,8.12475341796875,2.602062225341797,-1.6358213424682617,8.516761779785156
1696081830330753300,8.134753173828125,4.966490268707275,-1.5573511123657227,8.187687873840332
1696081830340753400,8.14475341796875,6.663629531860352,-2.3371639251708984,7.829683780670166
1696081830350753300,8.154753173828125,7.446039199829102,-2.9642457962036133,6.976422309875488
1696081830360753400,8.16475341796875,7.1530938148498535,-2.9269590377807617,5.871394634246826
1696081830370753300,8.174753173828124,6.260811805725098,-2.410271644592285,4.689979076385498
1696081830380753400,8.18475341796875,5.421533107757568,-1.9047603607177734,3.8474135398864746
1696081830390753300,8.194753173828126,3.755533456802368,-1.9398727416992188,3.4796862602233887
1696081830400753400,8.20475341796875,1.2924730777740479,-2.5433197021484375,3.4724276065826416
1696081830410753300,8.214753173828125,-0.8911354541778564,-3.699519157409668,2.7600955963134766
1696081830420753400,8.22475341796875,-1.821747064590454,-4.912360191345215,1.6616336107254028
1696081830430753300,8.234753173828125,-1.6191658973693848,-6.4262800216674805,-0.21022526919841766
1696081830440753400,8.24475341796875,-1.855987548828125,-8.010909080505371,-2.425780773162842
1696081830450753300,8.254753173828124,-2.637293577194214,-9.328725814819336,-4.246541500091553
1696081830460753400,8.26475341796875,-4.11223840713501,-9.951717376708984,-5.499216079711914
1696081830470753300,8.274753173828126,-5.510580062866211,-9.814079284667969,-6.615223407745361
1696081830480753400,8.28475341796875,-6.4637556076049805,-8.779313087463379,-6.746267318725586
1696081830490753300,8.294753173828125,-5.25020170211792,-6.8340559005737305,-6.408044338226318
1696081830500753400,8.30475341796875,-1.28842031955719,-4.991999626159668,-5.24721097946167
1696081830510753300,8.314753173828125,1.7328932285308838,-3.5814247131347656,-3.8969357013702393
1696081830520753400,8.32475341796875,1.7997891902923584,-2.652833938598633,-2.994657516479492
1696081830530753300,8.334753173828124,-0.3019798994064331,-1.9439849853515625,-2.30008864402771
1696081830540753400,8.34475341796875,-1.7832789421081543,-1.3901081085205078,-1.660275936126709
1696081830550753300,8.354753173828126,-2.3922252655029297,-0.9525365829467773,-1.8271114826202393
1696081830560753400,8.36475341796875,-2.6872217655181885,-0.23873615264892578,-2.2383310794830322
1696081830570753300,8.374753173828125,-2.830411195755005,0.5304794311523438,-2.5605273246765137
1696081830580753400,8.38475341796875,-3.0086264610290527,1.6743955612182617,-2.7584171295166016
1696081830590753300,8.394753173828125,-3.1389641761779785,2.4962339401245117,-2.862671136856079
1696081830600753400,8.40475341796875,-2.8703036308288574,3.428859233856201,-3.202571153640747
1696081830610753300,8.414753173828124,-2.662260055541992,4.110446453094482,-3.7471275329589844
1696081830620753400,8.42475341796875,-2.715700387954712,4.26519775390625,-4.392648696899414
1696081830630753300,8.434753173828126,-2.964383840560913,4.2230424880981445,-4.85942268371582
1696081830640753400,8.44475341796875,-3.1531434059143066,4.239748954772949,-5.532016277313232
1696081830650753300,8.454753173828125,-3.4671311378479004,4.063543319702148,-5.8210039138793945
1696081830660753400,8.46475341796875,-3.7518844604492188,3.723377227783203,-5.989631652832031
1696081830670753300,8.474753173828125,-4.117173671722412,3.2949461936950684,-6.007194519042969
1696081830680753400,8.48475341796875,-4.512395858764648,2.956712245941162,-6.13510274887085
1696081830690753300,8.494753173828125,-4.803550720214844,2.8165335655212402,-6.474843978881836
1696081830700753400,8.50475341796875,-5.002508163452148,2.8971104621887207,-6.954349517822266
1696081830710753300,8.514753173828124,-5.1911540031433105,3.015420436859131,-7.369906425476074
1696081830720753400,8.52475341796875,-5.177299499511719,3.321005344390869,-7.735576629638672
1696081830730753300,8.534753173828125,-4.840611457824707,3.8045830726623535,-8.042984008789062
1696081830740753400,8.54475341796875,-4.268736362457275,4.388921737670898,-8.268707275390625
1696081830750753300,8.554753173828125,-3.713257074356079,4.919159412384033,-8.285903930664062
1696081830760753400,8.56475341796875,-3.3513896465301514,5.147527694702148,-7.831657409667969
1696081830770753300,8.574753173828125,-2.6603310108184814,4.80020809173584,-6.454906463623047
1696081830780753400,8.58475341796875,-1.6745821237564087,4.08048677444458,-3.937690258026123
1696081830790753300,8.594753173828124,0.9150896072387695,2.962480068206787,-0.6435258388519287
1696081830800753400,8.60475341796875,4.776870250701904,1.0868487358093262,3.1256988048553467
1696081830810753300,8.614753173828126,7.320256233215332,-1.280623435974121,7.306891441345215
1696081830820753400,8.62475341796875,7.322185516357422,-3.7467222213745117,10.981833457946777
1696081830830753300,8.634753173828125,7.4238104820251465,-6.440129280090332,14.018585205078125
1696081830840753400,8.64475341796875,9.140363693237305,-9.051370620727539,14.903164863586426
1696081830850753300,8.654753173828125,10.089727401733398,-10.701332092285156,15.147743225097656
1696081830860753400,8.66475341796875,6.083065986633301,-10.415413856506348,12.737587928771973
1696081830870753300,8.674753173828124,2.8822944164276123,-7.118958473205566,5.912064552307129
1696081830880753400,8.68475341796875,2.8583641052246094,-7.150986671447754,5.837558746337891
1696081830890753300,8.694753173828126,1.1415536403656006,1.7642393112182617,-0.8341367244720459
1696081830900753400,8.70475341796875,1.4019474983215332,4.214719295501709,-2.8080999851226807
1696081830910753300,8.714753173828125,-0.40529298782348633,2.9589905738830566,-4.2587361335754395
1696081830920753400,8.72475341796875,-0.7111845016479492,-0.9229602813720703,-6.111611366271973
1696081830930753300,8.734753173828125,1.0450279712677002,-4.450211524963379,-7.864702224731445
1696081830940753400,8.74475341796875,-1.8970855474472046,-6.417634963989258,-7.428618431091309
1696081830950753300,8.754753173828124,-3.0077357292175293,-7.919685363769531,-4.620424270629883
1696081830960753400,8.76475341796875,-3.1491551399230957,-6.999357223510742,-0.795457124710083
1696081830970753300,8.774753173828126,-4.967548847198486,-2.858407974243164,-0.9097046852111816
1696081830980753400,8.78475341796875,-1.774052619934082,1.4902606010437012,-2.942915916442871
1696081830990753300,8.794753173828125,-2.865327835083008,4.935336112976074,-4.378756046295166
1696081831000753400,8.80475341796875,-5.777078151702881,6.020085334777832,-4.552213668823242
1696081831010753300,8.814753173828125,-6.6630024909973145,3.7184224128723145,-4.426448822021484
1696081831020753400,8.82475341796875,-6.242571830749512,0.2483053207397461,-5.67098331451416
1696081831030753300,8.834753173828124,-5.635751247406006,-2.098282814025879,-7.1530866622924805
1696081831040753400,8.84475341796875,-5.59304141998291,-3.7091941833496094,-8.067691802978516
1696081831050753300,8.854753173828126,-6.276054859161377,-4.927763938903809,-7.985703468322754
1696081831060753400,8.86475341796875,-6.7737016677856445,-5.505902290344238,-6.7143025398254395
1696081831070753300,8.874753173828125,-6.798998832702637,-5.02610969543457,-4.782149791717529
1696081831080753400,8.88475341796875,-6.30012321472168,-3.29067325592041,-3.563652276992798
1696081831090753300,8.894753173828125,-5.24012565612793,-1.508437156677246,-3.059534788131714
1696081831100753400,8.90475341796875,-3.9910049438476562,0.012713432312011719,-2.8512134552001953
1696081831110753300,8.914753173828124,-2.2208619117736816,1.0902824401855469,-2.5128843784332275
1696081831120753400,8.92475341796875,0.19126677513122559,1.507734775543213,-1.7301034927368164
1696081831130753300,8.934753173828126,2.331331729888916,1.3839378356933594,-0.5734308958053589
1696081831140753400,8.94475341796875,3.2184698581695557,1.187657356262207,0.4336761236190796
1696081831150753300,8.954753173828125,2.6670312881469727,0.9641094207763672,1.1120787858963013
1696081831160753400,8.96475341796875,1.3865931034088135,0.9471111297607422,1.2368866205215454
1696081831170753300,8.974753173828125,0.031405627727508545,1.1111783981323242,0.8841440677642822
1696081831180753400,8.98475341796875,-0.9387181997299194,1.2621850967407227,0.47022485733032227
1696081831190753300,8.994753173828125,-1.2996721267700195,1.2541923522949219,0.2810337543487549
1696081831200753400,9.00475341796875,-1.2836610078811646,1.1774511337280273,0.44849538803100586
1696081831210753300,9.014753173828124,-1.162157654762268,1.233428955078125,0.6318421363830566
1696081831220753400,9.02475341796875,-1.1063817739486694,1.244466781616211,0.7258459329605103
1696081831230753300,9.034753173828125,-1.1718183755874634,1.4594993591308594,0.8008727431297302
1696081831240753400,9.04475341796875,-1.2731646299362183,1.5673952102661133,0.7433304190635681
1696081831250753300,9.054753173828125,-1.3238509893417358,1.7074851989746094,0.8238962292671204
1696081831260753400,9.06475341796875,-0.887844979763031,1.5136823654174805,0.8754554986953735
1696081831270753300,9.074753173828125,-0.0704779177904129,1.0218181610107422,1.1622788906097412
1696081831280753400,9.08475341796875,0.9660763740539551,0.36812400817871094,1.399370789527893
1696081831290753300,9.094753173828124,1.733820915222168,-0.2657346725463867,1.2970435619354248
1696081831300753400,9.10475341796875,2.002878427505493,-0.5876016616821289,1.108729362487793
1696081831310753300,9.114753173828126,1.5384169816970825,-0.46538448333740234,1.1174235343933105
1696081831320753400,9.12475341796875,0.7411397695541382,-0.05652427673339844,1.2608283758163452
1696081831330753300,9.134753173828125,0.042983174324035645,0.4143047332763672,1.3355656862258911
1696081831340753400,9.14475341796875,-0.1904914379119873,0.5109243392944336,1.0697578191757202
1696081831350753300,9.154753173828125,0.1898965835571289,0.25211048126220703,0.4476226270198822
1696081831360753400,9.16475341796875,1.4993290901184082,-0.05909442901611328,-0.24079012870788574
1696081831370753300,9.174753173828124,3.583096981048584,-0.36840248107910156,-0.772599995136261
1696081831380753400,9.18475341796875,5.652907848358154,-0.7208766937255859,-1.0379068851470947
1696081831390753300,9.194753173828126,6.836172103881836,-1.1579418182373047,-0.6225321292877197
1696081831400753400,9.20475341796875,6.153717041015625,-1.5129013061523438,0.44125381112098694
1696081831410753300,9.214753173828125,4.19362735748291,-1.585759162902832,1.967204213142395
1696081831420753400,9.22475341796875,2.0449912548065186,-1.4738502502441406,3.3819568157196045
1696081831430753300,9.234753173828125,0.47418034076690674,-1.3944206237792969,4.639830112457275
1696081831440753400,9.24475341796875,-0.4389524459838867,-1.3978395462036133,5.8199872970581055
1696081831450753300,9.254753173828124,-0.7877072095870972,-1.301711082458496,6.8560333251953125
1696081831460753400,9.26475341796875,-0.10995972156524658,-0.9517393112182617,7.686962127685547
1696081831470753300,9.274753173828126,1.7414631843566895,-0.42479705810546875,7.941873073577881
1696081831480753400,9.28475341796875,4.025446891784668,0.13477706909179688,7.489284515380859
1696081831490753300,9.294753173828125,6.35874080657959,0.25133228302001953,6.462435245513916
1696081831500753400,9.30475341796875,7.717391490936279,-0.3971214294433594,5.418348789215088
1696081831510753300,9.314753173828125,7.236695289611816,-1.7039766311645508,4.995215892791748
1696081831520753400,9.32475341796875,5.444377422332764,-3.090359687805176,4.8533148765563965
1696081831530753300,9.334753173828124,3.9231767654418945,-3.947789192199707,4.499971866607666
1696081831540753400,9.34475341796875,3.055171012878418,-4.040397644042969,4.477020263671875
1696081831550753300,9.354753173828126,2.1617960929870605,-3.635009765625,4.768702030181885
1696081831560753400,9.36475341796875,0.685664176940918,-3.1751708984375,5.043584823608398
1696081831570753300,9.374753173828125,-0.7326824069023132,-2.8892269134521484,4.293991565704346
1696081831580753400,9.38475341796875,-0.9592143893241882,-3.2495059967041016,3.127251625061035
1696081831590753300,9.394753173828125,-1.3101646900177002,-4.4488677978515625,1.9826116561889648
1696081831600753400,9.40475341796875,-1.9073917865753174,-6.334120750427246,0.48143699765205383
1696081831610753300,9.414753173828124,-2.191713333129883,-8.145363807678223,-1.221288800239563
1696081831620753400,9.42475341796875,-2.2127299308776855,-9.445454597473145,-3.0147247314453125
1696081831630753300,9.434753173828126,-3.256892442703247,-10.077569961547852,-4.06406307220459
1696081831640753400,9.44475341796875,-4.702887535095215,-9.418545722961426,-4.751978874206543
1696081831650753300,9.454753173828125,-4.884420394897461,-7.762688636779785,-5.1999831199646
1696081831660753400,9.46475341796875,-4.090993881225586,-6.037838935852051,-4.717892646789551
1696081831670753300,9.474753173828125,-1.2333546876907349,-4.601164817810059,-4.2723917961120605
1696081831680753400,9.48475341796875,1.0059797763824463,-3.3027524948120117,-3.7259113788604736
1696081831690753300,9.494753173828125,1.0969852209091187,-2.206387519836426,-3.1714258193969727
1696081831700753400,9.50475341796875,0.22916853427886963,-1.2065143585205078,-3.0151071548461914
1696081831710753300,9.514753173828124,-1.1729230880737305,-0.42734241485595703,-3.1941795349121094
1696081831720753400,9.52475341796875,-2.297133684158325,0.016719818115234375,-3.2880585193634033
1696081831730753300,9.534753173828125,-3.2719802856445312,0.5645847320556641,-3.0316476821899414
1696081831740753400,9.54475341796875,-3.900270462036133,1.2544903755187988,-2.806062936782837
1696081831750753300,9.554753173828125,-3.9821367263793945,1.9981560707092285,-2.76143741607666
1696081831760753400,9.56475341796875,-3.6374764442443848,2.706244468688965,-2.7223668098449707
1696081831770753300,9.574753173828125,-3.3195104598999023,3.4951658248901367,-2.913668155670166
1696081831780753400,9.58475341796875,-3.1697559356689453,3.958535671234131,-3.2591023445129395
1696081831790753300,9.594753173828124,-3.2983579635620117,4.201623439788818,-3.8724775314331055
1696081831800753400,9.60475341796875,-3.5153775215148926,4.390130996704102,-4.732329368591309
1696081831810753300,9.614753173828126,-3.801100254058838,4.215958118438721,-5.504893779754639
1696081831820753400,9.62475341796875,-4.215304851531982,3.8761425018310547,-5.9867658615112305
1696081831830753300,9.634753173828125,-4.562370300292969,3.497429370880127,-6.217525482177734
1696081831840753400,9.64475341796875,-4.737295150756836,3.0766820907592773,-6.34420108795166
1696081831850753300,9.654753173828125,-4.716266632080078,2.879138946533203,-6.604987621307373
1696081831860753400,9.66475341796875,-4.745412349700928,2.931069850921631,-6.946572303771973
1696081831870753300,9.674753173828124,-4.887434959411621,3.187833309173584,-7.27426815032959
1696081831880753400,9.68475341796875,-4.928133964538574,3.6033010482788086,-7.4564738273620605
1696081831890753300,9.694753173828126,-4.640305519104004,4.1232218742370605,-7.660565376281738
1696081831900753400,9.70475341796875,-4.270561218261719,4.712967872619629,-8.052549362182617
1696081831910753300,9.714753173828125,-4.014720916748047,5.330737113952637,-8.095440864562988
1696081831920753400,9.72475341796875,-3.7145299911499023,5.691617012023926,-7.606349945068359
1696081831930753300,9.734753173828125,-2.935842990875244,5.3752336502075195,-6.376198768615723
1696081831940753400,9.74475341796875,-1.6951427459716797,4.5857744216918945,-4.5029706954956055
1696081831950753300,9.754753173828124,0.6024892330169678,3.42962646484375,-2.316913366317749
1696081831960753400,9.76475341796875,0.7276575565338135,3.519253730773926,-2.1795413494110107
1696081831970753300,9.774753173828126,10.145816802978516,-1.8610868453979492,4.532364845275879
1696081831980753400,9.78475341796875,7.152162075042725,-5.271533966064453,8.64304256439209
1696081831990753300,9.794753173828125,4.729371547698975,-8.889627456665039,13.191696166992188
1696081832000753400,9.80475341796875,5.280013084411621,-11.520200729370117,16.242834091186523
1696081832010753300,9.814753173828125,9.344836235046387,-11.024053573608398,15.995223999023438
1696081832020753400,9.82475341796875,7.6653947830200195,-7.599358558654785,12.186914443969727
1696081832030753300,9.834753173828124,4.03221321105957,-3.3629589080810547,6.82025671005249
1696081832040753400,9.84475341796875,1.473763346672058,0.753453254699707,2.559795379638672
1696081832050753300,9.854753173828126,0.950098991394043,4.425567150115967,-0.011710405349731445
1696081832060753400,9.86475341796875,2.0343432426452637,6.797647476196289,-2.1020255088806152
1696081832070753300,9.874753173828125,0.3950458765029907,5.267417907714844,-3.5571296215057373
1696081832080753400,9.88475341796875,-4.7658586502075195,-0.6808719635009766,-4.379261493682861
1696081832090753300,9.894753173828125,-7.31890869140625,-7.407600402832031,-4.855754852294922
1696081832100753400,9.90475341796875,-7.934929370880127,-10.396541595458984,-5.0799689292907715
1696081832110753300,9.914753173828124,-2.5092010498046875,-14.199758529663086,-3.2471354007720947
1696081832120753400,9.92475341796875,0.11991310119628906,-12.237141609191895,-0.1994001865386963
1696081832130753300,9.934753173828126,1.1679091453552246,-4.575664520263672,-3.1895265579223633
1696081832140753400,9.94475341796875,-0.704487681388855,1.29620361328125,-6.333016395568848
1696081832150753300,9.954753173828125,-2.202770233154297,4.916686058044434,-8.368461608886719
1696081832160753400,9.96475341796875,-2.035120964050293,5.324387550354004,-10.044580459594727
1696081832170753300,9.974753173828125,-3.1297590732574463,2.6500401496887207,-9.935203552246094
1696081832180753400,9.98475341796875,-4.8509135246276855,0.5596151351928711,-9.245378494262695
1696081832190753300,9.994753173828125,-5.937164306640625,-0.9949750900268555,-9.237886428833008
1696081832200753400,10.00475341796875,-6.913393974304199,-2.4783201217651367,-9.343616485595703
1696081832210753300,10.014753173828124,-7.07327938079834,-3.713057518005371,-8.153547286987305
1696081832220753400,10.02475341796875,-7.34237003326416,-3.9037885665893555,-6.063085556030273
1696081832230753300,10.034753173828125,-8.187950134277344,-3.190627098083496,-4.372974395751953
1696081832240753400,10.04475341796875,-8.837285995483398,-2.335373878479004,-3.5487895011901855
1696081832250753300,10.054753173828125,-7.493154525756836,-1.7212371826171875,-2.5379114151000977
1696081832260753400,10.06475341796875,-5.750021457672119,-1.1230649948120117,-1.965550422668457
1696081832270753300,10.074753173828125,-3.5495991706848145,-0.3257732391357422,-1.6666643619537354
1696081832280753400,10.08475341796875,-0.7953596115112305,0.44995594024658203,-1.1684074401855469
1696081832290753300,10.094753173828124,2.6404566764831543,0.9595708847045898,0.04172861576080322
1696081832300753400,10.10475341796875,5.51460075378418,1.0288467407226562,1.5031359195709229
1696081832310753300,10.114753173828126,6.34060525894165,0.8534946441650391,2.6404809951782227
1696081832320753400,10.12475341796875,5.327704429626465,0.8300065994262695,2.9437599182128906
1696081832330753300,10.134753173828125,3.4456655979156494,1.2142410278320312,2.299232006072998
1696081832340753400,10.14475341796875,1.6404565572738647,1.6024227142333984,1.2650902271270752
1696081832350753300,10.154753173828125,0.3284262418746948,1.868391990661621,0.27298641204833984
1696081832360753400,10.16475341796875,-0.4687764644622803,1.9571590423583984,-0.563622772693634
1696081832370753300,10.174753173828124,-1.1036477088928223,1.9270415306091309,-0.9938395023345947
1696081832380753400,10.18475341796875,-1.5964895486831665,1.9006567001342773,-1.0569589138031006
1696081832390753300,10.194753173828126,-2.381441116333008,1.8902807235717773,-1.1837077140808105
1696081832400753400,10.20475341796875,-3.3541574478149414,1.8074884414672852,-1.3096015453338623
1696081832410753300,10.214753173828125,-3.003589391708374,1.6764144897460938,-0.9896824359893799
1696081832420753400,10.22475341796875,-1.770423412322998,1.1783428192138672,-0.23480360209941864
1696081832430753300,10.234753173828125,0.12249663472175598,0.36750125885009766,0.27053409814834595
1696081832440753400,10.24475341796875,1.5153272151947021,-0.27889060974121094,0.7330088019371033
1696081832450753300,10.254753173828124,2.5838990211486816,-0.9259548187255859,1.6757348775863647
1696081832460753400,10.26475341796875,3.080763816833496,-1.2461481094360352,2.7960500717163086
1696081832470753300,10.274753173828126,3.0519165992736816,-1.0881032943725586,4.085173606872559
1696081832480753400,10.28475341796875,2.7091925144195557,-0.6636075973510742,4.983292579650879
1696081832490753300,10.294753173828125,2.5538082122802734,-0.26845550537109375,5.190117359161377
1696081832500753400,10.30475341796875,3.1892571449279785,-0.10631179809570312,4.898442268371582
1696081832510753300,10.314753173828125,4.0838141441345215,-0.22839069366455078,4.297322750091553
1696081832520753400,10.32475341796875,4.6427154541015625,-0.6006269454956055,3.6855270862579346
1696081832530753300,10.334753173828124,4.520650863647461,-1.107229232788086,3.2461085319519043
1696081832540753400,10.34475341796875,3.752984046936035,-1.3340520858764648,3.0114002227783203
1696081832550753300,10.354753173828126,2.699497699737549,-1.2280921936035156,2.908442497253418
1696081832560753400,10.36475341796875,1.669163465499878,-1.1123685836791992,3.0749614238739014
1696081832570753300,10.374753173828125,0.9073295593261719,-1.1700325012207031,3.5200977325439453
1696081832580753400,10.38475341796875,0.21506595611572266,-1.2423982620239258,4.051778793334961
1696081832590753300,10.394753173828125,-0.22975516319274902,-1.0963983535766602,4.657350540161133
1696081832600753400,10.40475341796875,0.34059834480285645,-0.7714872360229492,5.034276008605957
1696081832610753300,10.414753173828124,1.8431384563446045,-0.30398082733154297,5.103299617767334
1696081832620753400,10.42475341796875,3.4744036197662354,-0.23885440826416016,5.298574447631836
1696081832630753300,10.434753173828126,4.221708297729492,-1.3711843490600586,6.033500671386719
1696081832640753400,10.44475341796875,3.90299654006958,-2.861964225769043,6.608450889587402
1696081832650753300,10.454753173828125,3.644026279449463,-3.939289093017578,6.733570098876953
1696081832660753400,10.46475341796875,3.8503453731536865,-4.68259334564209,6.928046703338623
1696081832670753300,10.474753173828125,4.400021553039551,-4.892183303833008,7.027431488037109
1696081832680753400,10.48475341796875,4.3224711418151855,-4.877876281738281,6.751685619354248
1696081832690753300,10.494753173828125,3.2765848636627197,-4.438187599182129,4.872186660766602
1696081832700753400,10.50475341796875,3.0628116130828857,-4.413308143615723,4.673676013946533
1696081832710753300,10.514753173828124,0.4164915680885315,-4.81693172454834,1.2314800024032593
1696081832720753400,10.52475341796875,-0.633333683013916,-5.9142913818359375,-0.19903439283370972
1696081832730753300,10.534753173828125,-1.816139578819275,-7.2479248046875,-1.8470807075500488
1696081832740753400,10.54475341796875,-2.5089800357818604,-8.427335739135742,-3.6634883880615234
1696081832750753300,10.554753173828125,-3.399815797805786,-9.308981895446777,-5.254421234130859
1696081832760753400,10.56475341796875,-4.340404510498047,-9.5625638961792,-6.609777927398682
1696081832770753300,10.574753173828125,-4.672206401824951,-8.81185245513916,-7.419425010681152
1696081832780753400,10.58475341796875,-4.2141499519348145,-7.1650543212890625,-6.7858052253723145
1696081832790753300,10.594753173828124,-1.425004243850708,-5.5562896728515625,-5.478692054748535
1696081832800753400,10.60475341796875,1.9375826120376587,-3.9505558013916016,-4.168113708496094
1696081832810753300,10.614753173828126,2.491589069366455,-2.6245594024658203,-3.216169595718384
1696081832820753400,10.62475341796875,0.5116235017776489,-1.606374740600586,-2.807670831680298
1696081832830753300,10.634753173828125,-1.406878113746643,-0.749481201171875,-2.760234832763672
1696081832840753400,10.64475341796875,-2.503610610961914,0.011267662048339844,-3.0810210704803467
1696081832850753300,10.654753173828125,-3.5927162170410156,0.6784076690673828,-2.853207588195801
1696081832860753400,10.66475341796875,-3.849696159362793,1.4127769470214844,-2.6884706020355225
1696081832870753300,10.674753173828124,-3.8137097358703613,2.250607967376709,-2.9454219341278076
1696081832880753400,10.68475341796875,-3.379091501235962,3.0636610984802246,-3.3047170639038086
1696081832890753300,10.694753173828126,-3.018354654312134,3.717101573944092,-3.8174731731414795
1696081832900753400,10.70475341796875,-2.903982639312744,4.114694118499756,-4.432682037353516
1696081832910753300,10.714753173828125,-3.2095978260040283,4.193424224853516,-4.8731489181518555
1696081832920753400,10.72475341796875,-3.6078848838806152,4.1626152992248535,-5.369685173034668
1696081832930753300,10.734753173828125,-3.8591432571411133,4.083676338195801,-5.914668083190918
1696081832940753400,10.74475341796875,-4.226856231689453,3.9203338623046875,-6.203732013702393
1696081832950753300,10.754753173828124,-4.367729187011719,3.7466044425964355,-6.3675642013549805
1696081832960753400,10.76475341796875,-4.326159477233887,3.6373720169067383,-6.563385486602783
1696081832970753300,10.774753173828126,-4.3952507972717285,3.6491737365722656,-6.743274688720703
1696081832980753400,10.78475341796875,-4.487186431884766,3.749476909637451,-6.974373817443848
1696081832990753300,10.794753173828125,-4.6460466384887695,3.955994129180908,-7.184144973754883
1696081833000753400,10.80475341796875,-4.795997619628906,4.286446571350098,-7.431694030761719
1696081833010753300,10.814753173828125,-4.783953666687012,4.70542049407959,-7.756597518920898
1696081833020753200,10.824753173828125,-4.533603668212891,5.265922546386719,-8.095887184143066
1696081833030753300,10.834753173828124,-4.227385520935059,5.801617622375488,-8.16619873046875
1696081833040753200,10.844753173828124,-3.8304450511932373,5.885741233825684,-7.358023643493652
1696081833050753300,10.854753173828126,-3.1807146072387695,5.3739519119262695,-5.79571533203125
1696081833060753200,10.864753173828126,-1.7011839151382446,4.490527629852295,-3.1634464263916016
1696081833070753300,10.874753173828125,2.198730230331421,2.869670867919922,0.27944517135620117
1696081833080753200,10.884753173828125,7.026376724243164,0.3391761779785156,4.196717262268066
1696081833090753300,10.894753173828125,5.651361465454102,-2.5423736572265625,8.004162788391113
1696081833100753200,10.904753173828125,4.357270240783691,-5.50904655456543,11.296492576599121
1696081833110753300,10.914753173828124,5.39332389831543,-8.075668334960938,13.61231517791748
1696081833120753200,10.924753173828124,6.544817924499512,-9.449108123779297,14.045212745666504
1696081833130753300,10.934753173828126,9.27493953704834,-9.966394424438477,14.112414360046387
1696081833140753000,10.9447529296875,7.934981346130371,-8.578557014465332,10.653179168701172
1696081833150753000,10.9547529296875,4.317705154418945,-5.886387825012207,5.20652437210083
1696081833160753000,10.9647529296875,2.042941093444824,-2.023409843444824,1.7943081855773926
1696081833170753000,10.9747529296875,1.1060764789581299,1.9316234588623047,-1.272737979888916
1696081833180753000,10.9847529296875,1.9329335689544678,4.180498123168945,-3.3324103355407715
1696081833190753000,10.9947529296875,-0.14191603660583496,2.648804187774658,-5.178690433502197
1696081833200753000,11.0047529296875,-2.470715045928955,-2.103456497192383,-6.478102684020996
1696081833210753000,11.0147529296875,-4.584989070892334,-6.398775100708008,-6.1770124435424805
1696081833220753200,11.024753173828126,-8.223158836364746,-8.331877708435059,-5.033441543579102
1696081833230753000,11.0347529296875,-3.5864830017089844,-10.23005485534668,-2.7822694778442383
1696081833240753200,11.044753173828125,1.2230641841888428,-7.541545867919922,0.9184272289276123
1696081833250753000,11.0547529296875,0.7905228137969971,-3.0326366424560547,-1.0451023578643799
1696081833260753200,11.064753173828125,-1.0647518634796143,0.209014892578125,-4.794862270355225
1696081833270753000,11.0747529296875,-2.9467966556549072,1.4526233673095703,-7.198348522186279
1696081833280753200,11.084753173828124,-3.1625547409057617,1.3356146812438965,-8.56167984008789
1696081833290753000,11.0947529296875,-3.1188454627990723,0.8627634048461914,-9.911396980285645
1696081833300753200,11.104753173828126,-4.393808364868164,-0.001373291015625,-9.434673309326172
1696081833310753000,11.1147529296875,-5.66284704208374,-0.7984275817871094,-9.196019172668457
1696081833320753200,11.124753173828125,-6.678321838378906,-1.5001916885375977,-9.50101375579834
1696081833330753000,11.1347529296875,-7.145906925201416,-1.9315404891967773,-8.772734642028809
1696081833340753200,11.144753173828125,-7.896986484527588,-1.9394502639770508,-6.83717155456543
1696081833350753000,11.1547529296875,-8.065108299255371,-1.6097822189331055,-4.777587413787842
1696081833360753200,11.164753173828124,-7.563689231872559,-1.2144031524658203,-3.84498929977417
1696081833370753000,11.1747529296875,-6.846173286437988,-0.8076009750366211,-3.1625218391418457
1696081833380753200,11.184753173828126,-5.695336818695068,-0.3121318817138672,-2.5701115131378174
1696081833390753000,11.1947529296875,-4.176700592041016,0.13722896575927734,-2.183408260345459
1696081833400753200,11.204753173828125,-1.9091899394989014,0.42635631561279297,-1.4754329919815063
1696081833410753000,11.2147529296875,1.222942590713501,0.5062694549560547,-0.2318582534790039
1696081833420753200,11.224753173828125,4.4363813400268555,0.45911121368408203,1.491811990737915
1696081833430753000,11.2347529296875,6.182760238647461,0.44300174713134766,2.801738739013672
1696081833440753400,11.24475341796875,6.014710426330566,0.6118717193603516,3.3073344230651855
1696081833450753300,11.254753173828124,4.456439971923828,0.9918718338012695,2.9374356269836426
1696081833460753400,11.26475341796875,2.4937891960144043,1.4232139587402344,2.2738900184631348
1696081833470753300,11.274753173828126,0.9299935102462769,1.7606768608093262,1.481905460357666
1696081833480753400,11.28475341796875,-0.16520936787128448,1.7238121032714844,0.7707273364067078
1696081833490753300,11.294753173828125,-1.1437386274337769,1.4622516632080078,0.485484778881073
1696081833500753400,11.30475341796875,-2.2580459117889404,1.256937026977539,0.5908221006393433
1696081833510753300,11.314753173828125,-3.5298595428466797,1.158431053161621,0.5904422402381897
1696081833520753200,11.324753173828125,-4.366058826446533,1.202805519104004,0.05942612886428833
1696081833530753300,11.334753173828124,-3.8362841606140137,1.4312009811401367,-0.33708345890045166
1696081833540753200,11.344753173828124,-2.5767710208892822,1.1953115463256836,0.23150867223739624
1696081833550753300,11.354753173828126,-1.2241079807281494,0.32966041564941406,1.1343541145324707
1696081833560753200,11.364753173828126,0.14110389351844788,-0.44367027282714844,1.7952756881713867
1696081833570753300,11.374753173828125,1.352783441543579,-0.8695182800292969,2.202876329421997
1696081833580753200,11.384753173828125,2.1766273975372314,-0.900507926940918,2.577949285507202
1696081833590753300,11.394753173828125,2.4795427322387695,-0.6202917098999023,2.7106144428253174
1696081833600753200,11.404753173828125,2.093005895614624,-0.1715564727783203,2.507619619369507
1696081833610753300,11.414753173828124,1.6062939167022705,-0.15845870971679688,1.8864680528640747
1696081833620753200,11.424753173828124,1.6744356155395508,-0.16454792022705078,1.9562612771987915
1696081833630753300,11.434753173828126,2.4862475395202637,-0.8827686309814453,0.9224802255630493
1696081833640753200,11.444753173828126,3.573740005493164,-1.3881139755249023,1.0182280540466309
1696081833650753300,11.454753173828125,4.347526550292969,-1.851980209350586,1.4618210792541504
1696081833660753200,11.464753173828125,4.4296979904174805,-1.8647165298461914,1.5483646392822266
1696081833670753300,11.474753173828125,3.948430061340332,-1.5078601837158203,2.7950327396392822
1696081833680753200,11.484753173828125,3.022094249725342,-0.8424005508422852,3.293527126312256
1696081833690753300,11.494753173828125,2.0059995651245117,-0.334869384765625,3.7281458377838135
1696081833700753200,11.504753173828124,0.9940563440322876,-0.2845907211303711,4.441349506378174
1696081833710753300,11.514753173828124,-0.04419684410095215,-0.6344833374023438,5.547677040100098
1696081833720753200,11.524753173828126,-1.002842903137207,-1.006852149963379,6.608223915100098
1696081833730753300,11.534753173828125,-1.1824322938919067,-0.9909954071044922,7.461440563201904
1696081833740753200,11.544753173828125,-0.08216452598571777,-0.6674127578735352,7.947337627410889
1696081833750753300,11.554753173828125,1.5617692470550537,-0.6729698181152344,8.138492584228516
1696081833760753400,11.56475341796875,2.7041831016540527,-1.4434280395507812,8.307550430297852
1696081833770753300,11.574753173828125,3.512331962585449,-2.1420040130615234,7.824930667877197
1696081833780753400,11.58475341796875,4.130789756774902,-2.505443572998047,6.938934803009033
1696081833790753300,11.594753173828124,4.559368133544922,-2.6854019165039062,6.046154022216797
1696081833800753400,11.60475341796875,5.222291946411133,-2.8566341400146484,5.0410356521606445
1696081833810753300,11.614753173828126,5.556656360626221,-2.9759082794189453,3.632765054702759
1696081833820753400,11.62475341796875,4.418497562408447,-3.4122486114501953,2.176626205444336
1696081833830753300,11.634753173828125,2.017657518386841,-4.102201461791992,1.3405579328536987
1696081833840753400,11.64475341796875,-0.005487900227308273,-5.177037239074707,0.9278538823127747
1696081833850753300,11.654753173828125,-0.9974429607391357,-6.515232086181641,-0.22195972502231598
1696081833860753400,11.66475341796875,-1.9854722023010254,-7.916045188903809,-2.060880184173584
1696081833870753300,11.674753173828124,-3.0215139389038086,-9.23445987701416,-4.064183712005615
1696081833880753400,11.68475341796875,-4.195220470428467,-10.05033016204834,-5.982460975646973
1696081833890753300,11.694753173828126,-5.087369918823242,-10.045953750610352,-7.132851600646973
1696081833900753400,11.70475341796875,-4.703233242034912,-8.757918357849121,-7.709987640380859
1696081833910753300,11.714753173828125,-2.7885403633117676,-6.66865348815918,-7.5811448097229
1696081833920753400,11.72475341796875,0.5232348442077637,-4.671627044677734,-6.898904323577881
1696081833930753300,11.734753173828125,2.311830997467041,-3.238454818725586,-5.572276592254639
1696081833940753400,11.74475341796875,1.212951898574829,-2.02321720123291,-4.444108009338379
1696081833950753300,11.754753173828124,-1.5786927938461304,-1.1571340560913086,-3.7857675552368164
1696081833960753400,11.76475341796875,-3.4185328483581543,-0.5762252807617188,-3.1543962955474854
1696081833970753300,11.774753173828126,-3.930047035217285,-0.08842754364013672,-2.5060226917266846
1696081833980753400,11.78475341796875,-3.247548818588257,0.6082544326782227,-2.1551575660705566
1696081833990753300,11.794753173828125,-2.5966098308563232,1.4895591735839844,-2.0311670303344727
1696081834000753400,11.80475341796875,-2.2342073917388916,2.310783863067627,-1.7480595111846924
1696081834010753300,11.814753173828125,-2.661067485809326,3.028383731842041,-1.76341712474823
1696081834020753200,11.824753173828125,-3.1561973094940186,3.8388075828552246,-1.8189836740493774
1696081834030753300,11.834753173828124,-3.1696152687072754,4.450781345367432,-2.116987705230713
1696081834040753200,11.844753173828124,-3.0437231063842773,4.599544525146484,-2.651784658432007
1696081834050753300,11.854753173828126,-3.02528715133667,4.325484752655029,-3.3030407428741455
1696081834060753200,11.864753173828126,-3.2846498489379883,3.936936855316162,-4.127792835235596
1696081834070753300,11.874753173828125,-3.6019530296325684,3.5114965438842773,-4.869077682495117
1696081834080753200,11.884753173828125,-3.998497486114502,2.9754905700683594,-5.239553451538086
1696081834090753300,11.894753173828125,-4.36387825012207,2.4548778533935547,-5.559826374053955
1696081834100753200,11.904753173828125,-4.377882957458496,2.3380045890808105,-6.371152877807617
1696081834110753300,11.914753173828124,-4.286830425262451,2.4819631576538086,-7.340977668762207
1696081834120753200,11.924753173828124,-4.5562663078308105,2.63887882232666,-7.886009216308594
1696081834130753300,11.934753173828126,-4.893430233001709,2.9355435371398926,-7.9610981941223145
1696081834140753200,11.944753173828126,-4.91545295715332,3.404646873474121,-7.90788459777832
1696081834150753300,11.954753173828125,-4.715920448303223,3.926816940307617,-7.868443489074707
1696081834160753200,11.964753173828125,-4.347657203674316,4.3908820152282715,-7.936739921569824
1696081834170753300,11.974753173828125,-3.8183507919311523,4.728303909301758,-7.852469444274902
1696081834180753200,11.984753173828125,-3.7911434173583984,4.768313407897949,-7.788750171661377
1696081834190753300,11.994753173828125,-2.5298190116882324,4.431122303009033,-5.496899604797363
1696081834200753200,12.004753173828124,-1.4073697328567505,3.861295700073242,-3.3919248580932617
1696081834210753300,12.014753173828124,0.17524456977844238,2.761122703552246,-1.1107747554779053
1696081834220753000,12.0247529296875,3.721830368041992,0.8739013671875,1.4584271907806396
1696081834230753000,12.0347529296875,6.854121208190918,-1.3184728622436523,5.042966842651367
1696081834240753000,12.0447529296875,7.362030982971191,-3.453150749206543,8.831441879272461
1696081834250753000,12.0547529296875,7.5744948387146,-5.68221378326416,12.733774185180664
1696081834260753700,12.064753662109375,5.9847331047058105,-7.795261383056641,15.295181274414062
1696081834270753500,12.07475341796875,5.782962799072266,-9.161927223205566,15.0317964553833
1696081834280753700,12.084753662109375,5.837860584259033,-8.643552780151367,11.53158187866211
1696081834290753500,12.09475341796875,4.473217964172363,-6.310386657714844,6.098152160644531
1696081834300753700,12.104753662109376,2.658452033996582,-3.336695671081543,2.3058440685272217
1696081834310753500,12.11475341796875,1.3340036869049072,0.0055446624755859375,-0.014928579330444336
1696081834320753700,12.124753662109375,0.3119971752166748,3.375669002532959,-1.9817028045654297
1696081834330753500,12.13475341796875,0.2163538932800293,6.100261688232422,-4.101404190063477
1696081834340753700,12.144753662109375,-0.5855411291122437,7.014982223510742,-5.803010940551758
1696081834350753500,12.15475341796875,-2.5209765434265137,3.9744019508361816,-6.057908058166504
1696081834360753700,12.164753662109375,-2.498568534851074,-0.8981409072875977,-6.11275053024292
1696081834370753500,12.17475341796875,-4.656889915466309,-5.8954010009765625,-5.179060459136963
1696081834380753700,12.184753662109374,-5.6555047035217285,-10.41346263885498,-3.5836780071258545
1696081834390753500,12.19475341796875,-0.7238041162490845,-15.672287940979004,-0.020532608032226562
1696081834400753700,12.204753662109376,-0.29977667331695557,-15.839500427246094,2.277942657470703
1696081834410753500,12.21475341796875,-0.422194242477417,-10.213253021240234,-0.10513973236083984
1696081834420753700,12.224753662109375,0.593932032585144,-3.066704750061035,-5.191259384155273
1696081834430753500,12.23475341796875,0.3967471122741699,2.6060914993286133,-8.351441383361816
1696081834440753700,12.244753662109375,-1.432868242263794,6.452775478363037,-9.451165199279785
1696081834450753500,12.25475341796875,-3.675457000732422,6.1822309494018555,-9.010729789733887
1696081834460753700,12.264753662109374,-5.233642578125,4.0963616371154785,-8.892590522766113
1696081834470753500,12.27475341796875,-5.993692874908447,2.0823278427124023,-8.785171508789062
1696081834480753700,12.284753662109376,-6.553258895874023,0.2071371078491211,-8.908015251159668
1696081834490753500,12.29475341796875,-7.5306596755981445,-1.8346691131591797,-8.748883247375488
1696081834500753700,12.304753662109375,-8.223685264587402,-3.019190788269043,-7.523501873016357
1696081834510753500,12.31475341796875,-8.36591625213623,-3.276982307434082,-5.834227561950684
1696081834520754000,12.32475390625,-7.837997913360596,-3.0575685501098633,-4.550826549530029
1696081834530753800,12.33475390625,-7.355057239532471,-2.2921457290649414,-3.899698257446289
1696081834540754000,12.34475390625,-6.378680229187012,-1.3022642135620117,-3.692105293273926
1696081834550753800,12.35475390625,-5.980450630187988,-0.15178966522216797,-3.5452070236206055
1696081834560753400,12.36475341796875,-4.356452941894531,0.6750965118408203,-2.7687408924102783
1696081834570753300,12.374753173828125,0.09828341007232666,0.3684368133544922,-0.6434133052825928
1696081834580754400,12.38475439453125,5.020479202270508,0.14868450164794922,1.7684135437011719
1696081834590754300,12.39475439453125,8.236320495605469,0.2758646011352539,3.7856931686401367
1696081834600754400,12.40475439453125,8.279766082763672,0.6687240600585938,4.456246376037598
1696081834610754300,12.41475439453125,6.2246575355529785,1.1115407943725586,3.8943934440612793
1696081834620754400,12.42475439453125,3.2661046981811523,1.2604122161865234,3.070625066757202
1696081834630754300,12.43475439453125,0.48803848028182983,1.3051691055297852,2.135589122772217
1696081834640754400,12.44475439453125,-1.5629076957702637,1.2844829559326172,1.302540898323059
1696081834650754300,12.45475439453125,-2.795243501663208,1.2956295013427734,0.7722131013870239
1696081834660754400,12.46475439453125,-3.297046422958374,1.3349723815917969,0.6646521091461182
1696081834670754300,12.47475439453125,-3.458362102508545,1.316873550415039,0.6805114150047302
1696081834680754400,12.48475439453125,-3.3005669116973877,1.037877082824707,0.6152564883232117
1696081834690754300,12.49475439453125,-2.497344970703125,0.471466064453125,0.5265541076660156
1696081834700754400,12.50475439453125,-2.431945323944092,0.4772768020629883,0.5886058211326599
1696081834710754300,12.51475439453125,0.9741037487983704,-0.7908792495727539,0.9747598767280579
1696081834720754400,12.52475439453125,2.0050506591796875,-0.9757499694824219,1.4782323837280273
1696081834730754600,12.534754638671876,2.1942389011383057,-0.5518856048583984,1.8574683666229248
1696081834740754400,12.54475439453125,1.7499911785125732,0.23422813415527344,2.0091428756713867
1696081834750754300,12.55475439453125,1.0015134811401367,1.079080581665039,1.8806066513061523
1696081834760754400,12.56475439453125,0.26489734649658203,1.5546798706054688,1.432389259338379
1696081834770754300,12.57475439453125,-0.26274365186691284,1.4361143112182617,0.7999711036682129
1696081834780754400,12.58475439453125,-0.3594864010810852,0.7997121810913086,0.12140725553035736
1696081834790754300,12.59475439453125,0.11703401803970337,-0.0174560546875,-0.46347182989120483
1696081834800754400,12.60475439453125,1.0551222562789917,-0.6280698776245117,-0.9729901552200317
1696081834810754300,12.61475439453125,2.1343698501586914,-1.0897741317749023,-1.3047772645950317
1696081834820754400,12.62475439453125,3.0158791542053223,-1.3377180099487305,-1.279345154762268
1696081834830754300,12.63475439453125,3.5273184776306152,-1.2059783935546875,-0.9117664098739624
1696081834840754400,12.64475439453125,3.4671294689178467,-0.6049270629882812,-0.23361150920391083
1696081834850754300,12.65475439453125,2.813142776489258,0.09533882141113281,0.8590628504753113
1696081834860754400,12.66475439453125,1.823470950126648,0.6535263061523438,1.944847583770752
1696081834870754300,12.67475439453125,0.61833256483078,0.9622011184692383,2.8015317916870117
1696081834880753400,12.68475341796875,-0.6377919912338257,0.825169563293457,3.617295265197754
1696081834890753300,12.694753173828126,-1.7199828624725342,0.4048480987548828,4.411794662475586
1696081834900753400,12.70475341796875,-2.4030418395996094,-0.19921302795410156,5.054959774017334
1696081834910753300,12.714753173828125,-2.6178925037384033,-0.8926858901977539,5.567966938018799
1696081834920753400,12.72475341796875,-2.017402410507202,-1.4448070526123047,5.689026832580566
1696081834930753300,12.734753173828125,-0.58946692943573,-1.4846601486206055,5.074066162109375
