time,seconds_elapsed,z,y,x
1696082261062077400,0.315077392578125,-0.7434229850769043,-1.8936822414398193,0.6151412725448608
1696082261072077300,0.325077392578125,-0.8063421249389648,-2.1600193977355957,0.6035348773002625
1696082261082077400,0.335077392578125,-0.8784242272377014,-2.3823745250701904,0.5467243790626526
1696082261092077300,0.345077392578125,-0.9431759119033813,-2.618779420852661,0.45631635189056396
1696082261102077400,0.355077392578125,-0.9914342761039734,-2.875342607498169,0.32986724376678467
1696082261112077300,0.365077392578125,-1.0152580738067627,-3.123353958129883,0.1814269721508026
1696082261122077400,0.375077392578125,-0.9993755221366882,-3.3212742805480957,0.012217304669320583
1696082261132077300,0.385077392578125,-0.9578366875648499,-3.5081992149353027,-0.16310101747512817
1696082261142077400,0.395077392578125,-0.8906415104866028,-3.7085628509521484,-0.313373863697052
1696082261152077300,0.405077392578125,-0.7965682744979858,-3.902207136154175,-0.4440990388393402
1696082261162077400,0.415077392578125,-0.6811147332191467,-4.104403495788574,-0.5540547966957092
1696082261172077300,0.425077392578125,-0.5522221922874451,-4.327980041503906,-0.6157521605491638
1696082261182077400,0.435077392578125,-0.4105014503002167,-4.501465797424316,-0.6432411074638367
1696082261192077300,0.445077392578125,-0.2687807083129883,-4.5992045402526855,-0.6432411074638367
1696082261202077400,0.455077392578125,-0.1160643994808197,-4.597372055053711,-0.5852088928222656
1696082261212077600,0.46507763671875,-0.02932153269648552,-4.530787467956543,-0.6188064813613892
1696082261222076700,0.47507666015625,0.11789698898792267,-4.637689113616943,-0.769079327583313
1696082261232076500,0.48507666015625,0.2840523421764374,-5.13737678527832,-0.9553932547569275
1696082261242076700,0.49507666015625,0.4294382631778717,-5.470909118652344,-0.9511171579360962
1696082261252076000,0.505075927734375,0.5534439086914062,-5.396994590759277,-0.93095862865448
1696082261262076000,0.515075927734375,0.5271766781806946,-4.895473957061768,-0.8484918475151062
1696082261272076000,0.525075927734375,0.6004805564880371,-4.621806621551514,-0.7055493593215942
1696082261282075400,0.535075439453125,0.7678576111793518,-4.5515570640563965,-0.7654141783714294
1696082261292075500,0.545075439453125,0.807563841342926,-3.849672794342041,-0.7562511563301086
1696082261302075600,0.55507568359375,0.8295549750328064,-2.450791358947754,-0.5668829679489136
1696082261312075800,0.56507568359375,0.9810495972633362,-0.7312057018280029,-0.31642818450927734
1696082261322075600,0.57507568359375,1.1856894493103027,0.14844025671482086,-0.3689626157283783
1696082261332075800,0.58507568359375,1.2205088138580322,0.20525072515010834,-0.6908885836601257
1696082261342076000,0.595075927734375,1.1288789510726929,0.182648703455925,-1.0219775438308716
1696082261352075800,0.60507568359375,1.0390818119049072,0.3023782968521118,-1.3005321025848389
1696082261362076000,0.615075927734375,1.0366383790969849,0.4612032473087311,-1.5601497888565063
1696082261372075800,0.62507568359375,1.0561859607696533,0.5027421116828918,-1.7214182615280151
1696082261382076000,0.635075927734375,1.1459832191467285,0.394008070230484,-1.7910568714141846
1696082261392075800,0.64507568359375,1.4062118530273438,0.24617868661880493,-1.8362609148025513
1696082261402076000,0.655075927734375,1.8539760112762451,0.04764748737215996,-1.8252654075622559
1696082261412075800,0.66507568359375,2.3878722190856934,-0.23396138846874237,-1.6713273525238037
1696082261422076000,0.675075927734375,2.9266552925109863,-0.5216789245605469,-1.4306464195251465
1696082261432075800,0.68507568359375,3.397021532058716,-0.7324274182319641,-1.2718214988708496
1696082261442076000,0.695075927734375,3.7782015800476074,-0.8710938692092896,-1.284038782119751
1696082261452075800,0.70507568359375,4.075081825256348,-1.1050552129745483,-1.4679092168807983
1696082261462076000,0.715075927734375,4.251011371612549,-1.580308437347412,-1.6792685985565186
1696082261472075800,0.72507568359375,4.277889251708984,-2.118480682373047,-1.7666223049163818
1696082261482076000,0.735075927734375,4.105625152587891,-2.5247061252593994,-1.6664403676986694
1696082261492075800,0.74507568359375,3.79958176612854,-2.4978280067443848,-1.470963478088379
1696082261502076000,0.755075927734375,3.4660494327545166,-2.0372354984283447,-1.3646728992462158
1696082261512075800,0.76507568359375,3.1673362255096436,-1.5913039445877075,-1.4172073602676392
1696082261522076200,0.775076171875,2.9694159030914307,-1.4801265001296997,-1.6102408170700073
1696082261532075300,0.7850751953125,2.8099801540374756,-1.7678439617156982,-1.8026633262634277
1696082261542075400,0.795075439453125,2.5583035945892334,-2.20278000831604,-1.8393152952194214
1696082261552075800,0.80507568359375,2.158186912536621,-2.5784621238708496,-1.6927075386047363
1696082261562075600,0.81507568359375,1.6102408170700073,-2.757445812225342,-1.443474531173706
1696082261572075800,0.82507568359375,0.9902125597000122,-2.599231719970703,-1.2290608882904053
1696082261582076200,0.835076171875,0.37629300355911255,-2.7598891258239746,-1.0702359676361084
1696082261592076000,0.845075927734375,-0.05375614017248154,-2.9712486267089844,-0.9462302923202515
1696082261602076000,0.855075927734375,-0.3677408695220947,-2.9376509189605713,-0.8503243923187256
1696082261612075800,0.86507568359375,-0.6890559792518616,-3.1148018836975098,-0.6994407176971436
1696082261622076000,0.875075927734375,-0.9743300676345825,-3.8166861534118652,-0.4709770977497101
1696082261632075300,0.8850751953125,-1.2559388875961304,-4.006665229797363,-0.5112941861152649
1696082261642075400,0.895075439453125,-1.6371188163757324,-4.031099796295166,-0.618195652961731
1696082261652075300,0.9050751953125,-1.9926424026489258,-3.913813591003418,-0.646295428276062
1696082261662075400,0.915075439453125,-2.266309976577759,-3.841731548309326,-0.7263187766075134
1696082261672075300,0.9250751953125,-2.451402187347412,-3.838677167892456,-0.8038986921310425
1696082261682075000,0.935074951171875,-2.5589144229888916,-3.7678167819976807,-0.8197811841964722
1696082261692075000,0.945074951171875,-2.565023183822632,-3.6364808082580566,-0.8228355050086975
1696082261702075000,0.955074951171875,-2.5198190212249756,-3.497814416885376,-0.8032878041267395
1696082261712075000,0.965074951171875,-2.445293664932251,-3.1887166500091553,-0.8546004891395569
1696082261722075000,0.975074951171875,-2.3628268241882324,-2.83380389213562,-0.9743300676345825
1696082261732075000,0.985074951171875,-2.285857677459717,-2.4135286808013916,-1.0708467960357666
1696082261742075000,0.995074951171875,-2.1697933673858643,-1.966986060142517,-1.0775662660598755
1696082261752075000,1.005074951171875,-1.9816468954086304,-1.547932505607605,-1.0097602605819702
1696082261762075000,1.015074951171875,-1.7153096199035645,-1.0781772136688232,-0.8552113175392151
1696082261772074800,1.02507470703125,-1.3726142644882202,-0.5674937963485718,-0.6279694437980652
1696082261782075000,1.035074951171875,-0.9431759119033813,-0.09407325088977814,-0.3836233615875244
1696082261792074800,1.04507470703125,-0.43737950921058655,0.17837265133857727,-0.17837265133857727
1696082261802075000,1.055074951171875,0.1466076523065567,0.4648684561252594,-0.09651670604944229
1696082261812074800,1.06507470703125,0.7800748944282532,0.8478809595108032,-0.06536258012056351
1696082261822075100,1.0750751953125,1.4098769426345825,0.99876469373703,-0.031154127791523933
1696082261832076000,1.085075927734375,1.9908097982406616,1.0201449394226074,0.03298672288656235
1696082261842075600,1.09507568359375,2.4740042686462402,1.0201449394226074,0.14294247329235077
1696082261852075800,1.10507568359375,2.7867672443389893,1.0464121103286743,0.3072652220726013
1696082261862076700,1.11507666015625,2.9181032180786133,1.1380419731140137,0.4893030524253845
1696082261872076800,1.125076904296875,2.90649676322937,1.378722906112671,0.6218608021736145
1696082261882076700,1.13507666015625,2.730567693710327,1.7666223049163818,0.6279694437980652
1696082261892076800,1.145076904296875,2.512488842010498,2.1844542026519775,0.44165557622909546
1696082261902076700,1.15507666015625,2.266921043395996,2.3909265995025635,0.003054326167330146
1696082261912076800,1.165076904296875,2.037846565246582,2.216830015182495,-0.6139195561408997
1696082261922076200,1.175076171875,1.7892242670059204,1.82404363155365,-1.1936306953430176
1696082261932076800,1.185076904296875,1.6126842498779297,1.376279354095459,-1.5583171844482422
1696082261942076400,1.195076416015625,1.4941763877868652,0.9663888216018677,-1.7311921119689941
1696082261952076300,1.205076171875,1.3335188627243042,0.5876523852348328,-1.860695481300354
1696082261962076400,1.215076416015625,1.1740829944610596,0.4251621961593628,-2.0286834239959717
1696082261972076000,1.225075927734375,1.0787880420684814,0.28588494658470154,-2.269364356994629
1696082261982076400,1.235076416015625,1.0977247953414917,0.19792033731937408,-2.4837779998779297
1696082261992076300,1.245076171875,0.9517280459403992,0.28527405858039856,-2.4501805305480957
1696082262002076400,1.255076416015625,0.3799581825733185,0.31581732630729675,-1.976759910583496
1696082262012076300,1.265076171875,-0.9327912330627441,0.252287358045578,-1.2198978662490845
1696082262022076000,1.275075927734375,-2.090380907058716,0.25961771607398987,-0.8594874143600464
1696082262032076000,1.285075927734375,-2.498438835144043,0.1661553531885147,-0.970054030418396
1696082262042076000,1.295075927734375,-2.3579399585723877,-0.19425514340400696,-1.0714576244354248
1696082262052076000,1.305075927734375,-2.0916025638580322,-0.42760565876960754,-0.8833111524581909
1696082262062075600,1.31507568359375,-1.8985692262649536,-0.10995574295520782,-0.7171558141708374
1696082262072075800,1.32507568359375,-1.8411478996276855,0.48197266459465027,-0.7849618196487427
1696082262082075600,1.33507568359375,-1.7611244916915894,0.8100073337554932,-0.778853178024292
1696082262092075800,1.34507568359375,-1.547932505607605,0.9089674949645996,-0.656069278717041
1696082262102075600,1.35507568359375,-1.3170254230499268,0.6835582256317139,-0.4740314185619354
1696082262112075800,1.36507568359375,-1.1966849565505981,0.4398229718208313,-0.5216789245605469
1696082262122075400,1.375075439453125,-1.1612548828125,0.28527405858039856,-0.5497786998748779
1696082262132075300,1.3850751953125,-1.102611780166626,0.012828170321881771,-0.22418753802776337
1696082262142075600,1.39507568359375,-0.9944885969161987,-0.14355333149433136,0.06291911751031876
1696082262152075800,1.40507568359375,-0.9761626720428467,-0.0806342139840126,-0.0006108652451075613
1696082262162074600,1.41507470703125,-0.9963212013244629,0.0659734457731247,-0.20525072515010834
1696082262175596000,1.428595947265625,-0.5962044596672058,-0.021991148591041565,-0.18448130786418915
1696082262185596200,1.43859619140625,0.6585127115249634,-0.39706242084503174,0.1368338167667389
1696082262195596000,1.448595947265625,2.295020818710327,-0.7434229850769043,0.21319197118282318
1696082262205596200,1.45859619140625,3.0775392055511475,-0.26633724570274353,0.912021815776825
1696082262215596000,1.468595947265625,2.5705208778381348,1.1197160482406616,1.492343783378601
1696082262225596700,1.4785966796875,0.684779942035675,1.8991800546646118,1.0378600358963013
1696082262235596500,1.488596435546875,-0.7965682744979858,2.250427484512329,0.26145032048225403
1696082262245597000,1.498596923828125,-1.1936306953430176,1.1496484279632568,-0.7666358947753906
1696082262255597000,1.50859716796875,-1.0403034687042236,-0.14416420459747314,-1.3768903017044067
1696082262265597000,1.518596923828125,-0.9297369122505188,-0.837496280670166,-1.5992451906204224
1696082262275597300,1.528597412109375,-0.8710938692092896,-0.6884451508522034,-1.7189748287200928
1696082262285597400,1.538597412109375,-0.9529497623443604,0.05314527451992035,-1.3628404140472412
1696082262295597300,1.548597412109375,-1.0366383790969849,0.8790351152420044,-0.8038986921310425
1696082262305597400,1.558597412109375,-0.8833111524581909,1.2846496105194092,-0.5803219676017761
1696082262315597300,1.568597412109375,-0.5968153476715088,1.3231340646743774,-0.5094616413116455
1696082262325597700,1.57859765625,-0.394008070230484,1.2657127380371094,-0.4648684561252594
1696082262335597800,1.588597900390625,-0.2871066629886627,1.4978415966033936,-0.48869219422340393
1696082262345597700,1.59859765625,-0.10262536257505417,1.99447500705719,-0.4807509481906891
1696082262355597800,1.608597900390625,0.5064072608947754,2.521040916442871,-0.6493497490882874
1696082262365598200,1.61859814453125,1.1001683473587036,3.7171149253845215,-1.0726794004440308
1696082262375598000,1.62859814453125,1.4404202699661255,4.696331977844238,-1.6682729721069336
1696082262385598200,1.63859814453125,1.9272798299789429,5.043303489685059,-2.05433988571167
1696082262395598000,1.64859814453125,2.621833562850952,4.393342971801758,-2.0671679973602295
1696082262405598200,1.65859814453125,3.5045340061187744,3.2980613708496094,-1.793500304222107
1696082262415598000,1.66859814453125,4.292550086975098,1.616349458694458,-1.120937705039978
1696082262425598200,1.67859814453125,4.98588228225708,-0.7141014933586121,-0.38240164518356323
1696082262435598000,1.68859814453125,5.947383880615234,-1.5473216772079468,0.29626965522766113
1696082262445598200,1.69859814453125,6.64315938949585,-0.24007004499435425,1.1423180103302002
1696082262455598000,1.70859814453125,7.091534614562988,0.9926560521125793,1.6316211223602295
1696082262465598200,1.71859814453125,7.326107025146484,1.7617353200912476,1.6694947481155396
1696082262475598000,1.72859814453125,7.456831932067871,2.4025330543518066,1.5424346923828125
1696082262485598200,1.73859814453125,7.344432830810547,2.8490755558013916,1.3518447875976562
1696082262495598000,1.74859814453125,6.929044246673584,3.2235360145568848,1.1728612184524536
1696082262505598200,1.75859814453125,6.324898719787598,3.8820486068725586,0.970054030418396
1696082262515598000,1.76859814453125,5.77817440032959,4.117842674255371,0.7165449261665344
1696082262525598200,1.77859814453125,5.203350067138672,3.3341023921966553,0.27488934993743896
1696082262535598000,1.78859814453125,4.062864780426025,-0.09651670604944229,-0.7171558141708374
1696082262545598000,1.798597900390625,2.9822440147399902,-3.0726521015167236,-1.351233959197998
1696082262555598000,1.80859814453125,2.577240467071533,-3.9993348121643066,-0.9633345007896423
1696082262565598200,1.81859814453125,2.213164806365967,-3.765984296798706,-0.42149701714515686
1696082262575598000,1.82859814453125,1.7745635509490967,-3.048828363418579,-0.3543018400669098
1696082262585598000,1.838597900390625,1.528384804725647,-2.5949554443359375,-0.42088615894317627
1696082262595598000,1.84859814453125,0.6163630485534668,-1.4043792486190796,-0.646906316280365
1696082262605598200,1.85859814453125,-0.24373523890972137,0.11362093687057495,-0.8148942589759827
1696082262615598000,1.86859814453125,-0.5632177591323853,1.3909401893615723,-0.5503895878791809
1696082262625598000,1.878597900390625,-0.45692721009254456,2.302962064743042,-0.34086281061172485
1696082262635598000,1.88859814453125,-0.484416127204895,2.411695957183838,-0.6493497490882874
1696082262645598200,1.89859814453125,-0.4306600093841553,2.481945514678955,-1.1722503900527954
1696082262655598000,1.90859814453125,-0.4990769028663635,2.5326473712921143,-1.7006487846374512
1696082262665598000,1.918597900390625,-0.4508185386657715,2.8240299224853516,-2.216219186782837
1696082262675598000,1.92859814453125,-0.2480112910270691,3.425732374191284,-2.7287349700927734
1696082262685598200,1.93859814453125,0.06352998316287994,4.517348289489746,-3.1141910552978516
1696082262695598000,1.94859814453125,0.3481931984424591,5.762902736663818,-3.4074063301086426
1696082262705598000,1.958597900390625,0.6609562039375305,6.6260552406311035,-3.748879909515381
1696082262715598000,1.96859814453125,0.8894197940826416,7.379863262176514,-3.769038677215576
1696082262725598200,1.97859814453125,1.0299187898635864,6.218608379364014,-3.1141910552978516
1696082262735598000,1.98859814453125,1.2467759847640991,3.880216121673584,-2.0189096927642822
1696082262745598200,1.99859814453125,1.4391984939575195,0.8772025108337402,-0.816726803779602
1696082262755598000,2.00859814453125,1.549154281616211,-1.671938180923462,0.07330382615327835
1696082262765598200,2.01859814453125,1.6236798763275146,-2.710409164428711,0.20891591906547546
1696082262775598000,2.02859814453125,1.6841554641723633,-3.324328660964966,0.004886921960860491
1696082262785598000,2.038597900390625,1.870469331741333,-3.3542611598968506,-0.10506882518529892
1696082262795598000,2.04859814453125,2.252871036529541,-2.523484230041504,-0.10567969083786011
1696082262805598000,2.058597900390625,2.7140743732452393,-1.0085384845733643,-0.3225368559360504
1696082262815598000,2.06859814453125,3.0414979457855225,-0.15515977144241333,-1.0268645286560059
1696082262825598000,2.078597900390625,2.783102035522461,-0.2675589919090271,-2.41413950920105
1696082262835598000,2.08859814453125,1.6945401430130005,-0.617584764957428,-3.428175687789917
1696082262845598000,2.098597900390625,0.6383541822433472,-0.42577308416366577,-4.054312705993652
1696082262855598000,2.10859814453125,-0.13011430203914642,-0.6120869517326355,-4.5100178718566895
1696082262865598000,2.118597900390625,-0.23151792585849762,-1.4666874408721924,-4.337754249572754
1696082262875598000,2.12859814453125,0.3390302062034607,-2.5638015270233154,-3.4232888221740723
1696082262885598000,2.138597900390625,0.6890559792518616,-2.981633186340332,-1.7550158500671387
1696082262895598000,2.14859814453125,1.103833556175232,-2.92543363571167,0.6224716901779175
1696082262905598000,2.158597900390625,1.33168625831604,-2.4935519695281982,2.8460211753845215
1696082262915598000,2.16859814453125,1.2400563955307007,-1.3145819902420044,3.9541306495666504
1696082262925598000,2.178597900390625,0.7953465580940247,0.09468411654233932,3.7922513484954834
1696082262935598000,2.18859814453125,0.192422553896904,0.8521569967269897,1.8851301670074463
1696082262945598000,2.198597900390625,-0.17898350954055786,0.27977627515792847,-0.14844025671482086
1696082262955598000,2.20859814453125,-0.16920967400074005,-0.5717698931694031,-1.0024298429489136
1696082262965598200,2.21859814453125,-0.13500121235847473,-1.1276572942733765,-1.3060299158096313
1696082262975598000,2.22859814453125,-0.20463985204696655,-1.1832460165023804,-1.2901474237442017
1696082262985598200,2.23859814453125,-0.3579670190811157,-0.8857545852661133,-1.0109820365905762
1696082262995598000,2.24859814453125,-0.4306600093841553,-0.4453207552433014,-0.5064072608947754
1696082263005598200,2.25859814453125,-0.47342056035995483,0.11301007121801376,-0.03481931984424591
1696082263015598000,2.26859814453125,-0.4960225820541382,0.6505714654922485,0.2571742534637451
1696082263025598000,2.278597900390625,-0.45631635189056396,0.9395107626914978,0.40622538328170776
1696082263035598000,2.28859814453125,-0.33719760179519653,1.0005972385406494,0.46242499351501465
1696082263045598000,2.298597900390625,-0.20402899384498596,0.9156870245933533,0.46670106053352356
1696082263055598000,2.30859814453125,-0.09896016865968704,0.7098253965377808,0.4343251883983612
1696082263065598000,2.318597900390625,-0.03176499158143997,0.45753806829452515,0.3530801236629486
1696082263075598000,2.32859814453125,0.03298672288656235,0.21807889640331268,0.23335053026676178
1696082263085598000,2.338597900390625,0.09040805697441101,0.014049900695681572,0.07024950534105301
1696082263095598000,2.34859814453125,0.1215621829032898,-0.18325957655906677,-0.12339477986097336
1696082263105598000,2.358597900390625,0.12950342893600464,-0.37751471996307373,-0.27061331272125244
1696082263115598000,2.36859814453125,0.09834930300712585,-0.5619960427284241,-0.303600013256073
1696082263125598000,2.378597900390625,0.04337143152952194,-0.7024950385093689,-0.2064724564552307
1696082263135598000,2.38859814453125,-0.00733038317412138,-0.6713408827781677,-0.048258353024721146
1696082263145598000,2.398597900390625,-0.018325956538319588,-0.455705463886261,0.08857546001672745
1696082263155598000,2.40859814453125,0.001832595793530345,-0.16371189057826996,0.16004669666290283
1696082263165598000,2.418597900390625,0.02015855349600315,0.06902777403593063,0.1667662113904953
1696082263175598000,2.42859814453125,0.01771509274840355,0.18387043476104736,0.12767083942890167
1696082263185598200,2.43859814453125,0.005497787147760391,0.1514945775270462,0.06230825558304787
1696082263195598000,2.44859814453125,-0.006719517521560192,0.00855211354792118,-0.014049900695681572
1696082263205598200,2.45859814453125,-0.018325956538319588,-0.1667662113904953,-0.09346238523721695
1696082263215598000,2.46859814453125,-0.025656340643763542,-0.30054569244384766,-0.15882496535778046
1696082263225598200,2.47859814453125,-0.02687807008624077,-0.3384193480014801,-0.1875356286764145
1696082263235598000,2.48859814453125,-0.021380282938480377,-0.2681698501110077,-0.17898350954055786
1696082263245598200,2.49859814453125,-0.018936822190880775,-0.20463985204696655,-0.16432274878025055
1696082263255598000,2.50859814453125,-0.013439035043120384,-0.059864792972803116,-0.12339477986097336
1696082263265598200,2.51859814453125,-0.010995574295520782,0.05803219974040985,-0.07757988572120667
1696082263275598000,2.52859814453125,-0.013439035043120384,0.11056660860776901,-0.039095375686883926
1696082263285598200,2.53859814453125,-0.015882495790719986,0.09407325088977814,-0.021991148591041565
1696082263295598000,2.54859814453125,-0.019547687843441963,0.029932396486401558,-0.03298672288656235
1696082263305598200,2.55859814453125,-0.02076941914856434,-0.04092797264456749,-0.0659734457731247
1696082263315598000,2.56859814453125,-0.02321287989616394,-0.09346238523721695,-0.10018189996480942
1696082263325598200,2.57859814453125,-0.029932396486401558,-0.13072516024112701,-0.11911872029304504
1696082263335598000,2.58859814453125,-0.033597588539123535,-0.15027284622192383,-0.12095131725072861
1696082263345598200,2.59859814453125,-0.042760565876960754,-0.1459967941045761,-0.11056660860776901
1696082263355598000,2.60859814453125,-0.04764748737215996,-0.11972958594560623,-0.09773843735456467
1696082263365598200,2.61859814453125,-0.04703662544488907,-0.08552113175392151,-0.08124507963657379
1696082263375598000,2.62859814453125,-0.04398229718208313,-0.06719517707824707,-0.06414084881544113
1696082263385598200,2.63859814453125,-0.036651913076639175,-0.06963863968849182,-0.04459316283464432
1696082263395598000,2.64859814453125,-0.03420845419168472,-0.08368854224681854,-0.033597588539123535
1696082263405598200,2.65859814453125,-0.033597588539123535,-0.10506882518529892,-0.033597588539123535
1696082263415598000,2.66859814453125,-0.03481931984424591,-0.11850785464048386,-0.033597588539123535
1696082263425598200,2.67859814453125,-0.030543262138962746,-0.11423180252313614,-0.0354301854968071
1696082263435598000,2.68859814453125,-0.021380282938480377,-0.0910189226269722,-0.0354301854968071
1696082263445598200,2.69859814453125,-0.003054326167330146,-0.06536258012056351,-0.03481931984424591
1696082263455598000,2.70859814453125,0.02076941914856434,-0.0555887371301651,-0.030543262138962746
1696082263465598200,2.71859814453125,0.045204028487205505,-0.060475658625364304,-0.021991148591041565
1696082263475598000,2.72859814453125,0.07147123664617538,-0.06230825558304787,-0.005497787147760391
1696082263485598200,2.73859814453125,0.10567969083786011,-0.04948008432984352,0.00427605677396059
1696082263495598000,2.74859814453125,0.14233160018920898,-0.007941247895359993,0.007941247895359993
1696082263505598200,2.75859814453125,0.17592918872833252,0.05803219974040985,0.001832595793530345
1696082263515598000,2.76859814453125,0.20463985204696655,0.14355333149433136,-0.012217304669320583
1696082263525598000,2.778597900390625,0.22540926933288574,0.24068090319633484,-0.04153883829712868
1696082263535598000,2.78859814453125,0.24434609711170197,0.313373863697052,-0.07941248267889023
1696082263545598000,2.798597900390625,0.24923302233219147,0.32498031854629517,-0.11178833991289139
1696082263555598000,2.80859814453125,0.23884831368923187,0.28588494658470154,-0.14294247329235077
1696082263565598000,2.818597900390625,0.21441370248794556,0.23335053026676178,-0.17104226350784302
1696082263575598000,2.82859814453125,0.18020524084568024,0.16249015927314758,-0.2028072625398636
1696082263585598000,2.838597900390625,0.15027284622192383,0.05192354694008827,-0.23457226157188416
1696082263595598000,2.84859814453125,0.11667526513338089,-0.16371189057826996,-0.24495697021484375
1696082263605598000,2.858597900390625,0.05192354694008827,-0.4807509481906891,-0.21074850857257843
1696082263615598000,2.86859814453125,-0.05864306539297104,-0.7422012686729431,-0.16798794269561768
1696082263625598000,2.878597900390625,-0.15577064454555511,-0.8833111524581909,-0.13011430203914642
1696082263635598000,2.88859814453125,-0.2168571650981903,-0.9327912330627441,-0.07880161702632904
1696082263645598000,2.898597900390625,-0.24007004499435425,-0.931569516658783,-0.018936822190880775
1696082263655598000,2.90859814453125,-0.22357667982578278,-0.8655960559844971,0.02687807008624077
1696082263665598000,2.918597900390625,-0.17898350954055786,-0.7513642311096191,0.04886921867728233
1696082263675598000,2.92859814453125,-0.1215621829032898,-0.616973876953125,0.0507018156349659
1696082263685598000,2.938597900390625,-0.06291911751031876,-0.5125159621238708,0.05192354694008827
1696082263695598000,2.94859814453125,-0.02015855349600315,-0.49235737323760986,0.06169738993048668
1696082263705598000,2.958597900390625,0.009773843921720982,-0.5510004758834839,0.07391469180583954
1696082263715598000,2.96859814453125,0.04459316283464432,-0.6389650702476501,0.06902777403593063
1696082263725598000,2.978597900390625,0.09040805697441101,-0.7128797173500061,0.04337143152952194
1696082263735598000,2.98859814453125,0.1362229436635971,-0.7299839854240417,-0.01038470957428217
1696082263745598000,2.998597900390625,0.17592918872833252,-0.7092145681381226,-0.07391469180583954
1696082263755598000,3.00859814453125,0.19120082259178162,-0.6603453159332275,-0.1411098688840866
1696082263765598000,3.018597900390625,0.16920967400074005,-0.5809328556060791,-0.20586158335208893
1696082263775598000,3.02859814453125,0.12095131725072861,-0.4697553813457489,-0.27061331272125244
1696082263785598000,3.038597900390625,0.05925392732024193,-0.33536502718925476,-0.3286454975605011
1696082263795598000,3.04859814453125,-0.00427605677396059,-0.20341812074184418,-0.3854559659957886
1696082263805598000,3.058597900390625,-0.04764748737215996,-0.13561208546161652,-0.4495968222618103
1696082263815598000,3.06859814453125,-0.06780604273080826,-0.13500121235847473,-0.5112941861152649
1696082263825598200,3.07859814453125,-0.0757472887635231,-0.17287486791610718,-0.5595525503158569
1696082263835598300,3.088598388671875,-0.08429940044879913,-0.20891591906547546,-0.5845980644226074
1696082263845598200,3.09859814453125,-0.09162978827953339,-0.21807889640331268,-0.5870414972305298
1696082263855598300,3.108598388671875,-0.08552113175392151,-0.20830504596233368,-0.5717698931694031
1696082263865598200,3.11859814453125,-0.06352998316287994,-0.1875356286764145,-0.5528330206871033
1696082263875597300,3.128597412109375,-0.03481931984424591,-0.16798794269561768,-0.5448917746543884
1696082263885597400,3.138597412109375,-0.004886921960860491,-0.15393804013729095,-0.5497786998748779
1696082263895597300,3.148597412109375,0.02076941914856434,-0.14844025671482086,-0.5601634383201599
1696082263905597400,3.158597412109375,0.051312681287527084,-0.18081611394882202,-0.5552765130996704
1696082263915597300,3.168597412109375,0.09407325088977814,-0.28649580478668213,-0.5094616413116455
1696082263925597400,3.178597412109375,0.1466076523065567,-0.4758640229701996,-0.3982841372489929
1696082263935597300,3.188597412109375,0.2021963894367218,-0.7281513810157776,-0.21624629199504852
1696082263945597400,3.198597412109375,0.2577851414680481,-0.99876469373703,0.009162978269159794
1696082263955597300,3.208597412109375,0.31520646810531616,-1.2180652618408203,0.21991148591041565
1696082263965597400,3.218597412109375,0.3787364661693573,-1.3744467496871948,0.3781255781650543
1696082263975597600,3.22859765625,0.44226643443107605,-1.46424400806427,0.44715335965156555
1696082263985597400,3.238597412109375,0.49357911944389343,-1.4960089921951294,0.4251621961593628
1696082263995597300,3.248597412109375,0.5338962078094482,-1.4489723443984985,0.34086281061172485
1696082264005597400,3.258597412109375,0.5564982295036316,-1.341460108757019,0.251676470041275
1696082264015597300,3.268597412109375,0.5436700582504272,-1.1722503900527954,0.20036379992961884
1696082264025597400,3.278597412109375,0.4917465150356293,-0.9737191796302795,0.21135938167572021
1696082264035597300,3.288597412109375,0.40683624148368835,-0.7617489695549011,0.2785545587539673
1696082264045597400,3.298597412109375,0.3078760802745819,-0.5387831330299377,0.37568211555480957
1696082264055597300,3.308597412109375,0.2119702398777008,-0.3121521472930908,0.4862487316131592
1696082264065597400,3.318597412109375,0.13316862285137177,-0.10873401165008545,0.5809328556060791
1696082264075597300,3.328597412109375,0.03726277872920036,0.0806342139840126,0.6481280326843262
1696082264085597400,3.338597412109375,-0.12034045159816742,0.2877175211906433,0.6914994716644287
1696082264095597300,3.348597412109375,-0.313373863697052,0.4996877610683441,0.7556403279304504
1696082264105597400,3.358597412109375,-0.484416127204895,0.6737843751907349,0.8600982427597046
1696082264115597300,3.368597412109375,-0.6163630485534668,0.797789990901947,1.0097602605819702
1696082264125597200,3.37859716796875,-0.7287622094154358,0.8784242272377014,1.2027937173843384
1696082264135597000,3.38859716796875,-0.8405506014823914,0.9425650835037231,1.441641926765442
1696082264145597200,3.39859716796875,-0.9279043078422546,0.8576548099517822,1.7537940740585327
1696082264155597000,3.40859716796875,-0.9908234477043152,0.4508185386657715,2.155743360519409
1696082264165597200,3.41859716796875,-1.0598511695861816,-0.18448130786418915,2.559525489807129
1696082264175598000,3.42859814453125,-1.1117748022079468,-0.8197811841964722,2.8069257736206055
1696082264185598200,3.43859814453125,-1.1166616678237915,-1.2553280591964722,2.830138683319092
1696082264195598000,3.44859814453125,-1.0598511695861816,-1.3738359212875366,2.6871962547302246
1696082264205598200,3.45859814453125,-0.9382890462875366,-1.2229522466659546,2.4416284561157227
1696082264215598000,3.46859814453125,-0.8038986921310425,-0.9474520087242126,2.147191286087036
1696082264225598200,3.47859814453125,-0.7324274182319641,-0.7605272531509399,1.8466455936431885
1696082264235598000,3.48859814453125,-0.7250970602035522,-0.7855727076530457,1.5851953029632568
1696082264245598200,3.49859814453125,-0.7776314616203308,-0.9822713136672974,1.3573426008224487
1696082264255598000,3.50859814453125,-0.8906415104866028,-1.1630873680114746,1.1117748022079468
1696082264265598200,3.51859814453125,-1.056796908378601,-1.2473868131637573,0.8820894360542297
1696082264275598000,3.52859814453125,-1.2541064023971558,-1.2388347387313843,0.7648032903671265
1696082264285598200,3.53859814453125,-1.4453071355819702,-1.1172724962234497,0.8118399381637573
1696082264295598000,3.54859814453125,-1.5949691534042358,-0.7544185519218445,0.930347740650177
1696082264305598200,3.55859814453125,-1.663996934890747,-0.16982053220272064,1.0152580738067627
1696082264315598000,3.56859814453125,-1.654223084449768,0.413555771112442,1.0348057746887207
1696082264325598200,3.57859814453125,-1.5644259452819824,0.8069530129432678,1.0231993198394775
1696082264335598000,3.58859814453125,-1.4428637027740479,0.8484918475151062,1.0268645286560059
1696082264345598200,3.59859814453125,-1.33168625831604,0.7568620443344116,0.979827880859375
1696082264355598000,3.60859814453125,-1.23394775390625,0.7238753437995911,0.9266825914382935
1696082264365598200,3.61859814453125,-1.1539244651794434,0.6725626587867737,0.8778133392333984
1696082264375598000,3.62859814453125,-1.0971139669418335,0.5778785347938538,0.8387179970741272
1696082264385598200,3.63859814453125,-1.0421360731124878,0.5400048494338989,0.7996225953102112
1696082264395598000,3.64859814453125,-0.9963212013244629,0.6010913848876953,0.7648032903671265
1696082264405598200,3.65859814453125,-0.9419541954994202,0.7721336483955383,0.7464773058891296
1696082264415598000,3.66859814453125,-0.8637634515762329,0.9853256344795227,0.7354817390441895
1696082264425795000,3.678795166015625,-0.7617489695549011,1.1539244651794434,0.7122688889503479
1696082264435795000,3.688794921875,-0.646295428276062,1.216843605041504,0.6688974499702454
1696082264445795000,3.698795166015625,-0.5345070958137512,1.1435397863388062,0.5955936312675476
1696082264455795000,3.708794921875,-0.4349360466003418,0.969443142414093,0.5002986192703247
1696082264465795000,3.718795166015625,-0.3549126982688904,0.7715228199958801,0.3952298164367676
1696082264475795000,3.728794921875,-0.2834414839744568,0.6255260109901428,0.2791654169559479
1696082264485795000,3.738795166015625,-0.2070833146572113,0.5351179838180542,0.15577064454555511
1696082264495795000,3.748794921875,-0.12767083942890167,0.4893030524253845,0.025045474991202354
1696082264505795000,3.758795166015625,-0.039095375686883926,0.4544837474822998,-0.10018189996480942
1696082264515795000,3.768794921875,0.08124507963657379,0.39217549562454224,-0.21013765037059784
1696082264525794800,3.778794921875,0.21991148591041565,0.2974913716316223,-0.3194825351238251
1696082264535795000,3.788794921875,0.35674530267715454,0.20463985204696655,-0.4337143301963806
1696082264545794800,3.798794921875,0.4691445231437683,0.12034045159816742,-0.543059229850769
1696082264555795000,3.808794921875,0.5436700582504272,0.08979719132184982,-0.6414085030555725
1696082264565794800,3.818794921875,0.5711590051651001,0.1258382350206375,-0.7189884185791016
1696082264575795000,3.828794921875,0.5540547966957092,0.2119702398777008,-0.7739662528038025
1696082264585794800,3.838794921875,0.5076290369033813,0.31642818450927734,-0.7953465580940247
1696082264595795000,3.848794921875,0.4453207552433014,0.4703662395477295,-0.8222246170043945
1696082264605794800,3.858794921875,0.39095374941825867,0.6682865619659424,-0.8759807348251343
1696082264615795000,3.868794921875,0.34697145223617554,0.9352346658706665,-0.9541715383529663
1696082264625794800,3.878794921875,0.3023782968521118,1.140485405921936,-0.9920451641082764
1696082264635795000,3.888794921875,0.22296582162380219,1.1368201971054077,-0.9443976879119873
1696082264645794800,3.898794921875,0.09712757170200348,0.8924741148948669,-0.8319984674453735
1696082264655795000,3.908794921875,-0.08552113175392151,0.46364670991897583,-0.6542366743087769
1696082264665794800,3.918794921875,-0.294437050819397,0.012217304669320583,-0.36163222789764404
1696082264675795000,3.928794921875,-0.45326200127601624,-0.2590068578720093,-0.06291911751031876
1696082264685794800,3.938794921875,-0.49785518646240234,-0.20830504596233368,0.015271631069481373
1696082264695795000,3.948794921875,-0.42149701714515686,-0.01466076634824276,-0.1563815027475357
1696082264705794800,3.958794921875,-0.2736676335334778,0.05803219974040985,-0.4960225820541382
1696082264715795000,3.968794921875,-0.10262536257505417,-0.06169738993048668,-0.8350527882575989
1696082264725794800,3.978794921875,0.04398229718208313,-0.4392121136188507,-1.0494664907455444
1696082264735795000,3.988794921875,0.18875735998153687,-1.0604621171951294,-1.1429288387298584
1696082264745794800,3.998794921875,0.3494149148464203,-1.7525724172592163,-1.0879509449005127
1696082264755795000,4.008794921875,0.4343251883983612,-2.116037130355835,-0.846659243106842
1696082264765794800,4.018794921875,0.4178318381309509,-1.930334210395813,-0.4807509481906891
1696082264775795000,4.028794921875,0.3732386529445648,-1.2657127380371094,-0.14355333149433136
1696082264785794800,4.038794921875,0.3830125033855438,-0.13439035415649414,0.014049900695681572
1696082264795795000,4.048794921875,0.44593164324760437,0.40194934606552124,-0.08246681094169617
1696082264805794800,4.058794921875,0.5595525503158569,0.20463985204696655,-0.17776179313659668
1696082264815795000,4.068794921875,0.749531626701355,-0.2577851414680481,-0.2528982162475586
1696082264825794800,4.078794921875,0.9590584635734558,-0.8118399381637573,-0.3793473243713379
1696082264835795000,4.088794921875,1.1423180103302002,-1.1349875926971436,-0.6206390857696533
1696082264845794800,4.098794921875,1.2699888944625854,-0.8808676600456238,-0.8704829812049866
1696082264855795000,4.108794921875,1.36955988407135,-0.30543261766433716,-1.1136072874069214
1696082264865794800,4.118794921875,1.3939944505691528,0.1716531366109848,-1.2394455671310425
1696082264875794700,4.128794677734375,1.3096951246261597,0.4489859640598297,-1.166752576828003
1696082264885794800,4.138794921875,1.1649199724197388,0.5931501388549805,-0.9841039180755615
1696082264895794700,4.148794677734375,0.9804387092590332,0.6377432942390442,-0.7733554244041443
1696082264905794800,4.158794921875,0.8191702961921692,0.6914994716644287,-0.5919284224510193
1696082264915794700,4.168794677734375,0.7086036801338196,0.770301103591919,-0.4911356568336487
1696082264925794800,4.178794921875,0.656680166721344,0.7611380815505981,-0.5192354321479797
1696082264935794700,4.188794677734375,0.8246681094169617,-0.6982190012931824,-1.208902359008789
1696082264945794800,4.198794921875,0.998153805732727,-2.643213987350464,-1.891238808631897
1696082264955794700,4.208794677734375,0.9462302923202515,-3.7861428260803223,-2.0335702896118164
1696082264965794800,4.218794921875,0.770301103591919,-4.084245204925537,-1.7751743793487549
1696082264975794700,4.228794677734375,0.5650503635406494,-3.542407512664795,-1.2638801336288452
1696082264985794800,4.238794921875,0.3799581825733185,-2.342668294906616,-0.6609562039375305
1696082264995794700,4.248794677734375,0.27550023794174194,-0.8405506014823914,-0.15027284622192383
1696082265005794800,4.258794921875,0.26450464129447937,0.4502076804637909,0.05253441259264946
1696082265015794700,4.268794677734375,0.2687807083129883,1.147204875946045,-0.006719517521560192
1696082265025794800,4.278794921875,0.25106561183929443,1.243721604347229,-0.10934487730264664
1696082265035794700,4.288794677734375,0.2431243658065796,1.0054842233657837,-0.16310101747512817
1696082265045794800,4.298794921875,0.25106561183929443,0.6487388610839844,-0.182648703455925
1696082265055794700,4.308794677734375,0.2877175211906433,0.32070425152778625,-0.21930062770843506
1696082265065794800,4.318794921875,0.3384193480014801,-0.0555887371301651,-0.2981022298336029
1696082265075794700,4.328794677734375,0.3738495409488678,-0.4697553813457489,-0.4300491213798523
1696082265085794800,4.338794921875,0.39706242084503174,-0.7843509912490845,-0.5858197808265686
1696082265095794700,4.348794677734375,0.4202753007411957,-0.9187413454055786,-0.7232644557952881
1696082265105794800,4.358794921875,0.4239404797554016,-0.9242390990257263,-0.8442157506942749
1696082265115794700,4.368794677734375,0.43249258399009705,-0.8674286603927612,-0.931569516658783
1696082265125794800,4.378794921875,0.46242499351501465,-0.7641924023628235,-0.9639453291893005
1696082265135794700,4.388794677734375,0.49235737323760986,-0.6676757335662842,-0.9437867999076843
1696082265145794800,4.398794921875,0.5119050741195679,-0.5473352670669556,-0.8692612648010254
1696082265155794700,4.408794677734375,0.5338962078094482,-0.37751471996307373,-0.7648032903671265
1696082265165794800,4.418794921875,0.5681046843528748,-0.19914206862449646,-0.6731734871864319
1696082265175795000,4.428794921875,0.607200026512146,-0.09773843735456467,-0.6389650702476501
1696082265185795000,4.438795166015625,0.6432411074638367,-0.13866640627384186,-0.6664539575576782
1696082265195795000,4.448794921875,0.6798930168151855,-0.3182607889175415,-0.7098253965377808
1696082265205795000,4.458795166015625,0.7195992469787598,-0.588874101638794,-0.6957755088806152
1696082265215795000,4.468794921875,0.7574729323387146,-0.8967501521110535,-0.5742133259773254
1696082265225795000,4.478795166015625,0.7825183868408203,-1.147204875946045,-0.35735616087913513
1696082265235795000,4.488794921875,0.797789990901947,-1.2712105512619019,-0.11301007121801376
1696082265245795000,4.498795166015625,0.8045095205307007,-1.2040153741836548,0.08674286305904388
1696082265255795000,4.508794921875,0.8118399381637573,-0.9547823667526245,0.2076941877603531
1696082265265795000,4.518795166015625,0.8093964457511902,-0.6090326309204102,0.2571742534637451
1696082265275795000,4.528794921875,0.7641924023628235,-0.2626720666885376,0.252287358045578
1696082265285795000,4.538795166015625,0.6389650702476501,-0.05742133408784866,0.1569923609495163
1696082265295795000,4.548794921875,0.43799036741256714,-0.054367005825042725,0.0012217304902151227
1696082265305795000,4.558795166015625,0.2028072625398636,-0.10995574295520782,-0.08979719132184982
1696082265315795000,4.568794921875,-0.045204028487205505,-0.048258353024721146,-0.016493361443281174
1696082265325795000,4.578795166015625,-0.2877175211906433,0.10751228034496307,0.1771509200334549
1696082265335795000,4.588794921875,-0.48808133602142334,0.26511552929878235,0.40683624148368835
1696082265345795000,4.598795166015625,-0.675006091594696,0.4056145250797272,0.6450737118721008
1696082265355795000,4.608794921875,-0.8814785480499268,0.5687155723571777,0.9187413454055786
1696082265365795000,4.618795166015625,-1.1062769889831543,0.7299839854240417,1.2162326574325562
1696082265375795000,4.628794921875,-1.3439035415649414,0.8148942589759827,1.5094480514526367
1696082265385795000,4.638795166015625,-1.5906931161880493,0.9352346658706665,1.795332908630371
1696082265395795000,4.648794921875,-1.855197787284851,1.1734721660614014,2.1258111000061035
1696082265405795000,4.658795166015625,-2.079385280609131,1.3451253175735474,2.4465153217315674
1696082265415795000,4.668794921875,-2.2101104259490967,1.2712105512619019,2.66337251663208
1696082265425795000,4.678795166015625,-2.216219186782837,0.9205739498138428,2.7568347454071045
1696082265435795000,4.688794921875,-2.1197023391723633,0.41722095012664795,2.7336220741271973
1696082265445795000,4.698795166015625,-1.965153455734253,-0.1270599663257599,2.6700918674468994
1696082265455795000,4.708794921875,-1.7861700057983398,-0.513737678527832,2.560136318206787
1696082265465795000,4.718795166015625,-1.5845844745635986,-0.7806857824325562,2.4159719944000244
1696082265475795000,4.728794921875,-1.4098769426345825,-0.9993755221366882,2.1844542026519775
1696082265485795000,4.738795166015625,-1.2522737979888916,-1.0036516189575195,1.7806721925735474
1696082265495795000,4.748794921875,-1.081842303276062,-0.9224064946174622,1.282817006111145
1696082265505795000,4.758795166015625,-0.9621127843856812,-0.921184778213501,0.8631525635719299
1696082265515795000,4.768794921875,-0.950506329536438,-0.8924741148948669,0.6633996367454529
1696082265525794800,4.778794921875,-1.0317513942718506,-0.6023131608963013,0.7238753437995911
1696082265535795000,4.788794921875,-1.186300277709961,-0.11239920556545258,0.9468411207199097
1696082265545794800,4.798794921875,-1.348179578781128,0.4294382631778717,1.1545352935791016
1696082265555795000,4.808794921875,-1.4501941204071045,0.8539896011352539,1.2705997228622437
1696082265565794800,4.818794921875,-1.4428637027740479,0.9224064946174622,1.3048081398010254
1696082265575795000,4.828794921875,-1.3726142644882202,0.7012733221054077,1.2626584768295288
1696082265585794800,4.838794921875,-1.29381263256073,0.5277875661849976,1.1178834438323975
1696082265595795000,4.848794921875,-1.243721604347229,0.5009095072746277,0.9230173826217651
1696082265605794800,4.858794921875,-1.2235630750656128,0.4954117238521576,0.7568620443344116
1696082265615795000,4.868794921875,-1.2211196422576904,0.4715879559516907,0.6719517707824707
1696082265625795600,4.878795654296875,-1.2021827697753906,0.43615779280662537,0.675006091594696
1696082265635795700,4.888795654296875,-1.140485405921936,0.4758640229701996,0.684779942035675
1696082265645795600,4.898795654296875,-1.0494664907455444,0.6200281977653503,0.6530149579048157
1696082265655795700,4.908795654296875,-0.941343367099762,0.8759807348251343,0.5766568183898926
1696082265665796000,4.918796142578125,-0.8112290501594543,1.1563678979873657,0.47708576917648315
1696082265675796200,4.928796142578125,-0.6737843751907349,1.359786033630371,0.37140607833862305
1696082265685796000,4.938796142578125,-0.5357288122177124,1.42637038230896,0.2541199326515198
1696082265695796200,4.948796142578125,-0.3995058834552765,1.3646728992462158,0.12461651116609573
1696082265705796000,4.958796142578125,-0.2626720666885376,1.224173903465271,-0.014049900695681572
1696082265715796200,4.968796142578125,-0.12950342893600464,1.0659598112106323,-0.16737708449363708
1696082265725796000,4.978796142578125,0.007941247895359993,0.921184778213501,-0.3378084897994995
1696082265735796200,4.988796142578125,0.15515977144241333,0.8234463334083557,-0.5174028873443604
1696082265745796000,4.998796142578125,0.3243694305419922,0.7428121566772461,-0.7037167549133301
1696082265755796200,5.008796142578125,0.5216789245605469,0.6023131608963013,-0.8906415104866028
1696082265765796000,5.018796142578125,0.7232644557952881,0.4056145250797272,-1.0793988704681396
1696082265775796200,5.028796142578125,0.8875871896743774,0.2736676335334778,-1.2760975360870361
1696082265785796000,5.038796142578125,0.9847147464752197,0.2638937830924988,-1.4880677461624146
1696082265795796200,5.048796142578125,1.0256427526474,0.4337143301963806,-1.644449234008789
1696082265805796000,5.058796142578125,1.0128145217895508,0.7764097452163696,-1.6395623683929443
1696082265815796200,5.068796142578125,0.9144652485847473,1.1246029138565063,-1.5070046186447144
1696082265825795800,5.0787958984375,0.769690215587616,1.299310326576233,-1.4282029867172241
1696082265835795700,5.088795654296875,0.6414085030555725,1.1056660413742065,-1.395827054977417
1696082265845795800,5.0987958984375,0.5180137157440186,0.44104471802711487,-1.2131783962249756
1696082265855795700,5.108795654296875,0.2626720666885376,-0.3805690407752991,-0.7098253965377808
1696082265865795800,5.1187958984375,-0.2528982162475586,-0.8216137290000916,0.05375614017248154
1696082265875795700,5.128795654296875,-0.7916813492774963,-0.9053022861480713,0.7250970602035522
1696082265885795800,5.1387958984375,-0.9731083512306213,-0.9712757468223572,0.9871582388877869
1696082265895795700,5.148795654296875,-0.9395107626914978,-1.0268645286560059,0.7782423496246338
1696082265905795800,5.1587958984375,-0.7678576111793518,-0.9419541954994202,0.2528982162475586
1696082265915795700,5.168795654296875,-0.5387831330299377,-0.5729916095733643,-0.30604347586631775
1696082265925795000,5.178795166015625,-0.22357667982578278,-0.13866640627384186,-0.6701191663742065
1696082265935795000,5.188794921875,0.11545353382825851,0.0659734457731247,-0.7049384713172913
1696082265945795000,5.198795166015625,0.35185837745666504,-0.019547687843441963,-0.7195992469787598
1696082265955795000,5.208794921875,0.5112941861152649,-0.07147123664617538,-0.7165449261665344
1696082265965794600,5.218794677734375,0.6065891981124878,0.021991148591041565,-0.40133845806121826
1696082265975794700,5.228794677734375,0.523511528968811,0.09224065393209457,-0.09224065393209457
1696082265985794600,5.238794677734375,0.34208452701568604,-0.28649580478668213,-0.00855211354792118
1696082265995794700,5.248794677734375,0.1411098688840866,-1.5344934463500977,-0.10445795953273773
1696082266005794600,5.258794677734375,-0.00366519158706069,-2.4520130157470703,-0.059864792972803116
1696082266015794700,5.268794677734375,-0.04153883829712868,-2.1563544273376465,0.28099802136421204
1696082266025793800,5.278793701171875,-0.060475658625364304,-1.2748757600784302,0.5729916095733643
1696082266035793700,5.288793701171875,0.015882495790719986,-0.5668829679489136,0.5998696684837341
1696082266045793800,5.298793701171875,0.3066543638706207,-0.2926044464111328,0.3292563557624817
1696082266055793700,5.308793701171875,0.6603453159332275,-0.2125810980796814,-0.15332718193531036
1696082266065793800,5.318793701171875,0.9724974632263184,-0.1319468915462494,-0.6126978397369385
1696082266075793700,5.328793701171875,1.2150110006332397,-0.04581489413976669,-0.8851437568664551
1696082266085793800,5.338793701171875,1.3713924884796143,0.0555887371301651,-1.0134254693984985
1696082266095793700,5.348793701171875,1.3371840715408325,0.20586158335208893,-1.1050552129745483
1696082266105793800,5.358793701171875,1.217454433441162,0.3689626157283783,-1.2571606636047363
1696082266115793700,5.368793701171875,1.1331549882888794,0.5375614166259766,-1.5467108488082886
1696082266125794000,5.3787939453125,1.226617455482483,0.31093040108680725,-2.0928242206573486
1696082266135794200,5.388794189453125,1.4343116283416748,-0.42210787534713745,-2.6371052265167236
1696082266145794000,5.3987939453125,1.5876387357711792,-1.3078625202178955,-2.8099801540374756
1696082266155794200,5.408794189453125,1.5998560190200806,-1.9834794998168945,-2.5247061252593994
1696082266165794000,5.4187939453125,1.4605787992477417,-2.177123785018921,-1.8985692262649536
1696082266175794200,5.428794189453125,1.2296717166900635,-1.7812830209732056,-1.1594222784042358
1696082266185794000,5.4387939453125,1.0030407905578613,-0.8955284357070923,-0.5693264007568359
1696082266195794200,5.448794189453125,0.8497135639190674,0.06902777403593063,-0.2926044464111328
1696082266205794000,5.4587939453125,0.770301103591919,0.8185594081878662,-0.28649580478668213
1696082266215794200,5.468794189453125,0.7195992469787598,1.2877039909362793,-0.3579670190811157
1696082266225794000,5.4787939453125,0.6725626587867737,1.3799445629119873,-0.38117989897727966
1696082266235794200,5.488794189453125,0.6212499737739563,1.1832460165023804,-0.32681289315223694
1696082266245794000,5.4987939453125,0.588263213634491,0.7580837607383728,-0.2724458873271942
1696082266255794200,5.508794189453125,0.598647952079773,0.12889257073402405,-0.3084869384765625
1696082266265794000,5.5187939453125,0.665232241153717,-0.5583308339118958,-0.48319441080093384
1696082266275794200,5.528794189453125,0.7507534027099609,-0.99876469373703,-0.7654141783714294
1696082266285794000,5.5387939453125,0.8411614298820496,-1.2137892246246338,-1.0873401165008545
1696082266295794200,5.548794189453125,0.9224064946174622,-1.2681562900543213,-1.368949055671692
1696082266305794000,5.5587939453125,0.9865473508834839,-1.2492194175720215,-1.4947872161865234
1696082266315794200,5.568794189453125,0.9755517840385437,-1.151481032371521,-1.406822681427002
1696082266325795000,5.578795166015625,0.8674286603927612,-0.9865473508834839,-1.160033106803894
1696082266335795000,5.588794921875,0.6951646208763123,-0.7751879692077637,-0.8625417351722717
1696082266345795000,5.598795166015625,0.5283984541893005,-0.5119050741195679,-0.6407976150512695
1696082266355795000,5.608794921875,0.43249258399009705,-0.2321287989616394,-0.5558874011039734
1696082266365795000,5.618795166015625,0.43615779280662537,0.02626720629632473,-0.5797111392021179
1696082266375795000,5.628794921875,0.5119050741195679,0.22052235901355743,-0.6627888083457947
1696082266385795000,5.638795166015625,0.6194173693656921,0.3066543638706207,-0.7562511563301086
1696082266395795000,5.648794921875,0.7348709106445312,0.23090706765651703,-0.8203920125961304
1696082266405795000,5.658795166015625,0.8491026759147644,0.01771509274840355,-0.8118399381637573
1696082266415795000,5.668794921875,0.9443976879119873,-0.2174680233001709,-0.6890559792518616
1696082266425795000,5.678795166015625,0.9828822016716003,-0.3903428912162781,-0.46670106053352356
1696082266435795000,5.688794921875,0.9615018963813782,-0.5174028873443604,-0.21319197118282318
1696082266445795000,5.698795166015625,0.921184778213501,-0.5962044596672058,0.016493361443281174
1696082266455795000,5.708794921875,0.8918632864952087,-0.5644394755363464,0.19608774781227112
1696082266465795000,5.718795166015625,0.8674286603927612,-0.37201693654060364,0.3170390725135803
1696082266475795000,5.728794921875,0.8100073337554932,-0.12889257073402405,0.3396410644054413
1696082266485795000,5.738795166015625,0.6780604124069214,-0.04764748737215996,0.18570303916931152
1696082266495795000,5.748794921875,0.42760565876960754,-0.19486601650714874,-0.1362229436635971
1696082266505795000,5.758795166015625,0.08735372871160507,-0.42699480056762695,-0.4306600093841553
1696082266515795000,5.768794921875,-0.2382374405860901,-0.5473352670669556,-0.455705463886261
1696082266525794800,5.778794921875,-0.49785518646240234,-0.475253164768219,-0.14049901068210602
1696082266535795000,5.788794921875,-0.6914994716644287,-0.25473082065582275,0.40133845806121826
1696082266545794800,5.798794921875,-0.827111542224884,-0.03787364438176155,0.9810495972633362
1696082266555795000,5.808794921875,-0.8765916228294373,0.09773843735456467,1.4367550611495972
1696082266565794800,5.818794921875,-0.8509352803230286,0.24129177629947662,1.7733417749404907
1696082266575795000,5.828794921875,-0.8637634515762329,0.523511528968811,2.0415115356445312
1696082266585794800,5.838794921875,-1.083064079284668,0.9480628371238708,2.2852468490600586
1696082266595795000,5.848794921875,-1.5173892974853516,1.3310753107070923,2.4770586490631104
1696082266605794800,5.858794921875,-2.052507162094116,1.4391984939575195,2.528982162475586
1696082266615795000,5.868794921875,-2.4660630226135254,1.177748203277588,2.4868323802948
1696082266625794800,5.878794921875,-2.607783794403076,0.6621779203414917,2.4801127910614014
1696082266635795000,5.888794921875,-2.546086311340332,0.1563815027475357,2.5308146476745605
1696082266645794800,5.898794921875,-2.3854286670684814,-0.19303341209888458,2.5980098247528076
1696082266655795000,5.908794921875,-2.186286687850952,-0.4905247986316681,2.649933338165283
1696082266665794800,5.918794921875,-2.009746551513672,-0.8472700715065002,2.6059510707855225
1696082266675795000,5.928794921875,-1.884519338607788,-1.2308934926986694,2.349998712539673
1696082266685794800,5.938794921875,-1.7617353200912476,-1.5943583250045776,1.9028452634811401
1696082266695795000,5.948794921875,-1.6548339128494263,-1.6505578756332397,1.302364706993103
1696082266705794800,5.958794921875,-1.5528194904327393,-1.5943583250045776,0.7874053120613098
1696082266715795000,5.968794921875,-1.5534303188323975,-1.3561208248138428,0.5552765130996704
1696082266725794800,5.978794921875,-1.6126842498779297,-0.6597344875335693,0.66584312915802
1696082266735795000,5.988794921875,-1.660942554473877,0.16065755486488342,0.9566149711608887
1696082266745794800,5.998794921875,-1.6584991216659546,0.7422012686729431,1.2235630750656128
1696082266755795000,6.008794921875,-1.588249683380127,1.045190453529358,1.3487904071807861
1696082266765794800,6.018794921875,-1.4679092168807983,1.1844676733016968,1.3420709371566772
1696082266775795000,6.028794921875,-1.4049900770187378,1.19607412815094,1.2883148193359375
1696082266785795000,6.038795166015625,-1.2974777221679688,1.1575896739959717,1.0885618925094604
1696082266795795000,6.048794921875,-1.2333369255065918,1.053742527961731,0.8582656979560852
1696082266805795000,6.058795166015625,-1.205847978591919,0.9132435321807861,0.7183775305747986
1696082266815795000,6.068794921875,-1.19607412815094,0.7727445363998413,0.6866125464439392
1696082266825795000,6.078795166015625,-1.186300277709961,0.7263187766075134,0.7275404930114746
1696082266835795000,6.088794921875,-1.1527026891708374,0.769690215587616,0.7709119319915771
1696082266845795000,6.098795166015625,-1.0897835493087769,0.8460483551025391,0.7397578358650208
1696082266855795000,6.108794921875,-0.9975429177284241,0.9547823667526245,0.6120869517326355
1696082266865795000,6.118795166015625,-0.8912523984909058,1.0879509449005127,0.4337143301963806
1696082266875795000,6.128794921875,-0.7605272531509399,1.1649199724197388,0.28527405858039856
1696082266885795000,6.138795166015625,-0.5919284224510193,1.141707181930542,0.19914206862449646
1696082266895795000,6.148794921875,-0.4092797040939331,1.0873401165008545,0.11545353382825851
1696082266905795000,6.158795166015625,-0.23335053026676178,1.0329731702804565,-0.006108652334660292
1696082266915795000,6.168794921875,-0.06780604273080826,0.9615018963813782,-0.16982053220272064
1696082266925795000,6.178795166015625,0.09896016865968704,0.8704829812049866,-0.36651915311813354
1696082266935795000,6.188794921875,0.2785545587539673,0.7672467231750488,-0.5797111392021179
1696082266945795000,6.198795166015625,0.484416127204895,0.6377432942390442,-0.8057312369346619
1696082266955795000,6.208794921875,0.7183775305747986,0.485027015209198,-1.0427470207214355
1696082266965795000,6.218795166015625,0.9578366875648499,0.32498031854629517,-1.2864822149276733
1696082266975795000,6.228794921875,1.1374311447143555,0.22540926933288574,-1.5259413719177246
1696082266985795000,6.238795166015625,1.2064588069915771,0.24129177629947662,-1.7366899251937866
1696082266995795000,6.248794921875,1.1722503900527954,0.423329621553421,-1.8277088403701782
1696082267005795000,6.258795166015625,1.0311405658721924,0.817337691783905,-1.6615535020828247
1696082267015795000,6.268794921875,0.7965682744979858,1.3744467496871948,-1.3072515726089478
1696082267025795000,6.278795166015625,0.5797111392021179,1.4886785745620728,-1.1099421977996826
1696082267035795000,6.288794921875,0.43799036741256714,0.921795666217804,-1.0806206464767456
1696082267045795000,6.298795166015625,0.22602014243602753,-0.031154127791523933,-0.8674286603927612
1696082267055795000,6.308794921875,-0.25473082065582275,-0.7782423496246338,-0.21563543379306793
1696082267065795000,6.318795166015625,-0.7666358947753906,-1.2211196422576904,0.5516113042831421
1696082267075795000,6.328794921875,-0.93095862865448,-1.415374755859375,0.921184778213501
1696082267085794800,6.338794921875,-0.9156870245933533,-1.3231340646743774,0.7391469478607178
1696082267095795000,6.348794921875,-0.770301103591919,-1.1129964590072632,0.2474004179239273
1696082267105794800,6.358794921875,-0.4893030524253845,-1.0293079614639282,-0.15577064454555511
1696082267115795000,6.368794921875,-0.17959438264369965,-1.2687671184539795,-0.3536909818649292
1696082267125794800,6.378794921875,0.12278391420841217,-1.5338826179504395,-0.49296826124191284
1696082267135795000,6.388794921875,0.4190535545349121,-1.1557570695877075,-0.37568211555480957
1696082267145794800,6.398794921875,0.5845980644226074,-0.08491026610136032,0.375071257352829
1696082267155795000,6.408794921875,0.513737678527832,1.0122036933898926,1.10139000415802
1696082267165794800,6.418794921875,0.5351179838180542,1.2858713865280151,1.2932016849517822
1696082267175795000,6.428794921875,0.6725626587867737,1.3322970867156982,1.2021827697753906
1696082267185795000,6.438795166015625,0.7904596328735352,1.513113260269165,0.9230173826217651
1696082267195795000,6.448794921875,0.8759807348251343,1.3390166759490967,0.4801400899887085
1696082267205795000,6.458795166015625,0.8961393237113953,0.6017022728919983,-0.024434609338641167
1696082267215795000,6.468794921875,0.8252789378166199,-0.43799036741256714,-0.40256020426750183
1696082267225795000,6.478795166015625,0.7965682744979858,-1.4892895221710205,-0.5845980644226074
1696082267235795000,6.488794921875,0.7941248416900635,-2.3683245182037354,-0.6383541822433472
1696082267245795000,6.498795166015625,0.7800748944282532,-2.8735101222991943,-0.6866125464439392
1696082267255795000,6.508794921875,0.7916813492774963,-3.0250046253204346,-0.807563841342926
1696082267265795000,6.518795166015625,0.8827002644538879,-2.814256191253662,-1.0977247953414917
1696082267275795000,6.528794921875,1.0488556623458862,-2.3603832721710205,-1.5968017578125
1696082267285795000,6.538795166015625,1.246165156364441,-1.8124371767044067,-2.118480682373047
1696082267295795000,6.548794921875,1.4343116283416748,-1.3298536539077759,-2.451402187347412
1696082267305795000,6.558795166015625,1.5448782444000244,-1.0458012819290161,-2.560136318206787
1696082267315795000,6.568794921875,1.5387696027755737,-0.9199630618095398,-2.4416284561157227
1696082267325795000,6.578795166015625,1.406822681427002,-0.7641924023628235,-2.082439661026001
1696082267335795000,6.588794921875,1.2003501653671265,-0.4184426963329315,-1.5625933408737183
1696082267345795000,6.598795166015625,0.9950994849205017,0.06902777403593063,-1.064738154411316
1696082267355795000,6.608794921875,0.8582656979560852,0.5473352670669556,-0.7397578358650208
1696082267365795000,6.618795166015625,0.797789990901947,0.9706648588180542,-0.6090326309204102
1696082267375795000,6.628794921875,0.779464066028595,1.244943380355835,-0.6206390857696533
1696082267385795000,6.638795166015625,0.7519751191139221,1.3298536539077759,-0.6908885836601257
1696082267395795000,6.648794921875,0.7061602473258972,1.246165156364441,-0.7354817390441895
1696082267405795000,6.658795166015625,0.665232241153717,1.0641272068023682,-0.7360926270484924
1696082267415795000,6.668794921875,0.6310238242149353,0.7733554244041443,-0.6841690540313721
1696082267425795000,6.678795166015625,0.655458390712738,0.384845107793808,-0.6420193910598755
1696082267435795000,6.688794921875,0.7116580009460449,-0.12767083942890167,-0.6902777552604675
1696082267445795000,6.698795166015625,0.7550294399261475,-0.5125159621238708,-0.8093964457511902
1696082267455795000,6.708794921875,0.7648032903671265,-0.7531968355178833,-1.0286970138549805
1696082267465795000,6.718795166015625,0.7715228199958801,-0.9706648588180542,-1.3182471990585327
1696082267475795000,6.728794921875,0.8106181621551514,-1.1691961288452148,-1.5729780197143555
1696082267485795000,6.738795166015625,0.8833111524581909,-1.291369080543518,-1.6731599569320679
1696082267495795000,6.748794921875,0.959669291973114,-1.2394455671310425,-1.5485434532165527
1696082267505795000,6.758795166015625,0.988379955291748,-1.0036516189575195,-1.225395679473877
1696082267515795000,6.768794921875,0.9327912330627441,-0.6731734871864319,-0.8356636762619019
1696082267525794800,6.778794921875,0.8106181621551514,-0.41233405470848083,-0.6053674817085266
1696082267535795000,6.788794921875,0.7165449261665344,-0.2565633952617645,-0.6279694437980652
1696082267545794800,6.798794921875,0.7104362845420837,-0.182648703455925,-0.7965682744979858
1696082267555795000,6.808794921875,0.779464066028595,-0.12278391420841217,-0.9010262489318848
1696082267565794800,6.818794921875,0.8546004891395569,-0.09346238523721695,-0.8442157506942749
1696082267575795000,6.828794921875,0.8949176073074341,-0.15332718193531036,-0.6597344875335693
1696082267585794800,6.838794921875,0.9004153609275818,-0.31031954288482666,-0.4001167416572571
1696082267595795000,6.848794921875,0.8827002644538879,-0.4740314185619354,-0.10995574295520782
1696082267605794800,6.858794921875,0.8582656979560852,-0.5534439086914062,0.18020524084568024
1696082267615795000,6.868794921875,0.8491026759147644,-0.5320636034011841,0.40744712948799133
1696082267625794800,6.878794921875,0.8558222055435181,-0.44287729263305664,0.5094616413116455
1696082267635795000,6.888794921875,0.856433093547821,-0.37262779474258423,0.43127086758613586
1696082267645794800,6.898794921875,0.7965682744979858,-0.40133845806121826,0.15577064454555511
1696082267655795000,6.908794921875,0.5974262356758118,-0.4612032473087311,-0.192422553896904
1696082267665794800,6.918794921875,0.2791654169559479,-0.4703662395477295,-0.4282165467739105
1696082267675795000,6.928794921875,-0.05864306539297104,-0.4337143301963806,-0.4080579876899719
1696082267685794800,6.938794921875,-0.3591887652873993,-0.394008070230484,-0.09346238523721695
1696082267695795000,6.948794921875,-0.626747727394104,-0.20891591906547546,0.44593164324760437
1696082267705794800,6.958794921875,-0.8588765263557434,0.11056660860776901,1.0311405658721924
1696082267715795000,6.968794921875,-1.0073168277740479,0.3170390725135803,1.4941763877868652
1696082267725794800,6.978794921875,-1.0305296182632446,0.3500257730484009,1.80510675907135
1696082267735795000,6.988794921875,-1.0054842233657837,0.45692721009254456,2.046398639678955
1696082267745795000,6.998795166015625,-1.1435397863388062,0.7922922372817993,2.3041837215423584
1696082267755795000,7.008794921875,-1.4428637027740479,1.1753047704696655,2.495384454727173
1696082267765794800,7.018794921875,-1.8723019361495972,1.2327260971069336,2.559525489807129
1696082267775795000,7.028794921875,-2.2730295658111572,1.083064079284668,2.507601737976074
1696082267785794600,7.038794677734375,-2.5253169536590576,0.7782423496246338,2.4410176277160645
1696082267795794400,7.04879443359375,-2.6145031452178955,0.40683624148368835,2.4159719944000244
1696082267805794600,7.058794677734375,-2.556471109390259,0.04703662544488907,2.467284679412842
1696082267815794400,7.06879443359375,-2.3609941005706787,-0.34574973583221436,2.543031930923462
1696082267825794600,7.078794677734375,-2.072054862976074,-0.8429940342903137,2.512488842010498
1696082267835794400,7.08879443359375,-1.8362609148025513,-1.3994922637939453,2.3322834968566895
1696082267845794600,7.098794677734375,-1.6982053518295288,-1.7214182615280151,1.9425514936447144
1696082267855794400,7.10879443359375,-1.5595389604568481,-1.6969836950302124,1.4049900770187378
1696082267865794600,7.118794677734375,-1.4294246435165405,-1.5497651100158691,0.9761626720428467
1696082267875794400,7.12879443359375,-1.4367550611495972,-1.178359031677246,0.8484918475151062
1696082267885794600,7.138794677734375,-1.519832730293274,-0.5076290369033813,1.0122036933898926
1696082267895794400,7.14879443359375,-1.5790866613388062,0.10812314599752426,1.2541064023971558
1696082267905794600,7.158794677734375,-1.5937473773956299,0.5070181488990784,1.4159855842590332
1696082267915794400,7.16879443359375,-1.560760736465454,0.7428121566772461,1.4300355911254883
1696082267925794600,7.178794677734375,-1.50211763381958,0.9236282706260681,1.3365731239318848
1696082267935794400,7.18879443359375,-1.4141530990600586,0.9492846131324768,1.2095131874084473
1696082267945794600,7.198794677734375,-1.3170254230499268,0.7635815739631653,1.1007791757583618
1696082267955794400,7.20879443359375,-1.2467759847640991,0.4795292317867279,0.9950994849205017
1696082267965794600,7.218794677734375,-1.2205088138580322,0.2638937830924988,0.8973610401153564
1696082267975794400,7.22879443359375,-1.19912850856781,0.20586158335208893,0.8191702961921692
1696082267985794600,7.238794677734375,-1.1740829944610596,0.3084869384765625,0.7806857824325562
1696082267995794400,7.24879443359375,-1.129489779472351,0.5222898125648499,0.7580837607383728
1696082268005794600,7.258794677734375,-1.0512990951538086,0.7116580009460449,0.7067710757255554
1696082268015794400,7.26879443359375,-0.9346238374710083,0.837496280670166,0.6291912198066711
1696082268025794600,7.278794677734375,-0.7941248416900635,0.9572258591651917,0.5461135506629944
1696082268035794400,7.28879443359375,-0.637132465839386,1.0329731702804565,0.4386012554168701
1696082268045794600,7.298794677734375,-0.4789183437824249,1.0396926403045654,0.30054569244384766
1696082268055794400,7.30879443359375,-0.3280346393585205,0.979827880859375,0.1472185254096985
1696082268065794600,7.318794677734375,-0.17348572611808777,0.8955284357070923,-0.00366519158706069
1696082268075794400,7.32879443359375,-0.018325956538319588,0.8442157506942749,-0.17531833052635193
1696082268085794800,7.338794921875,0.13072516024112701,0.8607091307640076,-0.38179078698158264
1696082268095795000,7.348794921875,0.2822197377681732,0.8924741148948669,-0.6010913848876953
1696082268105794800,7.358794921875,0.4599815309047699,0.8338310718536377,-0.8185594081878662
1696082268115795000,7.368794921875,0.6664539575576782,0.675006091594696,-1.0250319242477417
1696082268125794800,7.378794921875,0.8784242272377014,0.5125159621238708,-1.2394455671310425
1696082268135795000,7.388794921875,1.0409144163131714,0.4453207552433014,-1.4691308736801147
1696082268145794800,7.398794921875,1.0879509449005127,0.5070181488990784,-1.6731599569320679
1696082268155795000,7.408794921875,1.0250319242477417,0.8026769161224365,-1.8020524978637695
1696082268165794800,7.418794921875,0.8460483551025391,1.2699888944625854,-1.8466455936431885
1696082268175795000,7.428794921875,0.5424483418464661,1.5888605117797852,-1.8429805040359497
1696082268185794800,7.438794921875,0.22113321721553802,1.3530665636062622,-1.7537940740585327
1696082268195795000,7.448794921875,0.0012217304902151227,0.6707300543785095,-1.3976596593856812
1696082268205794800,7.458794921875,-0.2382374405860901,-0.08124507963657379,-0.5491678714752197
1696082268215795000,7.468794921875,-0.6322455406188965,-0.2785545587539673,0.3536909818649292
1696082268225795000,7.478795166015625,-0.9193521738052368,0.03481931984424591,0.6921103000640869
1696082268235795000,7.488794921875,-0.8326093554496765,0.19792033731937408,0.6279694437980652
1696082268245795000,7.498795166015625,-0.6285803318023682,0.24862214922904968,0.3677408695220947
1696082268255795000,7.508794921875,-0.4147774875164032,0.41111230850219727,-0.024434609338641167
1696082268265795000,7.518795166015625,-0.1111774742603302,0.6414085030555725,-0.4239404797554016
1696082268275795000,7.528794921875,0.32559117674827576,0.5381723046302795,-0.618195652961731
1696082268285795000,7.538795166015625,0.6023131608963013,0.15577064454555511,-0.5467243790626526
1696082268295795000,7.548794921875,0.588263213634491,-0.303600013256073,-0.42149701714515686
1696082268305795000,7.558795166015625,0.47219884395599365,-0.6969972252845764,-0.3878994286060333
1696082268315795000,7.568794921875,0.3243694305419922,-1.0134254693984985,-0.3878994286060333
1696082268325795000,7.578795166015625,0.16004669666290283,-1.5522085428237915,-0.607200026512146
1696082268335795000,7.588794921875,0.2535090744495392,-2.3102922439575195,-0.8338310718536377
1696082268345795000,7.598795166015625,0.43737950921058655,-2.8680124282836914,-0.47769662737846375
1696082268355795000,7.608794921875,0.45814892649650574,-2.2852468490600586,0.45265114307403564
1696082268365795300,7.61879541015625,0.384845107793808,-1.3139711618423462,1.064738154411316
1696082268375795200,7.628795166015625,0.3640756905078888,-0.5668829679489136,1.1887437105178833
1696082268385795300,7.63879541015625,0.44165557622909546,-0.16065755486488342,1.0085384845733643
1696082268395795200,7.648795166015625,0.656069278717041,-0.10384709388017654,0.6041457056999207
1696082268405795300,7.65879541015625,0.9468411207199097,-0.2565633952617645,0.009162978269159794
1696082268415795200,7.668795166015625,1.1905763149261475,-0.5320636034011841,-0.5913175344467163
1696082268425795300,7.67879541015625,1.3396275043487549,-0.7825183868408203,-1.0421360731124878
1696082268435795200,7.688795166015625,1.4080443382263184,-0.8503243923187256,-1.2663236856460571
1696082268445795300,7.69879541015625,1.3432927131652832,-0.6511823534965515,-1.3555099964141846
1696082268455795200,7.708795166015625,1.2302825450897217,-0.2223549485206604,-1.3921618461608887
1696082268465795300,7.71879541015625,1.1594222784042358,0.375071257352829,-1.4117095470428467
1696082268475795200,7.728795166015625,1.1801916360855103,0.8442157506942749,-1.5632041692733765
1696082268485795300,7.73879541015625,1.416596531867981,0.513126790523529,-2.199725866317749
1696082268495795200,7.748795166015625,1.6658295392990112,-0.37079519033432007,-2.8295278549194336
1696082268505795300,7.75879541015625,1.72935950756073,-1.1343767642974854,-2.9883527755737305
1696082268515795200,7.768795166015625,1.607797384262085,-1.5125023126602173,-2.690861463546753
1696082268525795300,7.77879541015625,1.3555099964141846,-1.4104878902435303,-2.0757200717926025
1696082268535795200,7.788795166015625,1.0671815872192383,-0.8729264140129089,-1.348179578781128
1696082268545795300,7.79879541015625,0.8448266386985779,-0.1459967941045761,-0.7434229850769043
1696082268555795200,7.808795166015625,0.7324274182319641,0.4954117238521576,-0.39767327904701233
1696082268565795300,7.81879541015625,0.6786713004112244,0.8515461683273315,-0.2681698501110077
1696082268575795200,7.828795166015625,0.6524040699005127,0.8570439219474792,-0.23945917189121246
1696082268585795300,7.83879541015625,0.645684540271759,0.6041457056999207,-0.26572638750076294
1696082268595795200,7.848795166015625,0.665232241153717,0.15943582355976105,-0.3549126982688904
1696082268605795300,7.85879541015625,0.7226535677909851,-0.4239404797554016,-0.5387831330299377
1696082268615795200,7.868795166015625,0.7782423496246338,-0.8637634515762329,-0.8100073337554932
1696082268625795300,7.87879541015625,0.79840087890625,-1.141707181930542,-1.1844676733016968
1696082268635795200,7.888795166015625,0.8038986921310425,-1.299310326576233,-1.5051720142364502
1696082268645795300,7.89879541015625,0.8283332586288452,-1.2541064023971558,-1.587027907371521
1696082268655795200,7.908795166015625,0.8283332586288452,-1.047023057937622,-1.4208725690841675
1696082268665794800,7.918794921875,0.778853178024292,-0.7770205736160278,-1.0971139669418335
1696082268675795000,7.928794921875,0.6664539575576782,-0.59803706407547,-0.7611380815505981
1696082268685795300,7.93879541015625,0.5290092825889587,-0.5601634383201599,-0.5393940210342407
1696082268695795200,7.948795166015625,0.44165557622909546,-0.5338962078094482,-0.4440990388393402
1696082268705795300,7.95879541015625,0.44226643443107605,-0.4489859640598297,-0.4392121136188507
1696082268715795500,7.96879541015625,0.5161811113357544,-0.2987131178379059,-0.4990769028663635
1696082268725795300,7.97879541015625,0.6475171446800232,-0.10995574295520782,-0.5919284224510193
1696082268735795500,7.98879541015625,0.7874053120613098,0.036041051149368286,-0.6682865619659424
1696082268745795300,7.99879541015625,0.8900306820869446,0.04764748737215996,-0.6872233748435974
1696082268755795500,8.00879541015625,0.9669997096061707,-0.10567969083786011,-0.6328563690185547
1696082268765795300,8.01879541015625,1.0036516189575195,-0.3689626157283783,-0.46670106053352356
1696082268775795500,8.02879541015625,0.9822713136672974,-0.645684540271759,-0.20952677726745605
1696082268785795300,8.03879541015625,0.911410927772522,-0.8216137290000916,0.06963863968849182
1696082268795795500,8.04879541015625,0.8570439219474792,-0.7721336483955383,0.34086281061172485
1696082268805795300,8.05879541015625,0.8338310718536377,-0.49785518646240234,0.5766568183898926
1696082268815795500,8.06879541015625,0.7965682744979858,-0.1417207419872284,0.7379252314567566
1696082268825795300,8.07879541015625,0.6921103000640869,0.08674286305904388,0.7409795522689819
1696082268835795500,8.08879541015625,0.4813618063926697,0.05375614017248154,0.5412266254425049
1696082268845795300,8.09879541015625,0.17470745742321014,-0.13866640627384186,0.29504790902137756
1696082268855795500,8.10879541015625,-0.15943582355976105,-0.20341812074184418,0.2773328125476837
1696082268865795300,8.11879541015625,-0.5192354321479797,0.0024434609804302454,0.6255260109901428
1696082268875795000,8.128794921875,-0.9254608750343323,0.44104471802711487,1.2528846263885498
1696082268885794800,8.138794921875,-1.3060299158096313,0.9046914577484131,1.9407188892364502
1696082268895795000,8.148794921875,-1.5717562437057495,1.235169529914856,2.4361305236816406
1696082268905794800,8.158794921875,-1.7806721925735474,1.4703526496887207,2.741563320159912
1696082268915795000,8.168794921875,-2.0622811317443848,1.6212363243103027,2.886949062347412
1696082268925794800,8.178794921875,-2.4892759323120117,1.6939293146133423,2.8289170265197754
1696082268935795000,8.188794921875,-2.919935941696167,1.6145168542861938,2.58457088470459
1696082268945794800,8.198794921875,-3.246137857437134,1.3255776166915894,2.355496406555176
1696082268955795000,8.208794921875,-3.355482816696167,0.7110471725463867,2.29440975189209
1696082268965794800,8.218794921875,-3.2039883136749268,-0.3084869384765625,2.39520263671875
1696082268975795000,8.228794921875,-2.880840539932251,-1.4947872161865234,2.507601737976074
1696082268985794600,8.238794677734376,-2.602285861968994,-2.3915374279022217,2.414750337600708
1696082268995794400,8.24879443359375,-2.339613914489746,-2.65726375579834,1.9547687768936157
1696082269005794600,8.258794677734375,-2.0390682220458984,-2.186286687850952,1.3182471990585327
1696082269015794400,8.26879443359375,-1.7043139934539795,-1.3072515726089478,0.9156870245933533
1696082269025794600,8.278794677734375,-1.474017858505249,-0.2736676335334778,0.8912523984909058
1696082269035794400,8.28879443359375,-1.3646728992462158,0.6194173693656921,1.056796908378601
1696082269045794000,8.2987939453125,-1.2822061777114868,1.129489779472351,1.2290608882904053
1696082269055794200,8.308794189453126,-1.1924089193344116,1.4001030921936035,1.2492194175720215
1696082269065794000,8.3187939453125,-1.1178834438323975,1.4593570232391357,1.1429288387298584
1696082269075794200,8.328794189453125,-1.0714576244354248,1.2767083644866943,1.0195341110229492
1696082269085794000,8.3387939453125,-1.0641272068023682,0.8607091307640076,0.9761626720428467
1696082269095794200,8.348794189453125,-1.1093312501907349,0.4495968222618103,0.9621127843856812
1696082269105794000,8.3587939453125,-1.215621829032898,0.303600013256073,0.9279043078422546
1696082269115794200,8.368794189453125,-1.320690631866455,0.35613444447517395,0.8991936445236206
1696082269125794000,8.3787939453125,-1.3658946752548218,0.45204028487205505,0.9108000993728638
1696082269135794200,8.388794189453124,-1.341460108757019,0.5167919993400574,0.9535606503486633
1696082269145794000,8.3987939453125,-1.2479976415634155,0.6383541822433472,0.9718865752220154
1696082269155794200,8.408794189453126,-1.1050552129745483,0.8087855577468872,0.9150761365890503
1696082269165794300,8.418794189453125,-0.930347740650177,0.9810495972633362,0.7819074988365173
1696082269175794700,8.428794677734375,-0.7654141783714294,1.1911872625350952,0.59803706407547
1696082269185794600,8.438794677734375,-0.5998696684837341,1.4410310983657837,0.43249258399009705
1696082269195794700,8.448794677734375,-0.41599923372268677,1.5399912595748901,0.32620203495025635
1696082269205794600,8.458794677734375,-0.2064724564552307,1.4373658895492554,0.2638937830924988
1696082269215794700,8.468794677734374,0.015271631069481373,1.178359031677246,0.19364428520202637
1696082269225794800,8.478794921875,0.23090706765651703,0.8845328688621521,0.05925392732024193
1696082269235794700,8.488794677734376,0.4294382631778717,0.6108652353286743,-0.13927727937698364
1696082269245794800,8.498794921875,0.6224716901779175,0.3170390725135803,-0.38240164518356323
1696082269255794700,8.508794677734375,0.8185594081878662,-0.029932396486401558,-0.6334672570228577
1696082269265794800,8.518794921875,1.0256427526474,-0.34086281061172485,-0.8747590184211731
1696082269275794700,8.528794677734375,1.2504411935806274,-0.5112941861152649,-1.1148290634155273
1696082269285794800,8.538794921875,1.443474531173706,-0.4789183437824249,-1.3585642576217651
1696082269295794700,8.548794677734374,1.5289957523345947,-0.23457226157188416,-1.5949691534042358
1696082269305794800,8.558794921875,1.4563027620315552,0.26450464129447937,-1.7049249410629272
1696082269315794700,8.568794677734376,1.1789699792861938,0.9938777685165405,-1.5320500135421753
1696082269325794800,8.578794921875,0.7000515460968018,1.6957619190216064,-1.359175205230713
1696082269335794700,8.588794677734375,0.18387043476104736,2.0176877975463867,-1.5259413719177246
1696082269345795000,8.598795166015625,-0.16065755486488342,1.7348573207855225,-1.6798794269561768
1696082269355795000,8.608794921875,-0.3194825351238251,0.6255260109901428,-1.3213015794754028
1696082269365795000,8.618795166015625,-0.46181413531303406,-0.3927863538265228,-0.4709770977497101
1696082269375795000,8.628794921875,-0.6633996367454529,-0.6933320760726929,0.26572638750076294
1696082269385795000,8.638795166015624,-0.7660250067710876,-0.7586946487426758,0.607810914516449
1696082269395795000,8.648794921875,-0.7660250067710876,-0.8772025108337402,0.6249151229858398
1696082269405795000,8.658795166015626,-0.6511823534965515,-1.053742527961731,0.3433062732219696
1696082269415795000,8.668794921875,-0.4404338300228119,-1.1032226085662842,-0.12339477986097336
1696082269425795000,8.678795166015625,-0.13072516024112701,-0.8417723178863525,-0.5283984541893005
1696082269435795000,8.688794921875,0.19914206862449646,-0.6517932415008545,-0.608421802520752
1696082269445795000,8.698795166015625,0.41722095012664795,-0.6982190012931824,-0.5955936312675476
1696082269455795000,8.708794921875,0.53328537940979,-0.3988949954509735,-0.7232644557952881
1696082269465794800,8.718794921875,0.618195652961731,0.5442809462547302,-0.740368664264679
1696082269475795000,8.728794921875,0.5448917746543884,1.5045610666275024,-0.46670106053352356
1696082269485794800,8.738794921875,0.35613444447517395,1.4300355911254883,-0.1771509200334549
1696082269495795000,8.748794921875,0.21135938167572021,-0.17043140530586243,-0.14477506279945374
1696082269505794800,8.758794921875,0.1319468915462494,-2.0372354984283447,-0.09896016865968704
1696082269515795000,8.768794921875,0.11178833991289139,-2.4013113975524902,0.1661553531885147
1696082269525794800,8.778794921875,0.05009094998240471,-1.6035212278366089,0.394618958234787
1696082269535795000,8.788794921875,-0.07269296050071716,-0.7867944240570068,0.4147774875164032
1696082269545794800,8.798794921875,-0.09773843735456467,-0.5296201705932617,0.23945917189121246
1696082269555795000,8.808794921875,0.0806342139840126,-0.7617489695549011,-0.009773843921720982
1696082269565794800,8.818794921875,0.3787364661693573,-1.0409144163131714,-0.2877175211906433
1696082269575795000,8.828794921875,0.6994407176971436,-1.1129964590072632,-0.5925393104553223
1696082269585794800,8.838794921875,1.0317513942718506,-0.9474520087242126,-0.8332201838493347
1696082269595795000,8.848794921875,1.2797627449035645,-0.607200026512146,-0.9871582388877869
1696082269605794800,8.858794921875,1.3243558406829834,-0.11911872029304504,-1.19912850856781
1696082269615795000,8.868794921875,1.3469579219818115,0.32620203495025635,-1.4960089921951294
1696082269625794800,8.878794921875,1.4178181886672974,0.6774495840072632,-1.8185458183288574
1696082269635795000,8.888794921875,1.5149458646774292,0.7849618196487427,-2.101987361907959
1696082269645794800,8.898794921875,1.5894713401794434,0.6023131608963013,-2.2730295658111572
1696082269655795000,8.908794921875,1.6071864366531372,0.1875356286764145,-2.249816656112671
1696082269665794800,8.918794921875,1.5650367736816406,-0.2779437005519867,-1.9914207458496094
1696082269675795000,8.928794921875,1.4697418212890625,-0.5723807215690613,-1.5583171844482422
1696082269685794800,8.938794921875,1.3298536539077759,-0.5772676467895508,-1.0891727209091187
1696082269695795000,8.948794921875,1.1612548828125,-0.3536909818649292,-0.7263187766075134
1696082269705794800,8.958794921875,0.9871582388877869,-0.0861319974064827,-0.5314527750015259
1696082269715795000,8.968794921875,0.8570439219474792,0.10445795953273773,-0.48808133602142334
1696082269725794800,8.978794921875,0.769690215587616,0.08429940044879913,-0.5326744914054871
1696082269735795000,8.988794921875,0.7049384713172913,-0.05192354694008827,-0.5662720799446106
1696082269745794800,8.998794921875,0.6499606370925903,-0.1820378452539444,-0.5558874011039734
1696082269755795000,9.008794921875,0.6597344875335693,-0.36224308609962463,-0.578489363193512
1696082269765794800,9.018794921875,0.7250970602035522,-0.5992587804794312,-0.6988298296928406
1696082269775795000,9.028794921875,0.789237916469574,-0.8692612648010254,-0.921184778213501
1696082269785794800,9.038794921875,0.807563841342926,-1.0323622226715088,-1.1386528015136719
1696082269795795000,9.048794921875,0.8038986921310425,-1.0512990951538086,-1.2431107759475708
1696082269805794800,9.058794921875,0.779464066028595,-0.9352346658706665,-1.177748203277588
1696082269815795000,9.068794921875,0.7177666425704956,-0.685390830039978,-0.9657779335975647
1696082269825794800,9.078794921875,0.6206390857696533,-0.39217549562454224,-0.6866125464439392
1696082269835795000,9.088794921875,0.5015203952789307,-0.24617868661880493,-0.5088507533073425
1696082269845794800,9.098794921875,0.4147774875164032,-0.24373523890972137,-0.4905247986316681
1696082269855795000,9.108794921875,0.3927863538265228,-0.2632829248905182,-0.5913175344467163
1696082269865794800,9.118794921875,0.4404338300228119,-0.20341812074184418,-0.769690215587616
1696082269875795000,9.128794921875,0.5503895878791809,-0.036041051149368286,-0.978606104850769
1696082269885794800,9.138794921875,0.6933320760726929,0.1966986060142517,-1.1594222784042358
1696082269895795000,9.148794921875,0.8350527882575989,0.35063666105270386,-1.2602150440216064
1696082269905794800,9.158794921875,0.9663888216018677,0.28527405858039856,-1.2229522466659546
1696082269915795000,9.168794921875,1.0793988704681396,0.01710422709584236,-1.0103710889816284
1696082269925794800,9.178794921875,1.1313223838806152,-0.323147714138031,-0.6395758986473083
1696082269935795000,9.188794921875,1.0867292881011963,-0.6310238242149353,-0.21319197118282318
1696082269945794800,9.198794921875,0.988379955291748,-0.8228355050086975,0.12217304855585098
1696082269955795000,9.208794921875,0.9108000993728638,-0.8692612648010254,0.313373863697052
1696082269965794800,9.218794921875,0.8759807348251343,-0.7764097452163696,0.3830125033855438
1696082269975795000,9.228794921875,0.8539896011352539,-0.5662720799446106,0.37262779474258423
1696082269985794800,9.238794921875,0.7898487448692322,-0.3188716471195221,0.2883284091949463
1696082269995795000,9.248794921875,0.6230825781822205,-0.13866640627384186,0.11972958594560623
1696082270005794800,9.258794921875,0.32986724376678467,-0.14538592100143433,-0.08185594528913498
1696082270015795000,9.268794921875,-0.028099801391363144,-0.3378084897994995,-0.1820378452539444
1696082270025794800,9.278794921875,-0.3787364661693573,-0.5369505286216736,-0.03420845419168472
1696082270035795000,9.288794921875,-0.6939429044723511,-0.5265658497810364,0.3836233615875244
1696082270045794800,9.298794921875,-0.9718865752220154,-0.21441370248794556,0.9517280459403992
1696082270055795000,9.308794921875,-1.140485405921936,0.12889257073402405,1.492343783378601
1696082270065794800,9.318794921875,-1.1704177856445312,0.2021963894367218,1.8973474502563477
1696082270075795000,9.328794921875,-1.149037480354309,0.19120082259178162,2.1783454418182373
1696082270085794800,9.338794921875,-1.2315043210983276,0.4306600093841553,2.4251351356506348
1696082270095795000,9.348794921875,-1.4844025373458862,0.8509352803230286,2.5723536014556885
1696082270105794800,9.358794921875,-1.909564733505249,1.2510520219802856,2.5607471466064453
1696082270115795000,9.368794921875,-2.375044107437134,1.3903292417526245,2.4355196952819824
1696082270125794800,9.378794921875,-2.6841418743133545,1.1869112253189087,2.313957452774048
1696082270135795000,9.388794921875,-2.7879889011383057,0.8100073337554932,2.3316726684570312
1696082270145794800,9.398794921875,-2.7012460231781006,0.3500257730484009,2.4465153217315674
1696082270155795000,9.408794921875,-2.481334686279297,-0.14049901068210602,2.5271494388580322
1696082270165794800,9.418794921875,-2.233323335647583,-0.6383541822433472,2.478891134262085
1696082270175795000,9.428794921875,-1.9883663654327393,-1.1343767642974854,2.263866662979126
1696082270185794800,9.438794921875,-1.8197675943374634,-1.4489723443984985,1.8930714130401611
1696082270195795000,9.448794921875,-1.6963727474212646,-1.4159855842590332,1.4178181886672974
1696082270205794800,9.458794921875,-1.6047430038452148,-1.3573426008224487,1.1252137422561646
1696082270215795000,9.468794921875,-1.5766432285308838,-1.0769554376602173,1.0580185651779175
1696082270225794800,9.478794921875,-1.6157386302947998,-0.5442809462547302,1.0824532508850098
1696082270235795000,9.488794921875,-1.6389514207839966,0.08979719132184982,1.1087204217910767
1696082270245794800,9.498794921875,-1.6157386302947998,0.6426302194595337,1.1349875926971436
1696082270255795000,9.508794921875,-1.5540411472320557,0.9486737251281738,1.1582005023956299
1696082270265794800,9.518794921875,-1.4508049488067627,0.9615018963813782,1.1746938228607178
1696082270275795000,9.528794921875,-1.3530665636062622,0.8313875794410706,1.1362093687057495
1696082270285794800,9.538794921875,-1.2773191928863525,0.7134906053543091,1.0323622226715088
1696082270295795000,9.548794921875,-1.2553280591964722,0.6646214127540588,0.8979719281196594
1696082270305794800,9.558794921875,-1.2272282838821411,0.656069278717041,0.8417723178863525
1696082270315795000,9.568794921875,-1.2040153741836548,0.6609562039375305,0.7935139536857605
1696082270325794800,9.578794921875,-1.1850786209106445,0.6731734871864319,0.7953465580940247
1696082270335795000,9.588794921875,-1.1661417484283447,0.7287622094154358,0.7867944240570068
1696082270345794800,9.598794921875,-1.1276572942733765,0.8582656979560852,0.7324274182319641
1696082270355795000,9.608794921875,-1.0323622226715088,1.1007791757583618,0.6475171446800232
1696082270365794800,9.618794921875,-0.8943067193031311,1.3469579219818115,0.5192354321479797
1696082270375795000,9.628794921875,-0.7354817390441895,1.4862351417541504,0.3787364661693573
1696082270385794800,9.638794921875,-0.5571091175079346,1.4330898523330688,0.252287358045578
1696082270395795000,9.648794921875,-0.37262779474258423,1.2822061777114868,0.11239920556545258
1696082270405794800,9.658794921875,-0.18570303916931152,1.166752576828003,-0.04153883829712868
1696082270415795000,9.668794921875,-0.0024434609804302454,1.10139000415802,-0.2370157092809677
1696082270425794800,9.678794921875,0.17409659922122955,1.06351637840271,-0.47708576917648315
1696082270435795000,9.688794921875,0.37140607833862305,0.9779952764511108,-0.7281513810157776
1696082270445794800,9.698794921875,0.5943718552589417,0.797789990901947,-0.9859365224838257
1696082270455795000,9.708794921875,0.837496280670166,0.5772676467895508,-1.2418889999389648
1696082270465794800,9.718794921875,1.0629055500030518,0.4105014503002167,-1.5039502382278442
1696082270475795000,9.728794921875,1.2192870378494263,0.3781255781650543,-1.7623462677001953
1696082270485794800,9.738794921875,1.2663236856460571,0.5290092825889587,-1.976149082183838
1696082270495795000,9.748794921875,1.1917980909347534,0.8820894360542297,-2.0567831993103027
1696082270505794800,9.758794921875,0.9144652485847473,1.3231340646743774,-1.8582520484924316
1696082270515795000,9.768794921875,0.43676865100860596,1.4874569177627563,-1.5302174091339111
1696082270525794800,9.778794921875,-0.02321287989616394,0.9651671051979065,-1.2968668937683105
1696082270535795000,9.788794921875,-0.2626720666885376,0.009773843921720982,-0.9511171579360962
1696082270545794800,9.798794921875,-0.4141666293144226,-0.7489207983016968,-0.2816088795661926
1696082270555795000,9.808794921875,-0.6444628238677979,-0.9150761365890503,0.43249258399009705
1696082270565794800,9.818794921875,-0.8008443117141724,-0.7446447610855103,0.7379252314567566
1696082270575795000,9.828794921875,-0.7971791625022888,-0.5375614166259766,0.6524040699005127
1696082270585794800,9.838794921875,-0.6921103000640869,-0.34636059403419495,0.3188716471195221
1696082270595795000,9.848794921875,-0.4612032473087311,-0.1264491081237793,-0.1014036312699318
1696082270605794800,9.858794921875,-0.033597588539123535,-0.02687807008624077,-0.3481931984424591
1696082270615795000,9.868794921875,0.3536909818649292,-0.24007004499435425,-0.31642818450927734
1696082270625794800,9.878794921875,0.5125159621238708,-0.608421802520752,-0.3439171314239502
1696082270635795000,9.888794921875,0.5693264007568359,-0.5674937963485718,-0.4147774875164032
1696082270645794800,9.898794921875,0.5656611919403076,-0.33169981837272644,-0.2021963894367218
1696082270655795000,9.908794921875,0.4398229718208313,-0.4758640229701996,0.1264491081237793
1696082270665794800,9.918794921875,0.40622538328170776,-0.8148942589759827,0.29138273000717163
1696082270675795000,9.928794921875,0.4642575979232788,-0.8778133392333984,0.44776421785354614
1696082270685794800,9.938794921875,0.5803219676017761,-0.32559117674827576,0.7086036801338196
1696082270695795000,9.948794921875,0.749531626701355,0.24007004499435425,0.8197811841964722
1696082270705794800,9.958794921875,0.8491026759147644,0.44104471802711487,0.7757988572120667
1696082270715795000,9.968794921875,0.8961393237113953,0.24434609711170197,0.6157521605491638
1696082270725794800,9.978794921875,0.9340129494667053,-0.28649580478668213,0.2993239760398865
1696082270735795000,9.988794921875,0.9376781582832336,-0.9755517840385437,-0.12522737681865692
1696082270745794800,9.998794921875,0.9474520087242126,-1.5766432285308838,-0.5870414972305298
1696082270755795000,10.008794921875,1.0378600358963013,-1.890017032623291,-0.9535606503486633
1696082270765794800,10.018794921875,1.0751228332519531,-1.6694947481155396,-1.1539244651794434
1696082270775795000,10.028794921875,1.074512004852295,-1.0659598112106323,-1.2803735733032227
1696082270785794800,10.038794921875,1.0641272068023682,-0.1875356286764145,-1.397048830986023
1696082270795795000,10.048794921875,1.0781772136688232,0.5791002511978149,-1.6200146675109863
1696082270805794800,10.058794921875,1.2027937173843384,0.6908885836601257,-2.188730239868164
1696082270815795000,10.068794921875,1.3274102210998535,0.34574973583221436,-2.7537806034088135
1696082270825794800,10.078794921875,1.348179578781128,-0.059864792972803116,-2.981633186340332
1696082270835795000,10.088794921875,1.2424999475479126,-0.3927863538265228,-2.847242832183838
1696082270845794800,10.098794921875,1.0305296182632446,-0.5791002511978149,-2.4159719944000244
1696082270855795000,10.108794921875,0.7874053120613098,-0.5424483418464661,-1.8283196687698364
1696082270865794800,10.118794921875,0.5827654600143433,-0.3237585723400116,-1.2889256477355957
1696082270875795000,10.128794921875,0.4715879559516907,-0.09224065393209457,-0.9645562171936035
1696082270885794800,10.138794921875,0.4660901725292206,0.11301007121801376,-0.8307767510414124
1696082270895795000,10.148794921875,0.5112941861152649,0.2028072625398636,-0.8014551997184753
1696082270905794800,10.158794921875,0.5723807215690613,0.02321287989616394,-0.8210029006004333
1696082270915795000,10.168794921875,0.6401867866516113,-0.1612684279680252,-0.7709119319915771
1696082270925794800,10.178794921875,0.7079927921295166,-0.4202753007411957,-0.7287622094154358
1696082270935795000,10.188794921875,0.769079327583313,-0.7165449261665344,-0.7244861721992493
1696082270945794800,10.198794921875,0.846659243106842,-0.9358455538749695,-0.7684684991836548
1696082270955795000,10.208794921875,0.9297369122505188,-1.035416603088379,-0.8662069439888
1696082270965794800,10.218794921875,0.9816604256629944,-1.0903944969177246,-1.014647126197815
1696082270975795000,10.228794921875,0.979827880859375,-1.0714576244354248,-1.1129964590072632
1696082270985794800,10.238794921875,0.9523389339447021,-0.8833111524581909,-1.035416603088379
1696082270995795000,10.248794921875,0.9334021210670471,-0.6322455406188965,-0.807563841342926
1696082271005794800,10.258794921875,0.911410927772522,-0.513126790523529,-0.5485569834709167
1696082271015795000,10.268794921875,0.8790351152420044,-0.6133087277412415,-0.3744603991508484
1696082271025794800,10.278794921875,0.8509352803230286,-0.7672467231750488,-0.3225368559360504
1696082271035795000,10.288794921875,0.8210029006004333,-0.8002334833145142,-0.39767327904701233
1696082271045794800,10.298794921875,0.8222246170043945,-0.7849618196487427,-0.627358615398407
1696082271055795000,10.308794921875,0.8472700715065002,-0.7776314616203308,-0.9749409556388855
1696082271065794800,10.318794921875,0.8692612648010254,-0.6872233748435974,-1.2046263217926025
1696082271075795000,10.328794921875,0.8930850028991699,-0.4899139404296875,-1.1386528015136719
1696082271085794800,10.338794921875,0.9083566069602966,-0.27488934993743896,-0.8118399381637573
1696082271095795000,10.348794921875,0.8961393237113953,-0.17531833052635193,-0.3701843321323395
1696082271105794800,10.358794921875,0.8350527882575989,-0.25473082065582275,0.04642575979232788
1696082271115795000,10.368794921875,0.7299839854240417,-0.475253164768219,0.3488040566444397
1696082271125794800,10.378794921875,0.6230825781822205,-0.7165449261665344,0.5070181488990784
1696082271135795000,10.388794921875,0.5552765130996704,-0.8668177723884583,0.5216789245605469
1696082271145794800,10.398794921875,0.5192354321479797,-0.8717046976089478,0.43676865100860596
1696082271155795000,10.408794921875,0.46670106053352356,-0.7470881938934326,0.3176499307155609
1696082271165794800,10.418794921875,0.3597996234893799,-0.5558874011039734,0.19792033731937408
1696082271175795000,10.428794921875,0.19364428520202637,-0.33475416898727417,0.12217304855585098
1696082271185794800,10.438794921875,-0.0354301854968071,-0.03237585723400116,0.18020524084568024
1696082271195795000,10.448794921875,-0.33169981837272644,0.3090978264808655,0.36590829491615295
1696082271205794800,10.458794921875,-0.6328563690185547,0.5112941861152649,0.6004805564880371
1696082271215795000,10.468794921875,-0.8649851679801941,0.5803219676017761,0.8637634515762329
1696082271225794800,10.478794921875,-1.0305296182632446,0.7226535677909851,1.1771373748779297
1696082271235795000,10.488794921875,-1.2015719413757324,1.0238101482391357,1.528384804725647
1696082271245794800,10.498794921875,-1.4764612913131714,1.3530665636062622,1.863139033317566
1696082271255795000,10.508794921875,-1.9071213006973267,1.3420709371566772,2.1111502647399902
1696082271265794800,10.518794921875,-2.367713689804077,1.06657075881958,2.298074960708618
1696082271275795000,10.528794921875,-2.7537806034088135,0.7586946487426758,2.4055874347686768
1696082271285794800,10.538794921875,-2.9779679775238037,0.3799581825733185,2.426356792449951
1696082271295795000,10.548794921875,-2.9663615226745605,-0.1270599663257599,2.4300220012664795
1696082271305794800,10.558794921875,-2.7372870445251465,-0.5827654600143433,2.4520130157470703
1696082271315795000,10.568794921875,-2.420248031616211,-0.8552113175392151,2.4294111728668213
1696082271325794800,10.578794921875,-2.1233675479888916,-0.8814785480499268,2.2773056030273438
1696082271335795000,10.588794921875,-1.884519338607788,-0.7244861721992493,2.0024163722991943
1696082271345794800,10.598794921875,-1.6756033897399902,-0.4251621961593628,1.6688838005065918
1696082271355795000,10.608794921875,-1.4672982692718506,-0.1514945775270462,1.4043792486190796
1696082271365794800,10.618794921875,-1.3194689750671387,-0.24190263450145721,1.3756685256958008
1696082271375795000,10.628794921875,-1.2858713865280151,-0.3225368559360504,1.4367550611495972
1696082271385794800,10.638794921875,-1.2974777221679688,-0.2272418737411499,1.4031574726104736
1696082271395795000,10.648794921875,-1.3158037662506104,-0.029932396486401558,1.3158037662506104
1696082271405794800,10.658794921875,-1.3078625202178955,0.15943582355976105,1.2736539840698242
1696082271415795000,10.668794921875,-1.2510520219802856,0.21563543379306793,1.2528846263885498
1696082271425794800,10.678794921875,-1.2027937173843384,0.13744467496871948,1.2431107759475708
1696082271435795000,10.688794921875,-1.1942415237426758,0.1007927656173706,1.2034045457839966
1696082271445794800,10.698794921875,-1.2095131874084473,0.15882496535778046,1.1410962343215942
1696082271455795000,10.708794921875,-1.2272282838821411,0.2730567753314972,1.076344609260559
1696082271465794800,10.718794921875,-1.2205088138580322,0.3836233615875244,1.035416603088379
1696082271475795000,10.728794921875,-1.188132882118225,0.4300491213798523,0.9975429177284241
1696082271485794800,10.738794921875,-1.140485405921936,0.4593706727027893,0.9425650835037231
1696082271495795000,10.748794921875,-1.0787880420684814,0.5277875661849976,0.8497135639190674
1696082271505794800,10.758794921875,-0.9999864101409912,0.6860016584396362,0.7226535677909851
1696082271515795000,10.768794921875,-0.901637077331543,0.9279043078422546,0.5809328556060791
1696082271525794800,10.778794921875,-0.7837401032447815,1.2119566202163696,0.4398229718208313
1696082271535795000,10.788794921875,-0.637132465839386,1.3817771673202515,0.2974913716316223
1696082271545794800,10.798794921875,-0.45265114307403564,1.359786033630371,0.15943582355976105
1696082271555795000,10.808794921875,-0.24495697021484375,1.2192870378494263,0.00733038317412138
1696082271565794800,10.818794921875,-0.0354301854968071,1.056796908378601,-0.1667662113904953
1696082271575795000,10.828794921875,0.16249015927314758,0.9425650835037231,-0.3591887652873993
1696082271585794800,10.838794921875,0.35613444447517395,0.8497135639190674,-0.5693264007568359
1696082271595795000,10.848794921875,0.5668829679489136,0.7195992469787598,-0.8069530129432678
1696082271605794800,10.858794921875,0.7953465580940247,0.5668829679489136,-1.0757336616516113
1696082271615795000,10.868794921875,0.9920451641082764,0.4715879559516907,-1.389107584953308
1696082271625794800,10.878794921875,1.0965031385421753,0.4905247986316681,-1.7092009782791138
1696082271635795000,10.888794921875,1.111163854598999,0.7562511563301086,-1.9223929643630981
1696082271645794800,10.898794921875,0.9963212013244629,1.2870930433273315,-1.920560359954834
1696082271655795000,10.908794921875,0.6988298296928406,1.777006983757019,-1.768454909324646
1696082271665794800,10.918794921875,0.29016098380088806,1.703092336654663,-1.616349458694458
1696082271675795000,10.928794921875,-0.04642575979232788,0.8649851679801941,-1.398881435394287
1696082271685794800,10.938794921875,-0.31031954288482666,-0.3194825351238251,-0.7959573864936829
1696082271695795000,10.948794921875,-0.5833762884140015,-0.8454375267028809,0.06780604273080826
1696082271705794800,10.958794921875,-0.8197811841964722,-0.6108652353286743,0.6298020482063293
1696082271715795000,10.968794921875,-0.8326093554496765,-0.2828305959701538,0.6670648455619812
1696082271725794800,10.978794921875,-0.7214318513870239,-0.18997909128665924,0.3952298164367676
1696082271735795000,10.988794921875,-0.5534439086914062,-0.09773843735456467,0.02871066704392433
1696082271745794800,10.998794921875,-0.2779437005519867,0.0555887371301651,-0.2926044464111328
1696082271755795000,11.008794921875,0.10262536257505417,0.1007927656173706,-0.40133845806121826
1696082271765794800,11.018794921875,0.25961771607398987,-0.036041051149368286,-0.303600013256073
1696082271775795000,11.028794921875,0.18020524084568024,-0.15454891324043274,-0.303600013256073
1696082271785794800,11.038794921875,0.11178833991289139,-0.2076941877603531,-0.24373523890972137
1696082271795795000,11.048794921875,0.0354301854968071,-0.6249151229858398,-0.0910189226269722
1696082271805794800,11.058794921875,0.07635815441608429,-1.9181169271469116,0.005497787147760391
1696082271815795000,11.068794921875,0.25595253705978394,-2.7342329025268555,0.16859880089759827
1696082271825794800,11.078794921875,0.3988949954509735,-1.9627100229263306,0.5467243790626526
1696082271835795000,11.088794921875,0.5290092825889587,-0.770301103591919,0.7116580009460449
1696082271845794800,11.098794921875,0.6133087277412415,0.03481931984424591,0.5491678714752197
1696082271855795000,11.108794921875,0.6707300543785095,0.45753806829452515,0.30115658044815063
1696082271865794800,11.118794921875,0.7574729323387146,0.5253441333770752,0.06414084881544113
1696082271875795000,11.128794921875,0.9236282706260681,0.26450464129447937,-0.19058994948863983
1696082271885794800,11.138794921875,1.1252137422561646,-0.027488935738801956,-0.47219884395599365
1696082271895795000,11.148794921875,1.2870930433273315,-0.18387043476104736,-0.7086036801338196
1696082271905794800,11.158794921875,1.376279354095459,-0.24923302233219147,-0.9010262489318848
1696082271915795000,11.168794921875,1.3329079151153564,-0.16310101747512817,-1.1484266519546509
1696082271925794800,11.178794921875,1.1740829944610596,0.15027284622192383,-1.5045610666275024
1696082271935795000,11.188794921875,1.0793988704681396,0.5106833577156067,-1.9566013813018799
1696082271945794800,11.198794921875,1.1905763149261475,0.5210680365562439,-2.4886651039123535
1696082271955795000,11.208794921875,1.4220943450927734,0.1820378452539444,-2.954144239425659
1696082271965794800,11.218794921875,1.6157386302947998,-0.3176499307155609,-3.17161226272583
1696082271975795000,11.228794921875,1.6572774648666382,-0.7855727076530457,-3.059823989868164
1696082271985794800,11.238794921875,1.549154281616211,-0.9266825914382935,-2.5943446159362793
1696082271995795000,11.248794921875,1.3530665636062622,-0.5876523852348328,-1.8613064289093018
1696082272005794800,11.258794921875,1.1276572942733765,0.016493361443281174,-1.1325441598892212
1696082272015795000,11.268794921875,0.9279043078422546,0.6053674817085266,-0.656680166721344
1696082272025794800,11.278794921875,0.7922922372817993,1.004873275756836,-0.46242499351501465
1696082272035795000,11.288794921875,0.6743952035903931,1.1050552129745483,-0.42210787534713745
1696082272045794800,11.298794921875,0.5711590051651001,0.9480628371238708,-0.40622538328170776
1696082272055795000,11.308794921875,0.5277875661849976,0.6010913848876953,-0.35613444447517395
1696082272065794800,11.318794921875,0.5467243790626526,0.13927727937698364,-0.3384193480014801
1696082272075795000,11.328794921875,0.5607742667198181,-0.33292156457901,-0.38667771220207214
1696082272085794800,11.338794921875,0.5564982295036316,-0.7141014933586121,-0.5229006409645081
1696082272095795000,11.348794921875,0.5650503635406494,-1.091616153717041,-0.7727445363998413
1696082272105794800,11.358794921875,0.59803706407547,-1.2864822149276733,-1.0201449394226074
1696082272115795000,11.368794921875,0.6609562039375305,-1.282817006111145,-1.160033106803894
1696082272125794800,11.378794921875,0.7293730974197388,-1.1459832191467285,-1.147204875946045
1696082272135795000,11.388794921875,0.7666358947753906,-0.9279043078422546,-0.9932668805122375
1696082272145794800,11.398794921875,0.7483099102973938,-0.7226535677909851,-0.7727445363998413
1696082272155795000,11.408794921875,0.6792821288108826,-0.5913175344467163,-0.5925393104553223
1696082272165794800,11.418794921875,0.6157521605491638,-0.5393940210342407,-0.5528330206871033
1696082272175795000,11.428794921875,0.5925393104553223,-0.4996877610683441,-0.6597344875335693
1696082272185794800,11.438794921875,0.6151412725448608,-0.40256020426750183,-0.8509352803230286
1696082272195795000,11.448794921875,0.6902777552604675,-0.21441370248794556,-1.034194827079773
1696082272205794800,11.458794921875,0.797789990901947,0.00366519158706069,-1.1252137422561646
1696082272611453200,11.864453125,-1.2388347387313843,0.18020524084568024,0.8002334833145142
1696082272621453300,11.874453369140625,-1.2406673431396484,0.13072516024112701,0.7049384713172913
1696082272631453200,11.884453125,-1.2510520219802856,0.33292156457901,0.5919284224510193
1696082272641453300,11.894453369140624,-1.2345587015151978,0.7073819637298584,0.4862487316131592
1696082272651453200,11.904453125,-1.1563678979873657,1.083064079284668,0.40133845806121826
1696082272661453300,11.914453369140626,-1.0213667154312134,1.2858713865280151,0.33719760179519653
1696082272671453200,11.924453125,-0.8484918475151062,1.310916781425476,0.27122417092323303
1696082272681453300,11.934453369140625,-0.665232241153717,1.2980886697769165,0.1918116807937622
1696082272691453200,11.944453125,-0.494189977645874,1.3506230115890503,0.08735372871160507
1696082272701453300,11.954453369140625,-0.3341432809829712,1.4471397399902344,-0.021991148591041565
1696082272711453400,11.964453369140625,-0.1667662113904953,1.5259413719177246,-0.1472185254096985
1696082272721453300,11.974453369140624,-0.01160643994808197,1.5357152223587036,-0.3066543638706207
1696082272731453400,11.984453369140626,0.14355333149433136,1.4660766124725342,-0.4899139404296875
1696082272741453300,11.994453369140626,0.3029891550540924,1.3548991680145264,-0.6957755088806152
1696082272751453400,12.004453369140625,0.48258355259895325,1.1844676733016968,-0.9230173826217651
1696082272761453300,12.014453369140625,0.6829473376274109,0.9456194043159485,-1.166752576828003
1696082272771453400,12.024453369140625,0.8698720932006836,0.7171558141708374,-1.386053204536438
1696082272781453300,12.034453369140625,0.9828822016716003,0.5858197808265686,-1.529606580734253
1696082272791453400,12.044453369140625,0.978606104850769,0.646906316280365,-1.5680910348892212
1696082272801453300,12.054453369140624,0.8814785480499268,0.9083566069602966,-1.4746286869049072
1696082272811453400,12.064453369140624,0.6963863968849182,1.2082914113998413,-1.3634512424468994
1696082272821453300,12.074453369140626,0.45814892649650574,1.1612548828125,-1.4019356966018677
1696082272831453400,12.084453369140626,0.24373523890972137,0.7000515460968018,-1.531439185142517
1696082272841453300,12.094453369140625,0.11239920556545258,-0.19486601650714874,-1.5351043939590454
1696082272851453400,12.104453369140625,0.04214970022439957,-1.218676209449768,-1.254717230796814
1696082272861453300,12.114453369140625,-0.06963863968849182,-1.814880609512329,-0.6933320760726929
1696082272871453400,12.124453369140625,-0.31642818450927734,-1.7238616943359375,-0.004886921960860491
1696082272881453300,12.134453369140624,-0.5290092825889587,-1.1753047704696655,0.4031710624694824
1696082272891453400,12.144453369140624,-0.5766568183898926,-0.5424483418464661,0.37140607833862305
1696082272901453300,12.154453369140626,-0.4795292317867279,-0.06780604273080826,0.048258353024721146
1696082272911453400,12.164453369140626,-0.2321287989616394,0.1508837193250656,-0.25534167885780334
1696082272921453300,12.174453369140625,0.03237585723400116,0.0861319974064827,-0.3335324227809906
1696082272931453400,12.184453369140625,0.14477506279945374,-0.05253441259264946,-0.37140607833862305
1696082272941453300,12.194453369140625,0.22418753802776337,-0.048258353024721146,-0.4092797040939331
1696082272951453400,12.204453369140625,0.34025195240974426,-0.1918116807937622,-0.14477506279945374
1696082272961453300,12.214453369140625,0.2968805134296417,-0.740368664264679,0.16371189057826996
1696082272971453400,12.224453369140624,0.1313360333442688,-1.6982053518295288,0.3335324227809906
1696082272981453300,12.234453369140626,0.04459316283464432,-2.3548855781555176,0.6035348773002625
1696082272991453400,12.244453369140626,0.08246681094169617,-1.7458528280258179,0.9523389339447021
1696082273001453300,12.254453369140625,0.2223549485206604,-0.5546656250953674,1.158811330795288
1696082273011453400,12.264453369140625,0.3891211748123169,0.4080579876899719,1.081842303276062
1696082273021453300,12.274453369140625,0.6041457056999207,0.8234463334083557,0.788627028465271
1696082273031453400,12.284453369140625,0.8497135639190674,0.7819074988365173,0.4043927788734436
1696082273041453300,12.294453369140625,1.0476338863372803,0.49724429845809937,-0.04642575979232788
1696082273051453400,12.304453369140624,1.1172724962234497,0.03176499158143997,-0.5155702829360962
1696082273061453300,12.314453369140624,1.1166616678237915,-0.5253441333770752,-0.8692612648010254
1696082273071453400,12.324453369140626,1.1594222784042358,-0.9388998746871948,-1.0054842233657837
1696082273081453300,12.334453369140626,1.1368201971054077,-1.043968677520752,-0.9712757468223572
1696082273091453400,12.344453369140625,1.0225883722305298,-0.8802568316459656,-0.9334021210670471
1696082273101453300,12.354453369140625,0.9230173826217651,-0.5198463201522827,-0.9816604256629944
1696082273111453400,12.364453369140625,0.9046914577484131,-0.0861319974064827,-1.1258246898651123
1696082273121453300,12.374453369140625,1.1814134120941162,-0.39156460762023926,-1.9297232627868652
1696082273131453400,12.384453369140624,1.5851953029632568,-1.2760975360870361,-2.9358184337615967
1696082273141453300,12.394453369140624,1.7415767908096313,-1.9785925149917603,-3.3347134590148926
1696082273151453400,12.404453369140626,1.6401731967926025,-2.359161615371704,-3.0946433544158936
1696082273161453300,12.414453369140626,1.3573426008224487,-2.2351558208465576,-2.3542747497558594
1696082273171453400,12.424453369140625,0.9871582388877869,-1.5748106241226196,-1.3420709371566772
1696082273181453300,12.434453369140625,0.6493497490882874,-0.6401867866516113,-0.4612032473087311
1696082273191453400,12.444453369140625,0.4648684561252594,0.14905111491680145,-0.010995574295520782
1696082273201453300,12.454453369140625,0.38240164518356323,0.6621779203414917,0.07269296050071716
1696082273211453400,12.464453369140625,0.34636059403419495,0.959669291973114,0.001832595793530345
1696082273221453300,12.474453369140624,0.3445279896259308,1.0891727209091187,-0.08185594528913498
1696082273231453400,12.484453369140626,0.3878994286060333,1.0555751323699951,-0.1569923609495163
1696082273241453300,12.494453369140626,0.4758640229701996,0.9053022861480713,-0.2736676335334778
1696082273251453400,12.504453369140625,0.5674937963485718,0.6023131608963013,-0.5057964324951172
1696082273261453300,12.514453369140625,0.6328563690185547,0.2272418737411499,-0.8093964457511902
1696082273271453400,12.524453369140625,0.7098253965377808,-0.1716531366109848,-1.0702359676361084
1696082273281453300,12.534453369140625,0.797789990901947,-0.5155702829360962,-1.1936306953430176
1696082273291453400,12.544453369140625,0.8576548099517822,-0.7000515460968018,-1.156978726387024
1696082273301453300,12.554453369140624,0.8399397134780884,-0.7379252314567566,-1.0128145217895508
1696082273311453400,12.564453369140624,0.7605272531509399,-0.7195992469787598,-0.8326093554496765
1696082273321453300,12.574453369140626,0.6627888083457947,-0.7134906053543091,-0.685390830039978
1696082273331453400,12.584453369140626,0.5699372887611389,-0.646295428276062,-0.616973876953125
1696082273341453300,12.594453369140625,0.4911356568336487,-0.4813618063926697,-0.6145304441452026
1696082273351453400,12.604453369140625,0.42638394236564636,-0.27000242471694946,-0.6395758986473083
1696082273361453300,12.614453369140625,0.39156460762023926,-0.1111774742603302,-0.66584312915802
1696082273371453400,12.624453369140625,0.403781920671463,-0.05375614017248154,-0.6792821288108826
1696082273381453300,12.634453369140624,0.46303585171699524,-0.08918632566928864,-0.6939429044723511
1696082273391453400,12.644453369140624,0.5601634383201599,-0.18325957655906677,-0.6872233748435974
1696082273401453300,12.654453369140626,0.6688974499702454,-0.3170390725135803,-0.6377432942390442
1696082273411453400,12.664453369140626,0.7757988572120667,-0.4404338300228119,-0.513126790523529
1696082273421453300,12.674453369140625,0.8527678847312927,-0.5009095072746277,-0.3384193480014801
1696082273431453400,12.684453369140625,0.8863654732704163,-0.5229006409645081,-0.17043140530586243
1696082273441453300,12.694453369140625,0.8820894360542297,-0.5180137157440186,-0.05619960278272629
1696082273451453400,12.704453369140625,0.8655960559844971,-0.45142942667007446,0.01710422709584236
1696082273461453300,12.714453369140625,0.8600982427597046,-0.2840523421764374,0.08185594528913498
1696082273471453400,12.724453369140624,0.8460483551025391,-0.00855211354792118,0.16371189057826996
1696082273481453300,12.734453369140626,0.8014551997184753,0.28649580478668213,0.22907446324825287
1696082273491453400,12.744453369140626,0.7012733221054077,0.40683624148368835,0.18997909128665924
1696082273501453300,12.754453369140625,0.5204572081565857,0.25961771607398987,0.00855211354792118
1696082273511453400,12.764453369140625,0.2779437005519867,-0.03787364438176155,-0.2382374405860901
1696082273521453300,12.774453369140625,0.05497787147760391,-0.33719760179519653,-0.40072759985923767
1696082273531453400,12.784453369140625,-0.11972958594560623,-0.5632177591323853,-0.3836233615875244
1696082273541453300,12.794453369140625,-0.28038713335990906,-0.645684540271759,-0.2064724564552307
1696082273551453400,12.804453369140624,-0.43676865100860596,-0.5253441333770752,0.03420845419168472
1696082273561453300,12.814453369140624,-0.5479460954666138,-0.31093040108680725,0.23029619455337524
1696082273571453400,12.824453369140626,-0.6090326309204102,-0.06108652427792549,0.3597996234893799
1696082273581453300,12.834453369140626,-0.6719517707824707,0.22418753802776337,0.46181413531303406
1696082273591453400,12.844453369140625,-0.7464773058891296,0.49846604466438293,0.5632177591323853
1696082273601453300,12.854453369140625,-0.7476990818977356,0.7489207983016968,0.6939429044723511
1696082273611453400,12.864453369140625,-0.7519751191139221,0.9132435321807861,0.9541715383529663
1696082273621453300,12.874453369140625,-0.8900306820869446,0.8955284357070923,1.3506230115890503
1696082273631453400,12.884453369140624,-1.1398745775222778,0.5833762884140015,1.817324161529541
1696082273641453300,12.894453369140624,-1.4220943450927734,0.09529497474431992,2.2424862384796143
1696082273651453400,12.904453369140626,-1.69148588180542,-0.39156460762023926,2.5112669467926025
1696082273661453300,12.914453369140626,-1.891238808631897,-0.7238753437995911,2.5900685787200928
1696082273671453400,12.924453369140625,-1.9639317989349365,-0.9004153609275818,2.5607471466064453
1696082273681453300,12.934453369140625,-1.9150625467300415,-0.8393288254737854,2.4978280067443848
1696082273691453400,12.944453369140625,-1.8124371767044067,-0.6389650702476501,2.331061840057373
1696082273701453300,12.954453369140625,-1.6939293146133423,-0.3744603991508484,2.0341813564300537
1696082273711453400,12.964453369140625,-1.5601497888565063,-0.15760323405265808,1.72935950756073
1696082273721453300,12.974453369140624,-1.4257594347000122,-0.07880161702632904,1.539380431175232
1696082273731453400,12.984453369140626,-1.310916781425476,-0.12400564551353455,1.4721852540969849
1696082273741453300,12.994453369140626,-1.246165156364441,-0.18020524084568024,1.4398094415664673
1696082273751453400,13.004453369140625,-1.2553280591964722,-0.17104226350784302,1.387274980545044
1696082273761453300,13.014453369140625,-1.2870930433273315,-0.1966986060142517,1.3439035415649414
1696082273771453400,13.024453369140625,-1.29381263256073,-0.38117989897727966,1.3445143699645996
1696082273781453300,13.034453369140625,-1.3115277290344238,-0.4489859640598297,1.2736539840698242
1696082273791453400,13.044453369140625,-1.348179578781128,-0.23884831368923187,1.0836749076843262
1696082273801453300,13.054453369140624,-1.376279354095459,0.15821409225463867,0.8594874143600464
1696082273811453400,13.064453369140624,-1.3933836221694946,0.46853363513946533,0.7189884185791016
1696082273821453300,13.074453369140626,-1.3909401893615723,0.5522221922874451,0.7086036801338196
1696082273831453400,13.084453369140626,-1.3897184133529663,0.5265658497810364,0.7348709106445312
1696082273841453300,13.094453369140625,-1.3994922637939453,0.4184426963329315,0.788627028465271
1696082273851453400,13.104453369140625,-1.4288138151168823,0.34636059403419495,0.7867944240570068
1696082273861453300,13.114453369140625,-1.4660766124725342,0.42088615894317627,0.7214318513870239
1696082273871453400,13.124453369140625,-1.4758504629135132,0.627358615398407,0.6224716901779175
1696082273881453300,13.134453369140624,-1.4294246435165405,0.8093964457511902,0.5283984541893005
1696082273891453400,13.144453369140624,-1.3396275043487549,0.9272934198379517,0.46670106053352356
1696082273901453300,13.154453369140626,-1.2376129627227783,1.016479730606079,0.42577308416366577
1696082273911453400,13.164453369140626,-1.1062769889831543,1.0873401165008545,0.4105014503002167
1696082273921453300,13.174453369140625,-0.950506329536438,1.1380419731140137,0.40256020426750183
1696082273931453400,13.184453369140625,-0.788016140460968,1.1722503900527954,0.3677408695220947
1696082273941453300,13.194453369140625,-0.6352998614311218,1.151481032371521,0.2987131178379059
1696082273951453400,13.204453369140625,-0.4996877610683441,1.0396926403045654,0.19058994948863983
1696082273961453300,13.214453369140625,-0.3744603991508484,0.8955284357070923,0.06536258012056351
1696082273971453400,13.224453369140624,-0.242513507604599,0.7513642311096191,-0.07513642311096191
1696082273981453300,13.234453369140626,-0.10018189996480942,0.6114761233329773,-0.2217440903186798
1696082273991453400,13.244453369140626,0.051312681287527084,0.5180137157440186,-0.3805690407752991
1696082274001453300,13.254453369140625,0.22052235901355743,0.4801400899887085,-0.5357288122177124
