time,seconds_elapsed,z,y,x
1696083172545551400,0.04255126953125,-0.026572637259960175,0.1074359267950058,0.10659598559141159
1696083172557551400,0.05455126953125,-0.026572637259960175,0.1074359267950058,0.10659598559141159
1696083172567551500,0.064551513671875,-0.026572637259960175,0.1074359267950058,0.10659598559141159
1696083172577551400,0.07455126953125,-0.026572637259960175,0.1074359267950058,0.10659598559141159
1696083172587551500,0.084551513671875,0.01863138936460018,-0.055665094405412674,-0.15424346923828125
1696083172597551400,0.09455126953125,0.011301007121801376,0.0029779679607599974,-0.1212567538022995
1696083172607551500,0.104551513671875,0.009468411095440388,0.0518471859395504,-0.07727445662021637
1696083172617551600,0.114551513671875,0.005192354787141085,0.06406449526548386,-0.029626963660120964
1696083172627551500,0.124551513671875,0.001527163083665073,0.053068917244672775,0.0064140851609408855
1696083172637551600,0.134551513671875,-0.002138028386980295,0.04268420860171318,0.02474004216492176
1696083172647551500,0.144551513671875,-0.003359758760780096,0.018249599263072014,0.02229658141732216
1696083172657551600,0.154551513671875,-0.0003054326225537807,-0.012293662875890732,-0.001527163083665073
1696083172667551500,0.164551513671875,0.002138028386980295,-0.03000875562429428,-0.04184427112340927
1696083172677551600,0.174551513671875,0.007635815534740686,-0.02695442922413349,-0.08765916526317596
1696083172687551500,0.184551513671875,0.01191187184303999,-0.014737123623490334,-0.12431107461452484
1696083172697551600,0.194551513671875,0.013133603148162365,-0.025121834129095078,-0.13408492505550385
1696083172707551500,0.204551513671875,0.01924225501716137,-0.046502117067575455,-0.12003502249717712
1696083172717551600,0.214551513671875,0.03390302136540413,-0.09109527617692947,-0.09682214260101318
1696083172727551500,0.224551513671875,0.04795292019844055,-0.16378824412822723,-0.06627888232469559
1696083172737551600,0.234551513671875,0.05161811411380768,-0.17234036326408386,-0.028405234217643738
1696083172747551500,0.244551513671875,0.029626963660120964,-0.0947604700922966,0.013133603148162365
1696083172757551600,0.254551513671875,-0.0027488935738801956,-0.0593302883207798,0.040622539818286896
1696083172767551500,0.264551513671875,-0.046731192618608475,0.012140946462750435,0.06872233748435974
1696083172777551600,0.274551513671875,-0.0907134860754013,0.08422304689884186,0.10903944820165634
1696083172787551500,0.284551513671875,-0.12858712673187256,0.09399688988924026,0.1316414624452591
1696083172797551600,0.294551513671875,-0.13958270847797394,0.0365755558013916,0.14324790239334106
1696083172807551500,0.304551513671875,-0.11820242553949356,-0.06910412758588791,0.13530665636062622
1696083172817551600,0.314551513671875,-0.03573561832308769,-0.3281109929084778,0.0003054326225537807
1696083172827551500,0.324551513671875,0.07788532227277756,-0.7770969271659851,-0.0858265683054924
1696083172837551600,0.334551513671875,0.061391957104206085,-1.090470790863037,-0.08949175477027893
1696083172847551500,0.344551513671875,-0.005192354787141085,-1.3702471256256104,-0.12247848510742188
1696083172857551600,0.354551513671875,-0.0913243517279625,-1.6860644817352295,-0.09804387390613556
1696083172867551700,0.3645517578125,-0.1609629988670349,-1.935908317565918,-0.05955936014652252
1696083172877551600,0.374551513671875,-0.17928895354270935,-2.368400812149048,-0.03695734590291977
1696083172887551700,0.3845517578125,-0.1817324161529541,-3.1680235862731934,-0.041233405470848083
1696083172897551600,0.394551513671875,-0.044287730008363724,-3.904726982116699,-0.018020525574684143
1696083172907551700,0.4045517578125,0.08277224004268646,-4.362265110015869,-0.08765916526317596
1696083172917551600,0.414551513671875,0.16401731967926025,-4.956026077270508,-0.14508049190044403
1696083172927551500,0.424551513671875,0.2587014436721802,-5.713499069213867,-0.17806722223758698
1696083172937551600,0.434551513671875,0.39614611864089966,-6.259612560272217,-0.2727513313293457
1696083172947551500,0.444551513671875,0.5018258094787598,-6.624299049377441,-0.40591996908187866
1696083172957551600,0.454551513671875,0.5189300179481506,-7.071452617645264,-0.5018258094787598
1696083172967551500,0.464551513671875,0.4156937897205353,-7.519216537475586,-0.5726861953735352
1696083172977551600,0.474551513671875,0.2269364446401596,-7.865577220916748,-0.6527095437049866
1696083172987551500,0.484551513671875,0.06383541971445084,-7.954152584075928,-0.8384125232696533
1696083172997551600,0.494551513671875,0.0009162978967651725,-8.036619186401367,-1.0937541723251343
1696083173007551500,0.504551513671875,0.03451388701796532,-8.208883285522461,-1.3607022762298584
1696083173017551600,0.514551513671875,0.1823432743549347,-8.269359588623047,-1.5940529108047485
1696083173027551500,0.524551513671875,0.28069257736206055,-7.262653350830078,-1.4938709735870361
1696083173037551600,0.534551513671875,0.44196099042892456,-5.102022647857666,-1.3081679344177246
1696083173047551500,0.544551513671875,0.347276896238327,-2.951777219772339,-0.7852672934532166
1696083173057551600,0.554551513671875,0.45234572887420654,-2.37389874458313,-0.6453791260719299
1696083173067551500,0.564551513671875,0.7486153841018677,-2.827160596847534,-0.9520334601402283
1696083173077551900,0.5745517578125,1.0595457553863525,-2.9194014072418213,-1.2996158599853516
1696083173087552000,0.584552001953125,1.3271046876907349,-2.133828639984131,-1.490816593170166
1696083173097552000,0.5945517578125,1.7412713766098022,-0.9432523250579834,-1.7724255323410034
1696083173107552000,0.604552001953125,2.2256875038146973,-0.3672063648700714,-2.330756425857544
1696083173117551900,0.6145517578125,2.4950790405273438,-0.46555566787719727,-3.079066276550293
1696083173127551500,0.624551513671875,2.545780897140503,-0.5052618980407715,-3.6447274684906006
1696083173137551600,0.634551513671875,2.487748622894287,-0.23892466723918915,-3.8457021713256836
1696083173147551500,0.644551513671875,2.330756425857544,0.3102431893348694,-3.6282341480255127
1696083173157551600,0.654551513671875,2.096184015274048,1.0402271747589111,-3.082120656967163
1696083173167551500,0.664551513671875,1.9330830574035645,1.7207310199737549,-2.434603452682495
1696083173177551600,0.674551513671875,1.917811393737793,2.103132724761963,-1.9184223413467407
1696083173187551500,0.684551513671875,2.157270669937134,2.045100450515747,-1.614822268486023
1696083173197551600,0.694551513671875,2.7125470638275146,1.626046895980835,-1.4847079515457153
1696083173207551500,0.704551513671875,3.3258557319641113,1.087263822555542,-1.3771957159042358
1696083173217551600,0.714551513671875,3.7901134490966797,0.4360814392566681,-1.1310169696807861
1696083173227551500,0.724551513671875,4.145026206970215,-0.144851416349411,-0.9086620807647705
1696083173237551600,0.734551513671875,4.394258975982666,-0.47105345129966736,-0.8542950749397278
1696083173247551500,0.744551513671875,4.573242664337158,-0.4783838391304016,-0.9862419366836548
1696083173257551600,0.754551513671875,4.642881393432617,-0.5083162188529968,-1.20859694480896
1696083173267551500,0.764551513671875,4.573853492736816,-0.7777078151702881,-1.3820825815200806
1696083173277551600,0.774551513671875,4.353331089019775,-1.2401328086853027,-1.454164743423462
1696083173287551500,0.784551513671875,3.9452731609344482,-1.6885079145431519,-1.4388930797576904
1696083173297551600,0.794551513671875,3.6716055870056152,-1.8222874402999878,-1.4162911176681519
1696083173307551500,0.804551513671875,3.0839531421661377,-2.0348684787750244,-1.4376713037490845
1696083173317551600,0.814551513671875,2.545780897140503,-2.267608165740967,-1.5341880321502686
1696083173327551500,0.824551513671875,2.062586545944214,-2.5437192916870117,-1.6325373649597168
1696083173337551600,0.834551513671875,1.623374342918396,-2.9927051067352295,-1.633148193359375
1696083173347551500,0.844551513671875,1.2220358848571777,-3.2853095531463623,-1.5696182250976562
1696083173357551600,0.854551513671875,0.8988882303237915,-3.923663854598999,-1.4107933044433594
1696083173367551500,0.864551513671875,0.6441574096679688,-4.5925612449646,-1.3093897104263306
1696083173377551000,0.874551025390625,0.2629774808883667,-5.175937652587891,-1.2990049123764038
1696083173387551000,0.884551025390625,-0.16523905098438263,-5.496641635894775,-1.3649784326553345
1696083173397551000,0.894551025390625,-0.470671683549881,-5.9486823081970215,-1.47371244430542
1696083173407551000,0.904551025390625,-0.825584352016449,-5.81062650680542,-1.6679675579071045
1696083173417551000,0.914551025390625,-1.2983940839767456,-5.370803356170654,-1.6759088039398193
1696083173427551000,0.924551025390625,-1.7736471891403198,-4.7599382400512695,-1.6746870279312134
1696083173437550800,0.93455078125,-2.18048357963562,-4.19183349609375,-1.6655241250991821
1696083173447551000,0.944551025390625,-2.4358251094818115,-3.655493974685669,-1.672243595123291
1696083173457551000,0.954551025390625,-2.529287576675415,-3.024470090866089,-1.7186694145202637
1696083173467551000,0.964551025390625,-2.557387351989746,-2.360459566116333,-1.7052303552627563
1696083173477550800,0.97455078125,-2.498744249343872,-1.7019469738006592,-1.5708400011062622
1696083173487550700,0.98455078125,-2.2879958152770996,-1.1521681547164917,-1.3246612548828125
1696083173497550800,0.99455078125,-1.9544633626937866,-0.7923685908317566,-1.027169942855835
1696083173507550700,1.00455078125,-1.4957035779953003,-0.5718462467193604,-0.7388415336608887
1696083173517550800,1.01455078125,-0.9740246534347534,-0.4692208766937256,-0.47189339995384216
1696083173527550200,1.02455029296875,-0.3741549551486969,-0.5755113959312439,-0.27641651034355164
1696083173537550300,1.03455029296875,0.2422080636024475,-0.35559993982315063,-0.12919799983501434
1696083173547550200,1.04455029296875,0.732122004032135,-0.08804095536470413,0.07422012835741043
1696083173557550300,1.05455029296875,1.1560624837875366,0.20517437160015106,0.2428189367055893
1696083173567550200,1.06455029296875,1.5176947116851807,0.5576435923576355,0.3747658133506775
1696083173577550300,1.07455029296875,1.7705929279327393,0.8936194777488708,0.47250425815582275
1696083173587550500,1.084550537109375,1.9367482662200928,1.2051607370376587,0.5054910182952881
1696083173597550300,1.09455029296875,2.035708427429199,1.4776066541671753,0.5109887719154358
1696083173607550500,1.104550537109375,2.0748038291931152,1.753106951713562,0.44745880365371704
1696083173617550300,1.11455029296875,2.06075382232666,1.9553033113479614,0.26969701051712036
1696083173627550500,1.124550537109375,1.927585244178772,1.998674750328064,-0.08032877743244171
1696083173637550300,1.13455029296875,1.6759088039398193,1.9363664388656616,-0.5568036437034607
1696083173647550500,1.144550537109375,1.377806544303894,1.7622698545455933,-1.061989188194275
1696083173657550300,1.15455029296875,1.0656543970108032,1.5405257940292358,-1.4877623319625854
1696083173667550500,1.164550537109375,0.816421389579773,1.2485321760177612,-1.8133535385131836
1696083173677550600,1.174550537109375,0.6349944472312927,1.0047969818115234,-2.1090123653411865
1696083173687550200,1.18455029296875,0.4737260043621063,0.8930086493492126,-2.467590093612671
1696083173697550300,1.19455029296875,0.308792382478714,0.8814021944999695,-2.8127291202545166
1696083173707550200,1.20455029296875,0.22571471333503723,0.8533023595809937,-3.0137035846710205
1696083173717550300,1.21455029296875,-0.18845193088054657,0.4806745946407318,-2.532341957092285
1696083173727550700,1.22455078125,-1.1548407077789307,0.40248385071754456,-1.5848898887634277
1696083173737550800,1.23455078125,-1.9532415866851807,0.2680934965610504,-1.1133018732070923
1696083173747550700,1.24455078125,-2.166433572769165,-0.0037415495608001947,-1.2623530626296997
1696083173757550600,1.254550537109375,-1.9898935556411743,-0.3177262842655182,-1.4095715284347534
1696083173767550700,1.26455078125,-1.8640552759170532,-0.5077053904533386,-1.2623530626296997
1696083173777551000,1.274551025390625,-1.9343048334121704,-0.2908482253551483,-1.0803152322769165
1696083173787550500,1.284550537109375,-2.0112738609313965,0.3352886736392975,-1.1151344776153564
1696083173797550600,1.294550537109375,-1.882992148399353,0.9095019698143005,-1.2079859972000122
1696083173807550500,1.304550537109375,-1.5555683374404907,1.3236685991287231,-1.2281445264816284
1696083173817550600,1.314550537109375,-1.3063353300094604,1.4256831407546997,-1.1627819538116455
1696083173827551000,1.324551025390625,-1.1853840351104736,1.4122440814971924,-1.0705413818359375
1696083173837551000,1.334551025390625,-1.0503827333450317,1.1520154476165771,-0.9233227968215942
1696083173847551000,1.344551025390625,-0.7644978761672974,0.7042512893676758,-0.683863639831543
1696083173857551000,1.354551025390625,-0.22937989234924316,-0.21204659342765808,-0.3026837408542633
1696083173867551000,1.364551025390625,0.3423899710178375,-0.700127899646759,-0.09987647086381912
1696083173877551000,1.374551025390625,1.700343370437622,-0.4240168333053589,0.4297437071800232
1696083173887550700,1.38455078125,3.307529926300049,-0.5070945024490356,0.8536841869354248
1696083173897550600,1.394550537109375,3.442531108856201,0.8050440549850464,1.3704761266708374
1696083173907550700,1.40455078125,1.9642372131347656,2.2808945178985596,0.9648616313934326
1696083173917550600,1.414550537109375,0.17012597620487213,3.308980703353882,-0.21594086289405823
1696083173927550500,1.424550537109375,-0.5916230082511902,2.8722119331359863,-1.7632625102996826
1696083173937550000,1.434550048828125,-0.5042692422866821,1.6865226030349731,-2.6703975200653076
1696083173948961000,1.4459609375,-0.3191770911216736,0.743346631526947,-2.819448471069336
1696083173958961000,1.4559609375,-0.01924225501716137,0.5387067794799805,-2.7846291065216064
1696083173968960800,1.465960693359375,0.197004035115242,1.1923326253890991,-2.379014730453491
1696083173978961000,1.4759609375,0.14324790239334106,1.8923841714859009,-1.8017470836639404
1696083173988961300,1.485961181640625,0.10231992602348328,2.3725242614746094,-1.3869695663452148
1696083173998961200,1.495961181640625,0.1316414624452591,2.405510902404785,-1.0002918243408203
1696083174008961300,1.505961181640625,0.12370020896196365,1.9394208192825317,-0.48166725039482117
1696083174018961200,1.515961181640625,0.12186761945486069,1.2961796522140503,0.05955936014652252
1696083174028961300,1.525961181640625,0.16584990918636322,0.8722392320632935,0.5928447246551514
1696083174038961400,1.53596142578125,0.24892759323120117,0.9455430507659912,0.9892962574958801
1696083174048961300,1.545961181640625,0.4547891616821289,2.0628156661987305,1.1279627084732056
1696083174058961400,1.55596142578125,0.8103127479553223,3.9363393783569336,0.711963415145874
1696083174068961300,1.565961181640625,1.0668761730194092,4.993747234344482,0.1267545372247696
1696083174078961400,1.57596142578125,1.4511103630065918,4.480620384216309,-0.4242459237575531
1696083174088961800,1.5859619140625,1.9495763778686523,2.8019626140594482,-0.8170322775840759
1696083174098961700,1.595961669921875,2.3124303817749023,0.34200817346572876,-1.0039570331573486
1696083174108961800,1.6059619140625,3.047912120819092,-1.8106809854507446,-1.0155634880065918
1696083174118961700,1.615961669921875,3.4663548469543457,-3.2969160079956055,-0.835969090461731
1696083174128961800,1.6259619140625,3.617849349975586,-4.146629810333252,-0.48227810859680176
1696083174138961700,1.635961669921875,3.958101272583008,-4.269413471221924,-0.03695734590291977
1696083174148961500,1.64596142578125,4.43396520614624,-3.7575085163116455,0.32589662075042725
1696083174158961400,1.65596142578125,4.7998738288879395,-2.9450576305389404,0.5433646440505981
1696083174168961500,1.66596142578125,5.207320690155029,-1.5235742330551147,0.41752639412879944
1696083174178961400,1.67596142578125,5.457164764404297,-0.7569383978843689,0.44135013222694397
1696083174188962800,1.685962890625,5.444336414337158,-0.14362968504428864,0.531758189201355
1696083174198963000,1.695962890625,5.291009426116943,0.6077345609664917,0.5592471361160278
1696083174208962800,1.705962890625,5.240918159484863,1.6871334314346313,0.5378668308258057
1696083174218963000,1.715962890625,5.401576042175293,3.147712230682373,0.26908615231513977
1696083174228963000,1.725963134765625,5.569563865661621,4.079281806945801,-0.2984076738357544
1696083174238963000,1.735962890625,5.385693550109863,3.820274829864502,-1.1725558042526245
1696083174248963000,1.745963134765625,3.989866256713867,3.010267496109009,-1.9263635873794556
1696083174258963000,1.755962890625,2.411390542984009,1.2057716846466064,-2.110844850540161
1696083174268963000,1.765963134765625,1.6325373649597168,0.06467536091804504,-1.7675385475158691
1696083174278963000,1.775962890625,1.3442089557647705,-0.11247556656599045,-1.2886202335357666
1696083174288963000,1.785963134765625,1.2990049123764038,0.05734497308731079,-0.8610145449638367
1696083174298963000,1.795962890625,1.5140295028686523,0.03352123126387596,-0.6747006773948669
1696083174308962800,1.805962890625,1.7431039810180664,0.2577087879180908,-0.6007859706878662
1696083174318962700,1.815962646484375,2.0870211124420166,0.5594761967658997,-0.7889324426651001
1696083174328962800,1.825962890625,2.3545801639556885,1.002353549003601,-1.042441487312317
1696083174338962700,1.835962646484375,2.356412649154663,1.3536009788513184,-1.2232576608657837
1696083174348962800,1.845962890625,2.213470220565796,1.7915914058685303,-1.3527610301971436
1696083174358964000,1.8559638671875,2.0778582096099854,2.5209646224975586,-1.4743232727050781
1696083174368964000,1.865964111328125,1.9880609512329102,2.776916980743408,-1.5653421878814697
1696083174378964000,1.8759638671875,1.908037543296814,2.6938393115997314,-1.7345519065856934
1696083174388964000,1.885964111328125,1.7223345041275024,2.7420976161956787,-1.625817894935608
1696083174398964000,1.8959638671875,1.539685845375061,2.8777098655700684,-1.5244141817092896
1696083174408964000,1.905964111328125,1.377806544303894,2.941239833831787,-1.4321736097335815
1696083174418964000,1.9159638671875,1.2794572114944458,2.829451560974121,-1.3326025009155273
1696083174428964000,1.925964111328125,1.261742115020752,2.469040870666504,-1.1249083280563354
1696083174438964200,1.935964111328125,1.3307698965072632,1.9711858034133911,-0.8341364860534668
1696083174448964400,1.94596435546875,1.5250251293182373,1.3377184867858887,-0.48838675022125244
1696083174458964200,1.955964111328125,1.8237382173538208,0.7219663858413696,-0.19089539349079132
1696083174468964400,1.96596435546875,2.0057759284973145,0.3749949038028717,0.14935655891895294
1696083174478964200,1.975964111328125,2.0674734115600586,-0.1906663179397583,0.8103127479553223
1696083174488963300,1.98596337890625,1.6661349534988403,-1.4423291683197021,1.798081874847412
1696083174498963200,1.995963134765625,1.0192286968231201,-2.4679720401763916,2.451096773147583
1696083174508963300,2.00596337890625,-0.005803219974040985,-3.6994762420654297,1.359480619430542
1696083174518963200,2.015963134765625,-0.9758572578430176,-4.1063127517700195,-0.4242459237575531
1696083174528963000,2.025963134765625,-1.2928962707519531,-3.510718822479248,-1.6569719314575195
1696083174538963500,2.03596337890625,-1.158505916595459,-2.3922245502471924,-2.185370445251465
1696083174548963600,2.045963623046875,-0.8335255980491638,-1.0935251712799072,-2.1487185955047607
1696083174558963500,2.05596337890625,-0.4651738703250885,0.20028744637966156,-1.690569519996643
1696083174568963600,2.065963623046875,-0.1267545372247696,1.2124911546707153,-0.9862419366836548
1696083174578963500,2.07596337890625,0.15057829022407532,1.723785400390625,-0.2739730477333069
1696083174588963600,2.085963623046875,0.3576616048812866,1.7512743473052979,0.2721404731273651
1696083174598963500,2.09596337890625,0.48166725039482117,1.5154802799224854,0.6209444999694824
1696083174608963800,2.1059638671875,0.49205195903778076,1.1874456405639648,0.8011497855186462
1696083174618963700,2.115963623046875,0.3985895812511444,0.7757225036621094,0.8268061280250549
1696083174628963800,2.1259638671875,0.22937989234924316,0.2858085632324219,0.7058547735214233
1696083174638963700,2.135963623046875,0.09987647086381912,-0.16378824412822723,0.47189339995384216
1696083174648963800,2.1459638671875,0.0705549344420433,-0.5132031440734863,0.19944749772548676
1696083174658962400,2.15596240234375,0.08827003091573715,-0.7331146597862244,-0.0455094613134861
1696083174668962600,2.165962646484375,0.08460483700037003,-0.7966446280479431,-0.20005837082862854
1696083174678962400,2.17596240234375,0.03329215571284294,-0.720897376537323,-0.23548854887485504
1696083174688962600,2.185962646484375,-0.021074850112199783,-0.5529094338417053,-0.1927279829978943
1696083174698962400,2.19596240234375,-0.04489859566092491,-0.3232240676879883,-0.12308934330940247
1696083174708962600,2.205962646484375,-0.05467243865132332,-0.09109527617692947,-0.06322455406188965
1696083174718962400,2.21596240234375,-0.07177666574716568,0.055512379854917526,-0.04245513305068016
1696083174728962300,2.22596240234375,-0.09010262042284012,0.07444920390844345,-0.06872233748435974
1696083174738962400,2.23596240234375,-0.08643743395805359,-0.011682798154652119,-0.11453723162412643
1696083174748962300,2.24596240234375,-0.07238753139972687,-0.13813190162181854,-0.14813482761383057
1696083174758962400,2.25596240234375,-0.052228979766368866,-0.2303725630044937,-0.1670716404914856
1696083174768962300,2.26596240234375,-0.03634648025035858,-0.25297456979751587,-0.16951510310173035
1696083174778962400,2.27596240234375,-0.02229658141732216,-0.20777054131031036,-0.15057829022407532
1696083174788962600,2.285962646484375,-0.001527163083665073,-0.1350775808095932,-0.11636982858181
1696083174798962400,2.29596240234375,0.02779436856508255,-0.07826711237430573,-0.07666359096765518
1696083174808962600,2.305962646484375,0.05467243865132332,-0.052610769867897034,-0.03573561832308769
1696083174818962400,2.31596240234375,0.07238753139972687,-0.05383250117301941,-0.011301007121801376
1696083174828962600,2.325962646484375,0.0809396430850029,-0.08009970188140869,0.0003054326225537807
1696083174838962400,2.33596240234375,0.09560041129589081,-0.12774719297885895,-0.0009162978967651725
1696083174848962600,2.345962646484375,0.11331550031900406,-0.1857793927192688,-0.013744467869400978
1696083174858962400,2.35596240234375,0.1316414624452591,-0.2407572716474533,-0.029016099870204926
1696083174868962600,2.365962646484375,0.13897185027599335,-0.2706896662712097,-0.052839845418930054
1696083174878962400,2.37596240234375,0.14752395451068878,-0.22426390647888184,-0.08338310569524765
1696083174888962600,2.385962646484375,0.15302173793315887,-0.15767958760261536,-0.10842858254909515
1696083174898962400,2.39596240234375,0.12980885803699493,-0.12163854390382767,-0.10903944820165634
1696083174908962600,2.405962646484375,0.09682214260101318,-0.1308015137910843,-0.09865473955869675
1696083174918962400,2.41596240234375,0.06017022579908371,-0.18883371353149414,-0.096211276948452
1696083174928962600,2.425962646484375,0.017409659922122955,-0.2615266740322113,-0.11698069423437119
1696083174938962400,2.43596240234375,-0.029626963660120964,-0.3965279161930084,-0.12858712673187256
1696083174948962600,2.445962646484375,-0.06017022579908371,-0.5235878825187683,-0.12919799983501434
1696083174958962400,2.45596240234375,-0.0907134860754013,-0.5840635299682617,-0.13469578325748444
1696083174968962300,2.46596240234375,-0.11575896292924881,-0.6237697601318359,-0.13897185027599335
1696083174978962400,2.47596240234375,-0.11881329119205475,-0.6701955199241638,-0.13286319375038147
1696083174988962600,2.485962646484375,-0.10231992602348328,-0.7025713920593262,-0.11209376901388168
1696083174998962400,2.49596240234375,-0.0656680166721344,-0.7129560708999634,-0.0913243517279625
1696083175008962600,2.505962646484375,-0.03145955875515938,-0.7288386225700378,-0.07116580009460449
1696083175018962400,2.51596240234375,-0.014355333521962166,-0.7654905319213867,-0.02229658141732216
1696083175028962600,2.525962646484375,-0.024129176512360573,-0.8204683661460876,0.07422012835741043
1696083175038962400,2.53596240234375,-0.044287730008363724,-0.85284423828125,0.1774563491344452
1696083175048962600,2.545962646484375,-0.0705549344420433,-0.843070387840271,0.22815817594528198
1696083175058962400,2.55596240234375,-0.07116580009460449,-0.8296313881874084,0.15485434234142303
1696083175068962600,2.565962646484375,-0.03145955875515938,-0.7978663444519043,-0.016798794269561768
1696083175078962400,2.57596240234375,0.01863138936460018,-0.7190647721290588,-0.21471913158893585
1696083175088962600,2.585962646484375,0.04489859566092491,-0.607276439666748,-0.3735440969467163
1696083175098962400,2.59596240234375,0.04917465150356293,-0.5077053904533386,-0.48716503381729126
1696083175108962600,2.605962646484375,0.04489859566092491,-0.4478405714035034,-0.5525276064872742
1696083175118962400,2.61596240234375,0.040622539818286896,-0.41974079608917236,-0.5629123449325562
1696083175128962600,2.625962646484375,0.03878994286060333,-0.40569087862968445,-0.5299255847930908
1696083175138962400,2.63596240234375,0.03390302136540413,-0.3922518491744995,-0.4657847583293915
1696083175148962600,2.645962646484375,0.03084869496524334,-0.3836997449398041,-0.38759398460388184
1696083175158962400,2.65596240234375,0.03573561832308769,-0.40141481161117554,-0.32100969552993774
1696083175168962600,2.665962646484375,0.03878994286060333,-0.45089492201805115,-0.28680121898651123
1696083175178962400,2.67596240234375,0.04856378585100174,-0.5180900692939758,-0.28496864438056946
1696083175188962600,2.685962646484375,0.07666359096765518,-0.5761222839355469,-0.2971859276294708
1696083175198962400,2.69596240234375,0.12247848510742188,-0.5962808132171631,-0.3094032406806946
1696083175208962600,2.705962646484375,0.1768454909324646,-0.5785657167434692,-0.3173444867134094
1696083175218962400,2.71596240234375,0.22388210892677307,-0.558407187461853,-0.3173444867134094
1696083175228962600,2.725962646484375,0.2538145184516907,-0.5645158290863037,-0.31184670329093933
1696083175238962400,2.73596240234375,0.2739730477333069,-0.5981134176254272,-0.3026837408542633
1696083175248962600,2.745962646484375,0.2825251817703247,-0.6488152742385864,-0.29107728600502014
1696083175258962200,2.755962158203125,0.2880229651927948,-0.7068474292755127,-0.28130343556404114
1696083175268962300,2.76596240234375,0.2984076738357544,-0.7740426063537598,-0.2770273983478546
1696083175278962200,2.775962158203125,0.3142901659011841,-0.8510116338729858,-0.2721404731273651
1696083175288962300,2.78596240234375,0.34544429183006287,-0.9340893030166626,-0.25014930963516235
1696083175298962200,2.795962158203125,0.4004221558570862,-1.015945315361023,-0.20066922903060913
1696083175308962300,2.80596240234375,0.4792237877845764,-1.0825295448303223,-0.13469578325748444
1696083175318962200,2.815962158203125,0.5641340613365173,-1.1173489093780518,-0.07116580009460449
1696083175328962000,2.825962158203125,0.6380487680435181,-1.1106293201446533,-0.01191187184303999
1696083175338962200,2.835962158203125,0.6630942225456238,-1.0782535076141357,0.024129176512360573
1696083175348962000,2.845962158203125,0.6282749176025391,-1.0086148977279663,0.0064140851609408855
1696083175358962200,2.855962158203125,0.5549710988998413,-0.9047678112983704,-0.06872233748435974
1696083175368962000,2.865962158203125,0.48655417561531067,-0.7929794192314148,-0.15302173793315887
1696083175378962200,2.875962158203125,0.44196099042892456,-0.6677520871162415,-0.16951510310173035
1696083175388962300,2.88596240234375,0.39797869324684143,-0.4899902939796448,-0.076052725315094
1696083175398962200,2.895962158203125,0.33078351616859436,-0.27313312888145447,0.10781771689653397
1696083175408962300,2.90596240234375,0.2525927722454071,-0.08620835840702057,0.3399465084075928
1696083175418962200,2.915962158203125,0.1768454909324646,0.038408152759075165,0.5677992701530457
1696083175428962300,2.92596240234375,0.08949175477027893,0.1636355221271515,0.7699956297874451
1696083175438962200,2.935962158203125,-0.021074850112199783,0.359112411737442,0.9508117437362671
1696083175448962300,2.94596240234375,-0.11942415684461594,0.6578255295753479,1.1200214624404907
1696083175458962200,2.955962158203125,-0.17806722223758698,1.048168420791626,1.2867876291275024
1696083175468962300,2.96596240234375,-0.2226603776216507,1.4421764612197876,1.463938593864441
1696083175478962200,2.975962158203125,-0.289244681596756,1.7231744527816772,1.6533068418502808
1696083175488962300,2.98596240234375,-0.3985895812511444,1.7341700792312622,1.8683313131332397
1696083175498962200,2.995962158203125,-0.5195409059524536,1.3175599575042725,2.1713204383850098
1696083175508962300,3.00596240234375,-0.6429356932640076,0.6071236729621887,2.5085182189941406
1696083175518962200,3.015962158203125,-0.7681630253791809,-0.1301906555891037,2.791959524154663
1696083175528962300,3.02596240234375,-0.8915578126907349,-0.7758752107620239,3.017368793487549
1696083175538962200,3.035962158203125,-1.0461066961288452,-1.230969786643982,3.1138856410980225
1696083175548962300,3.04596240234375,-1.2018773555755615,-1.5028048753738403,3.0350840091705322
1696083175558962400,3.05596240234375,-1.2947288751602173,-1.6744580268859863,2.817005157470703
1696083175568962300,3.06596240234375,-1.328937292098999,-1.840002417564392,2.5335636138916016
1696083175578962400,3.07596240234375,-1.300837516784668,-1.8552740812301636,2.165822744369507
1696083175588962300,3.08596240234375,-1.2483031749725342,-1.6439146995544434,1.7993035316467285
1696083175598962400,3.09596240234375,-1.1945469379425049,-1.327486515045166,1.586722493171692
1696083175608962300,3.10596240234375,-1.1719449758529663,-0.9933432340621948,1.5354098081588745
1696083175618962400,3.11596240234375,-1.207375168800354,-0.5315291285514832,1.5519031286239624
1696083175628962300,3.12596240234375,-1.275792121887207,-0.034895677119493484,1.5891659259796143
1696083175638962400,3.13596240234375,-1.3490959405899048,0.4018729627132416,1.5946637392044067
1696083175648962300,3.14596240234375,-1.386358618736267,0.6730971336364746,1.550681471824646
1696083175658962400,3.15596240234375,-1.3906347751617432,0.7848854660987854,1.471268892288208
1696083175668962300,3.16596240234375,-1.3741413354873657,0.7262424230575562,1.395521640777588
1696083175678962400,3.17596240234375,-1.3393220901489258,0.49411362409591675,1.3197743892669678
1696083175688962300,3.18596240234375,-1.3045027256011963,0.21494820713996887,1.2244794368743896
1696083175698962400,3.19596240234375,-1.2855658531188965,-0.017791450023651123,1.1230757236480713
1696083175708962300,3.20596240234375,-1.3014483451843262,-0.09598220139741898,1.0106765031814575
1696083175718962400,3.21596240234375,-1.3454307317733765,0.06223189830780029,0.8793405294418335
1696083175728962300,3.22596240234375,-1.3735305070877075,0.3798818290233612,0.761443555355072
1696083175738962400,3.23596240234375,-1.338711142539978,0.6944774389266968,0.6814202070236206
1696083175748962300,3.24596240234375,-1.2281445264816284,0.9168323874473572,0.6398813724517822
1696083175758962400,3.25596240234375,-1.0406090021133423,1.0597748756408691,0.6453791260719299
1696083175768962300,3.26596240234375,-0.8188648819923401,1.1782827377319336,0.6612616181373596
1696083175778962400,3.27596240234375,-0.6007859706878662,1.3083970546722412,0.6533203721046448
1696083175788962300,3.28596240234375,-0.4156937897205353,1.4024702310562134,0.598953366279602
1696083175798962400,3.29596240234375,-0.27580565214157104,1.4018594026565552,0.5091561675071716
1696083175808962300,3.30596240234375,-0.1713477075099945,1.321835994720459,0.4095851480960846
1696083175818962400,3.31596240234375,-0.09804387390613556,1.1959978342056274,0.30024027824401855
1696083175828962300,3.32596240234375,-0.04734205827116966,1.0640509128570557,0.16890424489974976
1696083175838962400,3.33596240234375,0.014355333521962166,0.9492082595825195,0.030237829312682152
1696083175848962300,3.34596240234375,0.09987647086381912,0.8881217241287231,-0.09560041129589081
1696083175858962400,3.35596240234375,0.197004035115242,0.8416959643363953,-0.22327125072479248
1696083175868962600,3.365962646484375,0.3081815242767334,0.7451792359352112,-0.36132678389549255
1696083175878962400,3.37596240234375,0.42180246114730835,0.5698609352111816,-0.5262604355812073
1696083175888962300,3.38596240234375,0.5293147563934326,0.31696268916130066,-0.722348153591156
1696083175898962400,3.39596240234375,0.6050620079040527,0.06589708477258682,-0.9410378932952881
1696083175908962300,3.40596240234375,0.6246097087860107,-0.06299547851085663,-1.1554516553878784
1696083175918962400,3.41596240234375,0.6178901791572571,0.004810563754290342,-1.2965614795684814
1696083175928962300,3.42596240234375,0.6172793507575989,0.3059671223163605,-1.358258843421936
1696083175938962400,3.43596240234375,0.6148358583450317,0.7787768244743347,-1.3759739398956299
1696083175948962300,3.44596240234375,0.5671883821487427,1.2259302139282227,-1.3405437469482422
1696083175958962400,3.45596240234375,0.4236350357532501,1.3835334777832031,-1.2202032804489136
1696083175968962300,3.46596240234375,0.20005837082862854,1.0390053987503052,-1.0210613012313843
1696083175978962400,3.47596240234375,-0.04856378585100174,0.2949715554714203,-0.7363980412483215
1696083175988962300,3.48596240234375,-0.25931230187416077,-0.6097198724746704,-0.47189339995384216
1696083175998962400,3.49596240234375,-0.3588833212852478,-1.2376893758773804,-0.2611449062824249
1696083176008962300,3.50596240234375,-0.3594942092895508,-1.373301386833191,-0.1010981947183609
1696083176018962400,3.51596240234375,-0.31001409888267517,-1.11795973777771,-0.044287730008363724
1696083176028962600,3.525962646484375,-0.23548854887485504,-0.6665303111076355,-0.15729780495166779
1696083176038962400,3.53596240234375,-0.15057829022407532,-0.22731822729110718,-0.4584543704986572
1696083176048962600,3.545962646484375,-0.032681290060281754,-0.07399105280637741,-0.8170322775840759
1696083176058962400,3.55596240234375,0.0907134860754013,-0.3024546504020691,-1.0351111888885498
1696083176068962600,3.565962646484375,0.2269364446401596,-0.7141778469085693,-1.130406141281128
1696083176078962400,3.57596240234375,0.3784310221672058,-1.1613311767578125,-1.161560297012329
1696083176088962600,3.585962646484375,0.46150869131088257,-1.3995686769485474,-1.120632290840149
1696083176098962400,3.59596240234375,0.408974289894104,-1.2450196743011475,-0.9563095569610596
1696083176108962600,3.605962646484375,0.30146199464797974,-0.7563275098800659,-0.6374378800392151
1696083176118962400,3.61596240234375,0.16584990918636322,0.03474296256899834,-0.299018532037735
1696083176128962600,3.625962646484375,0.06017022579908371,0.4421900808811188,-0.27519479393959045
1696083176138962400,3.63596240234375,0.06505715101957321,0.3340669274330139,-0.2678644061088562
1696083176148962600,3.645962646484375,0.18051068484783173,0.015806138515472412,-0.23671028017997742
1696083176158962400,3.65596240234375,0.40591996908187866,-0.3378848433494568,-0.34177911281585693
1696083176168962300,3.66596240234375,0.6795876026153564,-0.529696524143219,-0.608727216720581
1696083176178962400,3.67596240234375,0.9428704977035522,-0.46189048886299133,-0.9379835724830627
1696083176188962300,3.68596240234375,1.18660569190979,-0.246865913271904,-1.1701123714447021
1696083176198962400,3.69596240234375,1.3087787628173828,-0.0898735523223877,-1.225701093673706
1696083176208962300,3.70596240234375,1.2574660778045654,0.03352123126387596,-1.176831841468811
1696083176218962400,3.71596240234375,1.11391282081604,0.16119205951690674,-1.0668761730194092
1696083176228962300,3.72596240234375,1.0088438987731934,0.208839550614357,-0.9343183636665344
1696083176238962400,3.73596240234375,0.9666942358016968,0.10621419548988342,-0.8500189781188965
1696083176248962300,3.74596240234375,0.9789115786552429,-0.08376489579677582,-0.8988882303237915
1696083176258962400,3.75596240234375,1.0381654500961304,-0.3213914632797241,-1.083369493484497
1696083176268962300,3.76596240234375,1.0766500234603882,-0.567570149898529,-1.3014483451843262
1696083176278962400,3.77596240234375,1.0265589952468872,-0.8100836873054504,-1.4242323637008667
1696083176288962300,3.78596240234375,0.8823948502540588,-0.9310349822044373,-1.3997976779937744
1696083176298962400,3.79596240234375,0.6850853562355042,-0.8394051790237427,-1.256244421005249
1696083176308962300,3.80596240234375,0.5042692422866821,-0.5730679631233215,-1.0290025472640991
1696083176318962400,3.81596240234375,0.38759398460388184,-0.23892466723918915,-0.7748825550079346
1696083176328962300,3.82596240234375,0.3289509415626526,-0.05138903856277466,-0.5568036437034607
1696083176338962400,3.83596240234375,0.29535335302352905,-0.0037415495608001947,-0.4450153410434723
1696083176348962300,3.84596240234375,0.2782491147518158,0.026190847158432007,-0.45234572887420654
1696083176358962400,3.85596240234375,0.27030786871910095,-0.03306308016180992,-0.4853324294090271
1696083176368962300,3.86596240234375,0.23182335495948792,-0.18272507190704346,-0.48288896679878235
1696083176378961400,3.87596142578125,0.17012597620487213,-0.29940032958984375,-0.4450153410434723
1696083176388961500,3.88596142578125,0.12003502249717712,-0.3275001347064972,-0.38148534297943115
1696083176398961400,3.89596142578125,0.07971791177988052,-0.26885706186294556,-0.31001409888267517
1696083176408961500,3.90596142578125,0.058948494493961334,-0.1851685345172882,-0.2538145184516907
1696083176418961400,3.91596142578125,0.07116580009460449,-0.15340353548526764,-0.2580905556678772
1696083176428961500,3.92596142578125,0.10231992602348328,-0.21326832473278046,-0.3442225754261017
1696083176438961400,3.93596142578125,0.1511891484260559,-0.31894803047180176,-0.503047525882721
1696083176448961500,3.94596142578125,0.20311269164085388,-0.39469531178474426,-0.6918048858642578
1696083176458961400,3.95596142578125,0.25503623485565186,-0.4130212664604187,-0.8671231865882874
1696083176468961500,3.96596142578125,0.2880229651927948,-0.40019309520721436,-1.0106765031814575
1696083176478961400,3.97596142578125,0.2941316068172455,-0.4124104082584381,-1.1016954183578491
1696083176488961500,3.98596142578125,0.30695977807044983,-0.45211663842201233,-1.1365147829055786
1696083176498961400,3.99596142578125,0.34605515003204346,-0.48632508516311646,-1.1218540668487549
1696083176508961500,4.00596142578125,0.4004221558570862,-0.4747186601161957,-1.055269718170166
1696083176518961400,4.01596142578125,0.46273043751716614,-0.4282929003238678,-0.9563095569610596
1696083176528961500,4.02596142578125,0.5268712639808655,-0.42584943771362305,-0.8414669036865234
1696083176538961400,4.03596142578125,0.58062744140625,-0.529696524143219,-0.7309002876281738
1696083176548961500,4.04596142578125,0.6197227835655212,-0.7325037717819214,-0.609338104724884
1696083176558961400,4.05596142578125,0.644768238067627,-0.9774607419967651,-0.46273043751716614
1696083176568961500,4.06596142578125,0.6710354685783386,-1.2205851078033447,-0.2941316068172455
1696083176578961400,4.07596142578125,0.7199047207832336,-1.3714687824249268,-0.1212567538022995
1696083176588961500,4.08596142578125,0.7919867634773254,-1.3280973434448242,0.05345070734620094
1696083176598961400,4.09596142578125,0.8610145449638367,-1.0929142236709595,0.20922134816646576
1696083176608961500,4.10596142578125,0.8982773423194885,-0.7520514726638794,0.30573806166648865
1696083176618961400,4.11596142578125,0.893390417098999,-0.4496731758117676,0.2941316068172455
1696083176628961500,4.12596142578125,0.8396342992782593,-0.3177262842655182,0.14385876059532166
1696083176638961400,4.13596142578125,0.7162395119667053,-0.38553231954574585,-0.09865473955869675
1696083176648961500,4.14596142578125,0.5018258094787598,-0.5015967488288879,-0.28985556960105896
1696083176658961200,4.155961181640625,0.22571471333503723,-0.4576144218444824,-0.29107728600502014
1696083176668961300,4.165961181640625,-0.06933320313692093,-0.2108248621225357,-0.096211276948452
1696083176678962000,4.1759619140625,-0.3234531581401825,0.06101016700267792,0.1915062516927719
1696083176688962000,4.185962158203125,-0.5042692422866821,0.2742021381855011,0.4834998548030853
1696083176698962000,4.1959619140625,-0.6435465216636658,0.4904484450817108,0.751669704914093
1696083176708962000,4.205962158203125,-0.7663304209709167,0.7390705943107605,0.9856310486793518
1696083176718962000,4.2159619140625,-0.8775079250335693,0.9418778419494629,1.189049243927002
1696083176728962000,4.225962158203125,-0.9795224070549011,1.097037672996521,1.41690194606781
1696083176738962000,4.2359619140625,-1.1255191564559937,1.2625820636749268,1.7052303552627563
1696083176748962000,4.245962158203125,-1.3026701211929321,1.3224469423294067,2.054645299911499
1696083176758962000,4.2559619140625,-1.5146403312683105,1.1587350368499756,2.4358251094818115
1696083176768962000,4.265962158203125,-1.7119498252868652,0.933936595916748,2.7259862422943115
1696083176778962000,4.2759619140625,-1.8182404041290283,0.5643631219863892,2.9019153118133545
1696083176788962000,4.285962158203125,-1.832901120185852,-0.04466952010989189,2.9862146377563477
1696083176798962000,4.2959619140625,-1.8054121732711792,-0.7068474292755127,2.9746084213256836
1696083176808962000,4.305962158203125,-1.7284432649612427,-1.2218068838119507,2.845104932785034
1696083176818962000,4.3159619140625,-1.550681471824646,-1.5138003826141357,2.543337345123291
1696083176828962000,4.325962158203125,-1.3057245016098022,-1.5700000524520874,2.1261165142059326
1696083176838962000,4.3359619140625,-1.0778716802597046,-1.4001795053482056,1.6612480878829956
1696083176848962000,4.345962158203125,-0.9587529897689819,-1.0739774703979492,1.2623530626296997
1696083176858962000,4.3559619140625,-0.9477574229240417,-0.8039750456809998,1.0571023225784302
1696083176868961800,4.3659619140625,-1.0241155624389648,-0.5333617329597473,1.0894781351089478
1696083176878962000,4.3759619140625,-1.1462886333465576,-0.21387919783592224,1.272737741470337
1696083176888961800,4.3859619140625,-1.2800681591033936,0.11659890413284302,1.4126259088516235
1696083176898962000,4.3959619140625,-1.3637566566467285,0.38904479146003723,1.4401148557662964
1696083176908961800,4.4059619140625,-1.3716979026794434,0.47456592321395874,1.3997976779937744
1696083176918962000,4.4159619140625,-1.3552045822143555,0.5271003246307373,1.3600914478302002
1696083176928961800,4.4259619140625,-1.3344351053237915,0.5112178325653076,1.266018271446228
1696083176938962000,4.4359619140625,-1.3087787628173828,0.41775545477867126,1.1859948635101318
1696083176948961800,4.4459619140625,-1.28434419631958,0.25037840008735657,1.1267409324645996
1696083176958962200,4.455962158203125,-1.2678507566452026,0.13003793358802795,1.0729848146438599
1696083176968962300,4.46596240234375,-1.2434161901474,0.1630246639251709,1.0222829580307007
1696083176978962200,4.475962158203125,-1.2030991315841675,0.29252809286117554,0.967915952205658
1696083176988962300,4.48596240234375,-1.1340713500976562,0.4366922974586487,0.8952230215072632
1696083176998962200,4.495962158203125,-1.027169942855835,0.5967389941215515,0.8005388975143433
1696083177008962300,4.50596240234375,-0.894001305103302,0.8026005625724792,0.6887505650520325
1696083177018962200,4.515962158203125,-0.741284966468811,1.0249555110931396,0.5824599862098694
1696083177028962300,4.52596240234375,-0.5885686874389648,1.1972194910049438,0.499382346868515
1696083177038962200,4.535962158203125,-0.45173484086990356,1.2405909299850464,0.4205807149410248
1696083177048962300,4.54596240234375,-0.3436116874217987,1.174006700515747,0.3234531581401825
1696083177058962400,4.55596240234375,-0.24953845143318176,1.067716121673584,0.2025018334388733
1696083177068962300,4.56596240234375,-0.14508049190044403,0.9400452375411987,0.05406157299876213
1696083177078962200,4.575962158203125,-0.03145955875515938,0.8160396218299866,-0.11636982858181
1696083177088962300,4.58596240234375,0.08949175477027893,0.7140251398086548,-0.2996293902397156
1696083177098962200,4.595962158203125,0.21594086289405823,0.630336582660675,-0.4761694669723511
1696083177108962300,4.60596240234375,0.36560285091400146,0.5148830413818359,-0.6453791260719299
1696083177118962400,4.61596240234375,0.5396994352340698,0.3646101951599121,-0.8182539939880371
1696083177128962300,4.62596240234375,0.7260133624076843,0.22166772186756134,-1.0045678615570068
1696083177138962400,4.63596240234375,0.8756753206253052,0.13370312750339508,-1.2299771308898926
1696083177148962300,4.64596240234375,0.9373727440834045,0.11110111325979233,-1.4706580638885498
1696083177158962400,4.65596240234375,0.9282097220420837,0.18745927512645721,-1.635591745376587
1696083177168962300,4.66596240234375,0.8628471493721008,0.3969860374927521,-1.6404786109924316
1696083177178962400,4.67596240234375,0.7082982659339905,0.8032114505767822,-1.425454020500183
1696083177188962300,4.68596240234375,0.4810563921928406,1.1477394104003906,-1.1627819538116455
1696083177198962400,4.69596240234375,0.22632557153701782,1.0976485013961792,-1.0112874507904053
1696083177208962300,4.70596240234375,0.0039706239476799965,0.6669884920120239,-0.9019425511360168
1696083177218962200,4.715962158203125,-0.12247848510742188,-0.10575604438781738,-0.6820310354232788
1696083177228962300,4.72596240234375,-0.14385876059532166,-0.8589528799057007,-0.3399465084075928
1696083177238962200,4.735962158203125,-0.14813482761383057,-1.345812439918518,-0.019853120669722557
1696083177248962300,4.74596240234375,-0.17318029701709747,-1.6170367002487183,0.1927279829978943
1696083177258962200,4.755962158203125,-0.22143864631652832,-1.4887549877166748,0.23060162365436554
1696083177268962300,4.76596240234375,-0.22571471333503723,-1.0226647853851318,0.03756821155548096
1696083177278962200,4.775962158203125,-0.10965031385421753,-0.6139959096908569,-0.34177911281585693
1696083177288962300,4.78596240234375,0.08521570265293121,-0.7062366008758545,-0.6875288486480713
1696083177298962200,4.795962158203125,0.31123584508895874,-1.0770317316055298,-0.9178250432014465
1696083177308962300,4.80596240234375,0.5592471361160278,-1.299386739730835,-1.0338894128799438
1696083177318962200,4.815962158203125,0.6887505650520325,-1.0287734270095825,-0.9288206100463867
1696083177328962300,4.82596240234375,0.6441574096679688,-0.34460434317588806,-0.5787948369979858
1696083177338962200,4.835962158203125,0.5158756971359253,0.34200817346572876,-0.15546520054340363
1696083177348962300,4.84596240234375,0.3851505517959595,0.9266062378883362,0.009468411095440388
1696083177358962200,4.855962158203125,0.34177911281585693,0.9308822751045227,-0.13897185027599335
1696083177368962300,4.86596240234375,0.4108068645000458,0.45868343114852905,-0.25076019763946533
1696083177378962200,4.875962158203125,0.5647448897361755,-0.10697777569293976,-0.3497203588485718
1696083177388962300,4.88596240234375,0.7638869881629944,-0.6335436105728149,-0.5189300179481506
1696083177398962200,4.895962158203125,0.9685268402099609,-1.0580949783325195,-0.7602217793464661
1696083177408962300,4.90596240234375,1.1493430137634277,-1.2859476804733276,-1.0265589952468872
1696083177418962200,4.915962158203125,1.197601318359375,-1.1802680492401123,-1.3686435222625732
1696083177428962300,4.92596240234375,1.0876455307006836,-0.7783187031745911,-1.6893478631973267
1696083177438962200,4.935962158203125,0.9856310486793518,-0.10819950699806213,-1.7321083545684814
1696083177448962300,4.94596240234375,0.9728028774261475,0.5637522339820862,-1.4504995346069336
1696083177458962200,4.955962158203125,1.01617431640625,0.999299168586731,-1.0302242040634155
1696083177468962300,4.96596240234375,1.0381654500961304,1.1935542821884155,-0.6979135274887085
1696083177478962200,4.975962158203125,1.0198395252227783,1.17950439453125,-0.5836817622184753
1696083177488962300,4.98596240234375,0.9862419366836548,0.7757225036621094,-0.8023715019226074
1696083177498962200,4.995962158203125,0.9214902520179749,-0.1405753642320633,-1.2525792121887207
1696083177508962300,5.00596240234375,0.7748825550079346,-1.1466704607009888,-1.5653421878814697
1696083177518962400,5.01596240234375,0.5555819272994995,-1.7666985988616943,-1.5702290534973145
1696083177528963000,5.025963134765625,0.3381139039993286,-1.785024642944336,-1.3167200088500977
1696083177538963000,5.035962890625,0.1963931769132614,-1.2767847776412964,-0.9251554012298584
1696083177548963000,5.045963134765625,0.16829337179660797,-0.5187009572982788,-0.5568036437034607
1696083177558963000,5.055962890625,0.1976149082183838,0.12515102326869965,-0.3497203588485718
1696083177568963000,5.065963134765625,0.2220495194196701,0.44280093908309937,-0.2996293902397156
1696083177578963000,5.075962890625,0.19822576642036438,0.449520468711853,-0.29474249482154846
1696083177588963000,5.085963134765625,0.17073683440685272,0.31757357716560364,-0.2635883390903473
1696083177598963000,5.095962890625,0.17501288652420044,0.137979194521904,-0.22449298202991486
1696083177608963000,5.105963134765625,0.2177734673023224,-0.00618501054123044,-0.2330450862646103
1696083177618963000,5.115962890625,0.2684752643108368,-0.07643451541662216,-0.31612277030944824
1696083177628963000,5.125963134765625,0.32100969552993774,-0.23831380903720856,-0.45173484086990356
1696083177638963000,5.135962890625,0.3686571717262268,-0.44173192977905273,-0.5922338366508484
1696083177648963000,5.145963134765625,0.3735440969467163,-0.6207154393196106,-0.7382306456565857
1696083177658963000,5.155962890625,0.36132678389549255,-0.6964627504348755,-0.8610145449638367
1696083177668963000,5.165963134765625,0.35094207525253296,-0.6695846915245056,-0.9245445728302002
1696083177678963000,5.175962890625,0.37110063433647156,-0.6042220592498779,-0.9275988936424255
1696083177688963000,5.185963134765625,0.43218716979026794,-0.5077053904533386,-0.8677340745925903
1696083177698963000,5.195962890625,0.4938845634460449,-0.406912624835968,-0.7846564054489136
1696083177708963000,5.205963134765625,0.532369077205658,-0.32383492588996887,-0.7406741380691528
1696083177718963000,5.215962890625,0.5598580241203308,-0.2755765914916992,-0.7541131377220154
1696083177728962800,5.225962890625,0.5934556126594543,-0.2719113826751709,-0.8097018599510193
1696083177738963000,5.235962890625,0.6404922008514404,-0.32444581389427185,-0.8854491710662842
1696083177748962800,5.245962890625,0.702800452709198,-0.43623414635658264,-0.9373727440834045
1696083177758963000,5.255962890625,0.780380368232727,-0.5614615082740784,-0.903164267539978
1696083177768962800,5.265962890625,0.8567385077476501,-0.6555347442626953,-0.7388415336608887
1696083177778963000,5.275962890625,0.9001099467277527,-0.720897376537323,-0.4804455041885376
1696083177788963000,5.285963134765625,0.9068294763565063,-0.7661013603210449,-0.20555615425109863
1696083177798963000,5.295962890625,0.9013316631317139,-0.7282277345657349,0.03390302136540413
1696083177808963000,5.305963134765625,0.9056077003479004,-0.5284748077392578,0.21899518370628357
1696083177818963000,5.315962890625,0.9007207751274109,-0.22243130207061768,0.31673362851142883
1696083177828962300,5.32596240234375,0.8701775670051575,0.020693060010671616,0.29657506942749023
1696083177838962400,5.33596240234375,0.7950411438941956,0.05978843569755554,0.14324790239334106
1696083177848962300,5.34596240234375,0.6270532011985779,-0.12774719297885895,-0.09193521738052368
1696083177858962400,5.35596240234375,0.3497203588485718,-0.4093560576438904,-0.29657506942749023
1696083177868962600,5.365962646484375,0.022907447069883347,-0.6017786264419556,-0.34666603803634644
1696083177878962400,5.37596240234375,-0.29474249482154846,-0.6017786264419556,-0.22815817594528198
1696083177888962300,5.38596240234375,-0.5629123449325562,-0.43012550473213196,0.03573561832308769
1696083177898962400,5.39596240234375,-0.7522805333137512,-0.17783814668655396,0.40103304386138916
1696083177908962300,5.40596240234375,-0.835969090461731,0.047571130096912384,0.8005388975143433
1696083177918962400,5.41596240234375,-0.8530732989311218,0.17829629778862,1.1756101846694946
1696083177928962300,5.42596240234375,-0.8573493957519531,0.24793493747711182,1.520138144493103
1696083177938929200,5.43592919921875,-0.8909469842910767,0.4562399685382843,1.863444447517395
1696083177948895700,5.445895751953125,-0.9929614663124084,0.9082802534103394,2.239126443862915
1696083177958862300,5.4558623046875,-1.1933252811431885,1.3994159698486328,2.559830904006958
1696083177968829000,5.465828857421875,-1.475545048713684,1.7305048704147339,2.7003297805786133
1696083177978795800,5.475795654296875,-1.7724255323410034,1.8080847263336182,2.668564796447754
1696083177988762400,5.485762451171875,-2.00699782371521,1.5680147409439087,2.585487127304077
1696083177998729000,5.49572900390625,-2.1542162895202637,1.0982593297958374,2.551889657974243
1696083178008695800,5.50569580078125,-2.1817052364349365,0.48922669887542725,2.5885415077209473
1696083178018662400,5.515662353515625,-2.0442605018615723,-0.22365303337574005,2.6288585662841797
1696083178028629200,5.525629150390625,-1.831068515777588,-1.0825295448303223,2.584876298904419
1696083178038595800,5.535595947265625,-1.6478090286254883,-1.8461111783981323,2.3527474403381348
1696083178048562400,5.5455625,-1.5085316896438599,-2.3451881408691406,1.9281961917877197
1696083178058529300,5.555529296875,-1.4272866249084473,-2.391002893447876,1.405295491218567
1696083178068496000,5.565495849609375,-1.369254469871521,-2.084348678588867,1.0674870014190674
1696083178078462500,5.57546240234375,-1.331380844116211,-1.5913803577423096,1.0534371137619019
1696083178088429300,5.58542919921875,-1.3295482397079468,-0.9035460352897644,1.2348641157150269
1696083178098396000,5.59539599609375,-1.3228286504745483,-0.03611740842461586,1.323439598083496
1696083178108362500,5.605362548828125,-1.245248794555664,0.7745007872581482,1.2495248317718506
1696083178118329000,5.6153291015625,-1.1310169696807861,1.3688726425170898,1.140179991722107
1696083178128296000,5.6252958984375,-1.0131200551986694,1.493489146232605,1.0925325155258179
1696083178138262500,5.635262451171875,-0.9245445728302002,1.1984412670135498,1.063821792602539
1696083178148229000,5.64522900390625,-0.8665123581886292,0.6394995450973511,1.034500241279602
1696083178158195700,5.65519580078125,-0.8585711121559143,0.0872773751616478,0.9666942358016968
1696083178168162600,5.66516259765625,-0.9104946255683899,-0.2053270787000656,0.8762862086296082
1696083178178129200,5.675129150390625,-0.9844093322753906,-0.14179709553718567,0.7925976514816284
1696083178188095700,5.685095703125,-1.0326677560806274,0.15997034311294556,0.7455610036849976
1696083178198062300,5.695062255859375,-1.0277807712554932,0.45440739393234253,0.7046330571174622
1696083178208029200,5.705029296875,-0.9636399149894714,0.6840927004814148,0.6221662759780884
1696083178217995800,5.714995849609375,-0.8500189781188965,0.9235519170761108,0.5152648091316223
1696083178227962400,5.72496240234375,-0.6979135274887085,1.1404091119766235,0.4138612151145935
1696083178237962500,5.73496240234375,-0.5360342264175415,1.2766319513320923,0.31673362851142883
1696083178247962400,5.74496240234375,-0.38759398460388184,1.2980122566223145,0.21533000469207764
1696083178257962500,5.75496240234375,-0.25564709305763245,1.218599796295166,0.10537425428628922
1696083178267962400,5.76496240234375,-0.1310305893421173,1.0988701581954956,-0.029626963660120964
1696083178277962500,5.77496240234375,-0.007024950347840786,0.9748646020889282,-0.19578230381011963
1696083178287962400,5.78496240234375,0.10720685124397278,0.8685740232467651,-0.4046982228755951
1696083178297962500,5.79496240234375,0.22327125072479248,0.7677812576293945,-0.6313292384147644
1696083178307962400,5.80496240234375,0.3594942092895508,0.6388887166976929,-0.8500189781188965
1696083178317962200,5.814962158203125,0.5195409059524536,0.4348596930503845,-1.052215337753296
1696083178327962400,5.82496240234375,0.6948592066764832,0.1831832081079483,-1.2470813989639282
1696083178337962200,5.834962158203125,0.8518515825271606,-0.0190131813287735,-1.4407256841659546
1696083178347962400,5.84496240234375,0.9184358716011047,-0.05383250117301941,-1.6398677825927734
1696083178357962200,5.854962158203125,0.8768970370292664,0.11415544152259827,-1.8011361360549927
1696083178367962400,5.86496240234375,0.7718282341957092,0.49350276589393616,-1.7986927032470703
1696083178377962200,5.874962158203125,0.6215553879737854,1.031675100326538,-1.5470162630081177
1696083178387962400,5.88496240234375,0.45295658707618713,1.4928783178329468,-1.2311989068984985
1696083178397962200,5.894962158203125,0.3124575614929199,1.4763849973678589,-1.0607675313949585
1696083178407962400,5.90496240234375,0.2275473028421402,0.9321039915084839,-0.9984592199325562
1696083178417962200,5.914962158203125,0.15363261103630066,0.03474296256899834,-0.8720101118087769
1696083178427962400,5.92496240234375,-0.0503963828086853,-0.5926156640052795,-0.5952881574630737
1696083178437962200,5.934962158203125,-0.28557950258255005,-0.9823476672172546,-0.1921171247959137
1696083178447962400,5.94496240234375,-0.4199698567390442,-1.2120330333709717,0.15790866315364838
1696083178457962200,5.954962158203125,-0.4908302128314972,-1.176602840423584,0.2269364446401596
1696083178467962400,5.96496240234375,-0.43707409501075745,-1.0043388605117798,-0.0064140851609408855
1696083178477962200,5.974962158203125,-0.27091872692108154,-1.0782535076141357,-0.3381139039993286
1696083178487962400,5.98496240234375,-0.025961773470044136,-1.4911984205245972,-0.6185010671615601
1696083178497962200,5.994962158203125,0.2635883390903473,-2.0067687034606934,-0.8274169564247131
1696083178507962400,6.00496240234375,0.49754974246025085,-2.193082571029663,-0.8048149347305298
1696083178517962200,6.014962158203125,0.5934556126594543,-1.61337149143219,-0.48166725039482117
1696083178527961300,6.02496142578125,0.6099489331245422,-0.32933273911476135,0.05650503560900688
1696083178537961500,6.03496142578125,0.5458080768585205,1.190500020980835,0.3039054572582245
1696083178547961300,6.04496142578125,0.5714644193649292,1.797700047492981,0.07849618047475815
1696083178557961500,6.05496142578125,0.7449501752853394,1.550910472869873,-0.043676864355802536
1696083178567961300,6.06496142578125,0.9117164015769958,1.14163076877594,-0.0503963828086853
1696083178577961500,6.07496142578125,1.0277807712554932,0.763505220413208,-0.11453723162412643
1696083178587961300,6.08496142578125,1.1242974996566772,0.30779972672462463,-0.3497203588485718
1696083178597961500,6.09496142578125,1.187827467918396,-0.2267073690891266,-0.6606507897377014
1696083178607960800,6.1049609375,1.1383473873138428,-0.6585890650749207,-0.9385944604873657
1696083178617961000,6.1149609375,0.9697485566139221,-0.8082510828971863,-1.1707231998443604
1696083178627960800,6.1249609375,0.8103127479553223,-0.6298784017562866,-1.3154983520507812
1696083178637961000,6.1349609375,0.7724391222000122,-0.2572506368160248,-1.3570371866226196
1696083178647960800,6.1449609375,0.825584352016449,0.2033417671918869,-1.2898420095443726
1696083178657961000,6.1549609375,0.9049968719482422,0.6755406260490417,-1.1536190509796143
1696083178667960800,6.1649609375,0.9746354818344116,1.0225120782852173,-1.0571023225784302
1696083178677961000,6.1749609375,1.0375546216964722,0.8148179054260254,-1.2079859972000122
1696083178687960800,6.1849609375,1.0558805465698242,-0.020845776423811913,-1.5879441499710083
1696083178697961000,6.1949609375,0.9495900273323059,-1.0354928970336914,-1.8903224468231201
1696083178707960800,6.2049609375,0.6966918110847473,-1.8558850288391113,-1.9507981538772583
1696083178717961000,6.2149609375,0.4040873646736145,-2.1436026096343994,-1.7455474138259888
1696083178727960800,6.2249609375,0.19394971430301666,-1.8125135898590088,-1.3503175973892212
1696083178737961000,6.2349609375,0.09865473955869675,-1.0654253959655762,-0.9202684760093689
1696083178747960800,6.2449609375,0.06505715101957321,-0.20960313081741333,-0.5965099334716797
1696083178757961000,6.2549609375,0.052228979766368866,0.429972767829895,-0.43646320700645447
1696083178767960800,6.2649609375,0.05406157299876213,0.7360162734985352,-0.3680463135242462
1696083178777961000,6.2749609375,0.08704829961061478,0.6431647539138794,-0.30573806166648865
1696083178787960800,6.2849609375,0.1713477075099945,0.3542254865169525,-0.25503623485565186
1696083178797961000,6.2949609375,0.2587014436721802,0.0817795842885971,-0.2727513313293457
1696083178807960800,6.3049609375,0.34605515003204346,-0.11430815607309341,-0.32528573274612427
1696083178817961000,6.3149609375,0.43707409501075745,-0.25480717420578003,-0.36132678389549255
1696083178827961900,6.3249619140625,0.5042692422866821,-0.45089492201805115,-0.399200439453125
1696083178837961700,6.334961669921875,0.5207626223564148,-0.701349675655365,-0.4859432876110077
1696083178847961900,6.3449619140625,0.5177083015441895,-0.8186357617378235,-0.5940664410591125
1696083178857961700,6.354961669921875,0.522595226764679,-0.7819838523864746,-0.7009678483009338
1696083178867961900,6.3649619140625,0.5293147563934326,-0.642706573009491,-0.7761042714118958
1696083178877961700,6.374961669921875,0.5574145317077637,-0.5187009572982788,-0.8170322775840759
1696083178887961900,6.3849619140625,0.5849034786224365,-0.4447862505912781,-0.8213083148002625
1696083178897961700,6.394961669921875,0.5916230082511902,-0.39103010296821594,-0.8249735236167908
1696083178907962400,6.40496240234375,0.5922338366508484,-0.32444581389427185,-0.8585711121559143
1696083178917962200,6.414962158203125,0.6160575747489929,-0.24503332376480103,-0.922711968421936
1696083178927962400,6.42496240234375,0.6575964093208313,-0.17722727358341217,-1.01617431640625
1696083178937962200,6.434962158203125,0.693637490272522,-0.16439910233020782,-1.1340713500976562
1696083178947962400,6.44496240234375,0.7327328324317932,-0.2212095707654953,-1.215927243232727
1696083178957962200,6.454962158203125,0.7785477638244629,-0.2804635167121887,-1.1701123714447021
1696083178967962400,6.46496240234375,0.8097018599510193,-0.25297456979751587,-0.942259669303894
1696083178977962200,6.474962158203125,0.7932085394859314,-0.20349448919296265,-0.5934556126594543
1696083178987962400,6.48496240234375,0.7455610036849976,-0.25480717420578003,-0.24892759323120117
1696083178997962200,6.494962158203125,0.7199047207832336,-0.35987597703933716,0.04612032696604729
1696083179007962400,6.50496240234375,0.7284567952156067,-0.38980838656425476,0.28680121898651123
1696083179017962200,6.514962158203125,0.7480044960975647,-0.33055445551872253,0.4389066696166992
1696083179027962400,6.52496240234375,0.751669704914093,-0.28351783752441406,0.4456261992454529
1696083179037962200,6.534962158203125,0.7095199823379517,-0.36598464846611023,0.2782491147518158
1696083179047962400,6.54496240234375,0.560468852519989,-0.6139959096908569,-0.005803219974040985
1696083179057962800,6.554962646484375,0.30695977807044983,-0.8583420515060425,-0.22999076545238495
1696083179067963000,6.564962890625,0.027183502912521362,-0.9072112441062927,-0.2220495194196701
1696083179077962800,6.574962646484375,-0.2373211532831192,-0.7257842421531677,0.043676864355802536
1696083179087963000,6.584962890625,-0.4584543704986572,-0.44661885499954224,0.44684791564941406
1696083179097962800,6.594962646484375,-0.6007859706878662,-0.2566397488117218,0.8469646573066711
1696083179107963000,6.604962890625,-0.6582072973251343,-0.1955532431602478,1.1902709007263184
1696083179117962800,6.614962646484375,-0.6783658266067505,-0.1497383415699005,1.538464069366455
1696083179127963000,6.624962890625,-0.7290676832199097,0.10682506114244461,1.9214766025543213
1696083179137962800,6.634962646484375,-0.835969090461731,0.705473005771637,2.3289237022399902
1696083179147963000,6.644962890625,-1.0906999111175537,1.429348349571228,2.666121244430542
1696083179157962800,6.654962646484375,-1.4950926303863525,1.9785162210464478,2.7980682849884033
1696083179167963000,6.664962890625,-1.9715676307678223,2.221029758453369,2.6960537433624268
1696083179177962800,6.674962646484375,-2.339308500289917,2.06953501701355,2.5103507041931152
1696083179187963000,6.684962890625,-2.4975225925445557,1.5875624418258667,2.44559907913208
1696083179197962800,6.694962646484375,-2.4107797145843506,0.9082802534103394,2.5531113147735596
1696083179207963000,6.704962890625,-2.1151208877563477,0.20945042371749878,2.736370801925659
1696083179217962800,6.714962646484375,-1.7730363607406616,-0.6256023645401001,2.8597655296325684
1696083179227963000,6.724962890625,-1.560455322265625,-1.3995686769485474,2.6673431396484375
1696083179237962800,6.734962646484375,-1.4895949363708496,-1.9383517503738403,2.1365013122558594
1696083179247963000,6.744962890625,-1.4718798398971558,-2.186974048614502,1.4340062141418457
1696083179257962800,6.754962646484375,-1.500590443611145,-2.1106157302856445,0.8805622458457947
1696083179267963000,6.764962890625,-1.5537357330322266,-1.9701167345046997,0.8145887851715088
1696083179277962800,6.774962646484375,-1.6319265365600586,-1.6084845066070557,1.1023063659667969
1696083179287963000,6.784962890625,-1.671021819114685,-0.833907425403595,1.3515393733978271
1696083179297962800,6.794962646484375,-1.616654872894287,0.17218764126300812,1.3716979026794434
1696083179307963000,6.804962890625,-1.4902057647705078,0.9968557357788086,1.2696833610534668
1696083179317962800,6.814962646484375,-1.3319916725158691,1.3933072090148926,1.158505916595459
1696083179327963000,6.824962890625,-1.1756101846694946,1.3462706804275513,1.0968085527420044
1696083179337962800,6.834962646484375,-1.0314459800720215,0.9889144897460938,1.083369493484497
1696083179347963000,6.844962890625,-0.9367618560791016,0.5674174427986145,1.0858129262924194
1696083179357962200,6.854962158203125,-0.9159924387931824,0.24732406437397003,1.0595457553863525
1696083179367962400,6.86496240234375,-0.9434813857078552,0.11965323239564896,1.0094548463821411
1696083179377962200,6.874962158203125,-0.9660834074020386,0.18562667071819305,0.9630290865898132
1696083179387962400,6.88496240234375,-0.9587529897689819,0.3340669274330139,0.8982773423194885
1696083179397962200,6.894962158203125,-0.9202684760093689,0.5228242874145508,0.7925976514816284
1696083179407962400,6.90496240234375,-0.8487972617149353,0.7928267121315002,0.6594290137290955
1696083179417962200,6.914962158203125,-0.7345654368400574,1.0530552864074707,0.5262604355812073
1696083179427962400,6.92496240234375,-0.589790403842926,1.2179889678955078,0.4095851480960846
1696083179437962200,6.934962158203125,-0.43829581141471863,1.2686907052993774,0.29657506942749023
1696083179447962400,6.94496240234375,-0.2941316068172455,1.1996629238128662,0.18112154304981232
1696083179457962200,6.954962158203125,-0.1463022232055664,1.0646617412567139,0.04917465150356293
1696083179467963100,6.964963134765625,0.005803219974040985,0.9314931631088257,-0.12247848510742188
1696083179477963000,6.974962890625,0.1518000066280365,0.8325329422950745,-0.3295617997646332
1696083179487963100,6.984963134765625,0.3081815242767334,0.743346631526947,-0.5433646440505981
1696083179497963000,6.994962890625,0.4841107130050659,0.5979607105255127,-0.7492262125015259
1696083179507963100,7.004963134765625,0.6789767146110535,0.4055381715297699,-0.9532552361488342
1696083179517963000,7.014962890625,0.8732318878173828,0.2192242592573166,-1.1719449758529663
1696083179527963100,7.024963134765625,1.0149526596069336,0.10315986722707748,-1.415069341659546
1696083179537963000,7.034962890625,1.044274091720581,0.0823904499411583,-1.6545284986495972
1696083179547963100,7.044963134765625,0.9837985038757324,0.1935679316520691,-1.8139643669128418
1696083179557963000,7.054962890625,0.8445212244987488,0.48433977365493774,-1.8029687404632568
1696083179567963100,7.064963134765625,0.6172793507575989,0.9394344091415405,-1.5470162630081177
1696083179577963000,7.074962890625,0.37659841775894165,1.287016749382019,-1.2525792121887207
1696083179587963100,7.084963134765625,0.16462817788124084,1.1782827377319336,-1.1200214624404907
1696083179597963000,7.094962890625,0.02229658141732216,0.5313764214515686,-1.0711522102355957
1696083179607963100,7.104963134765625,-0.03451388701796532,-0.4081343412399292,-0.8494081497192383
1696083179617963000,7.114962890625,-0.06627888232469559,-1.1271227598190308,-0.460897833108902
1696083179627963100,7.124963134765625,-0.12553280591964722,-1.4869223833084106,-0.08704829961061478
1696083179637963000,7.134962890625,-0.20066922903060913,-1.5241851806640625,0.10354165732860565
1696083179647963100,7.144963134765625,-0.2672535479068756,-1.2780064344406128,0.11270463466644287
1696083179657963000,7.154962890625,-0.24587325751781464,-0.8986591100692749,-0.0503963828086853
1696083179667963100,7.164963134765625,-0.07422012835741043,-0.4979315400123596,-0.36071592569351196
1696083179677963000,7.174962890625,0.2324342280626297,-0.1955532431602478,-0.7113525867462158
1696083179687963100,7.184963134765625,0.5262604355812073,-0.13813190162181854,-1.0015136003494263
1696083179697963000,7.194962890625,0.741284966468811,-0.35987597703933716,-1.2122620344161987
1696083179707963100,7.204963134765625,0.892779529094696,-0.6579782366752625,-1.1914926767349243
1696083179717963000,7.214962890625,0.8732318878173828,-0.4789946973323822,-0.9196576476097107
1696083179727963100,7.224963134765625,0.7266241908073425,-0.007406740915030241,-0.5256495475769043
1696083179737963000,7.234962890625,0.531147301197052,0.1886810064315796,-0.2935207486152649
1696083179747963100,7.244963134765625,0.3436116874217987,0.2534327208995819,-0.4138612151145935
1696083179757963000,7.254962890625,0.32039880752563477,0.05245805159211159,-0.5500841736793518
1696083179767962400,7.26496240234375,0.4395175576210022,-0.25297456979751587,-0.4651738703250885
1696083179777962200,7.274962158203125,0.6081163287162781,-0.510148823261261,-0.3533855378627777
1696083179787962400,7.28496240234375,0.7950411438941956,-0.672639012336731,-0.3985895812511444
1696083179797962200,7.294962158203125,0.8964447379112244,-0.7386124134063721,-0.49754974246025085
1696083179807962400,7.30496240234375,1.0607675313949585,-0.8803331851959229,-0.8115344643592834
1696083179817962200,7.314962158203125,1.1908818483352661,-0.8394051790237427,-1.14873206615448
1696083179827962400,7.32496240234375,1.3081679344177246,-0.2260964959859848,-1.3912456035614014
1696083179837962200,7.334962158203125,1.2580770254135132,0.7042512893676758,-1.4981470108032227
1696083179847962400,7.34496240234375,1.1047497987747192,1.4598915576934814,-1.3588697910308838
1696083179857962200,7.354962158203125,0.9385944604873657,1.8068630695343018,-1.1187996864318848
1696083179867962400,7.36496240234375,0.7632761001586914,1.7366135120391846,-0.9361509680747986
1696083179877962200,7.374962158203125,0.570853590965271,1.4501177072525024,-0.8304712772369385
1696083179887962400,7.38496240234375,0.40653082728385925,1.123304843902588,-0.7944302558898926
1696083179897962200,7.394962158203125,0.30512720346450806,0.8679631352424622,-0.8500189781188965
1696083179907962400,7.40496240234375,0.34116822481155396,0.10560332983732224,-1.3368785381317139
1696083179917962200,7.414962158203125,0.5580254197120667,-1.8106809854507446,-2.2324070930480957
1696083179927962400,7.42496240234375,0.5910121202468872,-3.2908074855804443,-2.4614815711975098
1696083179937962200,7.434962158203125,0.4749477207660675,-3.898007392883301,-2.0699169635772705
1696083179947962400,7.44496240234375,0.3484986126422882,-3.3463962078094482,-1.197601318359375
1696083179957962200,7.454962158203125,0.2886338233947754,-1.8485546112060547,-0.23854288458824158
1696083179967962400,7.46496240234375,0.25076019763946533,-0.2010510265827179,0.40164390206336975
1696083179977962200,7.474962158203125,0.25014930963516235,0.933936595916748,0.6081163287162781
1696083179987962400,7.48496240234375,0.3081815242767334,1.5655713081359863,0.561079740524292
1696083179997962200,7.494962158203125,0.4095851480960846,1.7469981908798218,0.35705074667930603
1696083180007962400,7.50496240234375,0.470671683549881,1.369483470916748,0.05467243865132332
1696083180017962200,7.514962158203125,0.5244278311729431,0.4959462285041809,-0.2373211532831192
1696083180027962400,7.52496240234375,0.580016553401947,-0.6274349689483643,-0.5543602108955383
1696083180037962200,7.534962158203125,0.5830708742141724,-1.433166265487671,-0.902553379535675
1696083180047962400,7.54496240234375,0.5598580241203308,-1.5754978656768799,-1.1438452005386353
1696083180057962200,7.554962158203125,0.551916778087616,-1.4227814674377441,-1.302059292793274
1696083180067962400,7.56496240234375,0.5659666657447815,-1.1436160802841187,-1.3271046876907349
1696083180077962200,7.574962158203125,0.580016553401947,-0.8345182538032532,-1.1749993562698364
1696083180087962400,7.58496240234375,0.5873469114303589,-0.5828418135643005,-0.9153815507888794
1696083180097962200,7.594962158203125,0.5965099334716797,-0.42707115411758423,-0.6582072973251343
1696083180107962400,7.60496240234375,0.6239988207817078,-0.3836997449398041,-0.5305364727973938
1696083180117962200,7.614962158203125,0.6655376553535461,-0.39103010296821594,-0.551916778087616
1696083180127962400,7.62496240234375,0.7205155491828918,-0.397138774394989,-0.664315938949585
1696083180137962200,7.634962158203125,0.7779368758201599,-0.3727041482925415,-0.7693848013877869
1696083180147962400,7.64496240234375,0.8176431059837341,-0.3525456190109253,-0.8054258227348328
1696083180157962200,7.654962158203125,0.8219192028045654,-0.3769802153110504,-0.7443392872810364
1696083180167962400,7.66496240234375,0.7944302558898926,-0.5034292936325073,-0.5830708742141724
1696083180177962200,7.674962158203125,0.7742717266082764,-0.6885215044021606,-0.3197879493236542
1696083180187962400,7.68496240234375,0.7840455174446106,-0.7624362111091614,0.03756821155548096
1696083180197962200,7.694962158203125,0.826195240020752,-0.5626832246780396,0.4150829315185547
1696083180207962400,7.70496240234375,0.8768970370292664,-0.11675161868333817,0.6789767146110535
1696083180217962200,7.714962158203125,0.8921687006950378,0.3145192563533783,0.7235698699951172
1696083180227962400,7.72496240234375,0.826195240020752,0.46295949816703796,0.4999932050704956
1696083180237962200,7.734962158203125,0.6362161636352539,0.23266330361366272,0.06383541971445084
1696083180247962400,7.74496240234375,0.2977968156337738,-0.22182044386863708,-0.3576616048812866
1696083180257962200,7.754962158203125,-0.11636982858181,-0.5895613431930542,-0.4804455041885376
1696083180267962400,7.76496240234375,-0.5818491578102112,-0.671417236328125,-0.26603180170059204
1696083180277962200,7.774962158203125,-1.0241155624389648,-0.5669593214988708,0.14446963369846344
1696083180287962400,7.78496240234375,-1.3063353300094604,-0.4899902939796448,0.6649268269538879
1696083180297962200,7.794962158203125,-1.3771957159042358,-0.4081343412399292,1.255022644996643
1696083180307962400,7.80496240234375,-1.3222178220748901,-0.055665094405412674,1.8658878803253174
1696083180317962200,7.814962158203125,-1.34115469455719,0.6590472459793091,2.4352142810821533
1696083180327962400,7.82496240234375,-1.5745052099227905,1.408578872680664,2.7840182781219482
1696083180337962200,7.834962158203125,-1.9324722290039062,1.7952566146850586,2.800511598587036
1696083180347962400,7.84496240234375,-2.2379047870635986,1.8294650316238403,2.6087000370025635
1696083180357962200,7.854962158203125,-2.390010356903076,1.522810697555542,2.367408275604248
1696083180367962400,7.86496240234375,-2.3747386932373047,0.9076694250106812,2.2348504066467285
1696083180377962200,7.874962158203125,-2.2403483390808105,0.2540435791015625,2.2598960399627686
1696083180387962400,7.88496240234375,-1.9868391752243042,-0.36537376046180725,2.4016168117523193
1696083180397962200,7.894962158203125,-1.739438772201538,-1.0751992464065552,2.5134050846099854
1696083180407962400,7.90496240234375,-1.5922203063964844,-1.6060410737991333,2.4083361625671387
1696083180417962200,7.914962158203125,-1.5390750169754028,-1.9212476015090942,2.0619757175445557
1696083180427962400,7.92496240234375,-1.4798210859298706,-1.9401843547821045,1.5977180004119873
1696083180437962200,7.934962158203125,-1.4480561017990112,-1.4521030187606812,1.2428053617477417
1696083180447962400,7.94496240234375,-1.41690194606781,-0.7135669589042664,1.1664471626281738
1696083180457962200,7.954962158203125,-1.3704761266708374,0.024358252063393593,1.2305880784988403
1696083180467962400,7.96496240234375,-1.2959506511688232,0.5881868600845337,1.2751811742782593
1696083180477962200,7.974962158203125,-1.1969904899597168,0.8752935528755188,1.2873984575271606
1696083180487962400,7.98496240234375,-1.102917194366455,0.8459720015525818,1.292285442352295
1696083180497962200,7.994962158203125,-1.0516045093536377,0.5985715985298157,1.294118046760559
1696083180507962400,8.00496240234375,-1.045495867729187,0.3542254865169525,1.2397509813308716
1696083180517962200,8.014962158203126,-1.0601565837860107,0.11476630717515945,1.1371256113052368
1696083180527962400,8.02496240234375,-1.1071932315826416,-0.05077817291021347,1.017396092414856
1696083180537962200,8.034962158203125,-1.1633929014205933,-0.037339139729738235,0.9257662892341614
1696083180547962400,8.04496240234375,-1.2189816236495972,0.07506006956100464,0.8885034918785095
1696083180557962200,8.054962158203125,-1.2678507566452026,0.2235003262758255,0.8506298661231995
1696083180567962400,8.06496240234375,-1.2592986822128296,0.439746618270874,0.7748825550079346
1696083180577962200,8.074962158203125,-1.1933252811431885,0.7708355784416199,0.6722571849822998
1696083180587962400,8.08496240234375,-1.0803152322769165,1.1263591051101685,0.560468852519989
1696083180597962200,8.094962158203124,-0.9373727440834045,1.377424716949463,0.4505131244659424
1696083180607962400,8.10496240234375,-0.7687739133834839,1.5399149656295776,0.35094207525253296
1696083180617962200,8.114962158203125,-0.5787948369979858,1.6608662605285645,0.24953845143318176
1696083180627962400,8.12496240234375,-0.38637226819992065,1.6492598056793213,0.14019356667995453
1696083180637962200,8.134962158203125,-0.2116648107767105,1.5050956010818481,0.010079276748001575
1696083180647962400,8.14496240234375,-0.055894169956445694,1.3255012035369873,-0.15424346923828125
1696083180657962200,8.154962158203125,0.07849618047475815,1.1746175289154053,-0.3576616048812866
1696083180667962400,8.16496240234375,0.206777885556221,1.0109056234359741,-0.5952881574630737
1696083180677962200,8.174962158203124,0.3546072840690613,0.8203156590461731,-0.8432994484901428
1696083180687962400,8.18496240234375,0.5378668308258057,0.6248387694358826,-1.0803152322769165
1696083180697962200,8.194962158203126,0.751669704914093,0.4513530433177948,-1.310611367225647
1696083180707962400,8.20496240234375,0.9532552361488342,0.33223432302474976,-1.5238033533096313
1696083180717962200,8.214962158203125,1.073595643043518,0.3444516360759735,-1.710117220878601
1696083180727962400,8.22496240234375,1.1047497987747192,0.4757876694202423,-1.8396207094192505
1696083180737962200,8.234962158203125,1.045495867729187,0.6987534761428833,-1.870163917541504
1696083180747962400,8.24496240234375,0.884227454662323,1.0035752058029175,-1.693013072013855
1696083180757962200,8.254962158203124,0.6533203721046448,1.4152984619140625,-1.3686435222625732
1696083180767962400,8.26496240234375,0.4132503271102905,1.6339881420135498,-1.282511591911316
1696083180777962200,8.274962158203126,0.197004035115242,1.314505696296692,-1.396132469177246
1696083180787962400,8.28496240234375,0.11514809727668762,0.3646101951599121,-1.405906319618225
1696083180797962200,8.294962158203125,0.15302173793315887,-0.8387943506240845,-1.1102476119995117
1696083180807962400,8.30496240234375,0.11453723162412643,-1.7050012350082397,-0.5751296281814575
1696083180817962200,8.314962158203125,-0.07177666574716568,-2.139937400817871,-0.0455094613134861
1696083180827962400,8.32496240234375,-0.2825251817703247,-2.2046890258789062,0.2018909603357315
1696083180837962200,8.334962158203124,-0.4205807149410248,-2.066633462905884,0.126143679022789
1696083180847962400,8.34496240234375,-0.4291328489780426,-2.0098230838775635,-0.03390302136540413
1696083180857962200,8.354962158203126,-0.27030786871910095,-2.0849595069885254,-0.166460782289505
1696083180867962400,8.36496240234375,0.021074850112199783,-2.182086944580078,-0.2922990322113037
1696083180877962200,8.374962158203125,0.3081815242767334,-2.158874034881592,-0.2171625941991806
1696083180887962400,8.38496240234375,0.4401284158229828,-1.7227163314819336,0.10659598559141159
1696083180897962200,8.394962158203125,0.3845396637916565,-0.5119814276695251,0.5213735103607178
1696083180907962400,8.40496240234375,0.38026362657546997,0.6327800154685974,0.39248090982437134
1696083180917962200,8.414962158203124,0.5855143666267395,1.172174096107483,0.1560760736465454
1696083180927962400,8.42496240234375,0.8280278444290161,1.581453800201416,0.06627888232469559
1696083180937962200,8.434962158203126,1.0461066961288452,1.80747389793396,-0.11636982858181
1696083180947962400,8.44496240234375,1.1548407077789307,1.570458173751831,-0.42668938636779785
1696083180957962200,8.454962158203125,1.1273517608642578,0.9907470941543579,-0.7968736886978149
1696083180967962400,8.46496240234375,1.0980303287506104,0.3743840456008911,-1.2324206829071045
1696083180977962200,8.474962158203125,1.0412198305130005,-0.08620835840702057,-1.6826282739639282
1696083180987962400,8.48496240234375,0.9483683109283447,-0.3366630971431732,-1.9660698175430298
1696083180997962200,8.494962158203125,0.8445212244987488,-0.22792910039424896,-1.9361374378204346
1696083181007962400,8.50496240234375,0.7669413089752197,0.06650795042514801,-1.6966781616210938
1696083181017962200,8.514962158203126,0.7211264371871948,0.3798818290233612,-1.4022411108016968
1696083181027962400,8.52496240234375,0.7021896243095398,0.6578255295753479,-1.1591167449951172
1696083181037962200,8.534962158203125,0.6985244154930115,0.8398633599281311,-1.0070114135742188
1696083181047962400,8.54496240234375,0.7003570199012756,0.8948412537574768,-0.9691377282142639
1696083181057962200,8.554962158203125,0.8060367107391357,-0.13141238689422607,-1.7253888845443726
1696083181067962400,8.56496240234375,0.854905903339386,-1.7440966367721558,-2.467590093612671
1696083181077962200,8.574962158203125,0.7144069075584412,-2.667114019393921,-2.358245372772217
1696083181087962400,8.58496240234375,0.489608496427536,-2.542497396469116,-1.6325373649597168
1696083181097962200,8.594962158203124,0.247094988822937,-1.6549103260040283,-0.6997461318969727
1696083181107962400,8.60496240234375,0.07299839705228806,-0.5901721715927124,0.001527163083665073
1696083181117962200,8.614962158203125,0.06994406878948212,0.30169108510017395,0.3448334336280823
1696083181127962400,8.62496240234375,0.14935655891895294,0.7836637496948242,0.38698312640190125
1696083181137962200,8.634962158203125,0.2519819140434265,0.999299168586731,0.24098633229732513
1696083181147962400,8.64496240234375,0.3442225754261017,1.1062005758285522,0.022907447069883347
1696083181157962200,8.654962158203125,0.4150829315185547,0.9473756551742554,-0.14874568581581116
1696083181167962400,8.66496240234375,0.4792237877845764,0.5863542556762695,-0.2941316068172455
1696083181177962200,8.674962158203124,0.5378668308258057,0.046960264444351196,-0.4951062798500061
1696083181187962400,8.68496240234375,0.5677992701530457,-0.5058727860450745,-0.7822129726409912
1696083181197962200,8.694962158203126,0.5574145317077637,-0.8876635432243347,-1.0968085527420044
1696083181207962400,8.70496240234375,0.5677992701530457,-1.1393400430679321,-1.3045027256011963
1696083181217962200,8.714962158203125,0.6013968586921692,-1.2370784282684326,-1.3552045822143555
1696083181227962400,8.72496240234375,0.608727216720581,-1.111240267753601,-1.266018271446228
1696083181237962200,8.734962158203125,0.5916230082511902,-0.8027532696723938,-1.0668761730194092
1696083181247962400,8.74496240234375,0.5684100985527039,-0.4380667507648468,-0.8506298661231995
1696083181257962200,8.754962158203124,0.5555819272994995,-0.17783814668655396,-0.7278459668159485
1696083181267962400,8.76496240234375,0.5635231733322144,-0.08193229883909225,-0.7247915863990784
1696083181277962200,8.774962158203126,0.5946773290634155,-0.10942123830318451,-0.8035932183265686
1696083181287962400,8.78496240234375,0.6496551632881165,-0.16684256494045258,-0.903775155544281
1696083181297962200,8.794962158203125,0.7089090943336487,-0.2303725630044937,-0.9941831827163696
1696083181307962400,8.80496240234375,0.7638869881629944,-0.3287218511104584,-1.017396092414856
1696083181317962200,8.814962158203125,0.8225300312042236,-0.44600799679756165,-0.8805622458457947
1696083181327962400,8.82496240234375,0.8689557909965515,-0.5791766047477722,-0.5757405161857605
1696083181337962200,8.834962158203124,0.884227454662323,-0.7593818306922913,-0.18845193088054657
1696083181347962400,8.84496240234375,0.8604037165641785,-0.9548587203025818,0.17867808043956757
1696083181357962200,8.854962158203126,0.8396342992782593,-1.0361038446426392,0.4657847583293915
1696083181367962400,8.86496240234375,0.8518515825271606,-0.8742245435714722,0.6411030888557434
1696083181377962200,8.874962158203125,0.8915578126907349,-0.5510768294334412,0.684474527835846
1696083181387962400,8.88496240234375,0.9257662892341614,-0.29451340436935425,0.5653557777404785
1696083181397962200,8.894962158203125,0.9098837971687317,-0.24320071935653687,0.27458393573760986
1696083181407962400,8.90496240234375,0.7657195925712585,-0.42035165429115295,-0.10537425428628922
1696083181417962200,8.914962158203124,0.44745880365371704,-0.6799693703651428,-0.39187005162239075
1696083181427962400,8.92496240234375,0.03634648025035858,-0.8613963723182678,-0.4193589985370636
1696083181437962200,8.934962158203126,-0.3747658133506775,-0.9078221321105957,-0.1310305893421173
1696083181447962400,8.94496240234375,-0.7186829447746277,-0.7807621359825134,0.4254676401615143
1696083181457962200,8.954962158203125,-0.997237503528595,-0.43562328815460205,1.1267409324645996
1696083181467962400,8.96496240234375,-1.1872166395187378,-0.0214566420763731,1.788308024406433
1696083181477962200,8.974962158203125,-1.2684617042541504,0.2534327208995819,2.306321620941162
1696083181487962400,8.98496240234375,-1.3381003141403198,0.5594761967658997,2.7015514373779297
1696083181497962200,8.994962158203125,-1.4950926303863525,1.094594120979309,2.942843437194824
1696083181507962400,9.00496240234375,-1.7449365854263306,1.6865226030349731,2.9709432125091553
1696083181517962200,9.014962158203126,-2.0919079780578613,2.062204599380493,2.8267788887023926
1696083181527962400,9.02496240234375,-2.4944682121276855,2.0579285621643066,2.5641069412231445
1696083181537962200,9.034962158203125,-2.8041768074035645,1.6907986402511597,2.3185391426086426
1696083181547962400,9.04496240234375,-2.9153544902801514,1.0811551809310913,2.255620002746582
1696083181557962200,9.054962158203125,-2.7711901664733887,0.2289981096982956,2.3429737091064453
1696083181567962400,9.06496240234375,-2.4767532348632812,-0.8259661793708801,2.4529294967651367
1696083181577962200,9.074962158203125,-2.1566598415374756,-1.8668805360794067,2.3851232528686523
1696083181587962400,9.08496240234375,-1.920865774154663,-2.4734697341918945,1.9831739664077759
1696083181597962200,9.094962158203124,-1.758986473083496,-2.469804525375366,1.4792101383209229
1696083181607962400,9.10496240234375,-1.6221526861190796,-2.0263164043426514,1.1945469379425049
1696083181617962200,9.114962158203125,-1.556179165840149,-1.2285263538360596,1.2287554740905762
1696083181627962400,9.12496240234375,-1.5024230480194092,-0.40508002042770386,1.3515393733978271
1696083181637962200,9.134962158203125,-1.3802499771118164,0.35239288210868835,1.3051135540008545
1696083181647962400,9.14496240234375,-1.2544118165969849,0.9101128578186035,1.122464895248413
1696083181657962200,9.154962158203125,-1.14873206615448,1.2583060264587402,0.932485818862915
1696083181667962400,9.16496240234375,-1.083369493484497,1.3951398134231567,0.7883216142654419
1696083181677962200,9.174962158203124,-1.0534371137619019,1.3810899257659912,0.7357872128486633
1696083181687962400,9.18496240234375,-1.045495867729187,1.2528082132339478,0.7822129726409912
1696083181697962200,9.194962158203126,-1.0436632633209229,1.1098657846450806,0.9098837971687317
1696083181707962400,9.20496240234375,-1.0503827333450317,0.885678231716156,1.0051788091659546
1696083181717962200,9.214962158203125,-1.074817419052124,0.6236170530319214,1.0002918243408203
1696083181727962400,9.22496240234375,-1.1004737615585327,0.49900054931640625,0.903164267539978
1696083181737962200,9.234962158203125,-1.0821478366851807,0.6193410158157349,0.7846564054489136
1696083181747962400,9.24496240234375,-1.0088438987731934,0.9699776768684387,0.6667594313621521
1696083181757962200,9.254962158203124,-0.8994990587234497,1.434846043586731,0.5592471361160278
1696083181767962400,9.26496240234375,-0.7443392872810364,1.80747389793396,0.47250425815582275
1696083181777962200,9.274962158203126,-0.5561928153038025,1.9479728937149048,0.40653082728385925
1696083181787962400,9.28496240234375,-0.34666603803634644,1.8484019041061401,0.3387247920036316
1696083181797962200,9.294962158203125,-0.14935655891895294,1.5796211957931519,0.22449298202991486
1696083181807962400,9.30496240234375,0.011301007121801376,1.2210432291030884,0.03390302136540413
1696083181817962200,9.314962158203125,0.13408492505550385,0.885678231716156,-0.1976149082183838
1696083181827962400,9.32496240234375,0.24587325751781464,0.601015031337738,-0.44806966185569763
1696083181837962200,9.334962158203124,0.3649919927120209,0.3242930769920349,-0.7009678483009338
1696083181847962400,9.34496240234375,0.5232060551643372,0.06223189830780029,-0.9410378932952881
1696083181857962200,9.354962158203126,0.7296785116195679,-0.18761198222637177,-1.1798862218856812
1696083181867962400,9.36496240234375,0.9428704977035522,-0.39408445358276367,-1.435227870941162
1696083181877962200,9.374962158203125,1.0760390758514404,-0.5241987109184265,-1.7076737880706787
1696083181887962400,9.38496240234375,1.0961977243423462,-0.5413029789924622,-1.9507981538772583
1696083181897962200,9.394962158203125,1.0222829580307007,-0.38492146134376526,-2.06075382232666
1696083181907962400,9.40496240234375,0.854905903339386,-0.03978259861469269,-1.920865774154663
1696083181917962200,9.414962158203124,0.6062837839126587,0.4171445965766907,-1.5195273160934448
1696083181927962400,9.42496240234375,0.3631593883037567,0.8068766593933105,-1.1786644458770752
1696083181937962200,9.434962158203126,0.18417587876319885,0.7775551080703735,-1.0418306589126587
1696083181947962400,9.44496240234375,0.10415252298116684,0.31268665194511414,-0.9862419366836548
1696083181957962200,9.454962158203125,0.11209376901388168,-0.23831380903720856,-0.8298604488372803
1696083181967962400,9.46496240234375,0.07788532227277756,-0.642706573009491,-0.5103778839111328
1696083181977962200,9.474962158203125,-0.020463986322283745,-0.9145416021347046,-0.14996741712093353
1696083181987962400,9.48496240234375,-0.1310305893421173,-0.9499717950820923,0.08949175477027893
1696083181997962200,9.494962158203125,-0.2269364446401596,-0.8174140453338623,0.1059851199388504
1696083182007962400,9.50496240234375,-0.21533000469207764,-0.6188828349113464,-0.12919799983501434
1696083182017962200,9.514962158203126,-0.04795292019844055,-0.49732068181037903,-0.4786129295825958
1696083182027962400,9.52496240234375,0.2226603776216507,-0.6451500654220581,-0.7962628602981567
1696083182037962200,9.534962158203125,0.4712825417518616,-1.0648144483566284,-1.0479393005371094
1696083182047962400,9.54496240234375,0.644768238067627,-1.5235742330551147,-1.109636664390564
1696083182057962200,9.554962158203125,0.6887505650520325,-1.5596153736114502,-0.8530732989311218
1696083182067962400,9.56496240234375,0.6398813724517822,-1.1985939741134644,-0.4046982228755951
1696083182077962200,9.574962158203125,0.5720753073692322,-0.3213914632797241,0.11026117950677872
1696083182087962400,9.58496240234375,0.5268712639808655,0.35178202390670776,0.03940080851316452
1696083182097962200,9.594962158203124,0.5403103232383728,0.3798818290233612,0.013133603148162365
1696083182107962400,9.60496240234375,0.570853590965271,0.1330922693014145,0.13469578325748444
1696083182117962200,9.614962158203125,0.6692028641700745,-0.10147999227046967,0.11392636597156525
1696083182127962400,9.62496240234375,0.903775155544281,-0.28962647914886475,-0.1511891484260559
1696083182137962200,9.634962158203125,1.1481212377548218,-0.42096251249313354,-0.55069500207901
1696083182147962400,9.64496240234375,1.386358618736267,-0.4172973334789276,-0.9404270648956299
1696083182157962200,9.654962158203125,1.6105462312698364,-0.12591460347175598,-1.2873984575271606
1696083182167962400,9.66496240234375,1.6704109907150269,0.3597232699394226,-1.623374342918396
1696083182177962200,9.674962158203124,1.4840971231460571,0.734183669090271,-1.8390097618103027
1696083182187962400,9.68496240234375,1.1230757236480713,0.9565386176109314,-1.796249270439148
1696083182197962200,9.694962158203126,0.7669413089752197,1.0726029872894287,-1.5146403312683105
1696083182207962400,9.70496240234375,0.5079344511032104,1.0964267253875732,-1.1511754989624023
1696083182217962200,9.714962158203125,0.38148534297943115,1.1135309934616089,-0.8408560156822205
1696083182227962400,9.72496240234375,0.35033121705055237,1.133689522743225,-0.6820310354232788
1696083182237962200,9.734962158203125,0.470671683549881,0.3487277030944824,-1.1169670820236206
1696083182247962400,9.74496240234375,0.6661485433578491,-1.2749521732330322,-1.8695530891418457
1696083182257962200,9.754962158203124,0.6685920357704163,-2.516841173171997,-2.132836103439331
1696083182267962400,9.76496240234375,0.5445863604545593,-3.036076545715332,-1.9453003406524658
1696083182277962200,9.774962158203126,0.4297437071800232,-2.722702741622925,-1.4132367372512817
1696083182287962400,9.78496240234375,0.36560285091400146,-1.603597640991211,-0.7199047207832336
1696083182297962200,9.794962158203125,0.3295617997646332,-0.206548810005188,-0.11881329119205475
1696083182307962400,9.80496240234375,0.3173444867134094,0.7763333916664124,0.1823432743549347
1696083182317962200,9.814962158203125,0.34055736660957336,1.3505467176437378,0.24953845143318176
1696083182327962400,9.82496240234375,0.3845396637916565,1.5197563171386719,0.17440202832221985
1696083182337962200,9.834962158203124,0.43829581141471863,1.208825945854187,-0.007024950347840786
1696083182347962400,9.84496240234375,0.5054910182952881,0.5374850630760193,-0.26603180170059204
1696083182357962200,9.854962158203126,0.5598580241203308,-0.3317761719226837,-0.5885686874389648
1696083182367962400,9.86496240234375,0.5653557777404785,-1.1643855571746826,-0.9104946255683899
1696083182377962200,9.874962158203125,0.5525276064872742,-1.4869223833084106,-1.11085844039917
1696083182387962400,9.88496240234375,0.5568036437034607,-1.3855187892913818,-1.223868489265442
1696083182397962200,9.894962158203125,0.5720753073692322,-1.0978012084960938,-1.2751811742782593
1696083182407962400,9.90496240234375,0.598953366279602,-0.8113054037094116,-1.2611312866210938
1696083182417962200,9.914962158203124,0.6392704844474792,-0.6036112308502197,-1.1664471626281738
1696083182427962400,9.92496240234375,0.6789767146110535,-0.44539710879325867,-1.0265589952468872
1696083182437962200,9.934962158203126,0.722959041595459,-0.3116176426410675,-0.8903360962867737
1696083182447962400,9.94496240234375,0.7651087045669556,-0.2016618847846985,-0.806647539138794
1696083182457962200,9.954962158203125,0.8084801435470581,-0.13202324509620667,-0.7797694802284241
1696083182467962400,9.96496240234375,0.8414669036865234,-0.11369729042053223,-0.7870998978614807
1696083182477962200,9.974962158203125,0.8713992834091187,-0.13263411819934845,-0.7767151594161987
1696083182487962400,9.98496240234375,0.912938117980957,-0.1753946840763092,-0.7021896243095398
1696083182497962200,9.994962158203125,0.9618073105812073,-0.24320071935653687,-0.5470298528671265
1696083182507962400,10.00496240234375,0.9819658994674683,-0.3672063648700714,-0.3295617997646332
1696083182517962200,10.014962158203126,0.9532552361488342,-0.5535202622413635,-0.09987647086381912
1696083182527962400,10.02496240234375,0.9190467596054077,-0.700738787651062,0.12247848510742188
1696083182537962200,10.034962158203125,0.8970556259155273,-0.7092909216880798,0.33200526237487793
1696083182547962400,10.04496240234375,0.8628471493721008,-0.6268240809440613,0.4596760869026184
1696083182557962200,10.054962158203125,0.7754934430122375,-0.6042220592498779,0.41691553592681885
1696083182567962400,10.06496240234375,0.5751296281814575,-0.7428885102272034,0.17928895354270935
1696083182577962200,10.074962158203125,0.2513710558414459,-0.9499717950820923,-0.08704829961061478
1696083182587962400,10.08496240234375,-0.09926560521125793,-1.0745882987976074,-0.15302173793315887
1696083182597962200,10.094962158203124,-0.42241331934928894,-1.0025062561035156,0.0705549344420433
1696083182607962400,10.10496240234375,-0.693637490272522,-0.7141778469085693,0.5213735103607178
1696083182617962200,10.114962158203125,-0.8897252082824707,-0.35987597703933716,1.0711522102355957
1696083182627962400,10.12496240234375,-0.997848391532898,-0.09598220139741898,1.5745052099227905
1696083182637962200,10.134962158203125,-1.0760390758514404,0.12881620228290558,1.969735026359558
1696083182647962400,10.14496240234375,-1.1688905954360962,0.5118287205696106,2.3124303817749023
1696083182657962200,10.154962158203125,-1.3802499771118164,1.0341185331344604,2.598926067352295
1696083182667962400,10.16496240234375,-1.758986473083496,1.3908637762069702,2.6960537433624268
1696083182677962200,10.174962158203124,-2.2372939586639404,1.5484670400619507,2.610532522201538
1696083182687962400,10.18496240234375,-2.674673557281494,1.5112042427062988,2.440101146697998
1696083182697962200,10.194962158203126,-2.9220738410949707,1.1941652297973633,2.2879958152770996
1696083182707962400,10.20496240234375,-2.948341131210327,0.7445683479309082,2.2372939586639404
1696083182717962200,10.214962158203125,-2.7797422409057617,0.25037840008735657,2.34175181388855
1696083182727962400,10.22496240234375,-2.425440549850464,-0.36964982748031616,2.4975225925445557
1696083182737962200,10.234962158203125,-2.0644190311431885,-1.2053134441375732,2.523789644241333
1696083182747962400,10.24496240234375,-1.831068515777588,-1.8192330598831177,2.2568416595458984
1696083182757962200,10.254962158203124,-1.6716327667236328,-2.0373120307922363,1.7840319871902466
1696083182767962400,10.26496240234375,-1.5812246799468994,-1.6103171110153198,1.3148874044418335
1696083182777962200,10.274962158203126,-1.5231925249099731,-0.7740426063537598,1.1578950881958008
1696083182787962400,10.28496240234375,-1.4663820266723633,-0.0794888436794281,1.2770137786865234
1696083182797962200,10.294962158203125,-1.3576480150222778,0.43302708864212036,1.359480619430542
1696083182807962400,10.30496240234375,-1.2195924520492554,0.7769442200660706,1.3472633361816406
1696083182817962200,10.314962158203125,-1.0797042846679688,0.9528734087944031,1.2770137786865234
1696083182827962400,10.32496240234375,-0.9868528246879578,0.9522625803947449,1.1957687139511108
1696083182837962200,10.334962158203124,-0.9526443481445312,0.7885506749153137,1.133460521697998
1696083182847962400,10.34496240234375,-0.9630290865898132,0.5606979131698608,1.0900890827178955
1696083182857962200,10.354962158203126,-1.0375546216964722,0.4244749844074249,1.0589349269866943
1696083182867962400,10.36496240234375,-1.1426234245300293,0.3945426046848297,1.061989188194275
1696083182877962200,10.374962158203125,-1.2189816236495972,0.4165337383747101,1.0949759483337402
1696083182887962400,10.38496240234375,-1.2263119220733643,0.44829872250556946,1.1200214624404907
1696083182897962200,10.394962158203125,-1.1902709007263184,0.6028476357460022,1.1114692687988281
1696083182907962400,10.40496240234375,-1.1279627084732056,0.91438889503479,1.0534371137619019
1696083182917962200,10.414962158203124,-1.0155634880065918,1.21737802028656,0.9049968719482422
1696083182927962400,10.42496240234375,-0.8866708874702454,1.516091227531433,0.7144069075584412
1696083182937962200,10.434962158203126,-0.7559457421302795,1.7787632942199707,0.5348125100135803
1696083182947962400,10.44496240234375,-0.6233879923820496,1.8477909564971924,0.39797869324684143
1696083182957962200,10.454962158203125,-0.47189339995384216,1.6920204162597656,0.28496864438056946
1696083182967962400,10.46496240234375,-0.3039054572582245,1.4006376266479492,0.15363261103630066
1696083182977962200,10.474962158203125,-0.1310305893421173,1.1306352615356445,-0.01618792861700058
1696083182987962400,10.48496240234375,0.03451388701796532,0.9644798636436462,-0.24404066801071167
1696083182997962200,10.494962158203125,0.19822576642036438,0.8313112258911133,-0.5048801302909851
1696083183007962400,10.50496240234375,0.37171149253845215,0.666377604007721,-0.7754934430122375
1696083183017962200,10.514962158203126,0.5739079117774963,0.46845728158950806,-1.044274091720581
1696083183027962400,10.52496240234375,0.7822129726409912,0.28214338421821594,-1.3338242769241333
1696083183037962200,10.534962158203125,0.9312640428543091,0.1227075532078743,-1.6502524614334106
1696083183047962400,10.54496240234375,0.9691377282142639,0.023747386410832405,-1.9520199298858643
1696083183057962200,10.554962158203125,0.9532552361488342,0.058566704392433167,-2.1823160648345947
1696083183067962400,10.56496240234375,0.9013316631317139,0.31696268916130066,-2.233017921447754
1696083183077962200,10.574962158203125,0.7577783465385437,0.8178722262382507,-1.911091923713684
1696083183087962400,10.58496240234375,0.49754974246025085,1.3224469423294067,-1.3729196786880493
1696083183097962200,10.594962158203124,0.21349740028381348,1.2528082132339478,-1.1071932315826416
1696083183107962400,10.60496240234375,0.001527163083665073,0.4244749844074249,-1.0338894128799438
1696083183117962200,10.614962158203125,-0.06688974797725677,-0.7777078151702881,-0.8512406945228577
1696083183127962400,10.62496240234375,-0.04734205827116966,-1.5217416286468506,-0.5684100985527039
1696083183137962200,10.634962158203125,-0.02168571576476097,-1.6842318773269653,-0.28680121898651123
1696083183147962400,10.64496240234375,-0.0455094613134861,-1.6652950048446655,-0.06444628536701202
1696083183157962200,10.654962158203125,-0.11209376901388168,-1.4985288381576538,0.03145955875515938
1696083183167962400,10.66496240234375,-0.1609629988670349,-1.127733588218689,-0.07910704612731934
1696083183177962200,10.674962158203124,-0.09987647086381912,-0.8113054037094116,-0.3448334336280823
1696083183187962400,10.68496240234375,0.07483099400997162,-0.880944013595581,-0.5885686874389648
1696083183197962200,10.694962158203126,0.289244681596756,-1.2413545846939087,-0.7675521969795227
1696083183207962400,10.70496240234375,0.49816060066223145,-1.4887549877166748,-0.7205155491828918
1696083183217962200,10.714962158203125,0.6282749176025391,-1.2651783227920532,-0.4199698567390442
1696083183227962400,10.72496240234375,0.6288857460021973,-0.9463066458702087,-0.052228979766368866
1696083183237962200,10.734962158203125,0.503047525882721,-0.35926511883735657,0.10903944820165634
1696083183247962400,10.74496240234375,0.39553526043891907,0.15202908217906952,-0.24526239931583405
1696083183257962200,10.754962158203124,0.503047525882721,0.23999367654323578,-0.31551191210746765
1696083183267962400,10.76496240234375,0.6508769392967224,0.1483639031648636,-0.20005837082862854
1696083183277962200,10.774962158203126,0.8787296414375305,-0.05627596005797386,-0.2776382565498352
1696083183287962400,10.78496240234375,1.1676689386367798,-0.2615266740322113,-0.6313292384147644
1696083183297962200,10.794962158203125,1.4388930797576904,-0.3610977232456207,-1.0308351516723633
1696083183307962400,10.80496240234375,1.6001615524291992,-0.20899227261543274,-1.3368785381317139
1696083183317962200,10.814962158203125,1.603826642036438,0.09399688988924026,-1.6197092533111572
1696083183327962400,10.82496240234375,1.4584407806396484,0.42264237999916077,-1.8359555006027222
1696083183337962200,10.834962158203124,1.1548407077789307,0.7867180705070496,-1.8274034261703491
1696083183347962400,10.84496240234375,0.8176431059837341,1.1373547315597534,-1.603826642036438
1696083183357962200,10.854962158203126,0.5781839489936829,1.3175599575042725,-1.3319916725158691
1696083183367962400,10.86496240234375,0.4505131244659424,1.380479097366333,-1.1016954183578491
1696083183377962200,10.874962158203125,0.45173484086990356,1.21737802028656,-1.0821478366851807
1696083183387962400,10.88496240234375,0.6270532011985779,0.27725645899772644,-1.5683965682983398
1696083183397962200,10.894962158203125,0.6582072973251343,-1.0678688287734985,-1.8280142545700073
1696083183407962400,10.90496240234375,0.5812382698059082,-1.6298648118972778,-1.7424931526184082
1696083183417962200,10.914962158203124,0.318566232919693,-2.229123592376709,-1.2641856670379639
1696083183427962400,10.92496240234375,0.041233405470848083,-2.147878646850586,-0.6105598211288452
1696083183437962200,10.934962158203126,-0.08460483700037003,-1.5516741275787354,-0.06017022579908371
1696083183447962400,10.94496240234375,-0.016798794269561768,-0.700738787651062,0.2477058619260788
1696083183457962200,10.954962158203125,0.1359175145626068,0.10193813592195511,0.29168814420700073
1696083183467962400,10.96496240234375,0.24159720540046692,0.6150649189949036,0.20311269164085388
1696083183477962200,10.974962158203125,0.3179553747177124,0.8184830546379089,0.08032877743244171
1696083183487962400,10.98496240234375,0.41202861070632935,0.7781659364700317,-0.07483099400997162
1696083183497962200,10.994962158203125,0.5280929803848267,0.5063309073448181,-0.2819143235683441
1696083183507962400,11.00496240234375,0.6685920357704163,0.14042264223098755,-0.531147301197052
1696083183517962200,11.014962158203126,0.731511116027832,-0.3513238728046417,-0.8561276197433472
1696083183527962400,11.02496240234375,0.722348153591156,-0.7911468744277954,-1.1817188262939453
1696083183537962200,11.034962158203125,0.7211264371871948,-1.0025062561035156,-1.435227870941162
1696083183547962400,11.04496240234375,0.7400632500648499,-1.0000628232955933,-1.5347989797592163
1696083183557962200,11.054962158203125,0.7620543837547302,-0.8387943506240845,-1.4327844381332397
1696083183567962400,11.06496240234375,0.7535023093223572,-0.6219371557235718,-1.197601318359375
1696083183577962200,11.074962158203125,0.7339546084403992,-0.43562328815460205,-0.9111055135726929
1696083183587962400,11.08496240234375,0.7199047207832336,-0.3623194396495819,-0.683863639831543
1696083183597962200,11.094962158203124,0.7266241908073425,-0.42707115411758423,-0.580016553401947
1696083183607962400,11.10496240234375,0.7498371005058289,-0.5437464118003845,-0.5934556126594543
1696083183617962200,11.114962158203125,0.7974845767021179,-0.6365979313850403,-0.6759223937988281
1696083183627962400,11.12496240234375,0.8463537693023682,-0.690964937210083,-0.7541131377220154
1696083183637962200,11.134962158203125,0.8988882303237915,-0.7153995633125305,-0.7363980412483215
1696083183647962000,11.144962158203125,0.9709703326225281,-0.7386124134063721,-0.570853590965271
1696083183657962200,11.154962158203125,1.0485502481460571,-0.8088619709014893,-0.2788599729537964
1696083183667962400,11.16496240234375,1.101084589958191,-0.910876452922821,0.04306599870324135
1696083183677962200,11.174962158203124,1.1133018732070923,-0.9805150628089905,0.30085113644599915
1696083183687962000,11.184962158203126,1.102917194366455,-0.9041569232940674,0.4340197443962097
1696083183697962200,11.194962158203126,1.0803152322769165,-0.6457608938217163,0.45723262429237366
1696083183707962400,11.20496240234375,1.0351111888885498,-0.2822960913181305,0.40164390206336975
1696083183717962200,11.214962158203125,0.9318749308586121,0.03779728710651398,0.2580905556678772
1696083183727962000,11.224962158203125,0.7052439451217651,0.16180293262004852,0.018020525574684143
1696083183737962200,11.234962158203125,0.35094207525253296,0.03718642145395279,-0.21594086289405823
1696083183747962400,11.24496240234375,-0.03695734590291977,-0.15401439368724823,-0.2226603776216507
1696083183757962200,11.254962158203124,-0.37720927596092224,-0.15401439368724823,0.09254608303308487
1696083183767962000,11.264962158203126,-0.6698137521743774,0.059177570044994354,0.5745187401771545
1696083183777962200,11.274962158203126,-0.9416487812995911,0.31818443536758423,1.0265589952468872
1696083183787962400,11.28496240234375,-1.149953842163086,0.4311945140361786,1.3759739398956299
1696083183797962200,11.294962158203125,-1.2507466077804565,0.42936190962791443,1.6856826543807983
1696083183807962000,11.304962158203125,-1.313665747642517,0.5588653683662415,2.0222694873809814
1696083183817962200,11.314962158203125,-1.4578299522399902,0.8844565153121948,2.364353895187378
1696083183827962400,11.32496240234375,-1.7498234510421753,1.1862239837646484,2.5647177696228027
1696083183837962200,11.334962158203124,-2.1682662963867188,1.3181707859039307,2.562274217605591
1696083183847962000,11.344962158203124,-2.551889657974243,1.2900710105895996,2.454151153564453
1696083183857962200,11.354962158203126,-2.7766878604888916,1.1294134855270386,2.34480619430542
1696083183867962400,11.36496240234375,-2.785851001739502,0.7586182951927185,2.2824978828430176
1696083183877962200,11.374962158203125,-2.6233608722686768,0.23755022883415222,2.3179280757904053
1696083183887962000,11.384962158203125,-2.308154344558716,-0.529696524143219,2.4217753410339355
1696083183897962200,11.394962158203125,-2.024101972579956,-1.3256539106369019,2.4107797145843506
1696083183907962400,11.40496240234375,-1.879937767982483,-1.7422640323638916,2.152383804321289
1696083183917962200,11.414962158203124,-1.7986927032470703,-1.687286138534546,1.7253888845443726
1696083183927962000,11.424962158203124,-1.6997325420379639,-1.2077569961547852,1.2776246070861816
1696083183937962200,11.434962158203126,-1.5207489728927612,-0.8284096121788025,1.091310739517212
1696083183947962400,11.44496240234375,-1.4162911176681519,-0.5034292936325073,1.142012596130371
1696083183957962200,11.454962158203125,-1.3753631114959717,-0.15279266238212585,1.2287554740905762
1696083183967962000,11.464962158203125,-1.3558154106140137,0.26748260855674744,1.1847730875015259
1696083183977962200,11.474962158203125,-1.3350459337234497,0.6688210964202881,1.0534371137619019
1696083183987962400,11.48496240234375,-1.303891897201538,0.8740718364715576,0.9544769525527954
1696083183997962200,11.494962158203125,-1.28434419631958,0.8820130825042725,0.9111055135726929
1696083184007962000,11.504962158203124,-1.2855658531188965,0.7812203168869019,0.9056077003479004
1696083184017962200,11.514962158203126,-1.300837516784668,0.7060838937759399,0.8994990587234497
1696083184027962400,11.52496240234375,-1.3197743892669678,0.7189120650291443,0.8622363209724426
1696083184037962200,11.534962158203125,-1.311833143234253,0.734183669090271,0.8469646573066711
1696083184047962000,11.544962158203125,-1.2672399282455444,0.6590472459793091,0.8402451276779175
1696083184057962200,11.554962158203125,-1.2006556987762451,0.6535494327545166,0.8188648819923401
1696083184067962400,11.56496240234375,-1.091310739517212,0.7830528616905212,0.7577783465385437
1696083184077962200,11.574962158203125,-0.9569203853607178,1.0255663394927979,0.6252205967903137
1696083184087962000,11.584962158203124,-0.8396342992782593,1.2974014282226562,0.44318273663520813
1696083184097962200,11.594962158203124,-0.7156286239624023,1.4916565418243408,0.27519479393959045
1696083184107962400,11.60496240234375,-0.561079740524292,1.5655713081359863,0.15363261103630066
1696083184117962200,11.614962158203125,-0.39187005162239075,1.4940999746322632,0.06933320313692093
1696083184127962000,11.624962158203125,-0.2171625941991806,1.3548227548599243,-0.011301007121801376
1696083184137963000,11.634962890625,-0.04489859566092491,1.1801153421401978,-0.13286319375038147
1696083184147963100,11.644963134765625,0.11270463466644287,1.000520944595337,-0.3179553747177124
1696083184157963000,11.654962890625,0.26969701051712036,0.8355873227119446,-0.5494732856750488
1696083184167963100,11.664963134765625,0.4437935948371887,0.6639341711997986,-0.8029823899269104
1696083184177963000,11.674962890625,0.6411030888557434,0.47884199023246765,-1.0644327402114868
1696083184187963100,11.684963134765624,0.8524624705314636,0.2888629138469696,-1.3277156352996826
1696083184197963000,11.694962890625,1.0057896375656128,0.12148582190275192,-1.575726866722107
1696083184207963100,11.704963134765626,1.0448850393295288,0.0567341111600399,-1.7773123979568481
1696083184217963000,11.714962890625,1.0057896375656128,0.19662225246429443,-1.8878790140151978
1696083184227963100,11.724963134765625,0.8707883954048157,0.5289329290390015,-1.8072447776794434
1696083184237963000,11.734962890625,0.6246097087860107,1.0683269500732422,-1.4547755718231201
1696083184247963100,11.744963134765625,0.337503045797348,1.5551865100860596,-1.0876455307006836
1696083184257963000,11.754962890625,0.11331550031900406,1.445841670036316,-0.9697485566139221
1696083184267963100,11.764963134765624,0.02474004216492176,0.6394995450973511,-0.9734137654304504
1696083184277963000,11.774962890625,0.0809396430850029,-0.5125923156738281,-0.9385944604873657
1696083184287963100,11.784963134765626,0.20005837082862854,-1.4887549877166748,-0.8206974864006042
1696083184297963000,11.794962890625,0.2611449062824249,-1.91636061668396,-0.6356052756309509
1696083184307963100,11.804963134765625,0.19333885610103607,-1.9633972644805908,-0.44135013222694397
1696083184317963000,11.814962890625,0.038179077208042145,-1.7734181880950928,-0.2727513313293457
1696083184327963100,11.824963134765625,-0.11575896292924881,-1.3335951566696167,-0.1963931769132614
1696083184337963000,11.834962890625,-0.1518000066280365,-0.7276168465614319,-0.2825251817703247
1696083184347963100,11.844963134765624,-0.008246680721640587,-0.12163854390382767,-0.49693888425827026
1696083184357963000,11.854962890625,0.21105393767356873,0.18440493941307068,-0.654542088508606
1696083184367963100,11.864963134765626,0.3546072840690613,0.07933612167835236,-0.7571674585342407
1696083184377963000,11.874962890625,0.46639561653137207,-0.27313312888145447,-0.8231409192085266
1696083184387963100,11.884963134765625,0.551305890083313,-0.44112107157707214,-0.7571674585342407
1696083184397963000,11.894962890625,0.5482515692710876,-0.39591702818870544,-0.5555819272994995
1696083184407963100,11.904963134765625,0.41202861070632935,-0.5620723962783813,-0.3020728528499603
1696083184417963000,11.914962890625,0.1621847152709961,-0.5187009572982788,-0.19028452038764954
1696083184427963100,11.924963134765624,0.055283304303884506,-0.2975677251815796,-0.22632557153701782
1696083184437962200,11.934962158203126,0.11331550031900406,-0.1552361249923706,-0.12919799983501434
1696083184447962000,11.944962158203126,0.26419922709465027,-0.20288361608982086,-0.019853120669722557
1696083184457962200,11.954962158203125,0.47800204157829285,-0.37942367792129517,-0.04734205827116966
1696083184467962400,11.96496240234375,0.7186829447746277,-0.662865161895752,-0.25442537665367126
1696083184477962200,11.974962158203125,0.967915952205658,-0.9182068109512329,-0.5598580241203308
1696083184487962000,11.984962158203125,1.1212431192398071,-0.9206503033638,-0.912327229976654
1696083184497962200,11.994962158203125,1.1279627084732056,-0.5901721715927124,-1.2611312866210938
1696083184507962400,12.00496240234375,1.027169942855835,-0.012293662875890732,-1.4731014966964722
1696083184517962200,12.014962158203126,0.9221010804176331,0.5704717636108398,-1.3967434167861938
1696083184527962000,12.024962158203126,0.84574294090271,0.8300895094871521,-1.1163562536239624
1696083184537962200,12.034962158203125,0.7834346890449524,0.7958810329437256,-0.7852672934532166
1696083184547962400,12.04496240234375,0.741895854473114,0.7128033638000488,-0.5531384944915771
1696083184557962200,12.054962158203125,0.7235698699951172,0.7091382145881653,-0.4889976382255554
1696083184567962000,12.064962158203125,0.7651087045669556,0.61139976978302,-0.7467827796936035
1696083184577962200,12.074962158203125,0.8542950749397278,0.2289981096982956,-1.2928962707519531
1696083184587962400,12.08496240234375,0.865290641784668,-0.3513238728046417,-1.7418822050094604
1696083184597962200,12.094962158203124,0.7663304209709167,-0.9243154525756836,-1.8628336191177368
1696083184607962000,12.104962158203126,0.6313292384147644,-1.1998157501220703,-1.6349807977676392
1696083184617962200,12.114962158203125,0.5097670555114746,-1.0251082181930542,-1.1658363342285156
1696083184627962400,12.12496240234375,0.43157628178596497,-0.5559637546539307,-0.6307183504104614
1696083184637962200,12.134962158203125,0.40286561846733093,-0.029397889971733093,-0.20372356474399567
1696083184647962000,12.144962158203125,0.39064833521842957,0.3866013288497925,-0.005192354787141085
1696083184657962200,12.154962158203125,0.37110063433647156,0.5661957263946533,0.014355333521962166
1696083184667962400,12.16496240234375,0.3582724630832672,0.46357035636901855,-0.0503963828086853
1696083184677962200,12.174962158203124,0.3784310221672058,0.18929186463356018,-0.14996741712093353
1696083184687962000,12.184962158203126,0.4291328489780426,-0.2004401534795761,-0.26542094349861145
1696083184697962200,12.194962158203126,0.49754974246025085,-0.5620723962783813,-0.37171149253845215
1696083184707962400,12.20496240234375,0.551305890083313,-0.7819838523864746,-0.4853324294090271
1696083184717962200,12.214962158203125,0.5665774941444397,-0.8876635432243347,-0.6294966340065002
1696083184727962000,12.224962158203125,0.5580254197120667,-0.8876635432243347,-0.7773260474205017
1696083184737962200,12.234962158203125,0.5543602108955383,-0.8271878957748413,-0.8677340745925903
1696083184747962400,12.24496240234375,0.5665774941444397,-0.711123526096344,-0.854905903339386
1696083184757962200,12.254962158203124,0.5885686874389648,-0.5639050006866455,-0.7651087045669556
1696083184767962000,12.264962158203126,0.5910121202468872,-0.42157337069511414,-0.6582072973251343
1696083184777962200,12.274962158203126,0.5616905689239502,-0.29878947138786316,-0.5965099334716797
1696083184787962400,12.28496240234375,0.5354233980178833,-0.2157117873430252,-0.608727216720581
1696083184797962200,12.294962158203125,0.5305364727973938,-0.17234036326408386,-0.6734789609909058
1696083184807962000,12.304962158203125,0.5561928153038025,-0.16623170673847198,-0.7730499505996704
1696083184817962200,12.314962158203125,0.5971207618713379,-0.19677497446537018,-0.8878926634788513
1696083184827962400,12.32496240234375,0.6508769392967224,-0.2676353454589844,-0.9850202202796936
1696083184837962200,12.334962158203124,0.7137960195541382,-0.3476586937904358,-1.0033462047576904
1696083184847962000,12.344962158203124,0.770606517791748,-0.3812562823295593,-0.8793405294418335
1696083184857962200,12.354962158203126,0.8078693151473999,-0.3733150362968445,-0.6252205967903137
1696083184867962400,12.36496240234375,0.8158105611801147,-0.38980838656425476,-0.3149010241031647
1696083184877962200,12.374962158203125,0.7987062931060791,-0.46555566787719727,-0.013133603148162365
1696083184887962000,12.384962158203125,0.7761042714118958,-0.5468007326126099,0.2477058619260788
1696083184897962200,12.394962158203125,0.7541131377220154,-0.5761222839355469,0.451123982667923
1696083184907962400,12.40496240234375,0.7272350788116455,-0.5150357484817505,0.5690209865570068
1696083184917962200,12.414962158203124,0.6899722814559937,-0.377591073513031,0.5720753073692322
1696083184927962000,12.424962158203124,0.6246097087860107,-0.2364812046289444,0.4407392740249634
1696083184937962200,12.434962158203126,0.5006040930747986,-0.15645785629749298,0.20922134816646576
1696083184947962400,12.44496240234375,0.2776382565498352,-0.10881037265062332,-0.02779436856508255
1696083184957962200,12.454962158203125,-0.043676864355802536,0.0029779679607599974,-0.1518000066280365
1696083184967962000,12.464962158203125,-0.4144720733165741,0.2387719452381134,-0.07299839705228806
1696083184977962200,12.474962158203125,-0.7638869881629944,0.5808565020561218,0.2428189367055893
1696083184987962400,12.48496240234375,-1.0974193811416626,0.8563567399978638,0.6979135274887085
