time,seconds_elapsed,z,y,x
1695713545015590400,0.18759033203125,0.3126249313354492,1.228642463684082,-0.18968462944030762
1695713545025626600,0.197626708984375,0.38185691833496094,1.6211035251617432,-0.3987048268318176
1695713545035643600,0.2076435546875,-0.057318687438964844,1.4625744819641113,-0.24520349502563477
1695713545045689000,0.217689208984375,-0.512080192565918,1.0699195861816406,-0.003539562225341797
1695713545055692800,0.22769287109375,-0.8792228698730469,0.8333315849304199,0.22997570037841797
1695713545065754600,0.237754638671875,-1.069131851196289,0.8315286636352539,0.4680178165435791
1695713545075783000,0.247782958984375,-1.1042423248291016,1.15116286277771,0.5993901491165161
1695713545085982500,0.257982421875,-1.2342596054077148,2.212505340576172,-0.5536977052688599
1695713545096010800,0.2680107421875,-1.359816551208496,3.3742780685424805,-2.0592212677001953
1695713545106023400,0.2780234375,-1.3733949661254883,2.577120304107666,-2.7353875637054443
1695713545116065300,0.288065185546875,-1.2367877960205078,-0.4474797248840332,-1.2579529285430908
1695713545126093600,0.298093505859375,-1.0537614822387695,-0.6032297611236572,-0.6603769063949585
1695713545136121900,0.308121826171875,-0.17301082611083984,0.35767126083374023,-0.21542608737945557
1695713545145988900,0.31798876953125,0.23512554168701172,0.22238373756408691,0.26546710729599
1695713545155953200,0.327953125,0.354339599609375,-0.32306408882141113,0.38813334703445435
1695713545166049000,0.338049072265625,0.46425628662109375,-0.4043455123901367,0.014405250549316406
1695713545176069000,0.348069091796875,0.6113224029541016,-0.4395565986633301,-0.14218398928642273
1695713545186116000,0.3581162109375,0.4212026596069336,-0.20674896240234375,-0.42548230290412903
1695713545196147500,0.3681474609375,-0.21177291870117188,-0.17198729515075684,-0.8781552314758301
1695713545206192600,0.378192626953125,-0.8256216049194336,-0.33422064781188965,-1.4602160453796387
1695713545216230000,0.38822998046875,-1.3358936309814453,-0.2836432456970215,-1.8103916645050049
1695713545226269700,0.398269775390625,-1.8328986167907715,-0.3589935302734375,-1.5747249126434326
1695713545236308000,0.408307861328125,-1.8138995170593262,-0.5451345443725586,-0.6313474178314209
1695713545246328000,0.418328125,-1.3897790908813477,-0.34392499923706055,0.13794934749603271
1695713545256358700,0.428358642578125,-1.4432902336120605,0.12879371643066406,0.16848480701446533
1695713545266386400,0.438386474609375,-1.2363595962524414,-0.1773514747619629,-0.05300116539001465
1695713545276415700,0.448415771484375,-0.7103824615478516,-0.7418532371520996,-0.16697251796722412
1695713545286450000,0.458449951171875,-0.853571891784668,-0.2540318965911865,-0.6020877361297607
1695713545296481000,0.46848095703125,-0.7036561965942383,-0.9295341968536377,-0.020186662673950195
1695713545306531300,0.47853125,-0.9503564834594727,-1.4786510467529297,-0.086159348487854
1695713545316570600,0.488570556640625,-1.2241263389587402,-1.758786678314209,-0.05318045616149902
1695713545326595300,0.49859521484375,-1.5887455940246582,-1.8088291883468628,0.3156249523162842
1695713545336628500,0.50862841796875,-2.1720290184020996,-2.0734195709228516,1.0863490104675293
1695713545346658600,0.518658447265625,-3.006711959838867,-2.2470033168792725,1.1513583660125732
1695713545356690200,0.528690185546875,-3.4398231506347656,-2.719712018966675,0.1121218204498291
1695713545366697500,0.538697509765625,-3.2751121520996094,-3.352301597595215,-0.9574378728866577
1695713545376718800,0.54871875,-2.684804916381836,-3.9882102012634277,-1.3959306478500366
1695713545386775800,0.55877587890625,-2.3985977172851562,-4.377655506134033,-1.4437123537063599
1695713545396812000,0.56881201171875,-2.769380569458008,-4.825719833374023,-1.8886661529541016
1695713545406840800,0.5788408203125,-3.250586986541748,-5.399601936340332,-2.5076849460601807
1695713545416874200,0.588874267578125,-4.149294376373291,-5.9720563888549805,-2.304779291152954
1695713545426887000,0.598886962890625,-4.663356781005859,-6.923016548156738,-1.2746014595031738
1695713545436918000,0.60891796875,-3.413012742996216,-6.12372350692749,-2.3095357418060303
1695713545446998300,0.618998291015625,-3.270782709121704,-6.590256214141846,-2.4825026988983154
1695713545457034200,0.6290341796875,-2.819399833679199,-7.234240531921387,-2.9242501258850098
1695713545467063000,0.63906298828125,-2.1252694129943848,-7.645550727844238,-3.719048023223877
1695713545477098200,0.64909814453125,-1.4768919944763184,-7.821019172668457,-4.577383995056152
1695713545487115300,0.659115234375,-1.0572075843811035,-8.883710861206055,-4.428768157958984
1695713545497148700,0.669148681640625,-0.8185410499572754,-9.443848609924316,-3.424236297607422
1695713545507159000,0.679158935546875,-1.296485185623169,-8.87279224395752,-1.2956061363220215
1695713545517190100,0.689190185546875,-2.604158401489258,-8.02863597869873,0.8552489280700684
1695713545527224000,0.69922412109375,-3.1030149459838867,-6.923985481262207,2.220263957977295
1695713545537255400,0.70925537109375,-2.0867412090301514,-6.119292259216309,2.657073974609375
1695713545547302400,0.719302490234375,0.21566057205200195,-5.203904151916504,2.0785441398620605
1695713545557335300,0.729335205078125,2.1759109497070312,-3.4999961853027344,3.678752899169922
1695713545567351300,0.739351318359375,3.2444252967834473,-2.075620174407959,7.705883502960205
1695713545577382400,0.74938232421875,3.2971835136413574,-1.185272216796875,12.675725936889648
1695713545587431700,0.759431640625,2.4648780822753906,-0.03648853302001953,17.740129470825195
1695713545597464600,0.769464599609375,1.354770302772522,2.1187615394592285,21.16661262512207
1695713545607527700,0.779527587890625,0.6019120216369629,4.819760322570801,22.438411712646484
1695713545617563600,0.789563720703125,0.4229804277420044,6.551598072052002,22.007671356201172
1695713545627725300,0.799725341796875,-0.3609431982040405,6.399672508239746,20.623655319213867
1695713545637761500,0.809761474609375,-0.24194741249084473,7.4771928787231445,18.517915725708008
1695713545647797500,0.819797607421875,-1.6766643524169922,7.788712501525879,16.655048370361328
1695713545657646800,0.829646728515625,-4.336950302124023,7.709377288818359,14.506317138671875
1695713545667668700,0.839668701171875,-7.552570343017578,7.580028533935547,12.546873092651367
1695713545677727700,0.849727783203125,-10.100401878356934,7.411679267883301,10.346012115478516
1695713545687753200,0.859753173828125,-10.713327407836914,7.0620269775390625,7.927921295166016
1695713545697792300,0.869792236328125,-9.694971084594727,6.917254447937012,5.583030700683594
1695713545707819000,0.879819091796875,-8.555912017822266,5.704815864562988,0.9859447479248047
1695713545717875200,0.889875244140625,-9.06873893737793,2.5587902069091797,-4.787429332733154
1695713545727905000,0.899905029296875,-11.092857360839844,-3.764369487762451,-5.719790458679199
1695713545737919500,0.90991943359375,-6.253011226654053,-4.865238189697266,-5.1113057136535645
1695713545747947800,0.91994775390625,-3.607497215270996,-4.505755424499512,-5.254462242126465
1695713545757987300,0.9299873046875,-1.0107510089874268,-2.123755931854248,-4.455620288848877
1695713545768016600,0.9400166015625,-5.658150672912598,6.461886405944824,-3.671342372894287
1695713545778054000,0.950053955078125,5.833166122436523,0.19649982452392578,0.23264026641845703
1695713545788084000,0.960083984375,5.174672603607178,-2.091104745864868,-0.9864215850830078
1695713545798118000,0.970117919921875,7.800776481628418,0.20287013053894043,-1.9876432418823242
1695713545808148500,0.9801484375,5.7132720947265625,-0.05271649360656738,0.05781269073486328
1695713545818163200,0.9901630859375,-1.473844051361084,1.2434214353561401,0.11277198791503906
1695713545828192000,1.00019189453125,-2.4701125621795654,1.0111191272735596,1.7949447631835938
1695713545838245600,1.01024560546875,-0.09361511468887329,0.4712817668914795,4.189708709716797
1695713545848277200,1.02027734375,1.346388816833496,-0.4840872287750244,3.936436653137207
1695713545858283300,1.030283203125,0.8525909781455994,-1.1202163696289062,3.6416244506835938
1695713545868312300,1.040312255859375,1.5802820920944214,-0.7679433822631836,3.5822763442993164
1695713545878377500,1.05037744140625,1.553618311882019,-1.786550760269165,1.965968132019043
1695713545888409900,1.060409912109375,0.28843772411346436,0.09576058387756348,0.7865276336669922
1695713545898440000,1.07043994140625,0.017609059810638428,-1.7074999809265137,0.106201171875
1695713545908472300,1.080472412109375,2.138347625732422,-2.1373414993286133,-0.5352945327758789
1695713545918486000,1.090486083984375,0.7449797987937927,-6.487428665161133,-4.949984073638916
1695713545928516400,1.100516357421875,-0.7499203085899353,-7.821161270141602,-5.947965621948242
1695713545938573300,1.1105732421875,1.6823692321777344,-9.525972366333008,-5.719809532165527
1695713545948606500,1.1206064453125,-0.3007655143737793,-10.284135818481445,-4.8712897300720215
1695713545958638000,1.13063818359375,-1.9159759283065796,-7.598260879516602,-3.105027198791504
1695713545968671000,1.1406708984375,-3.9633865356445312,-5.3767290115356445,-1.8412413597106934
1695713545978704000,1.150703857421875,-3.601654529571533,-3.2907609939575195,-1.6732325553894043
1695713545988736800,1.16073681640625,-1.8328315019607544,-1.9877309799194336,-1.5898280143737793
1695713545998770200,1.170770263671875,1.2285419702529907,-0.914769172668457,-2.711054801940918
1695713546008803000,1.180802978515625,2.974172353744507,0.005371570587158203,-4.088432788848877
1695713546018842600,1.190842529296875,1.4931923151016235,1.2561655044555664,-4.409444332122803
1695713546028876300,1.200876220703125,0.4267479181289673,1.4439949989318848,-4.437739849090576
1695713546038895400,1.210895263671875,0.33210670948028564,1.4594247341156006,-4.5688862800598145
1695713546048927200,1.22092724609375,2.713038921356201,1.582736611366272,-4.548951625823975
1695713546058916400,1.230916259765625,2.777839183807373,1.64678955078125,-3.2069034576416016
1695713546068944100,1.240944091796875,1.5353668928146362,1.215144395828247,5.090815544128418
1695713546079029800,1.25102978515625,-0.2581920623779297,1.0195443630218506,9.522583961486816
1695713546089063200,1.261063232421875,-1.8464975357055664,1.3786828517913818,8.917543411254883
1695713546099088100,1.271088134765625,0.10534346103668213,1.8570539951324463,7.721074104309082
1695713546109120800,1.281120849609375,0.9358007907867432,2.202636480331421,4.702850341796875
1695713546119168000,1.29116796875,0.2143031358718872,2.12156343460083,1.262984275817871
1695713546129202200,1.3012021484375,-0.26603829860687256,1.8438701629638672,-0.625333309173584
1695713546139221200,1.31122119140625,1.0360875129699707,2.7974913120269775,-0.8392200469970703
1695713546149253600,1.321253662109375,0.8515313863754272,2.69877290725708,-1.4255332946777344
1695713546159284700,1.33128466796875,1.339301347732544,2.2501938343048096,-1.5584349632263184
1695713546169317000,1.341317138671875,1.6125918626785278,0.7938494682312012,-1.3225288391113281
1695713546179346700,1.3513466796875,1.4599956274032593,1.7487859725952148,-1.2435784339904785
1695713546189378800,1.36137890625,0.3148918151855469,6.981483459472656,-1.213207721710205
1695713546199416000,1.371416015625,2.237051248550415,10.15988540649414,-2.511209011077881
1695713546209448700,1.38144873046875,0.9623756408691406,5.554140567779541,-2.3079934120178223
1695713546219490600,1.391490478515625,-0.6242517232894897,4.052701950073242,-1.1610474586486816
1695713546229524000,1.40152392578125,0.7145369648933411,1.0091753005981445,-1.1778368949890137
1695713546239548000,1.4115478515625,1.1265329122543335,1.37379789352417,-0.4807724952697754
1695713546249580500,1.42158056640625,0.40027523040771484,-0.0928497314453125,-0.4072737693786621
1695713546259593500,1.431593505859375,0.6246916055679321,2.353048324584961,-1.029200553894043
1695713546269624000,1.4416240234375,1.095129132270813,3.602931499481201,-2.4068403244018555
1695713546279675600,1.451675537109375,1.650397777557373,5.116564750671387,-3.7634005546569824
1695713546289708500,1.46170849609375,4.03106164932251,5.429022789001465,-4.1182355880737305
1695713546299742500,1.471742431640625,5.916824817657471,2.9500107765197754,-4.213343620300293
1695713546309775400,1.481775390625,4.261952877044678,1.6698460578918457,-4.1602678298950195
1695713546319814000,1.49181396484375,-0.44511836767196655,0.44794654846191406,-3.167041540145874
1695713546329847300,1.501847412109375,-0.4483778476715088,-0.6500539779663086,-2.1448659896850586
1695713546339868000,1.511867919921875,3.8383126258850098,-9.000598907470703,2.8643155097961426
1695713546349900000,1.521900146484375,6.15875768661499,-19.60384750366211,3.9364356994628906
1695713546359934500,1.5319345703125,3.5397424697875977,-22.696292877197266,1.3258352279663086
1695713546369966600,1.541966552734375,-1.2325811386108398,-13.341474533081055,0.30196237564086914
1695713546380000000,1.552,-4.455399513244629,-4.936864852905273,0.4777989387512207
1695713546390032400,1.562032470703125,-5.734007358551025,-5.168914794921875,-0.1298825740814209
1695713546400065500,1.5720654296875,-4.474066734313965,-3.957721710205078,-1.321183681488037
1695713546410098000,1.582097900390625,0.6185339689254761,-1.5627784729003906,-1.074916124343872
1695713546420139800,1.592139892578125,1.7918756008148193,0.8414621353149414,-1.7360968589782715
1695713546430173400,1.60217333984375,1.3417423963546753,0.6487951278686523,-3.7929041385650635
1695713546440193500,1.612193603515625,0.3840296268463135,0.6876821517944336,-5.20595645904541
1695713546450225700,1.6222255859375,0.4054914712905884,1.562373161315918,-5.162943363189697
1695713546460242700,1.63224267578125,0.10303330421447754,1.839494228363037,-4.265747547149658
1695713546470273300,1.642273193359375,0.1810707449913025,1.5443506240844727,-2.8967010974884033
1695713546480334300,1.652334228515625,0.3342140316963196,1.2083768844604492,-1.8276787996292114
1695713546490367700,1.66236767578125,0.6300923228263855,0.8257226943969727,-1.0793473720550537
1695713546500397300,1.672397216796875,0.9859864711761475,0.2156219482421875,-0.8295203447341919
1695713546510430500,1.682430419921875,1.1163126230239868,-0.13966941833496094,-0.7374883890151978
1695713546520470300,1.69247021484375,0.6982388496398926,-0.42232704162597656,-0.3727353811264038
1695713546530504000,1.70250390625,0.23243367671966553,-0.4953289031982422,-0.4512803554534912
1695713546540531700,1.71253173828125,0.3616800308227539,-0.7008686065673828,-0.7543368339538574
1695713546550564900,1.72256494140625,0.5700728297233582,-1.0351524353027344,0.11440980434417725
1695713546560590600,1.732590576171875,-0.1606588363647461,-0.9106435775756836,1.09650719165802
1695713546570623000,1.742623046875,-0.02226436138153076,-0.8043251037597656,0.8557848930358887
1695713546580666000,1.752666015625,1.0637497901916504,-0.7213010787963867,0.9669526815414429
1695713546590699800,1.76269970703125,0.9147950410842896,-0.09480571746826172,0.6349432468414307
1695713546600721400,1.772721435546875,0.6001631617546082,0.3800497055053711,0.20605897903442383
1695713546610753800,1.78275390625,0.3391680121421814,0.5326642990112305,-0.3224656581878662
1695713546620774700,1.792774658203125,0.5036779642105103,0.4895610809326172,-0.6076751947402954
1695713546630805800,1.8028056640625,0.43171143531799316,0.4091463088989258,-0.7186788320541382
1695713546640833500,1.81283349609375,0.13115358352661133,0.310394287109375,-0.8138972520828247
1695713546650864400,1.822864501953125,-0.05588233470916748,0.19780349731445312,-0.793340802192688
1695713546660884000,1.832884033203125,-0.2237107753753662,0.3945636749267578,-0.3545045852661133
1695713546670913500,1.84291357421875,-0.42696380615234375,0.13602352142333984,0.07613301277160645
1695713546680966000,1.8529658203125,-0.7091635465621948,0.7580413818359375,0.48740124702453613
1695713546690997800,1.862997802734375,-0.5877591371536255,1.4644832611083984,-0.1965341567993164
1695713546701021700,1.873021728515625,-2.5318076610565186,0.48665428161621094,-0.4456918239593506
1695713546711052800,1.883052734375,2.1878674030303955,-0.08759689331054688,-0.8191269636154175
1695713546721095200,1.89309521484375,3.049583911895752,-0.7764987945556641,-0.9677666425704956
1695713546731127600,1.90312744140625,2.1353042125701904,-0.9282083511352539,-0.9198111295700073
1695713546741156400,1.91315625,0.08361220359802246,-0.5344009399414062,-0.38627076148986816
1695713546751188200,1.923188232421875,-1.0162982940673828,0.061981201171875,0.08990764617919922
1695713546761219800,1.9332197265625,-0.945956826210022,0.4214468002319336,0.5135397911071777
1695713546771251700,1.943251708984375,-0.505469560623169,0.6873626708984375,0.6746983528137207
1695713546781293800,1.9532939453125,0.5270642638206482,0.5945148468017578,0.04521942138671875
1695713546791326700,1.96332666015625,0.8113657832145691,0.39418792724609375,-0.7107499837875366
1695713546801380000,1.973380126953125,0.326540470123291,0.5344209671020508,-0.6910086870193481
1695713546811415000,1.9834150390625,0.11298346519470215,1.0021905899047852,-0.08088302612304688
1695713546821441300,1.993441162109375,0.17099297046661377,0.9802732467651367,-0.32509875297546387
1695713546831475500,2.003475341796875,-0.3727586269378662,0.25389957427978516,-0.9726520776748657
1695713546841489700,2.01348974609375,-1.0547466278076172,-0.28571128845214844,-0.31400442123413086
1695713546851521500,2.023521484375,-1.072135090827942,-0.4801626205444336,0.1901710033416748
1695713546861537800,2.033537841796875,-0.663082480430603,-0.1996631622314453,0.27724194526672363
1695713546871568100,2.043568115234375,-0.36320412158966064,0.03517436981201172,0.1396620273590088
1695713546881633800,2.0536337890625,-0.5062836408615112,0.08724021911621094,-0.0028777122497558594
1695713546891667700,2.063667724609375,-0.7133634090423584,-0.06102752685546875,-0.27025842666625977
1695713546901699000,2.073698974609375,-0.7376432418823242,-0.1415424346923828,-0.6138896942138672
1695713546911732700,2.083732666015625,-0.14270329475402832,-0.03944110870361328,-0.7780402898788452
1695713546921759700,2.093759765625,0.4173935651779175,-0.1355419158935547,-0.5766823291778564
1695713546931792600,2.103792724609375,0.06494569778442383,0.0705881118774414,-0.13157415390014648
1695713546941798400,2.11379833984375,-0.5820101499557495,0.3377370834350586,0.23822903633117676
1695713546951828500,2.123828369140625,-0.5897258520126343,0.4927663803100586,0.19331741333007812
1695713546961904000,2.133904052734375,-0.11112082004547119,0.4460582733154297,-0.11659860610961914
1695713546971938800,2.143938720703125,0.2515302896499634,0.32335853576660156,-1.0580490827560425
1695713546981956400,2.153956298828125,0.3278188705444336,0.21634960174560547,-1.104530692100525
1695713546991989500,2.163989501953125,-0.15531742572784424,0.2254648208618164,-0.8086060285568237
1695713547002020600,2.1740205078125,-0.337544322013855,0.3075733184814453,-0.3265538215637207
1695713547012053500,2.184053466796875,0.3943275213241577,0.5109109878540039,-0.06516814231872559
1695713547022090800,2.1940908203125,0.9478038549423218,0.36158084869384766,-0.2037665843963623
1695713547032124000,2.2041240234375,0.7376193404197693,0.23555374145507812,-0.593492865562439
1695713547042123500,2.21412353515625,0.2877455949783325,0.5935230255126953,-0.6679459810256958
1695713547052153300,2.2241533203125,0.05790066719055176,1.0091009140014648,-0.7612935304641724
1695713547062205000,2.234204833984375,0.09266746044158936,1.0638179779052734,-0.8843578100204468
1695713547072236800,2.24423681640625,0.21453630924224854,0.4701700210571289,-0.2479722499847412
1695713547082283800,2.25428369140625,-0.04224109649658203,-0.33240509033203125,-0.27040910720825195
1695713547092317400,2.2643173828125,-0.4119316339492798,-0.34306812286376953,0.22716951370239258
1695713547102353000,2.274352783203125,-0.21035587787628174,-0.24855995178222656,0.16050124168395996
1695713547112386800,2.28438671875,0.2319735288619995,-0.0977010726928711,0.25348806381225586
1695713547122410500,2.294410400390625,0.40311336517333984,0.07096385955810547,-0.24055862426757812
1695713547132443400,2.304443359375,0.4319993257522583,0.4131755828857422,-0.2737884521484375
1695713547142482700,2.314482666015625,0.35789644718170166,0.4996614456176758,-1.385408639907837
1695713547152516000,2.32451611328125,0.1389772891998291,0.6892366409301758,-1.3815290927886963
1695713547162543900,2.3345439453125,-0.05681657791137695,0.52447509765625,-1.3546059131622314
1695713547172576800,2.34457666015625,-0.1512315273284912,0.307952880859375,-1.2838997840881348
1695713547182606600,2.354606689453125,-0.09596037864685059,0.14553451538085938,-1.2360384464263916
1695713547192639000,2.364638916015625,0.07501661777496338,0.05177021026611328,-0.9132553339004517
1695713547202678300,2.37467822265625,0.2564713954925537,-0.07398128509521484,-0.4281883239746094
1695713547212711400,2.38471142578125,0.45418524742126465,-0.13228511810302734,0.0432584285736084
1695713547222742000,2.394741943359375,0.5731073617935181,-0.0001583099365234375,0.31750059127807617
1695713547232775000,2.40477490234375,0.5160977840423584,0.012625694274902344,0.1449887752532959
1695713547242773500,2.4147734375,0.278128981590271,0.17853927612304688,0.16179871559143066
1695713547252802800,2.424802734375,-0.09487640857696533,0.3769083023071289,0.18046927452087402
1695713547262870300,2.434870361328125,-0.3297233581542969,0.18781089782714844,-0.11402606964111328
1695713547272903700,2.444903564453125,-0.14088702201843262,-0.052725791931152344,-0.32194948196411133
1695713547282924800,2.4549248046875,-0.18648242950439453,-0.1774454116821289,-0.3844623565673828
1695713547292957000,2.46495703125,-0.2052057981491089,-0.14451313018798828,-0.11642694473266602
1695713547302998300,2.474998291015625,0.040012359619140625,-0.1882457733154297,-0.20206737518310547
1695713547313031400,2.485031494140625,0.1767357587814331,0.002044677734375,-0.13107991218566895
1695713547323063600,2.4950634765625,0.3109222650527954,0.27295970916748047,-0.3845226764678955
1695713547333096400,2.505096435546875,0.8985960483551025,0.4667196273803711,-0.07225370407104492
1695713547343131600,2.515131591796875,0.9747501611709595,0.3304471969604492,0.18621611595153809
1695713547353164800,2.525164794921875,0.8408933877944946,0.19377994537353516,0.27756500244140625
1695713547363193900,2.53519384765625,0.4483985900878906,0.02920818328857422,-0.10544919967651367
1695713547373226500,2.5452265625,0.08212089538574219,0.25578784942626953,-0.14996027946472168
1695713547383259100,2.555259033203125,-0.14533650875091553,0.14739131927490234,-0.5107212066650391
1695713547393291800,2.565291748046875,-0.04506635665893555,0.6206178665161133,0.20365619659423828
1695713547403323100,2.5753232421875,-0.07664263248443604,0.0433502197265625,-0.2958557605743408
1695713547413355800,2.585355712890625,0.15366578102111816,-0.5525178909301758,-0.280214786529541
1695713547423384300,2.59538427734375,0.12878215312957764,-0.7288970947265625,-0.2843306064605713
1695713547433416400,2.60541650390625,0.3643137216567993,-0.5214138031005859,-0.22115731239318848
1695713547443422700,2.615422607421875,0.016347527503967285,-0.19510746002197266,-0.5587191581726074
1695713547453452300,2.625452392578125,-0.31265389919281006,0.10978221893310547,-0.2111654281616211
1695713547463504100,2.635504150390625,-0.44736170768737793,0.23024654388427734,-0.7120620012283325
1695713547473536000,2.645535888671875,-0.8354698419570923,0.3588733673095703,-1.038979411125183
1695713547483573500,2.655573486328125,-0.538055419921875,0.25193023681640625,-1.0193334817886353
1695713547493606000,2.66560595703125,-0.023633360862731934,0.19830608367919922,-0.2930445671081543
1695713547503646700,2.675646728515625,0.27710747718811035,-0.26399707794189453,-0.4350242614746094
1695713547513680000,2.685679931640625,0.0015360116958618164,-0.07686805725097656,-0.6364952325820923
1695713547523705600,2.69570556640625,-0.14657247066497803,0.5279426574707031,0.15128350257873535
1695713547533738000,2.705738037109375,-0.08187747001647949,0.7281970977783203,0.21117377281188965
1695713547543786200,2.7157861328125,0.07644140720367432,0.750457763671875,-0.10054302215576172
1695713547553820400,2.7258203125,0.6858104467391968,0.05884552001953125,0.34357142448425293
1695713547563814400,2.735814453125,0.41334104537963867,-0.0658731460571289,1.146700382232666
1695713547573844500,2.745844482421875,0.4009838104248047,0.7333488464355469,1.3725001811981201
1695713547583895800,2.755895751953125,0.36572694778442383,0.8699979782104492,0.510319709777832
1695713547593928000,2.765927978515625,0.3748060464859009,0.7686767578125,0.5975868701934814
1695713547603973600,2.7759736328125,0.3567378520965576,0.4008474349975586,0.31573939323425293
1695713547614007300,2.78600732421875,0.8874636888504028,-0.10998249053955078,-0.09765195846557617
1695713547624031500,2.796031494140625,0.0036988258361816406,-0.3260917663574219,-0.22593355178833008
1695713547634064100,2.806064208984375,-0.513352632522583,-0.43294811248779297,-0.6110448837280273
1695713547644106200,2.816106201171875,-1.0244183540344238,-0.43181800842285156,-1.2280354499816895
1695713547654140000,2.826139892578125,-0.43242645263671875,-0.6618127822875977,-1.6644707918167114
1695713547664170500,2.83617041015625,-0.9315921068191528,-0.9640693664550781,-1.4132063388824463
1695713547674204000,2.846203857421875,-0.905093789100647,0.33076953887939453,0.01909041404724121
1695713547684226300,2.856226318359375,-1.3318301439285278,1.087174415588379,-0.37642383575439453
1695713547694258400,2.866258544921875,-0.8058815002441406,0.7860622406005859,-0.2508413791656494
1695713547704288000,2.8762880859375,-0.7801511287689209,0.17635345458984375,0.07468080520629883
1695713547714320000,2.88631982421875,-0.1011282205581665,-0.6944484710693359,0.07224917411804199
1695713547724336000,2.896336181640625,-0.2106863260269165,-0.8502683639526367,0.80452561378479
1695713547734366500,2.906366455078125,-0.2847038507461548,-0.23611068725585938,1.4805779457092285
1695713547744432000,2.91643212890625,-0.12844741344451904,0.24100017547607422,1.2708525657653809
1695713547754466000,2.926466064453125,0.12432312965393066,0.620997428894043,1.0597212314605713
1695713547764461800,2.9364619140625,0.08432555198669434,0.44024658203125,0.7609958648681641
1695713547774492000,2.946491943359375,-0.14443635940551758,0.3480672836303711,0.6282877922058105
1695713547784561000,2.956560791015625,-0.2903614044189453,0.39052867889404297,0.3196718692779541
1695713547794594800,2.9665947265625,-0.19669437408447266,0.7042627334594727,0.11058282852172852
1695713547804596000,2.976595947265625,-0.15384328365325928,0.8303728103637695,-0.2267775535583496
1695713547814626800,2.986626708984375,-0.11929655075073242,0.4718618392944336,-1.3897531032562256
1695713547824661200,2.9966611328125,0.5744895935058594,0.07816123962402344,-1.7824554443359375
1695713547834692400,3.0066923828125,0.3594423532485962,-0.9746131896972656,-4.1879777908325195
1695713547844734200,3.016734130859375,0.9066453576087952,-3.6785192489624023,-3.945486068725586
1695713547854766300,3.026766357421875,-1.8290778398513794,-2.1803951263427734,-1.7329994440078735
1695713547864818700,3.036818603515625,-2.795135974884033,2.7401552200317383,0.734502911567688
1695713547874852900,3.046852783203125,-1.8896251916885376,5.025755405426025,2.0585525035858154
1695713547884855800,3.056855712890625,-1.1318916082382202,4.614695072174072,1.8148902654647827
1695713547894886700,3.06688671875,-0.05471384525299072,2.883009910583496,1.0645902156829834
1695713547904943000,3.076943115234375,0.928473711013794,1.261857032775879,0.5228457450866699
1695713547914976800,3.086976806640625,1.4247181415557861,0.02313995361328125,0.1741269826889038
1695713547924984000,3.096984130859375,1.2356237173080444,-1.3204536437988281,-0.21719610691070557
1695713547935015200,3.10701513671875,0.9772571325302124,-2.0955286026000977,-0.09460341930389404
1695713547945052400,3.117052490234375,0.5679305195808411,-2.2100954055786133,0.16312682628631592
1695713547955084000,3.127083984375,0.01713716983795166,-1.4476795196533203,0.2302776575088501
1695713547965146600,3.137146728515625,-0.41931915283203125,-0.4073209762573242,0.11262130737304688
1695713547975181300,3.147181396484375,-0.5058929920196533,0.15171527862548828,-0.0693216323852539
1695713547985201000,3.157200927734375,-0.4449124336242676,0.4362783432006836,-0.23458242416381836
1695713547995234000,3.167234130859375,-0.16377472877502441,0.5952816009521484,-0.25312352180480957
1695713548005271800,3.177271728515625,0.21949362754821777,0.5860795974731445,-0.24899649620056152
1695713548015305500,3.187305419921875,0.4324571490287781,0.32346248626708984,-0.28368520736694336
1695713548025306000,3.19730615234375,0.4516838490962982,0.22379589080810547,-0.2600395679473877
1695713548035336200,3.207336181640625,0.5207430720329285,0.2293529510498047,-0.19726288318634033
1695713548045398500,3.2173984375,0.6390842199325562,0.22036266326904297,-0.12502408027648926
1695713548055432000,3.227431884765625,0.7487359642982483,0.18734073638916016,-0.07226204872131348
1695713548065438700,3.237438720703125,0.6038482189178467,0.05897998809814453,0.0039708614349365234
1695713548075469300,3.24746923828125,0.28406667709350586,-0.011540412902832031,0.10335218906402588
1695713548085507600,3.257507568359375,-0.09115195274353027,-0.00039768218994140625,0.20749711990356445
1695713548095539000,3.2675390625,-0.40135490894317627,0.006258964538574219,0.32667315006256104
1695713548105591800,3.277591796875,-0.4781041741371155,0.051387786865234375,0.4758681058883667
1695713548115625700,3.287625732421875,-0.3496741056442261,0.09660816192626953,0.5453159809112549
1695713548125658400,3.297658447265625,-0.1979883909225464,0.17066001892089844,0.636101484298706
1695713548135691800,3.30769189453125,0.06195288896560669,0.21624279022216797,0.6671301126480103
1695713548145730000,3.31772998046875,0.4332379698753357,0.34801387786865234,0.6335195302963257
1695713548155764000,3.327763916015625,0.7142977714538574,0.4988422393798828,0.5257220268249512
1695713548165765000,3.33776513671875,0.8347018957138062,0.5922737121582031,0.44460833072662354
1695713548175795700,3.347795654296875,0.867885947227478,0.5853176116943359,0.35128140449523926
1695713548185851400,3.357851318359375,0.9049841165542603,0.5785493850708008,0.3510650396347046
1695713548195884500,3.367884521484375,1.0214416980743408,0.5385141372680664,0.4433877468109131
1695713548205910000,3.377909912109375,0.4344083070755005,0.2317056655883789,0.41034090518951416
1695713548215942400,3.3879423828125,0.2829352915287018,0.1922922134399414,0.2886728048324585
1695713548225984300,3.397984375,0.6973859071731567,0.36245155334472656,0.19903147220611572
1695713548236017700,3.408017578125,0.4422801733016968,0.2596302032470703,0.1375194787979126
1695713548246046200,3.418046142578125,0.40937620401382446,0.23270320892333984,-0.161096453666687
1695713548256079000,3.4280791015625,0.7806114554405212,0.2292804718017578,-0.4030942916870117
1695713548266119700,3.43811962890625,0.7801439166069031,0.08726978302001953,-0.6249399185180664
1695713548276153300,3.4481533203125,0.7679949998855591,0.1842794418334961,-0.7974537014961243
1695713548286332700,3.458332763671875,1.9704883098602295,1.9806690216064453,0.35743677616119385
1695713548296363800,3.46836376953125,-0.10199976712465286,0.022359848022460938,0.7734954357147217
1695713548306397400,3.4783974609375,-0.5264780521392822,-1.8565797805786133,-1.0575661659240723
1695713548316438800,3.488438720703125,1.080314040184021,-0.741455078125,-2.32211971282959
1695713548326455300,3.498455322265625,0.8593094348907471,0.29051780700683594,-2.371408700942993
1695713548336489200,3.5084892578125,0.6004727482795715,0.11396408081054688,-1.2239383459091187
1695713548346521600,3.518521484375,0.765984296798706,-0.018746376037597656,-0.6614771485328674
1695713548356555300,3.52855517578125,0.7791916131973267,-0.017464637756347656,-0.330816388130188
1695713548366580500,3.53858056640625,0.7717676162719727,-0.030918121337890625,-0.09792780876159668
1695713548376630300,3.54863037109375,0.6895397901535034,-0.00189971923828125,0.027722716331481934
1695713548386664000,3.558663818359375,0.6247024536132812,-0.0020427703857421875,0.0612332820892334
1695713548396678700,3.5686787109375,0.6215203404426575,0.021417617797851562,-0.0059511661529541016
1695713548406711300,3.578711181640625,0.5419323444366455,-0.03654289245605469,-0.11586225032806396
1695713548416737000,3.588737060546875,0.5248428583145142,-0.041914939880371094,-0.25353026390075684
1695713548426762800,3.5987626953125,0.49913352727890015,-0.004238128662109375,-0.36547714471817017
1695713548436795600,3.608795654296875,0.4556395411491394,0.09071636199951172,-0.38017207384109497
1695713548446827300,3.6188271484375,0.3473038077354431,0.13777637481689453,-0.3410908579826355
1695713548456858600,3.628858642578125,0.1699981689453125,0.16572093963623047,-0.27751660346984863
1695713548466957300,3.638957275390625,0.1910344362258911,0.2510700225830078,-0.21281421184539795
1695713548476945400,3.6489453125,-0.10932940244674683,-0.050296783447265625,-0.1091315746307373
1695713548486978300,3.658978271484375,-0.33251214027404785,-0.3410482406616211,0.045855164527893066
1695713548496982300,3.668982177734375,-0.1269935965538025,-0.3347482681274414,0.037958621978759766
1695713548507025000,3.67902490234375,-0.2608445882797241,-0.4191865921020508,0.006818056106567383
1695713548517057800,3.689057861328125,-0.4877570569515228,-0.36486244201660156,-0.053459882736206055
1695713548527096600,3.6990966796875,-0.48297175765037537,-0.12438011169433594,-0.1805819869041443
1695713548537132500,3.709132568359375,-0.3577924966812134,0.03436088562011719,-0.27323800325393677
1695713548547165400,3.71916552734375,-0.24108809232711792,0.1737079620361328,-0.231245219707489
1695713548557184800,3.729184814453125,-0.12786775827407837,0.25069522857666016,-0.13202422857284546
1695713548567223800,3.739223876953125,0.01406717300415039,0.2414703369140625,-0.00945281982421875
1695713548577256700,3.749256591796875,0.13014161586761475,0.21288299560546875,0.1647270917892456
1695713548587289600,3.75928955078125,0.17216670513153076,0.217376708984375,0.3322446346282959
1695713548597322500,3.769322509765625,0.09299290180206299,0.3073711395263672,0.4542936682701111
1695713548607338800,3.7793388671875,0.008118629455566406,0.3776359558105469,0.5070610046386719
1695713548617354800,3.789354736328125,-0.07735764980316162,0.3948402404785156,0.43820029497146606
1695713548627428400,3.799428466796875,-0.14915084838867188,0.3782615661621094,0.3630158305168152
1695713548637461200,3.809461181640625,-0.29266172647476196,0.3376293182373047,0.29123830795288086
1695713548647487200,3.8194873046875,-0.22625422477722168,0.42587852478027344,0.20480650663375854
1695713548657511400,3.829511474609375,-0.6607538461685181,0.19875049591064453,0.2762008309364319
1695713548667547600,3.839547607421875,-0.8903215527534485,0.11573123931884766,0.34121453762054443
1695713548677580500,3.84958056640625,-1.1781809329986572,0.004565238952636719,0.4145822525024414
1695713548687594500,3.859594482421875,-1.374127745628357,-0.06764411926269531,0.4521915316581726
1695713548697625900,3.8696259765625,-1.3498704433441162,-0.17261123657226562,0.44530171155929565
1695713548707659500,3.879659423828125,-1.3833577632904053,-0.34847545623779297,0.40383780002593994
1695713548717699600,3.889699462890625,-1.4840186834335327,-0.40396785736083984,0.3525797128677368
1695713548727733500,3.8997333984375,-1.3975881338119507,-0.29627227783203125,0.2682567238807678
1695713548737748700,3.909748779296875,-1.7034144401550293,-0.24039363861083984,0.5700207948684692
1695713548747783000,3.919782958984375,-1.6762070655822754,-0.09275341033935547,0.7539005279541016
1695713548757816800,3.92981689453125,-1.6772446632385254,-0.0637979507446289,0.7077488303184509
1695713548767722000,3.939721923828125,-1.607283115386963,-0.21100807189941406,0.39250630140304565
1695713548777746000,3.949745849609375,-1.7863423824310303,-0.34326839447021484,-0.33067524433135986
1695713548787779600,3.959779541015625,-2.0183873176574707,-0.5419864654541016,-1.157246470451355
1695713548797804500,3.969804443359375,-2.3349082469940186,-0.8640565872192383,-1.570306658744812
1695713548807821300,3.9798212890625,-2.7113118171691895,-1.2326879501342773,-1.2484450340270996
1695713548817845500,3.989845458984375,-2.9664034843444824,-1.7390813827514648,-0.35303592681884766
1695713548827911700,3.99991162109375,-2.901113510131836,-2.169501304626465,0.4763439893722534
1695713548837940000,4.00993994140625,-2.868382215499878,-2.5796260833740234,1.4868006706237793
1695713548847968500,4.019968505859375,-3.560762882232666,-3.1883277893066406,2.7737207412719727
1695713548858132200,4.03013232421875,-3.663194179534912,-3.2100658416748047,2.8470969200134277
1695713548868195800,4.04019580078125,-2.255002021789551,-2.750843048095703,2.2465853691101074
1695713548878216700,4.050216796875,-0.4294244050979614,-1.9861154556274414,0.9776617288589478
1695713548888245000,4.060244873046875,2.104631185531616,-1.2535285949707031,0.17027795314788818
1695713548898293000,4.07029296875,4.631227970123291,-0.6565418243408203,-0.28083550930023193
1695713548908312300,4.080312255859375,5.779101848602295,-0.18799781799316406,-0.8955680131912231
1695713548918343000,4.090343017578125,5.1697845458984375,-0.12781524658203125,-1.1484342813491821
1695713548928371500,4.100371337890625,2.786536693572998,-0.1152353286743164,-1.2240707874298096
1695713548938413600,4.11041357421875,0.16794610023498535,-0.23142528533935547,-1.223132848739624
1695713548948443400,4.120443359375,-1.2250094413757324,-0.831974983215332,-1.3171229362487793
1695713548958480400,4.13048046875,-1.6708288192749023,-1.2912330627441406,-1.194326400756836
1695713548968517600,4.140517578125,-1.03989577293396,-1.4551515579223633,-1.3653984069824219
1695713548978554600,4.1505546875,0.05700540542602539,-1.229940414428711,-1.3274433612823486
1695713548988591900,4.160591796875,0.8336312770843506,-0.677271842956543,-1.2458895444869995
1695713548998628900,4.17062890625,1.4703190326690674,0.27187633514404297,-1.1602694988250732
1695713549008666000,4.180666015625,1.3581740856170654,0.9113588333129883,-0.9952982664108276
1695713549018695700,4.19069580078125,1.251377820968628,1.3911447525024414,-0.8197492361068726
1695713549028676400,4.20067626953125,1.5223402976989746,1.7601547241210938,-0.6791992783546448
1695713549038706000,4.210705810546875,1.6771254539489746,2.063234329223633,-0.6338094472885132
1695713549048629800,4.220629638671875,1.998173713684082,2.286865234375,-0.706741213798523
1695713549058829800,4.230829833984375,2.285402774810791,2.365065574645996,-0.9689770936965942
1695713549068835300,4.24083544921875,2.1939334869384766,2.824526309967041,-1.3051495552062988
1695713549078891500,4.2508916015625,2.143217086791992,3.163893222808838,-1.6719725131988525
1695713549088912400,4.260912353515625,1.690629005432129,3.473754405975342,-1.9377039670944214
1695713549098931000,4.270930908203125,1.1371500492095947,3.785667896270752,-2.0262746810913086
1695713549108964400,4.28096435546875,0.6472127437591553,3.878880023956299,-2.0385003089904785
1695713549119026000,4.29102587890625,0.20559358596801758,3.6517653465270996,-2.08667254447937
1695713549129046800,4.301046875,-0.1447148323059082,3.355924129486084,-1.9354684352874756
1695713549139093200,4.31109326171875,-0.489060640335083,3.113264560699463,-1.7262883186340332
1695713549149124600,4.32112451171875,-0.8274219036102295,3.0313963890075684,-1.5255612134933472
1695713549159147500,4.3311474609375,-1.1126563549041748,3.134063243865967,-1.3481550216674805
1695713549169179600,4.3411796875,-1.2021050453186035,3.22236967086792,-1.138137936592102
1695713549179212000,4.3512119140625,-1.5982801914215088,2.9209065437316895,-1.0377750396728516
1695713549189244400,4.361244384765625,-2.173468828201294,2.388857841491699,-0.962649941444397
1695713549199276500,4.371276611328125,-2.8598792552948,1.7122411727905273,-0.8868630528450012
1695713549209309000,4.381308837890625,-3.437465190887451,0.9800281524658203,-0.7497729063034058
1695713549219341000,4.391341064453125,-4.099535942077637,0.38065242767333984,-0.5242872834205627
1695713549229373400,4.40137353515625,-4.779111862182617,0.022182464599609375,-0.11641344428062439
1695713549239396400,4.411396240234375,-5.355748653411865,-0.0006160736083984375,0.4355227053165436
1695713549249382700,4.421382568359375,-5.729207992553711,-0.18526268005371094,0.8822847604751587
1695713549259405300,4.4314052734375,-5.602664947509766,-0.7229795455932617,1.1993407011032104
1695713550764192300,5.936192138671875,-3.786369800567627,1.937387466430664,-1.2388713359832764
1695713550774226400,5.946226318359375,-3.8210740089416504,1.3090944290161133,-1.061065435409546
1695713550784258300,5.95625830078125,-2.892329454421997,0.8385725021362305,-0.53367680311203
1695713550794290700,5.966290771484375,-1.3042306900024414,0.8980979919433594,-0.07002580165863037
1695713550804323300,5.9763232421875,0.4542081952095032,1.3232250213623047,0.060736775398254395
1695713550814355700,5.986355712890625,1.6928702592849731,1.4866056442260742,0.173731729388237
1695713550824388400,5.996388427734375,1.9564977884292603,1.5607452392578125,0.28439825773239136
1695713550834420700,6.006420654296875,1.278637170791626,1.4888782501220703,0.20646503567695618
1695713550844453000,6.016453125,-0.014867544174194336,1.2854633331298828,-0.127330482006073
1695713550854485800,6.02648583984375,-1.31581449508667,0.4387540817260742,-0.33315181732177734
1695713550864518100,6.03651806640625,-2.548827648162842,-0.5257501602172852,-0.3200097680091858
1695713550874550800,6.04655078125,-3.835928440093994,-0.9773168563842773,0.11419820785522461
1695713550884582100,6.05658203125,-4.947197914123535,-1.1833038330078125,0.9623076915740967
1695713550894612700,6.06661279296875,-5.492827415466309,-1.5605058670043945,2.2705187797546387
1695713550904643300,6.076643310546875,-4.92171573638916,-2.1156044006347656,3.521735429763794
1695713550914674000,6.086673828125,-3.6475396156311035,-2.7853689193725586,4.217817783355713
1695713550924704500,6.09670458984375,-2.5051355361938477,-2.8063554763793945,3.8711435794830322
1695713550934734800,6.10673486328125,-1.8611910343170166,-2.339395523071289,3.4336493015289307
1695713550944765400,6.116765380859375,-1.5552341938018799,-2.0363502502441406,3.6878552436828613
1695713550954796000,6.126796142578125,-1.8489947319030762,-2.6277265548706055,4.203672409057617
1695713550964826600,6.13682666015625,-2.5527172088623047,-3.5117053985595703,3.635930061340332
1695713550974857200,6.146857177734375,-3.407154083251953,-4.2648725509643555,2.851964235305786
1695713550984889300,6.156889404296875,-4.4123358726501465,-4.919164657592773,1.6774287223815918
1695713550994924000,6.166924072265625,-5.364677906036377,-5.6457672119140625,0.704633355140686
1695713551004958700,6.176958740234375,-5.8497514724731445,-4.718428611755371,0.775216281414032
1695713551014993400,6.186993408203125,-5.680291175842285,-3.4015064239501953,1.7696200609207153
1695713551025028000,6.197028076171875,-4.936355113983154,-2.915196418762207,2.6914291381835938
1695713551035062800,6.207062744140625,-3.5598790645599365,-2.63525390625,3.0079734325408936
1695713551045097500,6.217097412109375,-1.6700407266616821,-1.9701786041259766,2.356701374053955
1695713551055132000,6.2271318359375,-0.23453503847122192,-1.2849054336547852,1.0039100646972656
1695713551065166600,6.23716650390625,0.7443981170654297,-1.4232416152954102,-0.3895339369773865
1695713551075201300,6.247201171875,1.8858468532562256,-1.8971891403198242,-1.5166394710540771
1695713551085236000,6.257236083984375,2.663606882095337,-2.3806076049804688,-2.2991762161254883
1695713551095268000,6.26726806640625,2.5303890705108643,-2.9914445877075195,-2.750669002532959
1695713551105299200,6.27729931640625,2.392482042312622,-3.5614633560180664,-3.1488494873046875
1695713551115330600,6.28733056640625,2.639413356781006,-3.9952354431152344,-3.0233614444732666
1695713551125362000,6.29736181640625,3.6296238899230957,-4.474360466003418,-2.693716526031494
1695713551135393300,6.307393310546875,4.5132060050964355,-4.528507232666016,-2.0525736808776855
1695713551145424600,6.317424560546875,4.480926990509033,-4.337318420410156,-1.6549675464630127
1695713551155455700,6.327455810546875,2.1052942276000977,-4.245014190673828,-1.7659409046173096
1695713551165487000,6.337487060546875,-1.2508333921432495,-4.471066474914551,-1.582274317741394
1695713551175518500,6.3475185546875,-1.237131953239441,-3.595921516418457,-1.3558869361877441
1695713551185549600,6.357549560546875,0.6261335611343384,-1.8472280502319336,-0.40878188610076904
1695713551195581000,6.367580810546875,3.226689100265503,-0.8007240295410156,0.5074993371963501
1695713551205613300,6.37761328125,5.799089431762695,-0.0012426376342773438,1.3033361434936523
1695713551215646500,6.387646484375,6.767448425292969,0.6593952178955078,1.875741958618164
1695713551225679600,6.3976796875,6.396415710449219,1.5868291854858398,1.5010714530944824
1695713551235712800,6.407712646484375,5.7844743728637695,2.697543144226074,1.0412113666534424
1695713551245746000,6.417745849609375,5.737654209136963,3.665736675262451,0.8544141054153442
1695713551255779000,6.427779052734375,5.958803653717041,4.3648247718811035,0.6842434406280518
1695713551265812200,6.437812255859375,6.0524001121521,4.866774559020996,0.6791476011276245
1695713551275845600,6.447845703125,5.897222995758057,5.181787490844727,0.6128377914428711
1695713551285878800,6.457878662109375,5.702098846435547,5.210247993469238,0.519339919090271
1695713551295912000,6.467911865234375,5.293990612030029,4.890101432800293,0.3846818208694458
1695713551305945000,6.477945068359375,5.167757987976074,4.507138252258301,0.3771021366119385
1695713551315977700,6.487977783203125,5.088685512542725,4.36979866027832,0.29549551010131836
1695713551326012000,6.498011962890625,5.069716930389404,4.4079790115356445,0.15764284133911133
1695713551336045800,6.5080458984375,4.97132682800293,4.460297584533691,-0.11481380462646484
1695713551346080000,6.518080078125,4.840729236602783,4.343057632446289,-0.3556022644042969
1695713551356114200,6.5281142578125,4.647323131561279,4.125558853149414,-0.6010406017303467
1695713551366148400,6.5381484375,4.367804050445557,3.896820545196533,-0.696195125579834
1695713551376182500,6.5481826171875,3.7830419540405273,3.7175087928771973,-0.6717140674591064
1695713551386216400,6.558216552734375,2.8894786834716797,3.713879108428955,-0.4452810287475586
1695713551396250600,6.568250732421875,1.60727858543396,3.8799386024475098,-0.23792362213134766
1695713551406284800,6.578284912109375,0.2221667766571045,3.889064311981201,-0.20218968391418457
1695713551416319000,6.588319091796875,-1.4865331649780273,3.3202319145202637,-0.3114668130874634
1695713551426351400,6.598351318359375,-5.183440208435059,1.834549903869629,-1.269528865814209
1695713551436382700,6.6083828125,-10.999861717224121,-0.8449172973632812,-3.746014356613159
1695713551446414000,6.6184140625,-17.139265060424805,-5.069380760192871,-6.806064605712891
1695713551456445400,6.628445556640625,-14.690877914428711,-11.459041595458984,-8.122424125671387
1695713551466476500,6.6384765625,-12.010087966918945,-16.820297241210938,-5.297082901000977
1695713551476508000,6.6485078125,-7.4187164306640625,-16.933837890625,-1.2528984546661377
1695713551486539300,6.658539306640625,-3.760176181793213,-11.31872844696045,0.995927095413208
1695713551496570600,6.668570556640625,-2.8939833641052246,-4.044877052307129,2.0325849056243896
1695713551506602000,6.67860205078125,-1.7624616622924805,2.545004367828369,2.586219310760498
1695713551516633300,6.68863330078125,-0.08375692367553711,6.691132068634033,2.7769618034362793
1695713551526664700,6.698664794921875,2.3069252967834473,8.19259262084961,2.3114116191864014
1695713551536697300,6.708697265625,4.572145938873291,6.983877658843994,1.670432209968567
1695713551546730800,6.718730712890625,7.429741382598877,3.7369933128356934,2.1142351627349854
1695713551556764400,6.728764404296875,10.341541290283203,0.7482490539550781,3.4286491870880127
1695713551566798000,6.738798095703125,9.368005752563477,-2.159243583679199,3.881969451904297
1695713551576831500,6.74883154296875,4.3568902015686035,-4.976785659790039,2.423882007598877
1695713551586865200,6.758865234375,-2.0222976207733154,-8.93305778503418,0.6205365657806396
1695713551596898800,6.76889892578125,-4.168650150299072,-10.35710620880127,-3.7749240398406982
1695713551606932500,6.778932373046875,2.1964166164398193,-8.117083549499512,-6.731800079345703
1695713551616966000,6.7889658203125,10.555207252502441,-4.816647529602051,-4.735541343688965
1695713551626999600,6.79899951171875,11.276144027709961,-1.0007705688476562,-3.4707107543945312
1695713551637032200,6.8090322265625,8.178279876708984,3.4028687477111816,-3.7817459106445312
1695713551647065600,6.819065673828125,5.519510269165039,6.201703071594238,-3.8112499713897705
1695713551657099000,6.82909912109375,3.4142630100250244,6.568687438964844,-3.2349250316619873
1695713551667132200,6.839132080078125,2.686309337615967,5.4703521728515625,-1.6969683170318604
1695713551677165600,6.84916552734375,3.1601099967956543,3.6102499961853027,0.6889883279800415
1695713551687199000,6.859198974609375,3.781569242477417,1.2630596160888672,2.4665679931640625
1695713551697232100,6.869232177734375,3.174192428588867,-0.9434967041015625,2.7136125564575195
1695713551707265500,6.879265625,2.035599946975708,-2.5623035430908203,2.249664545059204
1695713551717298700,6.889298583984375,1.4271739721298218,-3.1484498977661133,2.0587916374206543
1695713551727332000,6.89933203125,1.565234661102295,-3.409735679626465,2.245728015899658
1695713551737365200,6.909365234375,2.3965985774993896,-3.0087242126464844,2.697575092315674
1695713551747398100,6.919398193359375,2.754246473312378,-1.9443931579589844,2.6654558181762695
1695713551757431000,6.92943115234375,2.515965700149536,-0.11361980438232422,1.9592076539993286
1695713551767464000,6.9394638671875,2.0595128536224365,1.2684049606323242,1.471928358078003
1695713551777496800,6.949496826171875,0.47504428029060364,1.768655776977539,0.997654914855957
1695713551787529700,6.95952978515625,-0.39943259954452515,1.8252992630004883,0.7636821866035461
1695713551797562600,6.969562744140625,-1.2902867794036865,1.6121997833251953,0.2774374485015869
1695713551807595300,6.97959521484375,-2.190613269805908,1.5074386596679688,-0.22099149227142334
1695713551817628200,6.989628173828125,-2.5916976928710938,1.6302151679992676,-0.32591307163238525
1695713551827661000,6.9996611328125,-2.7322638034820557,1.7408113479614258,-0.46252238750457764
1695713551837694000,7.00969384765625,-2.53959321975708,1.8239355087280273,-0.5349407196044922
1695713551847726800,7.019726806640625,-2.7388529777526855,1.7217912673950195,-0.4853891134262085
1695713551857759200,7.02975927734375,-1.6708433628082275,1.7744731903076172,-0.17891740798950195
1695713551867789800,7.039789794921875,-0.8633101582527161,1.6955585479736328,-0.01650083065032959
1695713551877820400,7.0498203125,-0.6155923008918762,1.585864543914795,-0.011475086212158203
1695713551887851000,7.05985107421875,-0.45865345001220703,1.3211421966552734,0.053170204162597656
1695713551897881600,7.069881591796875,-0.677309513092041,1.0542945861816406,0.16186344623565674
1695713551907912200,7.079912109375,-1.1118935346603394,0.5270023345947266,0.5030964612960815
1695713551917942800,7.08994287109375,-1.3229644298553467,0.15958118438720703,0.8192501664161682
1695713551927973400,7.099973388671875,-1.5446220636367798,-0.27855777740478516,1.2608895301818848
1695713551938004000,7.11000390625,-1.7967486381530762,-0.6574306488037109,1.948681354522705
1695713551948034300,7.120034423828125,-2.053063154220581,-1.0708541870117188,2.7931437492370605
1695713551958065000,7.13006494140625,-2.877326011657715,-1.9350090026855469,3.682004928588867
1695713551968097500,7.14009765625,-3.560288190841675,-2.8899755477905273,4.445158958435059
1695713551978131500,7.15013134765625,-3.9777820110321045,-3.5028209686279297,4.508054256439209
1695713551988165400,7.160165283203125,-4.127480506896973,-3.8516950607299805,3.995958089828491
1695713551998199000,7.170198974609375,-4.030185699462891,-4.218247413635254,3.5581374168395996
1695713552008233000,7.18023291015625,-3.90325927734375,-4.757401466369629,3.072391986846924
1695713552018267000,7.190266845703125,-4.6690216064453125,-4.7993621826171875,1.8419301509857178
1695713552028300800,7.20030078125,-5.640504837036133,-3.7488927841186523,0.3301875591278076
1695713552038334500,7.21033447265625,-7.246013641357422,-3.3257999420166016,-0.8082324266433716
1695713552048368400,7.220368408203125,-7.2680583000183105,-3.946321487426758,-1.4262641668319702
1695713552058402300,7.23040234375,-4.790666580200195,-4.612290382385254,-1.093875527381897
1695713552068436200,7.240436279296875,-3.855851650238037,-4.801458358764648,0.3111990690231323
1695713552078468400,7.25046826171875,-4.353885173797607,-3.936769485473633,1.3566176891326904
1695713552088499200,7.260499267578125,-4.443593978881836,-3.1050405502319336,1.9407503604888916
1695713552098529800,7.27052978515625,-3.423952579498291,-2.2775344848632812,1.7011690139770508
1695713552108560400,7.280560302734375,-2.5139734745025635,-2.0416736602783203,0.47663938999176025
1695713552118591200,7.29059130859375,-0.31363922357559204,-2.4103097915649414,-0.6622066497802734
1695713552128621800,7.300621826171875,2.7599267959594727,-3.2174110412597656,-1.2598778009414673
1695713552138652400,7.31065234375,4.423192501068115,-4.617719650268555,-1.4591710567474365
1695713552148683300,7.320683349609375,4.8583197593688965,-5.608282089233398,-1.9082355499267578
1695713552158713900,7.3307138671875,4.858293056488037,-5.882960319519043,-2.6915669441223145
1695713552168744400,7.340744384765625,4.877789497375488,-5.892207145690918,-3.058135747909546
1695713552178775300,7.350775390625,4.793023586273193,-5.044279098510742,-2.8179173469543457
1695713552188808000,7.360807861328125,3.5906176567077637,-3.8050613403320312,-2.554689645767212
1695713552198842400,7.37084228515625,2.2030749320983887,-3.157334327697754,-2.6332437992095947
1695713552208877000,7.380876953125,1.1961190700531006,-2.901683807373047,-2.5669941902160645
1695713552218911500,7.390911376953125,-0.7140030860900879,-2.9162206649780273,-1.7811230421066284
1695713552228946200,7.4009462890625,-0.5169854164123535,-2.267179489135742,-0.6854430437088013
1695713552238980600,7.410980712890625,1.884104609489441,-1.4454526901245117,0.38696885108947754
1695713552249015300,7.421015380859375,3.88191819190979,-0.6498861312866211,1.5982177257537842
1695713552259049700,7.4310498046875,6.356873512268066,0.29842472076416016,2.458291530609131
1695713552269084200,7.441084228515625,6.572868347167969,1.3922748565673828,2.731186866760254
1695713552279118800,7.451118896484375,6.39921760559082,2.5228233337402344,2.6868839263916016
1695713552289153300,7.4611533203125,6.372894287109375,3.6124701499938965,2.6823763847351074
1695713552299186000,7.47118603515625,6.576700210571289,4.709860801696777,2.445919990539551
1695713552309217300,7.48121728515625,6.6333208084106445,5.491619110107422,2.2766120433807373
1695713552319248400,7.491248291015625,6.56112813949585,6.010852813720703,2.1989049911499023
1695713552329279700,7.50127978515625,6.476949691772461,6.1006574630737305,2.316831588745117
1695713552339311000,7.51131103515625,6.370161533355713,5.764202117919922,2.155590534210205
1695713552349342500,7.521342529296875,6.654312610626221,4.980376243591309,1.685692548751831
1695713552359373800,7.531373779296875,6.796458721160889,4.184234142303467,1.1085182428359985
1695713552369405200,7.5414052734375,6.68886661529541,3.5965962409973145,0.6327297687530518
1695713552379436500,7.5514365234375,6.358708381652832,3.3113656044006348,0.1734776496887207
1695713552389468000,7.561468017578125,5.895907402038574,3.362372875213623,-0.2108139991760254
1695713552399499300,7.571499267578125,5.302081108093262,3.3892745971679688,-0.6046030521392822
1695713552409532000,7.581531982421875,4.583878993988037,3.303802967071533,-0.843888521194458
1695713552419566600,7.591566650390625,3.774568557739258,3.161156177520752,-0.7876913547515869
1695713552429601000,7.60160107421875,2.789428234100342,3.1258625984191895,-0.6045498847961426
1695713552439635700,7.6116357421875,1.4184973239898682,3.3213582038879395,-0.5240139961242676
1695713552449670100,7.621670166015625,-0.24499773979187012,3.667344570159912,-0.3427896499633789
1695713552459704800,7.631704833984375,-2.217522382736206,3.7451138496398926,0.06201815605163574
1695713552469739300,7.6417392578125,-4.388452529907227,3.2767205238342285,-0.04555034637451172
1695713552479774000,7.65177392578125,-8.270814895629883,1.6316699981689453,-1.366981029510498
1695713552489808600,7.66180859375,-13.137447357177734,-0.8233432769775391,-4.866804122924805
1695713552499843000,7.671843017578125,-11.4375638961792,-4.688689231872559,-6.623438835144043
1695713552509877800,7.681877685546875,-12.18879222869873,-11.172739028930664,-6.77802038192749
1695713552519910400,7.691910400390625,-12.338050842285156,-15.644998550415039,-5.496886253356934
1695713552529942800,7.70194287109375,-7.8212995529174805,-15.54052448272705,-2.1937220096588135
1695713552539975200,7.71197509765625,-3.588174343109131,-10.068904876708984,-0.3497772216796875
1695713552550007300,7.72200732421875,-1.2948882579803467,-3.6047916412353516,0.66758131980896
1695713552560039700,7.732039794921875,-0.26967287063598633,0.9941616058349609,0.651313304901123
1695713552570072000,7.742072021484375,1.3405811786651611,3.1572813987731934,-0.7202348709106445
1695713552580104200,7.752104248046875,0.5978899002075195,3.6635918617248535,-2.1162874698638916
1695713552590136600,7.762136474609375,-1.351726770401001,2.864905834197998,-1.7987277507781982
1695713552600169000,7.7721689453125,0.9129104614257812,-0.09418106079101562,0.4940953254699707
1695713552610201000,7.782201171875,7.077001571655273,-3.1870412826538086,3.40655779838562
1695713552620233500,7.7922333984375,9.165254592895508,-4.215628623962402,3.645352840423584
1695713552630265600,7.802265625,8.192319869995117,-3.9407691955566406,3.5469284057617188
1695713552640295200,7.812295166015625,7.482974052429199,-2.6257877349853516,2.331164836883545
1695713552650324700,7.82232470703125,7.002813816070557,-0.12536907196044922,-0.0202484130859375
1695713552660354300,7.832354248046875,6.029754638671875,1.6898088455200195,-2.1808695793151855
1695713552670383900,7.8423837890625,5.8736982345581055,2.359564781188965,-3.9741997718811035
1695713552680413400,7.852413330078125,5.982613563537598,3.0089926719665527,-4.6723198890686035
1695713552690443000,7.862443115234375,6.2354278564453125,2.806814193725586,-4.156073570251465
1695713552700472800,7.872472900390625,5.78192663192749,2.0012807846069336,-3.381713628768921
1695713552710502400,7.88250244140625,4.669029235839844,0.19941329956054688,-1.4021198749542236
1695713552720532000,7.892531982421875,3.5960230827331543,-2.2222890853881836,1.20655357837677
1695713552730561500,7.9025615234375,2.65755033493042,-3.9855594635009766,2.931947946548462
1695713552740594200,7.91259423828125,2.3817555904388428,-4.137801170349121,2.939995288848877
1695713552750629400,7.92262939453125,2.3032054901123047,-3.2917842864990234,2.3838818073272705
1695713552760664600,7.93266455078125,1.969665765762329,-2.111504554748535,2.1569976806640625
1695713552770699800,7.94269970703125,2.3920323848724365,-0.9978275299072266,2.0885586738586426
1695713552780735200,7.9527353515625,3.9609928131103516,0.4276599884033203,1.818471908569336
1695713552790770400,7.9627705078125,4.060482978820801,1.4998750686645508,1.2600092887878418
1695713552800805600,7.9728056640625,1.9868937730789185,1.876150131225586,0.7612193822860718
1695713552810840800,7.9828408203125,1.0270670652389526,2.1291818618774414,0.6331740617752075
1695713552820876000,7.9928759765625,1.0317354202270508,2.0901451110839844,0.6841220855712891
1695713552830911200,8.0029111328125,0.5376109480857849,1.5564908981323242,0.9909986257553101
1695713552840946700,8.01294677734375,-0.8246656656265259,0.9659891128540039,0.8956941962242126
1695713552850979300,8.022979248046875,-1.974456548690796,0.75323486328125,0.7423571348190308
1695713552861012700,8.0330126953125,-2.9922738075256348,0.992548942565918,0.6359529495239258
1695713552871046100,8.043046142578126,-3.916752815246582,1.1090278625488281,0.6618572473526001
1695713552881079300,8.053079345703125,-3.8050413131713867,1.2656192779541016,0.9507128000259399
1695713552891112700,8.06311279296875,-2.676239490509033,1.423811912536621,1.0042870044708252
1695713552901146000,8.07314599609375,-1.0718705654144287,1.4261693954467773,1.0527267456054688
1695713552911179300,8.08317919921875,0.08477818965911865,1.574345588684082,1.027448296546936
1695713552921212700,8.093212646484375,0.7378889322280884,1.662632942199707,0.9151117205619812
1695713552931246000,8.10324609375,0.7148656845092773,1.5763740539550781,0.739539623260498
1695713552941279200,8.113279296875,-0.08932161331176758,1.2631597518920898,0.3434826135635376
1695713552951312600,8.123312744140625,-1.0637025833129883,0.5225124359130859,-0.12962234020233154
1695713552961345000,8.133344970703124,-1.8995351791381836,-0.5691118240356445,-0.32922661304473877
1695713552971375600,8.143375732421875,-3.0205910205841064,-1.1652460098266602,-0.09073209762573242
1695713552981406500,8.153406494140626,-4.168259620666504,-1.3332738876342773,0.6135066747665405
1695713552991437000,8.16343701171875,-5.222869873046875,-1.9263086318969727,1.7945897579193115
1695713553001467600,8.173467529296875,-5.283658504486084,-2.5839948654174805,2.894412040710449
1695713553011498200,8.183498291015624,-3.831545352935791,-3.176380157470703,3.57961368560791
1695713553021529000,8.193529052734375,-2.070042371749878,-2.992053985595703,3.48909854888916
1695713553031559700,8.2035595703125,-1.2935370206832886,-2.4683427810668945,3.3982629776000977
1695713553041590300,8.21359033203125,-1.3808385133743286,-2.6038007736206055,3.8731260299682617
1695713553051620900,8.223620849609375,-2.4336984157562256,-3.845125198364258,4.184915542602539
1695713553061651500,8.2336513671875,-3.953482151031494,-4.888071060180664,3.39754581451416
1695713553071684400,8.243684326171875,-5.303170204162598,-4.604546546936035,2.3058583736419678
1695713553081718000,8.253718017578125,-6.442405700683594,-4.337416648864746,1.651902437210083
1695713553091752000,8.263751953125,-6.363822937011719,-4.656670570373535,0.8714760541915894
1695713553101785900,8.273785888671876,-5.8741278648376465,-4.602418899536133,0.8041934967041016
1695713553111819800,8.28381982421875,-5.928925037384033,-4.242961883544922,1.8176491260528564
1695713553121853400,8.293853515625,-6.053165435791016,-3.397639274597168,2.2158689498901367
1695713553131887400,8.303887451171875,-4.61669397354126,-2.606698989868164,2.081747531890869
1695713553141921300,8.31392138671875,-2.0934500694274902,-1.948500633239746,1.3766779899597168
1695713553151955200,8.323955078125,-0.25050538778305054,-1.523829460144043,0.0678553581237793
1695713553161988900,8.33398876953125,1.6379203796386719,-1.660482406616211,-0.8844693899154663
1695713553172022800,8.344022705078125,2.723792552947998,-2.600773811340332,-1.6096773147583008
1695713553182055400,8.354055419921876,2.870616912841797,-3.8639278411865234,-2.590228796005249
1695713553192087600,8.364087646484375,2.4558656215667725,-4.708501815795898,-3.458678960800171
1695713553202119700,8.37411962890625,2.462794780731201,-4.916745185852051,-3.928407669067383
1695713553212151600,8.384151611328125,2.746574878692627,-5.0017852783203125,-3.7466490268707275
1695713553222183700,8.39418359375,4.013810157775879,-4.6905012130737305,-3.436142921447754
1695713553232215800,8.4042158203125,4.628600120544434,-3.880873680114746,-2.911848545074463
1695713553242248000,8.414248046875,3.3027217388153076,-3.175686836242676,-2.534119129180908
1695713553252280000,8.424280029296876,1.2541078329086304,-2.98392391204834,-1.9848508834838867
1695713553262312000,8.43431201171875,-0.8587554693222046,-2.864504814147949,-1.349560022354126
1695713553272344000,8.444343994140626,-0.7210991382598877,-2.533616065979004,-0.2221231460571289
1695713553282376400,8.45437646484375,1.2854559421539307,-1.7590656280517578,1.1847434043884277
1695713553292407300,8.4644072265625,3.515287399291992,-0.7406167984008789,2.527092218399048
1695713553302438400,8.4744384765625,5.808282852172852,0.03143310546875,3.287444591522217
1695713553312469200,8.48446923828125,6.278947830200195,0.8434066772460938,3.3202366828918457
1695713553322500400,8.494500244140625,6.092484474182129,1.876556396484375,2.988950252532959
1695713553332531500,8.504531494140625,5.9883713722229,3.024498462677002,2.5341429710388184
1695713553342562300,8.514562255859374,6.111488342285156,4.118301868438721,2.2764933109283447
1695713553352593400,8.524593505859375,6.408139228820801,4.584692001342773,2.178431272506714
1695713553362624300,8.534624267578126,6.823962211608887,4.855278968811035,1.9956941604614258
1695713553372655400,8.5446552734375,7.2010602951049805,4.974151611328125,1.589693307876587
1695713553382688000,8.55468798828125,7.242180824279785,5.001585006713867,1.2184944152832031
1695713553392722200,8.56472216796875,7.128091812133789,4.965666770935059,1.0303350687026978
1695713553402756400,8.57475634765625,6.866079330444336,4.839572906494141,0.9474712610244751
1695713553412790500,8.58479052734375,6.289006233215332,4.773820877075195,0.7103815078735352
1695713553422825000,8.594824951171875,5.554696559906006,4.89243221282959,0.23614859580993652
1695713553432859100,8.604859130859374,4.866849899291992,4.933331489562988,-0.2858612537384033
1695713553442893300,8.614893310546876,4.33392333984375,4.708433151245117,-0.6750459671020508
1695713553452927500,8.624927490234375,3.7695155143737793,4.283356666564941,-0.8679423332214355
1695713553462961700,8.634961669921875,2.940600633621216,3.8329215049743652,-0.7935247421264648
1695713553472995800,8.644995849609375,1.7975752353668213,3.6106133460998535,-0.6933820247650146
1695713553483027500,8.65502734375,0.1429901123046875,3.5749001502990723,-0.5146517753601074
1695713553493053000,8.665052978515625,-1.7556395530700684,3.248444080352783,-0.39170193672180176
1695713553503078400,8.675078369140625,-3.9695723056793213,2.4421920776367188,-0.608360767364502
1695713553513104000,8.685103759765624,-7.694212913513184,0.8877925872802734,-2.1082658767700195
1695713553523129300,8.69512939453125,-11.394290924072266,-1.4940099716186523,-5.177884101867676
1695713553533154800,8.70515478515625,-12.2737455368042,-4.648072242736816,-8.166123390197754
1695713553543180300,8.71518017578125,-12.36752700805664,-10.14756965637207,-8.117910385131836
1695713553553205800,8.725205810546875,-11.552935600280762,-14.465928077697754,-5.688928127288818
1695713553563231200,8.735231201171874,-8.0179443359375,-14.00246810913086,-2.456829786300659
1695713553573256700,8.745256591796876,-3.783813238143921,-8.938331604003906,0.20942068099975586
1695713553583288800,8.755288818359375,-1.5077872276306152,-2.9112443923950195,2.0238804817199707
1695713553593324800,8.76532470703125,-1.2466154098510742,1.921957015991211,2.702604293823242
1695713553603360800,8.77536083984375,-0.3982055187225342,4.394343376159668,1.5981786251068115
1695713553613397000,8.78539697265625,0.958601713180542,4.7337751388549805,-1.0729854106903076
1695713553623433000,8.795432861328125,0.20389842987060547,3.2918753623962402,-2.5617127418518066
1695713553633469000,8.805468994140625,-0.05836009979248047,0.3765373229980469,-1.8259105682373047
1695713553643505000,8.8155048828125,5.461729049682617,-3.436030387878418,1.1337919235229492
1695713553653541000,8.825541015625,8.735478401184082,-6.444884300231934,2.893101930618286
1695713553663577000,8.8355771484375,6.819911003112793,-7.113461494445801,3.7025961875915527
1695713553673613000,8.845613037109375,5.759646415710449,-5.890412330627441,3.1802260875701904
1695713553683645400,8.8556455078125,7.087871551513672,-2.5783281326293945,1.0809895992279053
1695713553693677600,8.865677490234376,7.1225409507751465,0.5347614288330078,-1.2773780822753906
1695713553703710000,8.8757099609375,6.39864444732666,2.319025993347168,-2.8090970516204834
1695713553713742300,8.885742431640624,6.10994815826416,3.5627408027648926,-3.766035556793213
1695713553723774500,8.8957744140625,5.864550590515137,4.089588642120361,-4.118782043457031
1695713553733806800,8.905806884765624,5.776918411254883,3.6087708473205566,-3.5656116008758545
1695713553743839200,8.915839111328125,4.8989152908325195,2.362102508544922,-2.5663001537323
1695713553753871600,8.92587158203125,3.23793888092041,0.14615440368652344,-0.732658863067627
1695713553763903700,8.93590380859375,2.3436923027038574,-2.368605613708496,1.4230800867080688
1695713553773936000,8.94593603515625,2.979562997817993,-3.9481983184814453,2.743062734603882
1695713553783972900,8.955972900390625,2.9460105895996094,-4.2439985275268555,2.6470704078674316
1695713553794032400,8.966032470703125,2.3868942260742188,-3.5928049087524414,2.371242046356201
1695713553804092200,8.976092041015624,2.1890244483947754,-2.3178138732910156,2.4250998497009277
1695713553814152000,8.98615185546875,2.2084202766418457,-1.0746145248413086,2.2431845664978027
1695713553824211700,8.996211669921875,2.475358724594116,-0.1156005859375,2.355048656463623
1695713553834271500,9.006271484375,3.5089221000671387,1.0616626739501953,1.9776897430419922
1695713553844331300,9.016331298828124,2.9798262119293213,1.8256988525390625,1.6397762298583984
1695713553854367700,9.02636767578125,1.563542366027832,1.9536008834838867,1.3948657512664795
1695713553864398300,9.0363984375,1.1937144994735718,1.7786273956298828,1.5044821500778198
1695713553874429000,9.046428955078126,0.8949261903762817,1.3756656646728516,1.6205213069915771
1695713553884328400,9.056328369140624,0.30637264251708984,1.052830696105957,1.3863521814346313
1695713553894352400,9.066352294921876,-1.120839238166809,0.7350482940673828,0.8697706460952759
1695713553904392200,9.07639208984375,-2.6976418495178223,0.6270227432250977,0.3891913890838623
1695713553914417700,9.086417724609374,-3.813218116760254,0.7846889495849609,0.1504371166229248
1695713553924439600,9.096439453125,-3.925349473953247,1.0395736694335938,0.14868402481079102
1695713553934464500,9.106464599609374,-2.958372116088867,1.2045097351074219,0.22638332843780518
1695713553944490200,9.116490234375,-1.3361942768096924,1.513139247894287,0.29161536693573
1695713553954515200,9.12651513671875,0.12615954875946045,1.7401342391967773,0.346260666847229
1695713553964554500,9.136554443359374,1.0795989036560059,1.7850360870361328,0.4771376848220825
1695713553974581000,9.1465810546875,1.433766484260559,1.5959157943725586,0.5477504730224609
1695713553984627200,9.156627197265625,0.6231837272644043,1.121108055114746,0.5904660224914551
1695713553994655700,9.16665576171875,-0.6576913595199585,0.4866981506347656,0.46417248249053955
1695713554004704500,9.17670458984375,-1.8866006135940552,-0.22566699981689453,0.5184096097946167
1695713554014735000,9.186735107421875,-3.540755271911621,-0.9439163208007812,1.1004822254180908
1695713554024751900,9.196751953125,-5.2740631103515625,-1.728250503540039,2.1354117393493652
1695713554034781000,9.206781005859375,-6.239770889282227,-2.6890830993652344,3.5040316581726074
1695713554044810000,9.21681005859375,-6.297553539276123,-3.8498992919921875,4.650247573852539
1695713554054839300,9.22683935546875,-5.411844253540039,-4.4993791580200195,5.094625473022461
1695713554065053700,9.2370537109375,-4.275987148284912,-4.270853042602539,4.602616310119629
1695713554075078100,9.247078125,-3.4379897117614746,-3.620004653930664,3.989166259765625
1695713554085107200,9.257107177734374,-3.0619993209838867,-2.949244499206543,3.634530544281006
1695713554095160300,9.267160400390624,-3.3676323890686035,-3.2516517639160156,3.573723793029785
1695713554105166000,9.277166015625,-3.8541433811187744,-4.066732406616211,2.897768259048462
1695713554115195400,9.2871953125,-4.332372665405273,-4.545814514160156,1.7829285860061646
1695713554125251600,9.29725146484375,-4.9382643699646,-5.358498573303223,0.7080868482589722
1695713554135297500,9.307297607421875,-5.390133857727051,-5.501869201660156,-0.030618906021118164
1695713554145326600,9.31732666015625,-6.190203666687012,-4.486760139465332,0.41202616691589355
1695713554155322000,9.327322021484376,-6.795631408691406,-3.6037702560424805,1.6832139492034912
1695713554165352400,9.3373525390625,-5.039239883422852,-2.705963134765625,2.3726232051849365
1695713554175388400,9.347388427734375,-2.614658832550049,-2.096466064453125,2.058401584625244
1695713554185424400,9.35742431640625,-0.9751694202423096,-1.6135101318359375,0.7630169987678528
1695713554195460000,9.367460205078125,0.7469481825828552,-1.6671266555786133,-0.6421875953674316
1695713554205496000,9.37749609375,2.3706929683685303,-2.3678054809570312,-1.8457815647125244
1695713554215532000,9.387531982421875,3.0251309871673584,-3.622152328491211,-2.793119192123413
1695713554225568000,9.397568115234375,2.881913185119629,-4.49153995513916,-3.800116539001465
1695713554235604000,9.40760400390625,2.871124744415283,-4.575971603393555,-4.523532867431641
1695713554245639700,9.4176396484375,3.212174415588379,-4.5652666091918945,-4.723420143127441
1695713554255670000,9.427669921875,4.376828670501709,-4.749547958374023,-4.588575839996338
1695713554265667800,9.437667724609375,5.519535064697266,-4.227704048156738,-4.23460054397583
1695713554275560400,9.447560546875,4.34544563293457,-3.307318687438965,-4.047685623168945
1695713556743551000,11.915551025390625,-3.4565770626068115,-0.17479610443115234,-1.6885366439819336
1695713556753589800,11.92558984375,-0.7612514495849609,-3.0458555221557617,-0.21991300582885742
1695713556763628500,11.935628662109375,7.970950126647949,-5.487107276916504,3.6954469680786133
1695713556773667300,11.945667236328125,11.431961059570312,-5.298859596252441,5.928249359130859
1695713556783699700,11.95569970703125,11.482793807983398,-3.770277976989746,6.512265205383301
1695713556793730800,11.965730712890625,11.800928115844727,-1.1821889877319336,5.574097633361816
1695713556803762200,11.97576220703125,9.714821815490723,1.9521303176879883,3.0500645637512207
1695713556813793300,11.985793212890625,5.25822639465332,4.100887775421143,0.24122047424316406
1695713556823824400,11.995824462890624,1.0913307666778564,5.111797332763672,-3.4047486782073975
1695713556833855500,12.00585546875,1.8889381885528564,4.961112976074219,-6.03402042388916
1695713556843886600,12.015886474609376,5.345823287963867,3.7000575065612793,-5.530416488647461
1695713556853917700,12.025917724609375,6.9923248291015625,1.7115535736083984,-3.8938252925872803
1695713556863949000,12.035948974609376,5.86529016494751,-0.6014060974121094,-2.4277796745300293
1695713556873980200,12.045980224609375,3.8671774864196777,-3.3390283584594727,-0.5710837841033936
1695713556884012800,12.0560126953125,2.1890342235565186,-5.531322479248047,0.9416444301605225
1695713556894046000,12.0660458984375,1.6317163705825806,-5.0889997482299805,1.1493293046951294
1695713556904079000,12.0760791015625,1.4822684526443481,-2.973672866821289,1.3824912309646606
1695713556914112500,12.086112548828124,1.2084097862243652,-0.9393310546875,1.7270500659942627
1695713556924145700,12.096145751953125,1.2623313665390015,0.10971927642822266,1.8972691297531128
1695713556934178800,12.1061787109375,1.6861696243286133,0.43913936614990234,2.050729274749756
1695713556944212000,12.1162119140625,1.9652600288391113,0.725407600402832,2.4040048122406006
1695713556954245400,12.126245361328126,2.003241539001465,1.1042985916137695,2.4230875968933105
1695713556964278500,12.136278564453125,1.977874517440796,1.150679588317871,2.193552017211914
1695713556974311700,12.146311767578124,1.2928650379180908,0.7519407272338867,2.11936354637146
1695713556984344000,12.156343994140625,0.7918899059295654,0.30716705322265625,2.147996187210083
1695713556994374400,12.16637451171875,0.3025318682193756,0.27208518981933594,2.1197023391723633
1695713557004404700,12.17640478515625,-0.9145722389221191,0.39838695526123047,1.8915693759918213
1695713557014435000,12.18643505859375,-2.429966688156128,0.662043571472168,1.343371868133545
1695713557024465700,12.196465576171875,-3.7741026878356934,0.8378448486328125,0.8696011304855347
1695713557034496000,12.20649609375,-4.3951263427734375,1.073897361755371,0.5582965612411499
1695713557044526300,12.2165263671875,-3.849339485168457,1.445767879486084,0.15585780143737793
1695713557054557000,12.226556884765625,-2.6546435356140137,1.5173649787902832,-0.02991926670074463
1695713557064587300,12.236587158203125,-1.0612691640853882,1.5327949523925781,-0.05497467517852783
1695713557074617600,12.24661767578125,0.45243096351623535,1.5824079513549805,-0.014965057373046875
1695713557084649200,12.256649169921875,1.3842886686325073,1.6889944076538086,0.05686366558074951
1695713557094679000,12.266678955078126,1.6091057062149048,1.6796598434448242,0.3324568271636963
1695713557104708600,12.27670849609375,1.2525218725204468,1.578709602355957,0.4879770278930664
1695713557114738200,12.28673828125,0.38276636600494385,1.1430749893188477,0.6441237926483154
1695713557124768000,12.29676806640625,-0.9064255952835083,0.44117069244384766,0.8976038694381714
1695713557134797600,12.306797607421874,-2.5968198776245117,-0.6877288818359375,1.4984867572784424
1695713557144827100,12.3168271484375,-4.33366584777832,-1.5769147872924805,2.080639123916626
1695713557154857000,12.32685693359375,-5.9593305587768555,-2.27254581451416,2.8035974502563477
1695713557164886500,12.336886474609376,-6.85571813583374,-3.099715232849121,3.6248083114624023
1695713557174916000,12.346916015625,-6.155962944030762,-4.132695198059082,4.332613945007324
1695713557184948700,12.35694873046875,-4.3589253425598145,-4.277108192443848,3.9695348739624023
1695713557194984700,12.366984619140625,-3.030776262283325,-3.6697025299072266,2.7491979598999023
1695713557205020700,12.377020751953125,-2.7521777153015137,-3.0330381393432617,2.226240634918213
1695713557215056600,12.387056640625,-2.5044896602630615,-2.841350555419922,2.579242467880249
1695713557225092600,12.397092529296875,-2.7005488872528076,-3.2289209365844727,2.6271796226501465
1695713557235128600,12.407128662109375,-3.53478741645813,-3.7096385955810547,1.9086782932281494
1695713557245164500,12.41716455078125,-4.5762434005737305,-3.7630558013916016,1.2664679288864136
1695713557255200500,12.427200439453125,-5.130431175231934,-4.130354881286621,0.5470356941223145
1695713557265236500,12.437236572265626,-4.2993574142456055,-4.704224586486816,0.40832579135894775
1695713557275272400,12.4472724609375,-3.5113320350646973,-4.341183662414551,1.277389645576477
1695713557285308400,12.457308349609375,-4.246492862701416,-3.973909378051758,2.324191093444824
1695713557295341000,12.467341064453125,-4.705574989318848,-3.2406845092773438,2.853236198425293
1695713557305374700,12.477374755859374,-4.670721054077148,-2.5079402923583984,2.6515049934387207
1695713557315408100,12.487408203125,-3.157336950302124,-1.395040512084961,1.7494744062423706
1695713557325441800,12.49744189453125,-1.0033797025680542,-0.942967414855957,0.4870232343673706
1695713557335475200,12.50747509765625,1.7732031345367432,-1.293452262878418,-0.294189453125
1695713557345508900,12.5175087890625,3.8135647773742676,-2.5108089447021484,-0.7191704511642456
1695713557355542300,12.527542236328125,4.176925182342529,-3.7399063110351562,-1.044244408607483
1695713557365575700,12.53757568359375,3.7028470039367676,-4.253454208374023,-1.4107434749603271
1695713557375609300,12.547609375,3.2504043579101562,-4.407025337219238,-1.5014476776123047
1695713557385642800,12.557642822265626,3.442195415496826,-4.2211408615112305,-1.3191044330596924
1695713557395676400,12.567676513671875,4.204063415527344,-3.6385984420776367,-0.9301097393035889
1695713557405709000,12.577708984375,3.8448052406311035,-3.131357192993164,-0.8049215078353882
1695713557415741400,12.587741455078126,3.0714287757873535,-2.9179763793945312,-0.4615820646286011
1695713557425773800,12.59777392578125,1.8549339771270752,-3.050015449523926,0.19358861446380615
1695713557435806500,12.607806396484374,-0.2803276777267456,-3.4394006729125977,0.3586313724517822
1695713557445838800,12.6178388671875,-0.006148576736450195,-3.374056816101074,0.5697348117828369
1695713557455871200,12.627871337890625,1.7242307662963867,-2.9650659561157227,1.0697376728057861
1695713557465903600,12.637903564453126,3.646656036376953,-1.7182235717773438,1.508225917816162
1695713557475936300,12.647936279296875,4.609644889831543,-0.3281412124633789,2.0896475315093994
1695713557485968600,12.65796875,5.719363212585449,0.6937446594238281,2.243356704711914
1695713557496001000,12.6680009765625,5.990971565246582,1.7708959579467773,2.097139596939087
1695713557506033400,12.678033447265625,5.889505386352539,3.1181368827819824,1.865509033203125
1695713557516066000,12.688066162109376,5.81370735168457,4.099318981170654,1.7172744274139404
1695713557526098000,12.698097900390625,5.957927227020264,4.592991828918457,1.6230584383010864
1695713557536129500,12.708129638671876,6.130176067352295,4.817844390869141,1.5437794923782349
1695713557546161400,12.718161376953125,6.388884544372559,5.058028221130371,1.2080636024475098
1695713557556193300,12.728193359375,6.204168796539307,4.847557067871094,0.6597076654434204
1695713557566225000,12.738224853515625,5.960514068603516,4.425651550292969,0.25278592109680176
1695713557576256800,12.7482568359375,5.731957912445068,4.054769515991211,-0.12450098991394043
1695713557586288600,12.75828857421875,5.537025451660156,3.9086594581604004,-0.44199252128601074
1695713557596320300,12.7683203125,5.343504428863525,3.914680004119873,-0.6519572734832764
1695713557606352100,12.77835205078125,5.08642053604126,3.948544502258301,-0.8886654376983643
1695713557616384800,12.788384765625,4.791106700897217,4.071979522705078,-1.059495449066162
1695713557626417700,12.798417724609376,4.348575115203857,4.168893814086914,-1.169539451599121
1695713557636450600,12.808450439453125,3.6591343879699707,4.136565208435059,-1.158085823059082
1695713557646483500,12.8184833984375,2.548309326171875,4.054351329803467,-1.093017816543579
1695713557656516400,12.828516357421876,1.1010441780090332,3.9811062812805176,-1.1183648109436035
1695713557666549500,12.838549560546875,-0.1546332836151123,3.7250008583068848,-0.971189022064209
1695713557676582400,12.84858251953125,-1.0306525230407715,3.190944194793701,-0.92854905128479
1695713557686615300,12.858615234375,-3.053157091140747,2.149258613586426,-1.5747134685516357
1695713557696648200,12.868648193359375,-7.732059001922607,-0.17647171020507812,-3.1207997798919678
1695713557706681000,12.87868115234375,-13.726274490356445,-3.6754026412963867,-5.38824462890625
1695713557716714200,12.88871435546875,-14.922246932983398,-8.488478660583496,-6.606894493103027
1695713557726746400,12.898746337890625,-14.177145957946777,-13.738263130187988,-6.776433944702148
1695713557736776700,12.908776611328125,-9.87625789642334,-14.936629295349121,-3.760896682739258
1695713557746807000,12.91880712890625,-5.021811008453369,-10.80454158782959,0.21579861640930176
1695713557756837600,12.928837646484375,-3.760634422302246,-5.852934837341309,2.681382179260254
1695713557766868000,12.938867919921876,-2.882702350616455,-0.8481016159057617,3.991786241531372
1695713557776898300,12.948898193359375,-1.5746347904205322,3.3230671882629395,4.048320293426514
1695713557786929000,12.958928955078125,0.2245926856994629,5.199180603027344,2.2465760707855225
1695713557796959200,12.968959228515626,0.6887903213500977,4.38149356842041,-0.002081155776977539
1695713557806989600,12.978989501953125,1.0382697582244873,2.056656837463379,-0.188187837600708
1695713557817020000,12.98902001953125,4.5921149253845215,-0.892237663269043,1.6400747299194336
1695713557827050500,12.999050537109374,8.714214324951172,-3.4864978790283203,2.9824182987213135
1695713557837083000,13.009082763671875,9.239112854003906,-4.891693115234375,2.1987016201019287
1695713557847115800,13.01911572265625,6.944704055786133,-5.614635467529297,0.9927363395690918
1695713557857149000,13.02914892578125,5.526665687561035,-4.693346977233887,-0.2666482925415039
1695713557867182000,13.03918212890625,4.501192569732666,-2.5398645401000977,-2.44189715385437
1695713557877215000,13.049215087890625,4.803164958953857,-0.35135364532470703,-3.9685041904449463
1695713557887248100,13.059248046875,5.9465131759643555,1.5846490859985352,-4.312348365783691
1695713557897281300,13.06928125,6.453365325927734,3.0407118797302246,-4.059186935424805
1695713557907314200,13.079314208984375,6.138521194458008,3.655916690826416,-3.698967456817627
1695713557917347300,13.089347412109374,5.413267135620117,3.422682285308838,-2.94099497795105
1695713557927380500,13.09938037109375,4.603545188903809,2.454954147338867,-1.3623955249786377
1695713557937413400,13.109413330078125,3.4846749305725098,0.6598615646362305,0.737199068069458
1695713557947446000,13.119446044921874,2.2296462059020996,-1.4649505615234375,2.208183765411377
1695713557957479400,13.1294794921875,1.5639228820800781,-2.9405288696289062,2.4567341804504395
1695713557967513000,13.13951318359375,1.55872642993927,-3.2354345321655273,2.2558581829071045
1695713557977546500,13.14954638671875,1.7494254112243652,-2.8638153076171875,2.0284440517425537
1695713557987580000,13.159579833984376,2.266470193862915,-2.1664838790893555,2.195770502090454
1695713557997613300,13.16961328125,2.3189380168914795,-1.1005287170410156,2.559781312942505
1695713558007646700,13.179646728515625,1.894637107849121,0.062206268310546875,2.618273973464966
1695713558017680400,13.189680419921874,1.719560980796814,1.2268714904785156,2.1774988174438477
1695713558027713800,13.1997138671875,1.416810154914856,1.6909875869750977,1.936814546585083
1695713558037747200,13.209747314453125,0.42247098684310913,1.4959368705749512,1.556681752204895
1695713558047780600,13.219780517578124,-0.5268740653991699,1.1416339874267578,1.227391004562378
1695713558057813000,13.22981298828125,-1.783552885055542,0.8823928833007812,0.8162308931350708
1695713558067844900,13.239844970703125,-3.0625228881835938,0.8948078155517578,0.49912917613983154
1695713558077876700,13.249876708984376,-4.021127700805664,0.8956289291381836,0.5081052780151367
1695713558087908600,13.25990869140625,-4.17243766784668,1.0274200439453125,0.6787148714065552
1695713558097940500,13.2699404296875,-3.5542612075805664,0.8972873687744141,0.8917148113250732
1695713558107972400,13.279972412109375,-2.200719118118286,0.7067384719848633,1.26882004737854
1695713558118004000,13.29000390625,-0.27974212169647217,0.7960119247436523,1.6870449781417847
1695713558128035800,13.300035888671875,1.4322632551193237,1.1166648864746094,1.851319670677185
1695713558138067700,13.310067626953124,2.308143138885498,1.519108772277832,1.818554401397705
1695713558148099600,13.320099609375,1.8528558015823364,1.7441511154174805,1.511160969734192
1695713558158131700,13.330131591796874,0.9943236112594604,1.5149602890014648,1.2135694026947021
1695713558168162600,13.34016259765625,-0.26571011543273926,0.8626060485839844,0.7094146013259888
1695713558178193200,13.350193115234376,-1.8286200761795044,-0.059187889099121094,0.09704875946044922
1695713558188224000,13.36022412109375,-3.719717502593994,-1.1646366119384766,0.15575957298278809
1695713558198254800,13.3702548828125,-5.763546466827393,-1.7506475448608398,0.8164645433425903
1695713558208285700,13.38028564453125,-7.660139083862305,-2.0817441940307617,1.8503490686416626
1695713558218316300,13.39031640625,-7.936370372772217,-2.4371280670166016,2.980051279067993
1695713558228347100,13.40034716796875,-5.969554901123047,-3.010676383972168,3.6708788871765137
1695713558238378000,13.4103779296875,-3.152669668197632,-3.0427255630493164,3.2514383792877197
1695713558248408800,13.420408935546876,-1.278327465057373,-2.6945791244506836,2.7299020290374756
1695713558258439400,13.430439453125,-0.6269267797470093,-2.3894386291503906,2.7840383052825928
1695713558268471800,13.440471923828126,-1.3420994281768799,-2.830068588256836,3.4883639812469482
1695713558278505200,13.450505126953125,-2.580167293548584,-4.1056365966796875,3.6782636642456055
1695713558288538400,13.460538330078125,-3.642900228500366,-4.939655303955078,2.8908820152282715
1695713558298571800,13.47057177734375,-4.2950663566589355,-5.314449310302734,1.851404070854187
1695713558308605000,13.48060498046875,-4.642638206481934,-5.651165008544922,0.9923392534255981
1695713558318638300,13.490638427734375,-4.8124518394470215,-4.990518569946289,0.6696979999542236
1695713558328671500,13.50067138671875,-5.462973594665527,-4.333281517028809,1.4810733795166016
1695713558338705000,13.510704833984375,-5.435525894165039,-3.905550003051758,2.5091538429260254
1695713558348738300,13.52073828125,-5.108316421508789,-2.8872432708740234,2.00134015083313
1695713558358771500,13.530771484375,-4.805553913116455,-1.9157905578613281,0.9231072664260864
1695713558368804900,13.540804931640626,-3.5831785202026367,-1.2094106674194336,-1.1229180097579956
1695713558378836700,13.550836669921875,-0.2222292125225067,-1.0597991943359375,-2.729659080505371
1695713558388867300,13.560867431640625,2.6863269805908203,-1.6926202774047852,-3.1210134029388428
1695713558398898200,13.570898193359374,3.712719202041626,-2.847064971923828,-3.2810444831848145
1695713558408928800,13.5809287109375,3.2514305114746094,-3.649822235107422,-3.8131093978881836
1695713558418959400,13.59095947265625,2.9498238563537598,-3.864447593688965,-4.110159873962402
1695713558428990000,13.600989990234375,3.2110400199890137,-3.9615745544433594,-3.660123348236084
1695713558439020500,13.6110205078125,4.163053512573242,-3.859701156616211,-3.0149197578430176
1695713558449051100,13.621051025390624,5.521338939666748,-3.3845596313476562,-1.953804850578308
1695713558459082000,13.63108203125,4.229282855987549,-3.1746749877929688,-0.9805165529251099
1695713558469112600,13.641112548828126,2.829853057861328,-3.411771774291992,0.054003119468688965
1695713558479144200,13.651144287109375,-0.7012732028961182,-3.9163999557495117,1.199467420578003
1695713558489173800,13.661173828125,-1.3942592144012451,-4.170652389526367,2.2420456409454346
1695713558499203300,13.671203369140626,0.40491151809692383,-3.873260498046875,3.070331573486328
1695713558509233000,13.68123291015625,4.2475690841674805,-3.0732202529907227,3.73420786857605
1695713558519262700,13.6912626953125,6.1203508377075195,-2.037517547607422,3.9556350708007812
1695713558529292300,13.701292236328126,6.2438740730285645,-0.6152982711791992,3.681326389312744
1695713558539321900,13.71132177734375,6.088825225830078,1.0923728942871094,3.016305923461914
1695713558549351700,13.7213515625,5.816760063171387,2.8562569618225098,2.433403730392456
1695713558559381200,13.73138134765625,5.866884231567383,4.185642719268799,1.8682942390441895
1695713558569410800,13.741410888671876,6.2857513427734375,4.747509956359863,1.4839200973510742
1695713558579440600,13.751440673828125,6.717495918273926,4.916988372802734,1.0015931129455566
1695713558589473000,13.76147314453125,6.989077568054199,4.714978218078613,0.6972276568412781
1695713558599509000,13.771509033203126,7.021117210388184,4.696682929992676,0.3496931791305542
1695713558609545000,13.781544921875,6.908210754394531,4.625085830688477,-0.0020318031311035156
1695713558619581000,13.791580810546876,6.6752166748046875,4.666257858276367,-0.23692023754119873
1695713558629617200,13.8016171875,6.490286827087402,4.737824440002441,-0.4747731685638428
1695713558639653000,13.811653076171876,6.309737205505371,4.748140335083008,-0.857040524482727
1695713558649689300,13.821689453125,6.120285987854004,4.800191879272461,-1.3527075052261353
1695713558659725300,13.831725341796876,5.753421783447266,4.913402557373047,-1.849212646484375
1695713558669761300,13.84176123046875,5.362057209014893,5.014288902282715,-2.2978055477142334
1695713558679797200,13.85179736328125,4.787966251373291,5.286435127258301,-2.652797222137451
1695713558689833500,13.86183349609375,3.9937663078308105,5.563406944274902,-2.8888041973114014
1695713558699866000,13.8718662109375,2.825249671936035,5.785458564758301,-2.890443801879883
1695713558709900300,13.881900390625,1.2857582569122314,5.604942321777344,-2.4234118461608887
1695713558719934500,13.8919345703125,-1.895359754562378,4.450000286102295,-1.7266926765441895
1695713558729969000,13.901968994140624,-7.253925323486328,1.688706398010254,-1.61966872215271
1695713558740003000,13.912003173828126,-17.57691192626953,-2.611133575439453,-2.78232479095459
1695713558750037200,13.922037353515625,-21.657007217407227,-8.911008834838867,-3.579169750213623
1695713558760071400,13.932071533203125,-16.968952178955078,-16.24755859375,-3.9190967082977295
1695713558770105600,13.942105712890625,-11.950653076171875,-19.946914672851562,-2.863417387008667
1695713558780140000,13.95214013671875,-4.791892051696777,-15.924248695373535,-1.1243159770965576
1695713558790174200,13.96217431640625,-2.086625576019287,-9.119507789611816,0.031092166900634766
1695713558800208400,13.97220849609375,-2.6453330516815186,-2.683504104614258,1.7368532419204712
1695713558810240800,13.98224072265625,-2.2103052139282227,2.904761791229248,3.457874298095703
1695713558820272400,13.9922724609375,-0.36017680168151855,5.648641586303711,3.8474910259246826
1695713558830304000,14.002303955078125,1.3531832695007324,5.227189064025879,2.8308792114257812
1695713558840335400,14.01233544921875,2.475234270095825,3.4461636543273926,2.3751981258392334
1695713558850367000,14.022366943359375,6.077922821044922,0.9373083114624023,3.2489113807678223
1695713558860398300,14.0323984375,10.549580574035645,-1.9009065628051758,4.540665626525879
1695713558870430000,14.042429931640624,9.348410606384277,-3.865777015686035,2.8296337127685547
1695713558880461600,14.052461669921875,2.703683614730835,-5.843513488769531,1.0974546670913696
1695713558890493000,14.062492919921874,-2.0654385089874268,-6.948572158813477,-1.1544950008392334
1695713558900524500,14.072524658203125,1.6344345808029175,-4.570633888244629,-4.254739761352539
1695713558910557000,14.082556884765625,6.55722188949585,-0.9016761779785156,-5.2680511474609375
1695713558920589800,14.09258984375,8.46743106842041,1.828202247619629,-5.480523109436035
1695713558930622500,14.10262255859375,7.817187786102295,3.679630756378174,-5.908522605895996
1695713558940655400,14.1126552734375,6.313819885253906,4.886457443237305,-6.242844581604004
1695713558950688000,14.12268798828125,4.209883689880371,5.3967790603637695,-6.236086845397949
1695713558960720600,14.132720703125,2.4230051040649414,4.854408264160156,-5.2082839012146
1695713558970753500,14.14275341796875,2.9637606143951416,2.8206958770751953,-2.1845388412475586
1695713558980786200,14.1527861328125,3.5044782161712646,0.2784271240234375,0.5222158432006836
1695713558990819000,14.162819091796875,2.743635654449463,-2.1661415100097656,2.2705037593841553
1695713559000851700,14.172851806640624,2.120295763015747,-3.9316482543945312,2.9219164848327637
1695713559010884400,14.18288427734375,2.264376640319824,-4.319484710693359,2.693033218383789
1695713559020916500,14.19291650390625,2.4085915088653564,-3.912348747253418,2.6330623626708984
1695713559030946000,14.202946044921875,2.5547757148742676,-3.3622655868530273,2.814486026763916
1695713559040976000,14.212975830078125,2.5373239517211914,-2.1861047744750977,3.202251434326172
1695713559051005400,14.22300537109375,2.2491400241851807,-0.47545719146728516,2.910780668258667
1695713559061035000,14.233034912109375,2.3153414726257324,1.1375932693481445,2.339942455291748
1695713559071064800,14.24306494140625,1.2838094234466553,1.9232072830200195,1.7869327068328857
1695713559081094400,14.253094482421876,0.48776522278785706,1.9343156814575195,1.318042516708374
1695713559091124200,14.263124267578124,-0.9215287566184998,1.6239476203918457,0.6938815712928772
1695713559101153800,14.27315380859375,-2.447824478149414,1.289881706237793,0.11373531818389893
1695713559111183400,14.283183349609375,-3.4098258018493652,1.2561445236206055,-0.38261520862579346
1695713559121213200,14.293213134765624,-3.916318416595459,1.2722558975219727,-0.2315995693206787
1695713559131245600,14.30324560546875,-3.7586722373962402,1.1752796173095703,0.09498322010040283
1695713559141280300,14.3132802734375,-2.6570613384246826,1.0272293090820312,0.38064515590667725
1695713559151315000,14.32331494140625,-1.394247055053711,0.8051204681396484,0.6502092480659485
1695713559161349600,14.333349609375,-0.5450146794319153,0.8163967132568359,0.8790385723114014
1695713559171384300,14.34338427734375,0.3840920925140381,1.23291015625,0.9769934415817261
1695713559181419300,14.353419189453126,1.092406988143921,1.7233238220214844,1.028367280960083
1695713559191454000,14.363453857421876,0.8488343954086304,1.865377426147461,0.7321583032608032
1695713559201488600,14.373488525390625,-0.2695751190185547,1.367265224456787,0.25062549114227295
1695713559211523300,14.3835234375,-1.0713140964508057,0.5886020660400391,-0.12524628639221191
1695713559221558000,14.39355810546875,-1.7593438625335693,-0.10758590698242188,-0.10046172142028809
1695713559231592700,14.4035927734375,-2.7707483768463135,-0.5930423736572266,0.21109676361083984
1695713559241625000,14.413625,-4.220109939575195,-1.0153999328613281,0.9976401329040527
1695713559251657200,14.4236572265625,-5.432409286499023,-1.737701416015625,2.421011447906494
1695713559261689000,14.433689208984376,-5.903743743896484,-2.789139747619629,3.8387041091918945
1695713559271721200,14.44372119140625,-4.8613433837890625,-3.3307371139526367,4.566020965576172
1695713559281753000,14.453753173828124,-3.157716989517212,-2.9637107849121094,4.033761978149414
1695713559291785200,14.46378515625,-2.5087876319885254,-2.2537803649902344,3.350823402404785
1695713559301817000,14.473817138671874,-2.526416540145874,-2.385287284851074,3.6108713150024414
1695713559311849200,14.48384912109375,-2.6927449703216553,-3.310150146484375,4.147459030151367
1695713559321881300,14.49388134765625,-3.4197187423706055,-5.007566452026367,3.809523105621338
1695713559331913200,14.503913330078126,-3.99430775642395,-6.316967010498047,2.711031436920166
1695713559341945300,14.5139453125,-4.358194828033447,-6.452395439147949,1.5631206035614014
1695713559351977700,14.523977783203126,-4.876893043518066,-5.195906639099121,0.34635090827941895
1695713559362009900,14.534009765625,-5.834280014038086,-3.9363479614257812,-0.1799999475479126
1695713559372042000,14.5440419921875,-6.387391090393066,-3.672572135925293,0.6322306394577026
1695713559382074000,14.55407421875,-5.869935989379883,-3.4073915481567383,1.1010229587554932
1695713559392106500,14.5641064453125,-5.163632392883301,-2.5816354751586914,0.5064278841018677
1695713559402138600,14.574138671875,-3.969574213027954,-1.6113395690917969,-0.74224853515625
1695713559412170800,14.584170654296875,-1.6544699668884277,-0.9176616668701172,-2.1190385818481445
1695713559422203000,14.594202880859376,1.4322080612182617,-1.1783123016357422,-2.473177909851074
1695713559432235000,14.604235107421875,3.696033477783203,-2.0537004470825195,-2.280179023742676
1695713559442267400,14.614267333984374,3.974395275115967,-2.921637535095215,-2.833714008331299
1695713559452299500,14.624299560546875,3.303039789199829,-3.1701040267944336,-3.6882312297821045
1695713559462331600,14.63433154296875,2.505143165588379,-3.3894529342651367,-3.871737480163574
1695713559472362500,14.644362548828125,2.301713466644287,-3.642618179321289,-3.3508665561676025
1695713559482393300,14.654393310546874,3.0346415042877197,-3.34714412689209,-2.7266414165496826
1695713559492424200,14.664424072265625,4.127728462219238,-3.0524864196777344,-2.262056589126587
1695713559502455000,14.674455078125,3.621755599975586,-2.996492385864258,-1.9891247749328613
1695713559512486000,14.68448583984375,2.0907773971557617,-3.2419328689575195,-1.2550939321517944
1695713559522516700,14.694516845703125,-0.9966273307800293,-4.074405670166016,-0.3340514898300171
1695713559532547600,14.704547607421874,-1.1342289447784424,-4.532049179077148,0.4960137605667114
1695713559542578400,14.714578369140625,0.8679567575454712,-4.417896270751953,1.4969979524612427
1695713559552609300,14.724609375,3.7392876148223877,-3.382645606994629,2.3722856044769287
1695713559562642000,14.734641845703125,5.307666301727295,-2.403073310852051,2.8493947982788086
1695713559572676600,14.744676513671875,5.56347131729126,-1.1428394317626953,2.556945323944092
1695713559582711300,14.754711181640625,5.5093536376953125,0.3789501190185547,2.006099224090576
1695713559592746000,14.76474609375,5.433745384216309,2.039731025695801,1.5520226955413818
1695713559602780400,14.774780517578124,5.823144435882568,3.3457159996032715,1.3861191272735596
1695713559612815000,14.784815185546876,6.533149719238281,4.07309103012085,1.3111969232559204
1695713559622849800,14.794849853515625,6.8401899337768555,4.244051933288574,0.9933764338493347
1695713559632884500,14.804884521484375,6.853205680847168,4.652853965759277,0.7833406925201416
1695713559642919200,14.814919189453125,6.73277473449707,5.042902946472168,0.514799952507019
1695713559652953900,14.824953857421875,6.40505313873291,5.23292350769043,0.26925182342529297
1695713559662988300,14.83498828125,6.055880546569824,5.328838348388672,-0.019347190856933594
1695713559673020700,14.845020751953125,5.872982025146484,5.444093704223633,-0.33901262283325195
1695713559683051800,14.8550517578125,5.670168399810791,5.598197937011719,-0.6053919792175293
1695713559693083000,14.865082763671875,5.421196937561035,5.756601333618164,-0.7635607719421387
1695713559703114000,14.875114013671874,5.081958293914795,5.807868003845215,-0.7702031135559082
1695713559713145000,14.88514501953125,4.721943378448486,5.534963607788086,-0.8257315158843994
1695713559723176200,14.89517626953125,4.08469820022583,5.079198837280273,-0.6784408092498779
1695713559733207300,14.905207275390625,3.1889688968658447,4.610553741455078,-0.42267537117004395
1695713559743238400,14.91523828125,1.8504700660705566,4.1211442947387695,-0.1438889503479004
1695713559753269200,14.925269287109375,-0.18563604354858398,3.4903502464294434,0.07099390029907227
1695713559763300400,14.93530029296875,-3.751377820968628,2.4766459465026855,-0.1664140224456787
1695713559773331500,14.94533154296875,-6.296582221984863,1.011911392211914,-0.7531707286834717
1695713559783366700,14.95536669921875,-6.426461219787598,-0.6533174514770508,-2.0197181701660156
1695713559793416000,14.965416015625,-7.824599266052246,-3.0857887268066406,-2.983510732650757
1695713559803465500,14.975465576171874,-10.451166152954102,-6.06430721282959,-3.157841920852661
1695713559813514800,14.9855146484375,-11.615835189819336,-8.011512756347656,-2.298144817352295
1695713559823564300,14.995564208984375,-10.280477523803711,-7.45713996887207,-1.0906403064727783
1695713559833613600,15.005613525390626,-7.392426013946533,-5.846562385559082,-0.2582132816314697
1695713559843662800,15.015662841796875,-4.383350849151611,-4.213631629943848,0.16429924964904785
1695713559853712400,15.02571240234375,-2.4808225631713867,-2.40053653717041,0.5195536613464355
1695713559863761700,15.03576171875,-1.5662212371826172,0.15607786178588867,0.9674434661865234
1695713559873796600,15.045796630859375,-0.542116641998291,2.982792854309082,1.476933479309082
1695713559883858400,15.0558583984375,0.4647483825683594,5.956149101257324,1.7937774658203125
1695713559893893400,15.065893310546874,1.2739906311035156,7.965688228607178,1.6654531955718994
1695713559903928300,15.07592822265625,2.2290828227996826,9.072250366210938,2.1099653244018555
1695713559913794600,15.085794677734375,2.496722459793091,8.548754692077637,2.1027069091796875
1695713559923812400,15.095812255859375,0.9793581962585449,5.790546894073486,0.9631807804107666
1695713559933857300,15.105857177734375,-1.3712453842163086,1.7362322807312012,-1.5928881168365479
1695713559943877600,15.115877685546875,-2.738330364227295,-3.7383952140808105,-4.766961097717285
1695713559953918700,15.125918701171875,-5.9859442710876465,-11.01589298248291,-9.064081192016602
1695713559963941400,15.13594140625,-6.968327522277832,-17.128253936767578,-9.488710403442383
1695713559973992000,15.145991943359375,-4.015983581542969,-20.304981231689453,-5.408209800720215
1695713559984017400,15.156017333984375,3.9184823036193848,-15.167364120483398,0.3601548671722412
1695713559994047200,15.166047119140625,8.495515823364258,-6.011082649230957,3.6181869506835938
1695713560004073000,15.176072998046875,9.42615795135498,2.577104091644287,3.7651915550231934
1695713560014108200,15.186108154296875,6.414037704467773,9.015414237976074,1.9184775352478027
1695713560024135000,15.196135009765625,3.364814281463623,11.41642951965332,0.4678065776824951
1695713560034172000,15.206171875,2.6460120677948,8.887422561645508,0.522899866104126
1695713560044199700,15.21619970703125,4.555686950683594,4.5143537521362305,2.937173366546631
1695713560054255400,15.22625537109375,6.448690414428711,0.9995255470275879,5.276473045349121
1695713560064286000,15.236285888671874,5.632937431335449,-1.246225357055664,5.777083873748779
1695713560074315800,15.246315673828125,2.144228935241699,-3.1481852531433105,4.69840145111084
1695713560084346000,15.25634619140625,2.138979911804199,-5.133807182312012,3.384840250015259
1695713560094369000,15.266369140625,4.553770065307617,-6.484014987945557,2.41585373878479
1695713560104398600,15.276398681640625,5.554676055908203,-6.592647552490234,1.5229679346084595
1695713560114439400,15.286439453125,4.510571479797363,-5.682288646697998,-0.1282215118408203
1695713560124588800,15.2965888671875,2.8477623462677,-4.315375804901123,-1.9351353645324707
1695713560134659600,15.30665966796875,2.5107269287109375,-2.9216818809509277,-2.827023983001709
1695713560144690400,15.3166904296875,3.195725202560425,-1.4550156593322754,-2.5560264587402344
1695713560154730000,15.32672998046875,3.191784143447876,-0.1578831672668457,-1.9680771827697754
1695713560164760600,15.336760498046875,3.222971200942993,0.7483620643615723,-1.3628599643707275
1695713560174791400,15.34679150390625,3.3718583583831787,1.3703951835632324,-0.7023112773895264
1695713560184811000,15.35681103515625,2.2563462257385254,1.7771568298339844,-0.16821622848510742
1695713560194841900,15.366841796875,1.1231694221496582,1.6834444999694824,0.13883614540100098
1695713560204863200,15.37686328125,1.465348720550537,1.17036771774292,0.40173792839050293
1695713560214913800,15.386913818359375,2.4574408531188965,0.582862377166748,0.9141544103622437
1695713560224944600,15.396944580078125,2.6258246898651123,0.12668228149414062,1.536426305770874
1695713560234982000,15.40698193359375,1.835047721862793,-0.12896060943603516,1.7752249240875244
1695713560245009700,15.417009765625,0.362215518951416,-0.2259688377380371,1.5198026895523071
1695713560255024400,15.4270244140625,-0.33304882049560547,-0.47342967987060547,1.120891809463501
1695713560265038800,15.437038818359374,1.1129651069641113,-0.7111997604370117,0.8162684440612793
1695713560275053600,15.447053466796875,2.717205762863159,-0.4238615036010742,0.6027528047561646
1695713560285068300,15.457068359375,3.240001916885376,0.22512149810791016,0.680006742477417
1695713560295082800,15.467082763671876,2.791193723678589,0.9388680458068848,0.8624586462974548
1695713560305097500,15.477097412109375,1.817657470703125,1.4121894836425781,0.8767936825752258
1695713560315112000,15.48711181640625,0.6733889579772949,1.5755624771118164,1.252684235572815
1695713560325126700,15.497126708984375,-0.20918893814086914,1.5848045349121094,1.6537814140319824
1695713560335141400,15.507141357421874,-0.1181182861328125,1.710984706878662,1.5169283151626587
1695713560345155800,15.51715576171875,-0.23888063430786133,1.9912171363830566,1.5060052871704102
1695713560355184600,15.5271845703125,-0.49832773208618164,2.087289810180664,1.492037296295166
1695713560365218800,15.53721875,0.30516862869262695,2.1886534690856934,1.3052927255630493
1695713560375253000,15.5472529296875,0.808354377746582,2.5686521530151367,1.1072998046875
1695713560385287200,15.557287109375,1.1229867935180664,2.9214744567871094,0.91144198179245
1695713560395321300,15.5673212890625,1.1926536560058594,3.059993028640747,0.6780437231063843
1695713560405355500,15.57735546875,0.5601139068603516,2.9008188247680664,0.42353519797325134
1695713560415389700,15.5873896484375,0.10924291610717773,2.443844795227051,0.1414337158203125
1695713560425424000,15.597423828125,-0.13468599319458008,1.783311367034912,-0.12459522485733032
1695713560435457800,15.607457763671874,-0.419222354888916,0.8893547058105469,0.1280611753463745
1695713560445492000,15.617491943359376,-0.7834763526916504,-0.05034017562866211,0.41131338477134705
1695713560455521500,15.627521484375,-0.10748910903930664,-0.5039267539978027,0.3052199184894562
1695713560465554200,15.63755419921875,-0.800870418548584,-0.4306917190551758,0.1377638876438141
1695713560475586800,15.6475869140625,-0.8664641380310059,0.022904396057128906,0.012557685375213623
1695713560485619500,15.657619384765624,0.9853339195251465,0.7679872512817383,0.055861249566078186
1695713560495652000,15.667652099609375,1.4152984619140625,1.7611188888549805,0.18683788180351257
1695713560505684700,15.677684814453125,0.37494993209838867,2.5858163833618164,0.1943672001361847
1695713560515717000,15.687717041015626,0.1720256805419922,2.896733045578003,0.1806115359067917
1695713560525749800,15.697749755859375,1.4501638412475586,2.6704907417297363,0.4181612730026245
1695713560535782400,15.707782470703124,1.499952793121338,1.8968496322631836,0.8350492715835571
1695713560545815000,15.71781494140625,-0.5716476440429688,0.7665576934814453,1.1498973369598389
1695713560555845400,15.727845458984374,-0.26505422592163086,-0.45166587829589844,0.6626187562942505
1695713560565879300,15.73787939453125,1.3117709159851074,-1.065629482269287,-0.2643388509750366
1695713560575913000,15.747912841796875,1.3875131607055664,-0.8208112716674805,-0.947474479675293
1695713560585947000,15.75794677734375,1.453073501586914,-0.1798081398010254,-1.2311806678771973
1695713560595980800,15.767980712890624,1.314262866973877,0.24837303161621094,-1.156538724899292
1695713560606014500,15.778014404296876,0.3806495666503906,0.2530975341796875,-0.8823481798171997
1695713560616048400,15.78804833984375,0.5163030624389648,0.18993663787841797,-0.4887665808200836
1695713560626082000,15.79808203125,0.885200023651123,0.1572103500366211,-0.23149007558822632
1695713560636116000,15.808115966796874,0.6292095184326172,-0.11062812805175781,-0.33131951093673706
1695713560646150000,15.81814990234375,-0.17667579650878906,-0.7448229789733887,-0.31467288732528687
1695713560656183600,15.82818359375,-1.497502326965332,-1.6795296669006348,-0.33433812856674194
1695713560666214000,15.8382138671875,-0.7463126182556152,-2.299744129180908,-0.44834592938423157
1695713560676244200,15.848244140625,-0.43421077728271484,-2.5019407272338867,-0.9679417014122009
1695713560686274300,15.8582744140625,-0.6522459983825684,-1.9411911964416504,-1.289340853691101
1695713560696304600,15.8683046875,-0.7883319854736328,-0.9953188896179199,-1.8015937805175781
1695713560706334700,15.878334716796875,-0.678708553314209,0.12811756134033203,-2.068190813064575
1695713560716365000,15.888364990234376,-0.2096409797668457,1.0567116737365723,-2.213688611984253
1695713560726395400,15.8983955078125,0.13120698928833008,1.4752368927001953,-1.8102521896362305
1695713560736425500,15.908425537109375,0.06003570556640625,1.0664262771606445,-1.6385385990142822
1695713560746455800,15.918455810546876,-0.2705698013305664,-0.019087791442871094,-1.6800888776779175
1695713560756486100,15.928486083984374,-0.32006406784057617,-1.7357254028320312,-1.6762275695800781
1695713560766516200,15.93851611328125,-0.3688945770263672,-3.1801514625549316,-1.8619999885559082
1695713560776545800,15.9485458984375,-0.4672527313232422,-4.499062538146973,-1.6270724534988403
1695713560786575400,15.958575439453124,-0.5667123794555664,-5.462543964385986,-1.1053566932678223
1695713560796605000,15.96860498046875,-0.36969518661499023,-5.569721221923828,-0.6671924591064453
1695713560806634800,15.978634765625,-0.24066972732543945,-5.265130519866943,-0.2720082998275757
1695713560816664300,15.988664306640626,0.03014659881591797,-4.425213813781738,-0.390103816986084
1695713560826694000,15.99869384765625,0.7502598762512207,-3.6660237312316895,-0.5977863073348999
1695713560836723500,16.008723388671875,1.134511947631836,-2.974684715270996,-0.9914160966873169
1695713560846753000,16.0187529296875,0.8636007308959961,-2.650869846343994,-1.1360197067260742
1695713560856782600,16.028782470703124,0.7569260597229004,-3.0365633964538574,-0.5844016075134277
1695713560866812200,16.038812255859376,0.31303834915161133,-4.198056697845459,0.2240678071975708
1695713560876843300,16.04884326171875,-3.9456748962402344,-7.047931671142578,-0.7482471466064453
1695713560886879000,16.05887890625,-33.9428596496582,-13.054696083068848,-6.5991363525390625
1695713560896914700,16.068914794921874,-8.717954635620117,-17.023391723632812,3.4058775901794434
1695713560906950100,16.0789501953125,18.944721221923828,-13.83481216430664,4.621038436889648
1695713560916985900,16.08898583984375,7.597464084625244,-6.5946149826049805,4.0476250648498535
1695713560927021300,16.099021240234375,-9.562601089477539,2.206468105316162,2.485020399093628
1695713560937057000,16.10905712890625,-2.5474019050598145,5.577245235443115,-3.8839826583862305
1695713560947092500,16.119092529296875,3.2260024547576904,4.939236640930176,-7.558198928833008
1695713560957128200,16.129128173828125,-1.1344056129455566,1.1714410781860352,-6.087138652801514
1695713560967163600,16.13916357421875,3.7727315425872803,-0.2999153137207031,-1.4399226903915405
1695713560977199400,16.149199462890625,3.0579569339752197,1.522099494934082,0.271248996257782
1695713560987230700,16.159230712890626,-1.635129451751709,0.8803191184997559,0.47913867235183716
1695713560997264000,16.169263916015623,-0.5914883613586426,0.28780603408813477,1.1149239540100098
1695713561007297000,16.179297119140625,0.5183062553405762,0.42627429962158203,1.0481613874435425
1695713561017330200,16.189330078125,-0.28231143951416016,1.258211612701416,0.7968237400054932
1695713561027363000,16.199363037109375,-1.274838924407959,1.9163556098937988,0.6285884380340576
1695713561037396200,16.209396240234376,-1.570969581604004,2.0979456901550293,0.5331134796142578
1695713561047429400,16.219429443359374,-1.0927181243896484,2.175373077392578,0.5612584948539734
1695713561057462500,16.229462646484375,-0.3361845016479492,2.7241291999816895,0.506456732749939
1695713561067495700,16.23949560546875,-0.11644601821899414,2.478633403778076,0.16545099020004272
1695713561077528600,16.249528564453126,-0.08154726028442383,1.9646415710449219,-0.18306487798690796
1695713561087560200,16.259560302734375,-0.0704507827758789,1.476243019104004,-0.4618954062461853
1695713561097591600,16.269591552734376,-0.21569538116455078,1.031233787536621,-0.565544843673706
1695713561107623000,16.279622802734377,-0.6180562973022461,0.9504938125610352,-0.525291919708252
1695713561117654300,16.289654296875,-0.8650808334350586,0.8834280967712402,-0.46462202072143555
1695713561127685600,16.299685546875,-0.7613677978515625,0.7724061012268066,-0.43358081579208374
1695713561137716700,16.309716796875,-0.4324469566345215,0.4554414749145508,-0.4123103618621826
1695713561147748000,16.319748046875,0.01483774185180664,0.1252279281616211,-0.26821601390838623
1695713561157779500,16.329779541015625,0.35947370529174805,-0.15515518188476562,0.02104651927947998
1695713561167810800,16.339810791015626,0.29175233840942383,-0.4054570198059082,0.36510181427001953
1695713561177842200,16.34984228515625,0.29601287841796875,-0.8606195449829102,0.6211501955986023
1695713561187874000,16.3598740234375,0.6569347381591797,-1.308666706085205,0.9577659368515015
1695713561197907500,16.369907470703126,0.9176435470581055,-1.6236929893493652,1.313633918762207
1695713561207940900,16.37994091796875,1.0890154838562012,-1.9023666381835938,1.5730881690979004
1695713561217974300,16.389974365234377,1.2156920433044434,-1.8642535209655762,1.7947096824645996
1695713561228007700,16.400007568359374,1.2227215766906738,-1.7312655448913574,1.900953769683838
1695713561238041000,16.410041015625,0.9350581169128418,-1.6913113594055176,1.8911569118499756
1695713561248074500,16.420074462890625,0.6596345901489258,-1.6297736167907715,1.726119875907898
1695713561258107600,16.430107666015626,0.5569009780883789,-1.3057804107666016,1.1225804090499878
1695713561268141000,16.44014111328125,0.4346494674682617,-0.4710350036621094,0.33485540747642517
1695713561278174500,16.450174560546873,0.1428546905517578,0.20682430267333984,-0.3187583088874817
1695713561288208000,16.460207763671875,-0.14497661590576172,0.48395252227783203,-0.8085918426513672
1695713561298240000,16.470239990234376,-0.3867521286010742,0.7062664031982422,-1.153164267539978
1695713561308273700,16.480273681640625,-0.575782299041748,0.8234529495239258,-1.284348964691162
1695713561318307300,16.490307373046875,-0.6874752044677734,0.8294739723205566,-0.9266294836997986
1695713561328341200,16.50034130859375,-0.734410285949707,0.8275184631347656,-0.28633785247802734
1695713561338375000,16.510375,-0.513465404510498,0.7342138290405273,0.43927282094955444
1695713561348408600,16.52040869140625,-0.06463623046875,0.5558366775512695,0.8982876539230347
1695713561358442200,16.530442138671877,0.2655940055847168,0.47631263732910156,1.206349492073059
1695713561368476000,16.540475830078126,0.3028101921081543,0.5749058723449707,1.2561899423599243
1695713561378509600,16.550509521484376,0.18745946884155273,0.5254702568054199,1.0727770328521729
1695713561388543500,16.56054345703125,0.062206268310546875,0.3675661087036133,0.6544827818870544
1695713561398575400,16.570575439453126,-0.004557132720947266,0.266599178314209,0.3389490246772766
1695713561408606200,16.580606201171875,-0.06256580352783203,0.1857924461364746,0.16664373874664307
1695713561418637000,16.590636962890624,-0.002441883087158203,0.10644340515136719,0.03991857171058655
1695713561428668000,16.60066796875,0.11373519897460938,0.08557748794555664,0.026078879833221436
1695713561438698800,16.61069873046875,0.16741371154785156,0.14608478546142578,0.05407911539077759
1695713561448729600,16.6207294921875,0.18379783630371094,0.11967897415161133,0.03260359168052673
1695713561458760400,16.630760498046875,0.18312311172485352,0.015307903289794922,0.018995344638824463
1695713561468791600,16.64079150390625,0.16971349716186523,0.038825035095214844,0.07785904407501221
1695713561478822400,16.650822509765625,0.1279163360595703,0.04766511917114258,0.2192632257938385
1695713561488853200,16.660853271484374,0.15263652801513672,0.04728269577026367,0.3261958360671997
1695713561498884000,16.670884033203127,0.11555957794189453,0.07524728775024414,0.32750433683395386
1695713561508916000,16.680916015625,0.07652854919433594,0.08179998397827148,0.21524077653884888
1695713561518947800,16.69094775390625,0.1739511489868164,0.000194549560546875,0.100229412317276
1695713561528979700,16.700979736328126,0.19083833694458008,-0.12499856948852539,0.1255856454372406
1695713561539011600,16.711011474609375,0.17366886138916016,-0.19211769104003906,0.2362966537475586
1695713561549043500,16.72104345703125,0.2509422302246094,-0.21517705917358398,0.3595869243144989
1695713561559075600,16.73107568359375,0.19862747192382812,-0.0659031867980957,0.4436723589897156
1695713561569107500,16.741107421875,0.2143993377685547,0.15851163864135742,0.48937463760375977
1695713561579139300,16.751139404296875,0.09835195541381836,0.2947549819946289,0.47401565313339233
1695713561589171200,16.761171142578124,-0.05725908279418945,0.25609588623046875,0.41352325677871704
1695713561599203000,16.771203125,0.033293724060058594,0.18225669860839844,0.45558035373687744
1695713561609243000,16.781242919921876,0.026882171630859375,0.18594074249267578,0.4454902112483978
