time,seconds_elapsed,z,y,x
1695713545075783000,0.247782958984375,-0.8596677780151367,-0.6435524225234985,0.2613890767097473
1695713545085982500,0.257982421875,-1.0535457134246826,-0.5221123695373535,0.11970899999141693
1695713545096010800,0.2680107421875,-1.0631331205368042,-0.14194637537002563,-0.050733182579278946
1695713545106023400,0.2780234375,-0.725577712059021,0.36498594284057617,-0.27004432678222656
1695713545116065300,0.288065185546875,-0.34740909934043884,0.5087965726852417,-0.4596612751483917
1695713545126093600,0.298093505859375,-0.2047969400882721,0.45553335547447205,-0.5161202549934387
1695713545136121900,0.308121826171875,-0.22184115648269653,0.2083922028541565,-0.4287686049938202
1695713545145988900,0.31798876953125,-0.34740909934043884,-0.2324937880039215,-0.2402169555425644
1695713545155953200,0.327953125,-0.4901544451713562,-0.604137659072876,-0.02197106182575226
1695713545166049000,0.338049072265625,-0.5338302254676819,-0.868323028087616,0.20386482775211334
1695713545176069000,0.348069091796875,-0.5498092174530029,-1.1408973932266235,0.4199801981449127
1695713545186116000,0.3581162109375,-0.5796365737915039,-1.458345890045166,0.622380256652832
1695713545196147500,0.3681474609375,-0.5998765826225281,-1.7980319261550903,0.7576687932014465
1695713545206192600,0.378192626953125,-0.5924197435379028,-2.0588881969451904,0.7832350730895996
1695713545216230000,0.38822998046875,-0.48908916115760803,-2.0972378253936768,0.7427550554275513
1695713545226269700,0.398269775390625,-0.2781669795513153,-1.8811224699020386,0.6117276549339294
1695713545236308000,0.408307861328125,-0.13768532872200012,-1.5817832946777344,0.35939332842826843
1695713545246328000,0.418328125,-0.08974846452474594,-1.272990107536316,0.12929637730121613
1695713545256358700,0.428358642578125,-0.09507478028535843,-1.0823078155517578,-0.04966791719198227
1695713545266386400,0.438386474609375,-0.14727269113063812,-0.922651469707489,-0.21571588516235352
1695713545276415700,0.448415771484375,-0.10998847335577011,-0.876845121383667,-0.36911386251449585
1695713545286450000,0.458449951171875,-0.031158961355686188,-0.7948198318481445,-0.42663809657096863
1695713545296481000,0.46848095703125,-0.020506324246525764,-0.8214514255523682,-0.4032022953033447
1695713545306531300,0.47853125,0.06684529036283493,-0.9279778003692627,-0.38722333312034607
1695713545316570600,0.488570556640625,0.19361166656017303,-0.9917604327201843,-0.34674331545829773
1695713545326595300,0.49859521484375,0.2936132848262787,-1.0439584255218506,-0.276435911655426
1695713545336628500,0.50862841796875,0.32876700162887573,-1.1195920705795288,-0.20932430028915405
1695713545346658600,0.518658447265625,0.30533120036125183,-1.205878496170044,-0.17630113661289215
1695713545356690200,0.528690185546875,0.3404848873615265,-1.2996217012405396,-0.17523586750030518
1695713545366697500,0.538697509765625,0.554602861404419,-1.4221270084381104,-0.1411474347114563
1695713545376718800,0.54871875,0.8772445917129517,-1.6307854652404785,-0.0006657897611148655
1695713545386775800,0.55877587890625,1.2586089372634888,-2.000432014465332,0.25606274604797363
1695713545396812000,0.56881201171875,1.6941686868667603,-2.4796674251556396,0.500940203666687
1695713545406840800,0.5788408203125,2.2426462173461914,-2.7937870025634766,0.629837155342102
1695713545416874200,0.588874267578125,2.841191291809082,-2.7692859172821045,0.6000097393989563
1695713545426887000,0.598886962890625,3.3023173809051514,-2.6638247966766357,0.41891491413116455
1695713545436918000,0.60891796875,3.6558516025543213,-2.6798038482666016,0.2869553864002228
1695713545446998300,0.618998291015625,4.078628063201904,-2.9237492084503174,0.32637014985084534
1695713545457034200,0.6290341796875,4.469579696655273,-3.5095109939575195,0.3977428078651428
1695713545467063000,0.63906298828125,4.835897445678711,-4.41152286529541,0.5318328738212585
1695713545477098200,0.64909814453125,5.338568687438965,-5.501021385192871,0.7928224802017212
1695713545487115300,0.659115234375,5.94350528717041,-6.545778751373291,1.1793800592422485
1695713545497148700,0.669148681640625,6.514353275299072,-7.336071014404297,1.5776554346084595
1695713545507159000,0.679158935546875,7.054308891296387,-7.757782459259033,1.8982998132705688
1695713545517190100,0.689190185546875,7.39932107925415,-7.650190830230713,2.034520387649536
1695713545527224000,0.69922412109375,7.530348777770996,-7.1997175216674805,1.915343999862671
1695713545537255400,0.70925537109375,7.5782856941223145,-6.824877738952637,1.6479628086090088
1695713545547302400,0.719302490234375,7.630483627319336,-6.762027263641357,1.5691334009170532
1695713545557335300,0.729335205078125,7.813575744628906,-6.8769426345825195,1.9142787456512451
1695713545567351300,0.739351318359375,7.9456682205200195,-7.114496231079102,2.471278429031372
1695713545577382400,0.74938232421875,7.700790882110596,-7.191195487976074,2.9856677055358887
1695713545587431700,0.759431640625,7.101180553436279,-6.809964179992676,3.3892693519592285
1695713545597464600,0.769464599609375,6.186385631561279,-5.922732830047607,3.5874085426330566
1695713545607527700,0.779527587890625,5.046819686889648,-4.721381664276123,3.624692678451538
1695713545617563600,0.789563720703125,3.921102285385132,-3.677689552307129,3.6129748821258545
1695713545627725300,0.799725341796875,2.930673360824585,-3.1089718341827393,3.594865322113037
1695713545637761500,0.809761474609375,2.0732693672180176,-2.850245952606201,3.665039539337158
1695713545647797500,0.819797607421875,1.3171985149383545,-2.8087007999420166,3.9079196453094482
1695713545657646800,0.829646728515625,0.6344976425170898,-2.8129618167877197,4.024033546447754
1695713545667668700,0.839668701171875,0.03488738462328911,-2.618018627166748,3.8312206268310547
1695713545677727700,0.849727783203125,-0.5274386405944824,-2.2080252170562744,3.3051135540008545
1695713545687753200,0.859753173828125,-0.9992172718048096,-1.7351813316345215,2.5490427017211914
1695713545697792300,0.869792236328125,-1.3538169860839844,-1.4050827026367188,1.8173397779464722
1695713545707819000,0.879819091796875,-1.5040191411972046,-1.1653984785079956,1.1836410760879517
1695713545717875200,0.889875244140625,-1.2325100898742676,-0.9555414915084839,0.622380256652832
1695713545727905000,0.899905029296875,-0.8383625149726868,-0.5498092174530029,-0.24660852551460266
1695713545737919500,0.90991943359375,-0.9086698889732361,-0.5380913019180298,-0.8781766891479492
1695713545747947800,0.91994775390625,-1.088699460029602,-1.0556762218475342,-1.0187915563583374
1695713545757987300,0.9299873046875,-1.3825790882110596,-1.2197269201278687,-0.8984166979789734
1695713545768016600,0.9400166015625,-1.5029538869857788,-0.7820366621017456,-0.7173219323158264
1695713545778054000,0.950053955078125,-1.5136064291000366,-0.8257125020027161,-0.5203812718391418
1695713545788084000,0.960083984375,-1.8736655712127686,-1.5892401933670044,0.13249216973781586
1695713545798118000,0.970117919921875,-1.9267956018447876,-1.8907097578048706,0.7427550554275513
1695713545808148500,0.9801484375,-1.7564865350723267,-2.146239995956421,1.6319838762283325
1695713545818163200,0.9901630859375,-1.4933664798736572,-1.5594128370285034,1.6724638938903809
1695713545828192000,1.00019189453125,-1.1472889184951782,-0.6169208288192749,1.2880369424819946
1695713545838245600,1.01024560546875,-0.9523456692695618,-0.2047969400882721,1.1090725660324097
1695713545848277200,1.02027734375,-0.9566067457199097,-0.2569948434829712,1.1676621437072754
1695713545858283300,1.030283203125,-0.9534109830856323,-0.42623862624168396,1.2859063148498535
1695713545868312300,1.040312255859375,-1.034371018409729,-0.5647228956222534,1.3306474685668945
1695713545878377500,1.05037744140625,-1.1121352910995483,-0.6808366179466248,1.3913674354553223
1695713545888409900,1.060409912109375,-1.0375667810440063,-0.5998765826225281,1.2496874332427979
1695713545898440000,1.07043994140625,-0.9033435583114624,-0.4667186439037323,0.9663273096084595
1695713545908472300,1.080472412109375,-0.8362319469451904,-0.07696529477834702,0.7416898012161255
1695713545918486000,1.090486083984375,-0.6371608376502991,0.42144492268562317,0.5169191956520081
1695713545928516400,1.100516357421875,-0.0141147430986166,0.8783098459243774,0.15486270189285278
1695713545938573300,1.1105732421875,0.30426591634750366,0.3596596419811249,-0.1826927214860916
1695713545948606500,1.1206064453125,0.45553335547447205,-0.5711144804954529,-0.6215813159942627
1695713545958638000,1.13063818359375,0.4161186218261719,-0.8640619516372681,-1.013465166091919
1695713545968671000,1.1406708984375,0.3873564898967743,-0.7138597965240479,-1.542768120765686
1695713545978704000,1.150703857421875,0.26391905546188354,0.06151897460222244,-1.903759241104126
1695713545988736800,1.16073681640625,0.10839057713747025,0.6313018798828125,-2.0411782264709473
1695713545998770200,1.170770263671875,-0.0141147430986166,0.6494113206863403,-2.1434435844421387
1695713546008803000,1.180802978515625,-0.13342426717281342,-0.2900180220603943,-2.3276009559631348
1695713546018842600,1.190842529296875,-0.2665822207927704,-0.5732449889183044,-2.445845365524292
1695713546028876300,1.200876220703125,-0.34314805269241333,-0.4018706977367401,-2.3201441764831543
1695713546038895400,1.210895263671875,0.0540621280670166,-0.05352949723601341,-2.146639347076416
1695713546048927200,1.22092724609375,1.0977542400360107,-0.4613923132419586,-1.9303908348083496
1695713546058916400,1.230916259765625,2.5748753547668457,-1.34968900680542,-1.6184017658233643
1695713546068944100,1.240944091796875,3.891274929046631,-1.574326515197754,-1.1359704732894897
1695713546079029800,1.25102978515625,4.5239081382751465,-1.0439584255218506,-0.4415517747402191
1695713546089063200,1.261063232421875,4.466383934020996,0.17643429338932037,0.23582273721694946
1695713546099088100,1.271088134765625,4.111651420593262,1.1701921224594116,0.7470161318778992
1695713546109120800,1.281120849609375,3.8241631984710693,1.100950002670288,1.0036115646362305
1695713546119168000,1.29116796875,3.612175941467285,0.5982787013053894,0.9110667109489441
1695713546129202200,1.3012021484375,3.3822121620178223,0.06897582113742828,0.5946834087371826
1695713546139221200,1.31122119140625,3.2064435482025146,-0.37204334139823914,0.39135122299194336
1695713546149253600,1.321253662109375,2.966759204864502,-0.5093291997909546,0.4551338851451874
1695713546159284700,1.33128466796875,2.578071117401123,-0.25379905104637146,0.6277065873146057
1695713546169317000,1.341317138671875,2.140380859375,-0.020506324246525764,0.8801741003990173
1695713546179346700,1.3513466796875,1.7239960432052612,0.21904483437538147,1.0440915822982788
1695713546189378800,1.36137890625,1.4140043258666992,0.336223840713501,0.989763081073761
1695713546199416000,1.371416015625,1.409743309020996,-0.42730388045310974,0.24008379876613617
1695713546209448700,1.38144873046875,1.420395851135254,-1.0034784078598022,0.7747129797935486
1695713546219490600,1.391490478515625,1.2671310901641846,-0.3134538233280182,1.2305126190185547
1695713546229524000,1.40152392578125,1.3140027523040771,0.36498594284057617,1.065396785736084
1695713546239548000,1.4115478515625,1.53650963306427,0.05832318589091301,0.9334372878074646
1695713546249580500,1.42158056640625,1.3841769695281982,-0.25912538170814514,0.8098666667938232
1695713546259593500,1.431593505859375,1.005076289176941,-0.7213166356086731,0.6958834528923035
1695713546269624000,1.4416240234375,1.3916337490081787,-1.1653984785079956,0.743820309638977
1695713546279675600,1.451675537109375,2.333193778991699,-1.058872103691101,1.3050811290740967
1695713546289708500,1.46170849609375,3.1862034797668457,-0.649944007396698,2.2699437141418457
1695713546299742500,1.471742431640625,3.701658010482788,-0.6691187024116516,3.179412603378296
1695713546309775400,1.481775390625,4.0530619621276855,-0.7138597965240479,3.716172218322754
1695713546319814000,1.49181396484375,4.403533458709717,-1.4626070261001587,2.8514444828033447
1695713546329847300,1.501847412109375,4.6004743576049805,-2.4296000003814697,1.6106786727905273
1695713546339868000,1.511867919921875,4.570779800415039,-3.6649065017700195,0.9195888638496399
1695713546349900000,1.521900146484375,4.054127216339111,-5.637375354766846,0.8215845823287964
1695713546359934500,1.5319345703125,3.6238937377929688,-6.624608039855957,0.8077361583709717
1695713546369966600,1.541966552734375,3.348123550415039,-6.074000358581543,0.9610009789466858
1695713546380000000,1.552,3.587674856185913,-4.379565238952637,1.1080073118209839
1695713546390032400,1.562032470703125,3.065828800201416,-2.7746124267578125,0.6884266138076782
1695713546400065500,1.5720654296875,1.8603497743606567,-1.4594111442565918,-0.0624510794878006
1695713546410098000,1.582097900390625,0.9102677702903748,-1.1920300722122192,-0.1933453530073166
1695713546420139800,1.592139892578125,0.7175882458686829,-1.8832529783248901,0.07922898232936859
1695713546430173400,1.60217333984375,0.5822997093200684,-2.0301260948181152,0.1261005848646164
1695713546440193500,1.612193603515625,0.2607232630252838,-1.507214903831482,0.024900536984205246
1695713546450225700,1.6222255859375,-0.004527370445430279,-0.7905587553977966,-0.047537390142679214
1695713546460242700,1.63224267578125,-0.1153147891163826,-0.27830013632774353,-0.04434159770607948
1695713546470273300,1.642273193359375,-0.10040109604597092,0.10945583879947662,-0.04647212475538254
1695713546480334300,1.652334228515625,-0.07696529477834702,0.40333545207977295,-0.0954742506146431
1695713546490367700,1.66236767578125,-0.09827057272195816,0.6387587189674377,-0.19867166876792908
1695713546500397300,1.672397216796875,-0.11957584321498871,0.787762463092804,-0.32650330662727356
1695713546510430500,1.682430419921875,-0.15899059176445007,0.7856319546699524,-0.3797664940357208
1695713546520470300,1.69247021484375,-0.18455693125724792,0.7813708782196045,-0.4245075583457947
1695713546530504000,1.70250390625,-0.21544957160949707,0.7888277173042297,-0.49694550037384033
1695713546540531700,1.71253173828125,-0.18775272369384766,0.7025413513183594,-0.5044023394584656
1695713546550564900,1.72256494140625,-0.07483477145433426,0.42783650755882263,-0.39254966378211975
1695713546560590600,1.732590576171875,-0.10785794258117676,0.14767217636108398,-0.332894891500473
1695713546570623000,1.742623046875,-0.22290641069412231,0.29041749238967896,-0.3957454562187195
1695713546580666000,1.752666015625,-0.18455693125724792,-0.05352949723601341,-0.3424822688102722
1695713546590699800,1.76269970703125,-0.15366427600383759,-0.19840535521507263,-0.2583264410495758
1695713546600721400,1.772721435546875,-0.18349166214466095,-0.12170637398958206,-0.22423799335956573
1695713546610753800,1.78275390625,-0.1994706094264984,-0.056725289672613144,-0.2306295782327652
1695713546620774700,1.792774658203125,-0.17816534638404846,-0.05992107838392258,-0.23382537066936493
1695713546630805800,1.8028056640625,-0.16112112998962402,-0.02263685315847397,-0.21784640848636627
1695713546640833500,1.81283349609375,-0.14514216780662537,0.029561065137386322,-0.22317273914813995
1695713546650864400,1.822864501953125,-0.13129374384880066,0.0540621280670166,-0.25193485617637634
1695713546660884000,1.832884033203125,-0.13662005960941315,0.04980107396841049,-0.2913496196269989
1695713546670913500,1.84291357421875,-0.18242639303207397,-0.20373167097568512,-0.3531349003314972
1695713546680966000,1.8529658203125,-0.22503694891929626,-0.303866446018219,-0.38828858733177185
1695713546690997800,1.862997802734375,-0.2728406488895416,0.5407544374465942,-0.1507348120212555
1695713546701021700,1.873021728515625,-0.36658385396003723,2.0381157398223877,-0.3094590902328491
1695713546711052800,1.883052734375,-0.4283691346645355,2.4214773178100586,-0.3339601457118988
1695713546721095200,1.89309521484375,-0.30905961990356445,1.3586106300354004,-0.1093226820230484
1695713546731127600,1.90312744140625,-0.15579481422901154,0.36179015040397644,-0.018775271251797676
1695713546741156400,1.91315625,-0.05139897018671036,-0.303866446018219,-0.056059498339891434
1695713546751188200,1.923188232421875,-0.0002663159102667123,-0.4901544451713562,-0.13369058072566986
1695713546761219800,1.9332197265625,-0.010918952524662018,-0.39441385865211487,-0.13169321417808533
1695713546771251700,1.943251708984375,-0.0588558167219162,-0.17070849239826202,-0.12743216753005981
1695713546781293800,1.9532939453125,-0.07590003311634064,-0.004527370445430279,-0.11038794368505478
1695713546791326700,1.96332666015625,-0.05033370852470398,-0.06631266325712204,-0.04860265180468559
1695713546801380000,1.973380126953125,-0.004527370445430279,-0.10146636515855789,-0.030493171885609627
1695713546811415000,1.9834150390625,0.010386320762336254,-0.006657897960394621,-0.07416898012161255
1695713546821441300,1.993441162109375,-0.03968106955289841,-0.10146636515855789,-0.09014793485403061
1695713546831475500,2.003475341796875,-0.07163897901773453,-0.31132328510284424,-0.024101590737700462
1695713546841489700,2.01348974609375,-0.026897907257080078,-0.19840535521507263,0.030226856470108032
1695713546851521500,2.023521484375,-0.048203181475400925,-0.11424952745437622,0.020639482885599136
1695713546861537800,2.033537841796875,-0.10892320424318314,-0.17390428483486176,-0.04114580899477005
1695713546871568100,2.043568115234375,-0.13768532872200012,-0.3262369930744171,-0.08056056499481201
1695713546881633800,2.0536337890625,-0.1579253375530243,-0.3869570195674896,-0.08162582665681839
1695713546891667700,2.063667724609375,-0.16325165331363678,-0.3028011918067932,-0.07310371845960617
1695713546901699000,2.073698974609375,-0.1525990217924118,-0.1483379602432251,-0.06884266436100006
1695713546911732700,2.083732666015625,-0.10466215014457703,0.04234423115849495,-0.06458161026239395
1695713546921759700,2.093759765625,-0.04713791608810425,-0.07803056389093399,-0.0006657897611148655
1695713546931792600,2.103792724609375,-0.008788425475358963,-0.2612559199333191,0.04301001876592636
1695713546941798400,2.11379833984375,0.0050600022077560425,-0.37736964225769043,0.03129211813211441
1695713546951828500,2.123828369140625,-0.006657897960394621,-0.25060325860977173,-0.02516685426235199
1695713546961904000,2.133904052734375,-0.006657897960394621,-0.05459476262331009,-0.07736477255821228
1695713546971938800,2.143938720703125,0.01784316636621952,0.05086633935570717,-0.11251847445964813
1695713546981956400,2.153956298828125,0.05512739345431328,0.015712639316916466,-0.11784479022026062
1695713546991989500,2.163989501953125,0.09347688406705856,-0.001331579522229731,-0.09653951972723007
1695713547002020600,2.1740205078125,0.15632744133472443,0.24461115896701813,-0.08908267319202423
1695713547012053500,2.184053466796875,0.2426137924194336,0.392682820558548,-0.05712476372718811
1695713547022090800,2.1940908203125,0.24154852330684662,0.2968090772628784,0.001464737462811172
1695713547032124000,2.2041240234375,0.1669800728559494,0.11691268533468246,0.030226856470108032
1695713547042123500,2.21412353515625,0.07536740601062775,-0.052464235574007034,-0.003861580742523074
1695713547052153300,2.2241533203125,0.00612526573240757,-0.14727269113063812,-0.06777740269899368
1695713547062205000,2.234204833984375,-0.016245270147919655,-0.17923060059547424,-0.12530162930488586
1695713547072236800,2.24423681640625,-0.0141147430986166,-0.23462431132793427,-0.1284974217414856
1695713547082283800,2.25428369140625,0.0540621280670166,-0.24314641952514648,-0.059255290776491165
1695713547092317400,2.2643173828125,0.08921582996845245,-0.07590003311634064,-0.0006657897611148655
1695713547102353000,2.274352783203125,0.08815056830644608,0.16897743940353394,0.017443692311644554
1695713547112386800,2.28438671875,0.07643266767263412,0.26272064447402954,0.009986846707761288
1695713547122410500,2.294410400390625,0.06471476703882217,0.22117535769939423,-0.0070573715493083
1695713547132443400,2.304443359375,0.00612526573240757,0.11904320865869522,-0.04966791719198227
1695713547142482700,2.314482666015625,-0.02157158963382244,0.04554001986980438,-0.10399636626243591
1695713547152516000,2.32451611328125,-0.040746334940195084,-0.05139897018671036,-0.1592569202184677
1695713547162543900,2.3345439453125,-0.04500738903880119,-0.031158961355686188,-0.19654114544391632
1695713547172576800,2.34457666015625,-0.05352949723601341,0.13595427572727203,-0.18908429145812988
1695713547182606600,2.354606689453125,-0.04713791608810425,0.3639206886291504,-0.15712638199329376
1695713547192639000,2.364638916015625,-0.020506324246525764,0.579103946685791,-0.12317110598087311
1695713547202678300,2.37467822265625,0.016777902841567993,0.683366596698761,-0.11571425944566727
1695713547212711400,2.38471142578125,0.04340949282050133,0.6653903126716614,-0.1411474347114563
1695713547222742000,2.394741943359375,0.03382211923599243,0.5950828790664673,-0.15819165110588074
1695713547232775000,2.40477490234375,0.05512739345431328,0.5631250143051147,-0.16138744354248047
1695713547242773500,2.4147734375,0.0774979293346405,0.533297598361969,-0.15393058955669403
1695713547252802800,2.424802734375,0.06578002870082855,0.6313018798828125,-0.14966954290866852
1695713547262870300,2.434870361328125,0.06684529036283493,0.8175898194313049,-0.17630113661289215
1695713547272903700,2.444903564453125,0.08815056830644608,0.963530957698822,-0.19441060721874237
1695713547282924800,2.4549248046875,0.110521100461483,1.0008151531219482,-0.20399798452854156
1695713547292957000,2.46495703125,0.12543480098247528,1.0061415433883667,-0.23595589399337769
1695713547302998300,2.474998291015625,0.11904320865869522,0.9539436101913452,-0.24128220975399017
1695713547313031400,2.485031494140625,0.10839057713747025,0.9582046270370483,-0.21571588516235352
1695713547323063600,2.4950634765625,0.10412952303886414,0.9315730333328247,-0.18908429145812988
1695713547333096400,2.505096435546875,0.09880319982767105,0.7898929715156555,-0.16671375930309296
1695713547343131600,2.515131591796875,0.06258423626422882,0.5982787013053894,-0.1327584832906723
1695713547353164800,2.525164794921875,-0.015180006623268127,0.40440070629119873,-0.08695214241743088
1695713547363193900,2.53519384765625,-0.02263685315847397,0.20093534886837006,-0.06990792602300644
1695713547373226500,2.5452265625,-0.04607265070080757,0.16897743940353394,-0.06990792602300644
1695713547383259100,2.555259033203125,-0.03968106955289841,0.3021354079246521,-0.09227846562862396
1695713547393291800,2.565291748046875,-0.05779055133461952,0.43635863065719604,-0.10186583548784256
1695713547403323100,2.5753232421875,-0.03968106955289841,0.5183839201927185,-0.09440898895263672
1695713547413355800,2.585355712890625,0.04554001986980438,0.54181969165802,-0.04434159770607948
1695713547423384300,2.59538427734375,0.0966726765036583,0.5833650231361389,0.012117373757064342
1695713547433416400,2.60541650390625,0.13076111674308777,0.4672512710094452,0.06218476593494415
1695713547443422700,2.615422607421875,0.14460954070091248,0.25845959782600403,0.07177213579416275
1695713547453452300,2.625452392578125,0.13608743250370026,0.10732531547546387,0.02383527345955372
1695713547463504100,2.635504150390625,0.08282424509525299,-0.016245270147919655,-0.019840534776449203
1695713547473536000,2.645535888671875,0.06471476703882217,0.14767217636108398,-0.047537390142679214
1695713547483573500,2.655573486328125,0.04127896577119827,0.4704470634460449,-0.09653951972723007
1695713547493606000,2.66560595703125,0.07004108279943466,0.579103946685791,-0.11038794368505478
1695713547503646700,2.675646728515625,0.11691268533468246,0.401204913854599,-0.09867004305124283
1695713547513680000,2.685679931640625,0.07962846010923386,0.3596596419811249,-0.1093226820230484
1695713547523705600,2.69570556640625,0.04340949282050133,0.37031227350234985,-0.1368863731622696
1695713547533738000,2.705738037109375,-0.011984216049313545,0.33196279406547546,-0.15286533534526825
1695713547543786200,2.7157861328125,-0.05779055133461952,0.31811434030532837,-0.13369058072566986
1695713547553820400,2.7258203125,-0.036485280841588974,0.09773793816566467,-0.06458161026239395
1695713547563814400,2.735814453125,-0.0141147430986166,-0.23462431132793427,-0.014514217153191566
1695713547573844500,2.745844482421875,-0.11211899667978287,-0.3837612271308899,0.006791055668145418
1695713547583895800,2.755895751953125,-0.17070849239826202,-0.44967442750930786,0.014247900806367397
1695713547593928000,2.765927978515625,-0.16431692242622375,-0.508263885974884,0.06644582003355026
1695713547603973600,2.7759736328125,-0.17070849239826202,-0.45606598258018494,0.08881635963916779
1695713547614007300,2.78600732421875,-0.0727042406797409,-0.5306344628334045,0.15699322521686554
1695713547624031500,2.796031494140625,-0.020506324246525764,-0.6478134393692017,0.1910816729068756
1695713547634064100,2.806064208984375,-0.03755054250359535,-0.480567067861557,0.1399490088224411
1695713547644106200,2.816106201171875,-0.08655267208814621,-0.2186453640460968,0.08242477476596832
1695713547654140000,2.826139892578125,0.013582111336290836,-0.05139897018671036,0.10053425282239914
1695713547664170500,2.83617041015625,0.12117373943328857,0.03169159218668938,0.1442100703716278
1695713547674204000,2.846203857421875,0.060453712940216064,0.04340949282050133,0.10053425282239914
1695713547684226300,2.856226318359375,-0.029028434306383133,0.11691268533468246,-0.019840534776449203
1695713547694258400,2.866258544921875,-0.011984216049313545,0.2318280041217804,-0.06671213358640671
1695713547704288000,2.8762880859375,-0.001331579522229731,0.2882869839668274,-0.05819002538919449
1695713547714320000,2.88631982421875,0.1243695318698883,0.2786996066570282,-0.002796316985040903
1695713547724336000,2.896336181640625,0.14034847915172577,0.08815056830644608,0.03235738351941109
1695713547734366500,2.906366455078125,0.029561065137386322,-0.17816534638404846,-0.023036325350403786
1695713547744432000,2.91643212890625,-0.02157158963382244,-0.4155859649181366,-0.026232117787003517
1695713547754466000,2.926466064453125,-0.08548741042613983,-0.6360955238342285,0.0600542388856411
1695713547764461800,2.9364619140625,-0.05352949723601341,-0.8715187907218933,0.22730062901973724
1695713547774492000,2.946491943359375,-0.05352949723601341,-1.0301098823547363,0.3455449044704437
1695713547784561000,2.956560791015625,-0.07163897901773453,-1.1419626474380493,0.4114580750465393
1695713547794594800,2.9665947265625,-0.10466215014457703,-1.2314447164535522,0.4263717830181122
1695713547804596000,2.976595947265625,-0.1153147891163826,-1.290034294128418,0.41784965991973877
1695713547814626800,2.986626708984375,-0.0002663159102667123,-1.1398321390151978,0.4157191216945648
1695713547824661200,2.9966611328125,0.21704746782779694,-1.2325100898742676,0.5243760347366333
1695713547834692400,3.0066923828125,0.4896217882633209,-1.3954954147338867,0.651142418384552
1695713547844734200,3.016734130859375,0.9294425249099731,-1.8480992317199707,0.8002793192863464
1695713547854766300,3.026766357421875,1.0860363245010376,-2.1473052501678467,0.6074665784835815
1695713547864818700,3.036818603515625,0.7271755933761597,-1.272990107536316,0.27417221665382385
1695713547874852900,3.046852783203125,0.36179015040397644,-0.5071986317634583,0.20386482775211334
1695713547884855800,3.056855712890625,0.11265163123607635,-0.024767380207777023,0.33489224314689636
1695713547894886700,3.06688671875,-0.007723161485046148,0.2744385600090027,0.45726442337036133
1695713547904943000,3.076943115234375,-0.07803056389093399,0.4235754609107971,0.5254412889480591
1695713547914976800,3.086976806640625,-0.08016108721494675,0.40866175293922424,0.5456812977790833
1695713547924984000,3.096984130859375,-0.0023968431632965803,0.33196279406547546,0.5233107805252075
1695713547935015200,3.10701513671875,0.09880319982767105,0.20093534886837006,0.4775044322013855
1695713547945052400,3.117052490234375,0.08921582996845245,-0.02157158963382244,0.45726442337036133
1695713547955084000,3.127083984375,0.030626330524683,-0.19201377034187317,0.4338286221027374
1695713547965146600,3.137146728515625,-0.005592633970081806,-0.21758009493350983,0.4082622826099396
1695713547975181300,3.147181396484375,-0.019441060721874237,-0.10679268091917038,0.3892207145690918
1695713547985201000,3.157200927734375,-0.03755054250359535,0.008255792781710625,0.37643754482269287
1695713547995234000,3.167234130859375,-0.04394212365150452,0.11904320865869522,0.3476754128932953
1695713548005271800,3.177271728515625,-0.05352949723601341,0.15512901544570923,0.31145647168159485
1695713548015305500,3.187305419921875,-0.06418213248252869,0.11904320865869522,0.28908592462539673
1695713548025306000,3.19730615234375,-0.05779055133461952,0.08921582996845245,0.2677806615829468
1695713548035336200,3.207336181640625,-0.04713791608810425,0.08921582996845245,0.24434484541416168
1695713548045398500,3.2173984375,-0.048203181475400925,0.06471476703882217,0.22943115234375
1695713548055432000,3.227431884765625,-0.05352949723601341,0.02636527456343174,0.2241048365831375
1695713548065438700,3.237438720703125,-0.0588558167219162,-0.005592633970081806,0.2432795912027359
1695713548075469300,3.24746923828125,-0.06205160543322563,0.012516847811639309,0.2763027548789978
1695713548085507600,3.257507568359375,-0.05566002428531647,0.05086633935570717,0.3103911876678467
1695713548095539000,3.2675390625,-0.04287686198949814,0.0774979293346405,0.3370227813720703
1695713548105591800,3.277591796875,-0.024767380207777023,0.0774979293346405,0.350871205329895
1695713548115625700,3.287625732421875,-0.008788425475358963,0.03382211923599243,0.36258912086486816
1695713548125658400,3.297658447265625,0.011451584286987782,-0.04287686198949814,0.37856805324554443
1695713548135691800,3.30769189453125,0.03275685757398605,-0.13022847473621368,0.40506649017333984
1695713548145730000,3.31772998046875,0.05193160101771355,-0.21225377917289734,0.4444812536239624
1695713548155764000,3.327763916015625,0.06897582113742828,-0.3091927766799927,0.49454864859580994
1695713548165765000,3.33776513671875,0.0913463607430458,-0.4091944098472595,0.5371592044830322
1695713548175795700,3.347795654296875,0.10839057713747025,-0.491219699382782,0.559529721736908
1695713548185851400,3.357851318359375,0.12863057851791382,-0.5838976502418518,0.5819002389907837
1695713548195884500,3.367884521484375,0.14567480981349945,-0.7330345511436462,0.6255760788917542
1695713548205910000,3.377909912109375,0.18402428925037384,-0.8992156982421875,0.668186604976654
1695713548215942400,3.3879423828125,0.15952323377132416,-0.8885630369186401,0.6213150024414062
1695713548225984300,3.397984375,0.14460954070091248,-0.914129376411438,0.6010749936103821
1695713548236017700,3.408017578125,0.14034847915172577,-0.9418262243270874,0.6042708158493042
1695713548246046200,3.418046142578125,0.11158636957406998,-0.7692534923553467,0.5552686452865601
1695713548256079000,3.4280791015625,0.09986846894025803,-0.5977460741996765,0.5435507893562317
1695713548266119700,3.43811962890625,0.10626004636287689,-0.5135902166366577,0.559529721736908
1695713548276153300,3.4481533203125,0.11797794699668884,-0.31558436155319214,0.5488771200180054
1695713548286332700,3.458332763671875,0.46512073278427124,-0.3976096510887146,0.6404897570610046
1695713548296363800,3.46836376953125,0.7165229320526123,-0.7298387289047241,0.7001445293426514
1695713548306397400,3.4783974609375,0.19254639744758606,-0.1483379602432251,0.416784405708313
1695713548316438800,3.488438720703125,-0.13235901296138763,0.0913463607430458,0.41891491413116455
1695713548326455300,3.498455322265625,0.0050600022077560425,0.044474758207798004,0.568051815032959
1695713548336489200,3.5084892578125,0.18722008168697357,-0.02157158963382244,0.5307676196098328
1695713548346521600,3.518521484375,0.20213377475738525,-0.16964323818683624,0.41784965991973877
1695713548356555300,3.52855517578125,0.19467693567276,-0.2143843024969101,0.3647196292877197
1695713548366580500,3.53858056640625,0.17869797348976135,-0.1430116444826126,0.3700459599494934
1695713548376630300,3.54863037109375,0.15845796465873718,-0.05033370852470398,0.3892207145690918
1695713548386664000,3.558663818359375,0.1435442715883255,0.030626330524683,0.3988080620765686
1695713548396678700,3.5686787109375,0.13715268671512604,0.08282424509525299,0.3988080620765686
1695713548406711300,3.578711181640625,0.13502216339111328,0.12223900109529495,0.3945470154285431
1695713548416737000,3.588737060546875,0.138217955827713,0.14873743057250977,0.38815543055534363
1695713548426762800,3.5987626953125,0.15100112557411194,0.17110797762870789,0.37643754482269287
1695713548436795600,3.608795654296875,0.16378428041934967,0.18815219402313232,0.36152383685112
1695713548446827300,3.6188271484375,0.17550218105316162,0.19028271734714508,0.342349112033844
1695713548456858600,3.628858642578125,0.18189376592636108,0.19667430222034454,0.3178480267524719
1695713548466957300,3.638957275390625,0.19680745899677277,0.18176060914993286,0.2997385561466217
1695713548476945400,3.6489453125,0.20639483630657196,0.18389113247394562,0.2656501233577728
1695713548486978300,3.658978271484375,0.19254639744758606,0.2222406268119812,0.21238693594932556
1695713548496982300,3.668982177734375,0.18828535079956055,0.24993747472763062,0.1772332340478897
1695713548507025000,3.67902490234375,0.19361166656017303,0.2456764280796051,0.17510271072387695
1695713548517057800,3.689057861328125,0.18295903503894806,0.29041749238967896,0.1495363861322403
1695713548527096600,3.6990966796875,0.17443692684173584,0.35220280289649963,0.12397005409002304
1695713548537132500,3.709132568359375,0.17763271927833557,0.39374807476997375,0.11012163013219833
1695713548547165400,3.71916552734375,0.18295903503894806,0.39907440543174744,0.09520793706178665
1695713548557184800,3.729184814453125,0.1861548274755478,0.37137752771377563,0.08242477476596832
1695713548567223800,3.739223876953125,0.18508955836296082,0.3490070104598999,0.08135951310396194
1695713548577256700,3.749256591796875,0.17976324260234833,0.3404848873615265,0.09946899116039276
1695713548587289600,3.75928955078125,0.16591481864452362,0.3298322558403015,0.12290479242801666
1695713548597322500,3.769322509765625,0.14674006402492523,0.30852699279785156,0.14314480125904083
1695713548607338800,3.7793388671875,0.12756532430648804,0.2840259075164795,0.15805849432945251
1695713548617354800,3.789354736328125,0.10839057713747025,0.25845959782600403,0.16977639496326447
1695713548627428400,3.799428466796875,0.09241162240505219,0.22863221168518066,0.18042902648448944
1695713548637461200,3.809461181640625,0.08069372177124023,0.19028271734714508,0.18788588047027588
1695713548647487200,3.8194873046875,0.08069372177124023,0.1423458606004715,0.19853851199150085
1695713548657511400,3.829511474609375,0.0870852991938591,0.08815056830644608,0.1964079886674881
1695713548667547600,3.839547607421875,0.07536740601062775,0.06258423626422882,0.16551533341407776
1695713548677580500,3.84958056640625,0.07004108279943466,0.02210422046482563,0.13675321638584137
1695713548687594500,3.859594482421875,0.048735812306404114,0.014647374860942364,0.0834900364279747
1695713548697625900,3.8696259765625,0.03808317333459854,-0.01837579719722271,0.0366184376180172
1695713548707659500,3.879659423828125,0.030626330524683,-0.05459476262331009,-0.005992108024656773
1695713548717699600,3.889699462890625,0.030626330524683,-0.08548741042613983,-0.04860265180468559
1695713548727733500,3.8997333984375,0.03914843872189522,-0.13662005960941315,-0.0997353047132492
1695713548737748700,3.909748779296875,0.03808317333459854,-0.21225377917289734,-0.1880190372467041
1695713548747783000,3.919782958984375,0.027430538088083267,-0.34434646368026733,-0.30306750535964966
1695713548757816800,3.92981689453125,-0.011984216049313545,-0.47417548298835754,-0.44474756717681885
1695713548767722000,3.939721923828125,-0.0727042406797409,-0.5807018280029297,-0.5842971205711365
1695713548777746000,3.949745849609375,-0.14940322935581207,-0.6265081763267517,-0.7141261100769043
1695713548787779600,3.959779541015625,-0.20799273252487183,-0.6062681674957275,-0.8515450954437256
1695713548797804500,3.969804443359375,-0.20692746341228485,-0.6190513372421265,-1.0060083866119385
1695713548807821300,3.9798212890625,-0.1760348230600357,-0.7106640338897705,-1.2073432207107544
1695713548817845500,3.989845458984375,-0.1621863842010498,-0.9194557070732117,-1.488439679145813
1695713548827911700,3.99991162109375,-0.18349166214466095,-1.2495542764663696,-1.8345171213150024
1695713548837940000,4.00993994140625,-0.2888196110725403,-1.5125411748886108,-2.1647489070892334
1695713548847968500,4.019968505859375,-0.5530049800872803,-1.5338464975357056,-2.466085433959961
1695713548858132200,4.03013232421875,-0.8404930233955383,-1.3305143117904663,-2.6865949630737305
1695713548868195800,4.04019580078125,-1.0279793739318848,-1.1664637327194214,-2.738792896270752
1695713548878216700,4.050216796875,-1.084438443183899,-1.1771162748336792,-2.654637098312378
1695713548888245000,4.060244873046875,-1.047154188156128,-1.34968900680542,-2.543849468231201
1695713548898293000,4.07029296875,-1.0088046789169312,-1.8480992317199707,-2.4042999744415283
1695713548908312300,4.080312255859375,-0.9470193982124329,-2.439187526702881,-2.2542309761047363
1695713548918343000,4.090343017578125,-0.8532761931419373,-2.985534429550171,-2.101898431777954
1695713548928371500,4.100371337890625,-0.7287734746932983,-3.4115068912506104,-1.9559571743011475
1695713548938413600,4.11041357421875,-0.6052029132843018,-3.388071060180664,-1.8462350368499756
1695713548948443400,4.120443359375,-0.4667186439037323,-3.004709243774414,-1.6961660385131836
1695713548958480400,4.13048046875,-0.33356067538261414,-2.5754079818725586,-1.6013575792312622
1695713548968517600,4.140517578125,-0.2324937880039215,-2.34437894821167,-1.6173365116119385
1695713548978554600,4.1505546875,-0.1760348230600357,-2.2921810150146484,-1.6429028511047363
1695713548988591900,4.160591796875,-0.1952095627784729,-2.2410483360290527,-1.5981618165969849
1695713548998628900,4.17062890625,-0.23355905711650848,-2.2165472507476807,-1.4745911359786987
1695713549008666000,4.180666015625,-0.25060325860977173,-2.121738910675049,-1.3286501169204712
1695713549018695700,4.19069580078125,-0.2685796022415161,-1.878991961479187,-1.1711242198944092
1695713549028676400,4.20067626953125,-0.30053749680519104,-1.6297202110290527,-1.0102694034576416
1695713549038706000,4.210705810546875,-0.3154512047767639,-1.3997564315795898,-0.8174566626548767
1695713549048629800,4.220629638671875,-0.3250385820865631,-1.1962910890579224,-0.6343644857406616
1695713549058829800,4.230829833984375,-0.32397329807281494,-1.0961562395095825,-0.4319643974304199
1695713549068835300,4.24083544921875,-0.30905961990356445,-0.9843035936355591,-0.22210747003555298
1695713549078891500,4.2508916015625,-0.2644517123699188,-0.8193209171295166,0.004660528618842363
1695713549088912400,4.260912353515625,-0.1898832470178604,-0.6637924313545227,0.21345220506191254
1695713549098931000,4.270930908203125,-0.10785794258117676,-0.491219699382782,0.37750279903411865
1695713549108964400,4.28096435546875,-0.0354200154542923,-0.3358243703842163,0.5222455263137817
1695713549119026000,4.29102587890625,0.04234423115849495,-0.22716747224330902,0.6245108246803284
1695713549129046800,4.301046875,0.13076111674308777,-0.12383689731359482,0.6756434440612793
1695713549139093200,4.31109326171875,0.2138516753911972,-0.08548741042613983,0.6649908423423767
1695713549149124600,4.32112451171875,0.27550381422042847,-0.10998847335577011,0.6085318326950073
1695713549159147500,4.3311474609375,0.30000486969947815,-0.20692746341228485,0.5659213066101074
1695713549169179600,4.3411796875,0.30533120036125183,-0.3070622384548187,0.5787044763565063
1695713549179212000,4.3512119140625,0.3032006621360779,-0.33369383215904236,0.6458160877227783
1695713549189244400,4.361244384765625,0.30959224700927734,-0.29214856028556824,0.7299718856811523
1695713549199276500,4.371276611328125,0.3159838318824768,-0.17283903062343597,0.8034750819206238
1695713549209309000,4.381308837890625,0.2968090772628784,-0.0727042406797409,0.8247803449630737
1695713549219341000,4.391341064453125,0.25326642394065857,-0.12596742808818817,0.7715172171592712
1695713549229373400,4.40137353515625,0.2000032514333725,-0.30493173003196716,0.6735129356384277
1695713549239396400,4.411396240234375,0.15952323377132416,-0.46565335988998413,0.5637907981872559
1695713549249382700,4.421382568359375,0.13715268671512604,-0.5689839720726013,0.4498075842857361
1695713549259405300,4.4314052734375,0.09347688406705856,-0.5551354885101318,0.3146522343158722
1695713553031559700,8.2035595703125,-0.06950845569372177,1.3671327829360962,0.42424124479293823
1695713553041590300,8.21359033203125,-0.10359688848257065,1.3713937997817993,0.3988080620765686
1695713553051620900,8.223620849609375,-0.14620743691921234,1.3543496131896973,0.35513225197792053
1695713553061651500,8.2336513671875,-0.23355905711650848,1.3021516799926758,0.25606274604797363
1695713553071684400,8.243684326171875,-0.36551859974861145,1.197888970375061,0.13781848549842834
1695713553081718000,8.253718017578125,-0.5295692086219788,1.0647310018539429,-0.06777740269899368
1695713553091752000,8.263751953125,-0.6637924313545227,0.8484824895858765,-0.4468781054019928
1695713553101785900,8.273785888671876,-0.633965015411377,0.5407544374465942,-0.9303746223449707
1695713553111819800,8.28381982421875,-0.5593965649604797,0.3159838318824768,-1.4990922212600708
1695713553121853400,8.293853515625,-0.5657881498336792,0.32770171761512756,-2.1232035160064697
1695713553131887400,8.303887451171875,-0.612659752368927,0.5918871164321899,-2.7047042846679688
1695713553141921300,8.31392138671875,-0.7223818898200989,0.9443562030792236,-3.0443904399871826
1695713553151955200,8.323955078125,-0.7894935011863708,1.0679267644882202,-3.206310510635376
1695713553161988900,8.33398876953125,-0.7958850860595703,0.9859014749526978,-3.186070442199707
1695713553172022800,8.344022705078125,-0.8054724931716919,0.9230509400367737,-2.9911272525787354
1695713553182055400,8.354055419921876,-0.7660577297210693,0.7888277173042297,-2.8101654052734375
1695713553192087600,8.364087646484375,-0.6488786935806274,0.5535376071929932,-2.768620252609253
1695713553202119700,8.37411962890625,-0.44967442750930786,0.17749954760074615,-2.8218834400177
1695713553212151600,8.384151611328125,-0.2324937880039215,-0.4283691346645355,-2.9005796909332275
1695713553222183700,8.39418359375,-0.07483477145433426,-1.2580763101577759,-2.917623996734619
1695713553232215800,8.4042158203125,0.02210422046482563,-2.200568437576294,-2.8112306594848633
1695713553242248000,8.414248046875,0.1392832249403,-2.961033344268799,-2.7409234046936035
1695713553252280000,8.424280029296876,0.27550381422042847,-3.275153160095215,-2.8707523345947266
1695713553262312000,8.43431201171875,0.37457332015037537,-2.9471850395202637,-3.1882009506225586
1695713553272344000,8.444343994140626,0.39481332898139954,-2.1174778938293457,-3.553453207015991
1695713553282376400,8.45437646484375,0.261788547039032,-1.4072132110595703,-3.7452006340026855
1695713553292407300,8.4644072265625,-0.0023968431632965803,-1.1377015113830566,-3.7302868366241455
1695713553302438400,8.4744384765625,-0.3580617308616638,-1.591370701789856,-3.569432258605957
1695713553312469200,8.48446923828125,-0.642487108707428,-2.3763368129730225,-3.3266851902008057
1695713553322500400,8.494500244140625,-0.7969503402709961,-2.969555616378784,-3.09765362739563
1695713553332531500,8.504531494140625,-0.8074698448181152,-3.1963236331939697,-2.8760786056518555
1695713553342562300,8.514562255859374,-0.7032071352005005,-3.1728878021240234,-2.679137945175171
1695713553352593400,8.524593505859375,-0.5679186582565308,-3.0164270401000977,-2.501239061355591
1695713553362624300,8.534624267578126,-0.4848281145095825,-2.8747470378875732,-2.3627548217773438
1695713553372655400,8.5446552734375,-0.4486091434955597,-2.8395934104919434,-2.246774196624756
1695713553382688000,8.55468798828125,-0.38895440101623535,-2.8726165294647217,-2.0752668380737305
1695713553392722200,8.56472216796875,-0.3271690905094147,-2.9237492084503174,-1.831321358680725
1695713553402756400,8.57475634765625,-0.3122554123401642,-2.9567723274230957,-1.488439679145813
1695713553412790500,8.58479052734375,-0.3442133069038391,-2.860898733139038,-1.0347704887390137
1695713553422825000,8.594824951171875,-0.4113249182701111,-2.597778558731079,-0.5054675936698914
1695713553432859100,8.604859130859374,-0.4858933687210083,-2.210155725479126,0.04833633825182915
1695713553442893300,8.614893310546876,-0.5572660565376282,-1.800162434577942,0.5787044763565063
1695713553452927500,8.624927490234375,-0.6201165914535522,-1.4104090929031372,1.102681040763855
1695713553462961700,8.634961669921875,-0.7010766267776489,-1.0428930521011353,1.6032217741012573
1695713553472995800,8.644995849609375,-0.7564703226089478,-0.6723145246505737,2.0664782524108887
1695713553483027500,8.65502734375,-0.7287734746932983,-0.2239716798067093,2.4552996158599854
1695713553493053000,8.665052978515625,-0.6158555150032043,0.36072489619255066,2.717221260070801
1695713553503078400,8.675078369140625,-0.4326302111148834,0.9869667887687683,2.8120296001434326
1695713553513104000,8.685103759765624,-0.18881797790527344,1.523726463317871,2.568084239959717
1695713553523129300,8.69512939453125,0.22450430691242218,1.4267874956130981,1.7417060136795044
1695713553533154800,8.70515478515625,0.8655267357826233,0.3777691125869751,0.38176384568214417
1695713553543180300,8.71518017578125,1.432113766670227,-1.1845731735229492,-0.9506146311759949
1695713553553205800,8.725205810546875,1.4864422082901,-2.3070948123931885,-2.2339909076690674
1695713553563231200,8.735231201171874,0.9677920341491699,-2.612692356109619,-3.081674575805664
1695713553573256700,8.745256591796876,0.4438154697418213,-2.2911157608032227,-2.99751877784729
1695713553583288800,8.755288818359375,0.03701791167259216,-1.8385119438171387,-2.2680795192718506
1695713553593324800,8.76532470703125,-0.3303648829460144,-1.486974835395813,-1.4916354417800903
1695713553603360800,8.77536083984375,-0.5934849977493286,-1.168594241142273,-0.9197220206260681
1695713553613397000,8.78539697265625,-0.4624575674533844,-1.051415205001831,-0.4660528302192688
1695713553623433000,8.795432861328125,-0.016245270147919655,-0.9768467545509338,-0.30413275957107544
1695713553633469000,8.805468994140625,0.22130851447582245,-0.46458810567855835,-0.37337490916252136
1695713553643505000,8.8155048828125,0.0636495053768158,-0.060986343771219254,-0.06351634114980698
1695713553653541000,8.825541015625,-0.3974764943122864,0.03275685757398605,0.8045403361320496
1695713553663577000,8.8355771484375,-0.8044071793556213,0.3830954432487488,1.5467628240585327
1695713553673613000,8.845613037109375,-1.0727205276489258,0.9901625514030457,1.7470324039459229
1695713553683645400,8.8556455078125,-1.0290446281433105,1.4310485124588013,1.6160049438476562
1695713553693677600,8.865677490234376,-0.7575356364250183,1.4885728359222412,1.3849759101867676
1695713553703710000,8.8757099609375,-0.4773712754249573,1.2659326791763306,1.1665968894958496
1695713553713742300,8.885742431640624,-0.32397329807281494,0.887897253036499,1.1559442281723022
1695713553723774500,8.8957744140625,-0.27177539467811584,0.7558045387268066,1.4892386198043823
1695713553733806800,8.905806884765624,-0.2047969400882721,1.2403663396835327,2.1676783561706543
1695713553743839200,8.915839111328125,-0.04181159660220146,2.0839219093322754,2.9025771617889404
1695713553753871600,8.92587158203125,0.11478215456008911,2.9880645275115967,3.4095094203948975
1695713553763903700,8.93590380859375,0.08602003753185272,3.7400074005126953,3.5831475257873535
1695713553773936000,8.94593603515625,-0.17390428483486176,3.907120704650879,3.565037965774536
1695713553783972900,8.955972900390625,-0.4294344186782837,3.593001127243042,3.4585115909576416
1695713553794032400,8.966032470703125,-0.558331310749054,3.2224225997924805,3.2369368076324463
1695713553804092200,8.976092041015624,-0.633965015411377,2.908169746398926,2.988863468170166
1695713553814152000,8.98615185546875,-0.6467481851577759,2.6302690505981445,2.761962413787842
1695713553824211700,8.996211669921875,-0.6083986759185791,2.340517282485962,2.5744760036468506
1695713553834271500,9.006271484375,-0.5071986317634583,1.8889787197113037,2.4286680221557617
1695713553844331300,9.016331298828124,-0.3292996287345886,1.1840405464172363,2.312554121017456
1695713553854367700,9.02636767578125,-0.15472954511642456,0.699345588684082,2.0739352703094482
1695713553864398300,9.0363984375,-0.016245270147919655,0.42251017689704895,1.8066871166229248
1695713553874429000,9.046428955078126,0.048735812306404114,0.15299849212169647,1.624527096748352
1695713553884328400,9.056328369140624,0.040213704109191895,-0.1153147891163826,1.538240671157837
1695713553894352400,9.066352294921876,-0.0684431865811348,-0.1909485012292862,1.5510238409042358
1695713553904392200,9.07639208984375,-0.1675127148628235,0.08069372177124023,1.6522239446640015
1695713553914417700,9.086417724609374,-0.23675484955310822,0.5886912941932678,1.7598155736923218
1695713553924439600,9.096439453125,-0.28455856442451477,1.3170653581619263,1.8652766942977905
1695713553934464500,9.106464599609374,-0.2973417043685913,2.050898790359497,1.9515630006790161
1695713553944490200,9.116490234375,-0.2655169665813446,2.5599617958068848,2.010152578353882
1695713553954515200,9.12651513671875,-0.18775272369384766,2.752774477005005,2.0323898792266846
1695713553964554500,9.136554443359374,-0.06205160543322563,2.6355953216552734,2.0112178325653076
1695713553974581000,9.1465810546875,0.09347688406705856,2.201101064682007,1.9483672380447388
1695713553984627200,9.156627197265625,0.2744385600090027,1.6259918212890625,1.8375797271728516
1695713553994655700,9.16665576171875,0.447011262178421,1.0626004934310913,1.689508080482483
1695713554004704500,9.17670458984375,0.5812344551086426,0.5386239290237427,1.582981824874878
1695713554014735000,9.186735107421875,0.6558029055595398,0.09028109163045883,1.5361101627349854
1695713554024751900,9.196751953125,0.6675208210945129,-0.13662005960941315,1.46700119972229
1695713554034781000,9.206781005859375,0.6259755492210388,-0.0822916179895401,1.2848410606384277
1695713554044810000,9.21681005859375,0.5258407592773438,0.14341111481189728,0.9993504285812378
1695713554054839300,9.22683935546875,0.32237541675567627,0.43103229999542236,0.6735129356384277
1695713554065053700,9.2370537109375,0.027430538088083267,0.7526087760925293,0.4402202069759369
1695713554075078100,9.247078125,-0.2143843024969101,1.1297121047973633,0.3657849133014679
1695713554085107200,9.257107177734374,-0.3069290816783905,1.4406359195709229,0.34980595111846924
1695713554095160300,9.267160400390624,-0.3154512047767639,1.541835904121399,0.2432795912027359
1695713554105166000,9.277166015625,-0.3740406930446625,1.4267874956130981,0.005725792143493891
1695713554115195400,9.2871953125,-0.45606598258018494,1.130777359008789,-0.2998717129230499
1695713554125251600,9.29725146484375,-0.5466133952140808,0.6737792491912842,-0.6162550449371338
1695713554135297500,9.307297607421875,-0.6233124136924744,0.13915006816387177,-0.9420925378799438
1695713554145326600,9.31732666015625,-0.6115944981575012,-0.12809795141220093,-1.352085828781128
1695713554155322000,9.327322021484376,-0.6147902607917786,0.05512739345431328,-1.9431740045547485
1695713554165352400,9.3373525390625,-0.6840324401855469,0.4203796684741974,-2.5779380798339844
1695713554175388400,9.347388427734375,-0.8064045906066895,0.7685877084732056,-2.981539726257324
1695713554185424400,9.35742431640625,-0.9416930675506592,1.071122646331787,-3.1583735942840576
1695713554195460000,9.367460205078125,-0.9896299242973328,1.136103630065918,-3.196722984313965
1695713554205496000,9.37749609375,-0.9715204238891602,1.0839056968688965,-3.06782603263855
1695713554215532000,9.387531982421875,-0.9321056604385376,0.9912278056144714,-2.879274368286133
1695713554225568000,9.397568115234375,-0.8522109389305115,0.8665919899940491,-2.767554998397827
1695713554235604000,9.40760400390625,-0.6925545334815979,0.699345588684082,-2.7260096073150635
1695713554245639700,9.4176396484375,-0.48802390694618225,0.336223840713501,-2.7110960483551025
1695713554255670000,9.427669921875,-0.34740909934043884,-0.36778226494789124,-2.6908559799194336
1695713554265667800,9.437667724609375,-0.28455856442451477,-1.4349101781845093,-2.5971126556396484
1695713554275560400,9.447560546875,-0.15366427600383759,-2.5244085788726807,-2.5534369945526123
1695713559030946000,14.202946044921875,-0.46352285146713257,2.548243761062622,3.093259334564209
1695713559040976000,14.212975830078125,-0.5380913019180298,1.9433071613311768,2.7545053958892822
1695713559051005400,14.22300537109375,-0.5444828867912292,1.323456883430481,2.351969003677368
1695713559061035000,14.233034912109375,-0.40280282497406006,0.6504766345024109,1.9664766788482666
1695713559071064800,14.24306494140625,-0.1856221854686737,0.2222406268119812,1.6266576051712036
1695713559081094400,14.253094482421876,-0.07163897901773453,0.16791218519210815,1.3796495199203491
1695713559091124200,14.263124267578124,-0.06950845569372177,0.336223840713501,1.3008201122283936
1695713559101153800,14.27315380859375,-0.15472954511642456,0.766457200050354,1.3892369270324707
1695713559111183400,14.283183349609375,-0.23675484955310822,1.25101900100708,1.55741548538208
1695713559121213200,14.293213134765624,-0.2707101106643677,1.6249265670776367,1.7299880981445312
1695713559131245600,14.30324560546875,-0.28029748797416687,1.91987144947052,1.84290611743927
1695713559141280300,14.3132802734375,-0.2527337968349457,2.1446421146392822,1.8982998132705688
1695713559151315000,14.32331494140625,-0.21012325584888458,2.270343065261841,1.8578197956085205
1695713559161349600,14.333349609375,-0.17070849239826202,2.3469090461730957,1.7225313186645508
1695713559171384300,14.34338427734375,-0.10679268091917038,2.309624671936035,1.5638070106506348
1695713559181419300,14.353419189453126,-0.011984216049313545,1.9773956537246704,1.449957013130188
1695713559191454000,14.363453857421876,0.110521100461483,1.5205307006835938,1.4233254194259644
1695713559201488600,14.373488525390625,0.28083011507987976,1.0796446800231934,1.4169337749481201
1695713559211523300,14.3835234375,0.4438154697418213,0.6886929273605347,1.417999029159546
1695713559221558000,14.39355810546875,0.5556681752204895,0.3032006621360779,1.4849774837493896
1695713559231592700,14.4035927734375,0.6291713118553162,-0.008788425475358963,1.587242841720581
1695713559241625000,14.413625,0.692021906375885,-0.12064110487699509,1.6351796388626099
1695713559251657200,14.4236572265625,0.7037398219108582,0.0007989477599039674,1.520131230354309
1695713559261689000,14.433689208984376,0.6036050319671631,0.2872216999530792,1.199620008468628
1695713559271721200,14.44372119140625,0.3692470192909241,0.5886912941932678,0.7661908864974976
1695713559281753000,14.453753173828124,0.035952646285295486,0.7621961236000061,0.49454864859580994
1695713559291785200,14.46378515625,-0.1675127148628235,0.9422256946563721,0.481765478849411
1695713559301817000,14.473817138671874,-0.2612559199333191,1.2669979333877563,0.5190497040748596
1695713559311849200,14.48384912109375,-0.3314301371574402,1.5077475309371948,0.4263717830181122
1695713559321881300,14.49388134765625,-0.4443480968475342,1.573793888092041,0.20173430442810059
1695713559331913200,14.503913330078126,-0.6286386847496033,1.432113766670227,-0.07416898012161255
1695713559341945300,14.5139453125,-0.8362319469451904,1.1052110195159912,-0.30413275957107544
1695713559351977700,14.523977783203126,-0.9502151608467102,0.6068007946014404,-0.49588021636009216
1695713559362009900,14.534009765625,-0.8649940490722656,0.30426591634750366,-0.8696545958518982
1695713559372042000,14.5440419921875,-0.7735145688056946,0.38416069746017456,-1.4777870178222656
1695713559382074000,14.55407421875,-0.7767103314399719,0.5780386924743652,-2.1935110092163086
1695713559392106500,14.5641064453125,-0.8468846082687378,0.6897581815719604,-2.8622303009033203
1695713559402138600,14.574138671875,-0.912930965423584,0.8974846005439758,-3.3373377323150635
1695713559412170800,14.584170654296875,-0.8202530145645142,1.0924278497695923,-3.554518461227417
1695713559422203000,14.594202880859376,-0.6637924313545227,1.1829752922058105,-3.465036392211914
1695713559432235000,14.604235107421875,-0.6510092616081238,1.156343698501587,-3.131742000579834
1695713559442267400,14.614267333984374,-0.7213166356086731,1.0359688997268677,-2.777142286300659
1695713559452299500,14.624299560546875,-0.658466100692749,0.9283772706985474,-2.5619590282440186
1695713559462331600,14.63433154296875,-0.4432828426361084,0.6801708340644836,-2.5576980113983154
1695713559472362500,14.644362548828125,-0.24421168863773346,0.12863057851791382,-2.738792896270752
1695713559482393300,14.654393310546874,-0.1153147891163826,-0.6222470998764038,-2.943190336227417
1695713559492424200,14.664424072265625,-0.03861580789089203,-1.4647375345230103,-3.0103018283843994
1695713559502455000,14.674455078125,0.04234423115849495,-2.055692434310913,-3.0007145404815674
1695713559512486000,14.68448583984375,0.14567480981349945,-2.2186777591705322,-3.0550429821014404
1695713559522516700,14.694516845703125,0.18402428925037384,-1.8608824014663696,-3.3469252586364746
1695713559532547600,14.704547607421874,0.13502216339111328,-1.0503499507904053,-3.7505269050598145
1695713559542578400,14.714578369140625,-0.04181159660220146,-0.4773712754249573,-3.99220871925354
1695713559552609300,14.724609375,-0.32823434472084045,-0.5327649712562561,-3.99220871925354
1695713559562642000,14.734641845703125,-0.671249270439148,-1.1408973932266235,-3.757983922958374
1695713559572676600,14.744676513671875,-0.9353014826774597,-1.8480992317199707,-3.3883373737335205
1695713559582711300,14.754711181640625,-1.058872103691101,-2.340117931365967,-3.037998676300049
1695713559592746000,14.76474609375,-1.0194573402404785,-2.5796689987182617,-2.7600979804992676
1695713559602780400,14.774780517578124,-0.8926909565925598,-2.5339958667755127,-2.5331969261169434
1695713559612815000,14.784815185546876,-0.7916240692138672,-2.4349262714385986,-2.351036787033081
1695713559622849800,14.794849853515625,-0.7085334658622742,-2.407229423522949,-2.161553144454956
1695713559632884500,14.804884521484375,-0.6510092616081238,-2.368880033493042,-2.0006983280181885
1695713559642919200,14.814919189453125,-0.5945502519607544,-2.3699452877044678,-1.814277172088623
1695713559652953900,14.824953857421875,-0.5189165472984314,-2.3550314903259277,-1.5331807136535645
1695713559662988300,14.83498828125,-0.4326302111148834,-2.260223150253296,-1.1583410501480103
1695713559673020700,14.845020751953125,-0.3538006842136383,-2.1483705043792725,-0.7290397882461548
1695713559683051800,14.8550517578125,-0.2792322337627411,-2.026930332183838,-0.2956106662750244
1695713559693083000,14.865082763671875,-0.2090579867362976,-1.8800572156906128,0.12077426165342331
1695713559703114000,14.875114013671874,-0.1675127148628235,-1.7032233476638794,0.5052012801170349
1695713559713145000,14.88514501953125,-0.1291632205247879,-1.5476949214935303,0.856738269329071
1695713559723176200,14.89517626953125,-0.07483477145433426,-1.4349101781845093,1.1783146858215332
1695713559733207300,14.905207275390625,-0.05459476262331009,-1.31453537940979,1.4542180299758911
1695713559743238400,14.91523828125,-0.060986343771219254,-1.1472889184951782,1.667137622833252
1695713559753269200,14.925269287109375,-0.052464235574007034,-0.9151946306228638,1.7598155736923218
1695713559763300400,14.93530029296875,0.030626330524683,-0.5785713195800781,1.575524926185608
1695713559773331500,14.94533154296875,0.22024326026439667,-0.2644517123699188,0.989763081073761
1695713559783366700,14.95536669921875,0.511992335319519,-0.2996053993701935,0.33595752716064453
1695713559793416000,14.965416015625,0.8090677261352539,-0.7394261360168457,-0.27963170409202576
1695713559803465500,14.975465576171874,0.909202516078949,-1.374190092086792,-1.013465166091919
1695713559813514800,14.9855146484375,0.721849262714386,-1.9301245212554932,-1.789776086807251
1695713559823564300,14.995564208984375,0.411857545375824,-2.189915657043457,-2.325470447540283
1695713559833613600,15.005613525390626,0.28189539909362793,-1.9237329959869385,-2.501239061355591
1695713559843662800,15.015662841796875,0.2234390527009964,-1.3731248378753662,-2.3851253986358643
1695713559853712400,15.02571240234375,0.1531316488981247,-0.9375651478767395,-2.181793212890625
1695713559863761700,15.03576171875,0.0913463607430458,-0.7660577297210693,-2.091245651245117
1695713559873796600,15.045796630859375,0.05193160101771355,-0.7234471440315247,-2.0699403285980225
1695713559883858400,15.0558583984375,0.06897582113742828,-0.6701840162277222,-1.8824540376663208
1695713559893893400,15.065893310546874,0.19361166656017303,-0.5636576414108276,-1.498026967048645
1695713559903928300,15.07592822265625,0.3298322558403015,-0.6275734305381775,-1.099751591682434
1695713559913794600,15.085794677734375,0.3884217441082001,-1.0034784078598022,-0.7567366361618042
1695713559923812400,15.095812255859375,0.2968090772628784,-1.5775222778320312,-0.6258423924446106
1695713559933857300,15.105857177734375,0.2607232630252838,-1.9919098615646362,-0.7205176949501038
1695713559943877600,15.115877685546875,0.4289017617702484,-2.2676799297332764,-0.8238482475280762
1695713559953918700,15.125918701171875,0.842090904712677,-1.5210633277893066,-1.1679284572601318
1695713559963941400,15.13594140625,1.180844783782959,-0.1771000772714615,-1.6791218519210815
1695713559973992000,15.145991943359375,0.8399603962898254,0.08815056830644608,-2.108289957046509
1695713559984017400,15.156017333984375,0.1009337306022644,-0.8118640780448914,-2.192445755004883
1695713559994047200,15.166047119140625,-0.311190128326416,-1.3454279899597168,-1.8760623931884766
1695713560004073000,15.176072998046875,-0.5306344628334045,-0.8608661890029907,-1.3659342527389526
1695713560014108200,15.186108154296875,-0.5231776237487793,0.20519641041755676,-0.8898946046829224
1695713560024135000,15.196135009765625,-0.311190128326416,0.9656614661216736,-0.4522044062614441
1695713560034172000,15.206171875,-0.07590003311634064,1.353284239768982,-0.09440898895263672
1695713560044199700,15.21619970703125,0.015712639316916466,1.9443724155426025,0.18788588047027588
1695713560054255400,15.22625537109375,-0.0492684431374073,2.8591675758361816,0.6617950201034546
1695713560064286000,15.236285888671874,-0.20799273252487183,3.692070722579956,1.1133337020874023
1695713560074315800,15.246315673828125,-0.33675646781921387,4.104194641113281,1.1016157865524292
1695713560084346000,15.25634619140625,-0.34208279848098755,3.791140079498291,0.743820309638977
1695713560094369000,15.266369140625,-0.24847275018692017,2.802841901779175,0.48070022463798523
1695713560104398600,15.276398681640625,-0.22929799556732178,1.5226612091064453,0.35513225197792053
1695713560114439400,15.286439453125,-0.2696448564529419,0.3958786129951477,0.20493009686470032
1695713560856782600,16.028782470703124,0.11478215456008911,0.33728909492492676,1.9803251028060913
1695713560866812200,16.038812255859376,0.030626330524683,0.18389113247394562,1.9611504077911377
1695713560876843300,16.04884326171875,-0.10359688848257065,0.0018642114009708166,1.751293420791626
1695713560886879000,16.05887890625,0.34581121802330017,0.18389113247394562,-0.7695198059082031
1695713560896914700,16.068914794921874,0.4565986394882202,-0.5327649712562561,-3.7260258197784424
1695713560906950100,16.0789501953125,-0.6115944981575012,-2.2570273876190186,-0.7514103651046753
1695713560916985900,16.08898583984375,-1.0556762218475342,-1.361406922340393,2.239051103591919
1695713560927021300,16.099021240234375,-1.3740569353103638,-0.9470193982124329,1.8492976427078247
1695713560937057000,16.10905712890625,-1.1632678508758545,0.13701952993869781,0.5115928649902344
1695713560947092500,16.119092529296875,-0.5636576414108276,1.608947515487671,0.8130624890327454
1695713560957128200,16.129128173828125,-0.17070849239826202,0.9965541362762451,0.5478118062019348
1695713560967163600,16.13916357421875,-0.2655169665813446,-0.34754225611686707,0.3008038103580475
1695713560977199400,16.149199462890625,-0.36551859974861145,-0.8193209171295166,0.7906919121742249
1695713560987230700,16.159230712890626,-0.21012325584888458,-0.8150598406791687,0.60533607006073
1695713560997264000,16.169263916015623,-0.13129374384880066,-0.32517173886299133,0.2390185296535492
1695713561007297000,16.179297119140625,-0.21225377917289734,0.09347688406705856,0.2059953510761261
1695713561017330200,16.189330078125,-0.2644517123699188,0.007190529722720385,0.21877852082252502
1695713561027363000,16.199363037109375,-0.2623211741447449,-0.24101589620113373,0.2241048365831375
1695713561037396200,16.209396240234376,-0.2420811653137207,-0.22929799556732178,0.2720417082309723
1695713561047429400,16.219429443359374,-0.20692746341228485,-0.02157158963382244,0.3008038103580475
1695713561057462500,16.229462646484375,-0.19307903945446014,0.09880319982767105,0.28269433975219727
1695713561067495700,16.23949560546875,-0.1483379602432251,0.07110634446144104,0.21345220506191254
1695713561077528600,16.249528564453126,-0.11211899667978287,0.01784316636621952,0.11544794589281082
1695713561087560200,16.259560302734375,-0.10359688848257065,-0.0034621069207787514,0.04620581120252609
1695713561097591600,16.269591552734376,-0.1153147891163826,0.018908429890871048,0.03129211813211441
1695713561107623000,16.279622802734377,-0.11851058155298233,0.0870852991938591,0.033422645181417465
1695713561117654300,16.289654296875,-0.08974846452474594,0.17643429338932037,0.02383527345955372
1695713561127685600,16.299685546875,-0.0354200154542923,0.2552638053894043,0.01318263728171587
1695713561137716700,16.309716796875,0.03169159218668938,0.33835434913635254,0.00892158318310976
1695713561147748000,16.319748046875,0.06897582113742828,0.40440070629119873,0.01850895583629608
1695713561157779500,16.329779541015625,0.05512739345431328,0.4289017617702484,0.0366184376180172
1695713561167810800,16.339810791015626,0.03169159218668938,0.4299670457839966,0.045140545815229416
1695713561177842200,16.34984228515625,0.011451584286987782,0.4246407151222229,0.040879491716623306
1695713561187874000,16.3598740234375,-0.008788425475358963,0.4001396596431732,0.05792371183633804
1695713561197907500,16.369907470703126,-0.04500738903880119,0.3404848873615265,0.10159952193498611
1695713561207940900,16.37994091796875,-0.10146636515855789,0.27230802178382874,0.1303616315126419
1695713561217974300,16.389974365234377,-0.1675127148628235,0.1753690242767334,0.13781848549842834
1695713561228007700,16.400007568359374,-0.22290641069412231,0.03275685757398605,0.12397005409002304
1695713561238041000,16.410041015625,-0.24314641952514648,-0.13022847473621368,0.09094688296318054
1695713561248074500,16.420074462890625,-0.25060325860977173,-0.2569948434829712,0.05472791939973831
1695713561258107600,16.430107666015626,-0.2707101106643677,-0.29108327627182007,0.05153212696313858
1695713561268141000,16.44014111328125,-0.26764747500419617,-0.29747486114501953,0.0600542388856411
1695713561278174500,16.450174560546873,-0.23355905711650848,-0.3081275224685669,0.03129211813211441
1695713561288208000,16.460207763671875,-0.18775272369384766,-0.2474074810743332,-0.0070573715493083
1695713561298240000,16.470239990234376,-0.14940322935581207,-0.13342426717281342,-0.0294279083609581
1695713561308273700,16.480273681640625,-0.1153147891163826,-0.05139897018671036,-0.01771000772714615
1695713561318307300,16.490307373046875,-0.09507478028535843,0.029561065137386322,0.04620581120252609
1695713561328341200,16.50034130859375,-0.09081372618675232,0.16471639275550842,0.15166690945625305
1695713561338375000,16.510375,-0.09294424951076508,0.30426591634750366,0.22090904414653778
1695713561348408600,16.52040869140625,-0.09614004194736481,0.3351585865020752,0.23262694478034973
1695713561358442200,16.530442138671877,-0.10146636515855789,0.2786996066570282,0.20173430442810059
1695713561368476000,16.540475830078126,-0.09933583438396454,0.1945437788963318,0.14314480125904083
1695713561378509600,16.550509521484376,-0.07590003311634064,0.1296958476305008,0.07070687413215637
1695713561388543500,16.56054345703125,-0.06631266325712204,0.08388951420783997,0.01318263728171587
1695713561398575400,16.570575439453126,-0.06631266325712204,0.060453712940216064,0.0003994738799519837
1695713561408606200,16.580606201171875,-0.07590003311634064,0.06258423626422882,0.01318263728171587
1695713561418637000,16.590636962890624,-0.08761793375015259,0.0913463607430458,0.033422645181417465
1695713561428668000,16.60066796875,-0.09294424951076508,0.11904320865869522,0.049401599913835526
1695713561438698800,16.61069873046875,-0.09507478028535843,0.13595427572727203,0.05153212696313858
1695713561448729600,16.6207294921875,-0.09400951862335205,0.16471639275550842,0.03874896466732025
1695713561458760400,16.630760498046875,-0.09507478028535843,0.19241324067115784,0.012117373757064342
1695713561468791600,16.64079150390625,-0.10146636515855789,0.17110797762870789,-0.010253162123262882
1695713561478822400,16.650822509765625,-0.09614004194736481,0.15299849212169647,-0.014514217153191566
1695713561488853200,16.660853271484374,-0.09081372618675232,0.17110797762870789,-0.008122635073959827
1695713561498884000,16.670884033203127,-0.07590003311634064,0.1945437788963318,-0.012383690103888512
1695713561508916000,16.680916015625,-0.056725289672613144,0.20093534886837006,-0.04860265180468559
1695713561518947800,16.69094775390625,-0.03861580789089203,0.1945437788963318,-0.08375635743141174
1695713561528979700,16.700979736328126,-0.027963170781731606,0.18176060914993286,-0.09653951972723007
1695713561539011600,16.711011474609375,-0.03009369783103466,0.18815219402313232,-0.08908267319202423
1695713561549043500,16.72104345703125,-0.03755054250359535,0.203065887093544,-0.07416898012161255
1695713561559075600,16.73107568359375,-0.04394212365150452,0.20626167953014374,-0.06884266436100006
1695713561569107500,16.741107421875,-0.04500738903880119,0.2041311413049698,-0.08375635743141174
1695713561579139300,16.751139404296875,-0.036485280841588974,0.19560903310775757,-0.11038794368505478
1695713561589171200,16.761171142578124,-0.02583264373242855,0.1657816469669342,-0.15286533534526825
1695713561599203000,16.771203125,-0.01837579719722271,0.14021532237529755,-0.1826927214860916
1695713561609243000,16.781242919921876,-0.020506324246525764,0.1296958476305008,-0.16777902841567993
1695713561619353600,16.791353515625,-0.024767380207777023,0.15725953876972198,-0.154995858669281
1695713561629464000,16.801464111328126,-0.03861580789089203,0.16684691607952118,-0.13901691138744354
1695713561639504100,16.811504150390626,-0.03755054250359535,0.16045533120632172,-0.14221268892288208
1695713561649527000,16.821527099609376,-0.036485280841588974,0.1423458606004715,-0.1454084813594818
1695713561659550200,16.83155029296875,-0.03755054250359535,0.12756532430648804,-0.1368863731622696
1695713561669424400,16.84142431640625,-0.03328948840498924,0.1423458606004715,-0.12636689841747284
1695713561679448300,16.8514482421875,-0.031158961355686188,0.14554163813591003,-0.12530162930488586
1695713561689506300,16.86150634765625,-0.032224226742982864,0.12543480098247528,-0.13369058072566986
1695713561699533800,16.871533935546875,-0.029028434306383133,0.11371689289808273,-0.1411474347114563
1695713561709584100,16.881584228515624,-0.024767380207777023,0.11478215456008911,-0.1454084813594818
1695713561719613700,16.89161376953125,-0.023702116683125496,0.11371689289808273,-0.1411474347114563
1695713561729649200,16.901649169921875,-0.02583264373242855,0.12330426275730133,-0.12423637509346008
1695713561739679500,16.911679443359375,-0.03328948840498924,0.13915006816387177,-0.10612688958644867
1695713561749702700,16.92170263671875,-0.04287686198949814,0.13382373750209808,-0.09334372729063034
1695713561759732200,16.931732177734375,-0.052464235574007034,0.13915006816387177,-0.09440898895263672
1695713561769786400,16.941786376953125,-0.06311687082052231,0.15406376123428345,-0.10506162792444229
1695713561779818200,16.951818359375,-0.0684431865811348,0.16045533120632172,-0.12104058265686035
1695713561789844000,16.961843994140626,-0.06524740159511566,0.17110797762870789,-0.1358211189508438
1695713561799875300,16.971875244140627,-0.06311687082052231,0.18815219402313232,-0.1507348120212555
1695713561809914400,16.981914306640626,-0.07163897901773453,0.19134798645973206,-0.14434322714805603
1695713561819946500,16.991946533203127,-0.08548741042613983,0.20200061798095703,-0.1093226820230484
1695713561829953300,17.001953369140626,-0.09827057272195816,0.2275669425725937,-0.06671213358640671
1695713561839982800,17.01198291015625,-0.11105373501777649,0.24780695140361786,-0.034754227846860886
1695713561850012700,17.0220126953125,-0.12170637398958206,0.25845959782600403,-0.002796316985040903
1695713561860200700,17.03220068359375,-0.1344895362854004,0.24461115896701813,0.02277000993490219
1695713561870230500,17.04223046875,-0.14514216780662537,0.21478378772735596,0.03981423005461693
1695713561880295400,17.05229541015625,-0.15366427600383759,0.1796300858259201,0.04727107286453247
1695713561890312700,17.062312744140623,-0.15366427600383759,0.15406376123428345,0.05259739235043526
1695713561900342500,17.072342529296876,-0.14194637537002563,0.15406376123428345,0.0504668653011322
1695713561910370600,17.08237060546875,-0.12170637398958206,0.1519332230091095,0.045140545815229416
1695713561920400600,17.092400634765625,-0.09827057272195816,0.14447638392448425,0.04407528415322304
1695713561930430200,17.10243017578125,-0.0822916179895401,0.146606907248497,0.05898897349834442
1695713561940461000,17.1124609375,-0.07163897901773453,0.16897743940353394,0.0930774137377739
1695713561950486000,17.122486083984374,-0.06737792491912842,0.1988048255443573,0.13249216973781586
1695713561960516900,17.132516845703126,-0.0684431865811348,0.21158799529075623,0.1591237634420395
1695713561970553300,17.14255322265625,-0.06418213248252869,0.21584904193878174,0.17403744161128998
1695713561980589800,17.15258984375,-0.0588558167219162,0.21371851861476898,0.1676458716392517
1695713561990626300,17.162626220703125,-0.05139897018671036,0.1892174482345581,0.14101427793502808
1695713562000662800,17.172662841796875,-0.04181159660220146,0.15939007699489594,0.11438268423080444
1695713562010699300,17.18269921875,-0.03435475379228592,0.14980269968509674,0.10373004525899887
1695713562020729900,17.192729736328126,-0.031158961355686188,0.14021532237529755,0.09840372949838638
1695713562030722800,17.202722900390626,-0.0354200154542923,0.110521100461483,0.08668582886457443
1695713562040753400,17.21275341796875,-0.03861580789089203,0.09028109163045883,0.08668582886457443
1695713562050650400,17.222650390625,-0.04287686198949814,0.08388951420783997,0.08775109052658081
1695713562060850400,17.232850341796876,-0.04287686198949814,0.07004108279943466,0.07709845900535583
1695713562070885000,17.242885009765626,-0.03968106955289841,0.04127896577119827,0.06325002759695053
1695713562080904700,17.25290478515625,-0.040746334940195084,0.012516847811639309,0.061119500547647476
1695713562090937600,17.2629375,-0.03755054250359535,0.00612526573240757,0.06751108169555664
1695713562101000400,17.27300048828125,-0.031158961355686188,0.01784316636621952,0.07070687413215637
1695713562111020000,17.28302001953125,-0.02583264373242855,0.025300011038780212,0.06325002759695053
1695713562121053700,17.2930537109375,-0.023702116683125496,0.03382211923599243,0.05259739235043526
1695713562131090200,17.303090087890624,-0.024767380207777023,0.04340949282050133,0.04727107286453247
1695713562141110000,17.313110107421874,-0.024767380207777023,0.05725792050361633,0.040879491716623306
1695713562151152000,17.323152099609374,-0.02583264373242855,0.0774979293346405,0.04301001876592636
1695713562161191200,17.333191162109376,-0.03009369783103466,0.09560741484165192,0.06218476593494415
1695713562171212500,17.343212646484375,-0.032224226742982864,0.1380847990512848,0.10159952193498611
1695713562181244000,17.353243896484376,-0.029028434306383133,0.19241324067115784,0.14847111701965332
1695713562191275000,17.36327490234375,-0.024767380207777023,0.2265016883611679,0.19001640379428864
1695713562201306400,17.373306396484374,-0.020506324246525764,0.22330589592456818,0.2155827283859253
1695713562211327700,17.38332763671875,-0.016245270147919655,0.18602167069911957,0.21771325170993805
1695713562221341400,17.393341552734373,-0.008788425475358963,0.1296958476305008,0.19001640379428864
1695713562231362600,17.403362548828124,0.007190529722720385,0.0774979293346405,0.15060164034366608
1695713562241250300,17.413250244140624,0.018908429890871048,0.05193160101771355,0.11970899999141693
1695713562251260700,17.4232607421875,0.01784316636621952,0.023169483989477158,0.0930774137377739
1695713562261460700,17.433460693359375,0.012516847811639309,-0.010918952524662018,0.06325002759695053
1695713562271471000,17.44347119140625,0.003994738683104515,-0.02263685315847397,0.05579318478703499
1695713562281546200,17.453546142578126,0.0007989477599039674,-0.0002663159102667123,0.06964161247015
1695713562291593500,17.463593505859375,-0.0023968431632965803,0.027430538088083267,0.0834900364279747
1695713562301638100,17.47363818359375,-0.004527370445430279,0.040213704109191895,0.09840372949838638
1695713562311648500,17.4836484375,-0.005592633970081806,0.048735812306404114,0.10373004525899887
1695713562321678600,17.4936787109375,0.002929474925622344,0.0540621280670166,0.08775109052658081
1695713562331745300,17.503745361328125,0.02210422046482563,0.03382211923599243,0.0504668653011322
1695713562341771300,17.513771240234377,0.035952646285295486,0.015712639316916466,0.0153131652623415
1695713562351781600,17.52378173828125,0.04127896577119827,0.009321057237684727,0.004660528618842363
1695713562361792000,17.5337919921875,0.03808317333459854,-0.0002663159102667123,-0.005992108024656773
1695713562371807200,17.54380712890625,0.03488738462328911,-0.01837579719722271,-0.024101590737700462
1695713562381850400,17.553850341796874,0.03488738462328911,-0.029028434306383133,-0.04540686309337616
1695713562391893800,17.563893798828126,0.03701791167259216,-0.036485280841588974,-0.06032055243849754
1695713562401937000,17.57393701171875,0.035952646285295486,-0.031158961355686188,-0.056059498339891434
1695713562411980300,17.583980224609373,0.03488738462328911,-0.0141147430986166,-0.03795001655817032
1695713562422023400,17.5940234375,0.03701791167259216,-0.004527370445430279,-0.03262370079755783
1695713562432066800,17.60406689453125,0.040213704109191895,-0.015180006623268127,-0.05392897129058838
1695713562442037500,17.61403759765625,0.040213704109191895,-0.03755054250359535,-0.07843003422021866
1695713562452052700,17.624052734375,0.03808317333459854,-0.05033370852470398,-0.08908267319202423
1695713562461968000,17.6339677734375,0.03169159218668938,-0.056725289672613144,-0.08162582665681839
1695713562471973600,17.6439736328125,0.027430538088083267,-0.06737792491912842,-0.06990792602300644
1695713562482173700,17.654173583984374,0.021038956940174103,-0.06205160543322563,-0.0624510794878006
1695713562492179700,17.6641796875,0.021038956940174103,-0.056725289672613144,-0.06671213358640671
1695713562502260500,17.674260498046873,0.028495801612734795,-0.06205160543322563,-0.09334372729063034
1695713562512322000,17.684322021484373,0.03701791167259216,-0.07163897901773453,-0.11358373612165451
1695713562522349800,17.694349853515625,0.04340949282050133,-0.06631266325712204,-0.1093226820230484
1695713562532355800,17.70435595703125,0.040213704109191895,-0.04607265070080757,-0.08375635743141174
1695713562542389500,17.714389404296874,0.03488738462328911,-0.03009369783103466,-0.05819002538919449
1695713562552446500,17.724446533203125,0.03169159218668938,-0.03435475379228592,-0.043276336044073105
1695713562562466600,17.734466552734375,0.03275685757398605,-0.05459476262331009,-0.04008054360747337
1695713562572478000,17.74447802734375,0.035952646285295486,-0.0727042406797409,-0.039015281945466995
1695713562582513700,17.754513671875,0.04340949282050133,-0.07483477145433426,-0.04114580899477005
1695713562592549400,17.76454931640625,0.04980107396841049,-0.07803056389093399,-0.0624510794878006
1695713562602585000,17.774585205078125,0.05086633935570717,-0.105727419257164,-0.08908267319202423
1695713562612620800,17.784620849609375,0.05086633935570717,-0.13129374384880066,-0.09867004305124283
1695713562622656500,17.794656494140625,0.05512739345431328,-0.12277163565158844,-0.08908267319202423
1695713562632692200,17.804692138671875,0.0636495053768158,-0.10998847335577011,-0.06671213358640671
1695713562642703600,17.81470361328125,0.07536740601062775,-0.09614004194736481,-0.03368896245956421
1695713562652708900,17.824708984375,0.07643266767263412,-0.07803056389093399,0.0025300011038780212
1695713562662624000,17.8346240234375,0.07536740601062775,-0.08442214131355286,0.0153131652623415
1695713563846440000,19.01843994140625,0.003994738683104515,0.013582111336290836,0.01318263728171587
1695713563856478500,19.028478515625,0.007190529722720385,0.025300011038780212,0.017443692311644554
1695713563866516700,19.038516845703125,0.007190529722720385,0.029561065137386322,0.020639482885599136
1695713563876546800,19.048546875,0.0050600022077560425,0.024234747514128685,0.02383527345955372
1695713563886577700,19.05857763671875,0.002929474925622344,0.02210422046482563,0.024900536984205246
1695713563896608500,19.0686083984375,0.003994738683104515,0.027430538088083267,0.028096329420804977
1695713563906639400,19.078639404296876,-0.0002663159102667123,0.023169483989477158,0.028096329420804977
1695713563916670000,19.088669921875,-0.004527370445430279,0.011451584286987782,0.02277000993490219
1695713563926700800,19.09870068359375,-0.006657897960394621,-0.005592633970081806,0.009986846707761288
1695713563936731600,19.108731689453126,-0.007723161485046148,-0.026897907257080078,-0.0017310534603893757
1695713563946762500,19.118762451171875,-0.006657897960394621,-0.03009369783103466,-0.002796316985040903
1695713563956793300,19.12879345703125,-0.010918952524662018,-0.03009369783103466,0.0025300011038780212
1695713563966824200,19.13882421875,-0.020506324246525764,-0.036485280841588974,0.007856319658458233
1695713563976854500,19.1488544921875,-0.027963170781731606,-0.03328948840498924,0.007856319658458233
1695713563986887400,19.158887451171875,-0.029028434306383133,-0.031158961355686188,-0.0006657897611148655
1695713563996920000,19.168920166015624,-0.0354200154542923,-0.04500738903880119,-0.014514217153191566
1695713564006952700,19.17895263671875,-0.03861580789089203,-0.0588558167219162,-0.02090579830110073
1695713564016985600,19.188985595703127,-0.04181159660220146,-0.06205160543322563,-0.02197106182575226
1695713564027018200,19.199018310546876,-0.04607265070080757,-0.05779055133461952,-0.015579480677843094
1695713564037051000,19.20905078125,-0.04500738903880119,-0.056725289672613144,-0.012383690103888512
1695713564047083800,19.219083740234375,-0.040746334940195084,-0.048203181475400925,-0.023036325350403786
1695713564057116400,19.229116455078124,-0.0354200154542923,-0.04394212365150452,-0.03688475489616394
1695713564067149000,19.239149169921873,-0.032224226742982864,-0.03861580789089203,-0.04540686309337616
1695713564077180200,19.24918017578125,-0.032224226742982864,-0.019441060721874237,-0.04008054360747337
1695713564087213000,19.259213134765623,-0.03328948840498924,-0.00985368900001049,-0.031558435410261154
1695713564097246000,19.269245849609376,-0.03009369783103466,0.0007989477599039674,-0.018775271251797676
1695713564107278800,19.27927880859375,-0.02263685315847397,0.015712639316916466,-0.012383690103888512
1695713564117311500,19.2893115234375,-0.0141147430986166,0.029561065137386322,-0.01664474420249462
1695713564127344600,19.2993447265625,-0.006657897960394621,0.04660528525710106,-0.011318426579236984
1695713564137377300,19.309377197265626,-0.006657897960394621,0.06151897460222244,0.0025300011038780212
1695713564147410200,19.31941015625,-0.008788425475358963,0.06578002870082855,0.009986846707761288
1695713564157443000,19.329443115234376,-0.019441060721874237,0.04340949282050133,0.0035952648613601923
1695713564167476000,19.33947607421875,-0.02583264373242855,0.011451584286987782,-0.008122635073959827
1695713564177508900,19.3495087890625,-0.024767380207777023,-0.005592633970081806,-0.027297381311655045
1695713564187539700,19.359539794921876,-0.024767380207777023,-0.013049479573965073,-0.04540686309337616
1695713564197570000,19.369570068359376,-0.023702116683125496,-0.02263685315847397,-0.052863709628582
1695713564207600400,19.379600341796873,-0.02263685315847397,-0.01837579719722271,-0.050733182579278946
1695713564217630700,19.389630615234374,-0.024767380207777023,-0.005592633970081806,-0.04221107065677643
1695713564227661000,19.3996611328125,-0.02157158963382244,-0.0002663159102667123,-0.03368896245956421
1695713564237691100,19.409691162109375,-0.01837579719722271,0.0050600022077560425,-0.03368896245956421
1695713564247721500,19.419721435546876,-0.0141147430986166,0.0018642114009708166,-0.04008054360747337
1695713564257751800,19.429751708984377,-0.0141147430986166,-0.0002663159102667123,-0.03795001655817032
1695713564267782100,19.4397822265625,-0.0141147430986166,0.007190529722720385,-0.0294279083609581
1695713564277812500,19.4498125,-0.016245270147919655,0.008255792781710625,-0.02197106182575226
1695713564287844000,19.459843994140623,-0.020506324246525764,0.0050600022077560425,-0.014514217153191566
1695713564297879800,19.4698798828125,-0.023702116683125496,0.0007989477599039674,-0.011318426579236984
1695713564307915300,19.479915283203123,-0.02583264373242855,-0.005592633970081806,-0.012383690103888512
1695713564317951000,19.489950927734377,-0.026897907257080078,-0.010918952524662018,-0.01664474420249462
1695713564327986400,19.499986328125,-0.024767380207777023,-0.0141147430986166,-0.018775271251797676
1695713564338022100,19.510022216796877,-0.02263685315847397,-0.011984216049313545,-0.01664474420249462
1695713564348057600,19.5200576171875,-0.02157158963382244,-0.005592633970081806,-0.010253162123262882
1695713564358093000,19.530093017578125,-0.02157158963382244,0.0007989477599039674,-0.0006657897611148655
1695713564368128800,19.540128662109375,-0.02263685315847397,0.0050600022077560425,0.005725792143493891
1695713564378164200,19.550164306640625,-0.02263685315847397,0.00612526573240757,0.00892158318310976
1695713564388195600,19.560195556640625,-0.02157158963382244,0.0018642114009708166,0.009986846707761288
1695713564398225400,19.570225341796874,-0.017310533672571182,0.002929474925622344,0.006791055668145418
1695713564408255200,19.580255126953126,-0.013049479573965073,0.010386320762336254,0.0025300011038780212
1695713564418285000,19.59028515625,-0.00985368900001049,0.013582111336290836,0.0035952648613601923
1695713564428315000,19.60031494140625,-0.007723161485046148,0.019973693415522575,0.009986846707761288
1695713564438344700,19.6103447265625,-0.005592633970081806,0.03808317333459854,0.01957421936094761
1695713564448374500,19.62037451171875,-0.00985368900001049,0.05938844755291939,0.01850895583629608
1695713564458404400,19.630404296875,-0.005592633970081806,0.04767054691910744,0.020639482885599136
1695713564468434200,19.64043408203125,-0.001331579522229731,0.035952646285295486,0.01318263728171587
1695713564478464000,19.650464111328127,0.0018642114009708166,0.044474758207798004,0.006791055668145418
1695713564488493800,19.660493896484375,0.0007989477599039674,0.048735812306404114,0.0035952648613601923
1695713564498525700,19.670525634765625,0.00612526573240757,0.04127896577119827,0.00892158318310976
1695713564508559600,19.6805595703125,0.00612526573240757,0.040213704109191895,0.009986846707761288
1695713564518593500,19.690593505859376,0.007190529722720385,0.044474758207798004,0.014247900806367397
1695713564528627700,19.700627685546873,0.0050600022077560425,0.04234423115849495,0.01318263728171587
1695713564538661600,19.71066162109375,0.003994738683104515,0.03488738462328911,0.011052110232412815
1695713564548695600,19.720695556640624,0.002929474925622344,0.030626330524683,0.012117373757064342
1695713564558729500,19.7307294921875,0.0007989477599039674,0.03169159218668938,0.01318263728171587
1695713564568763400,19.740763427734375,-0.0002663159102667123,0.03275685757398605,0.0153131652623415
1695713564578797300,19.75079736328125,0.0018642114009708166,0.029561065137386322,0.021704746410250664
1695713564588831200,19.760831298828126,0.003994738683104515,0.03275685757398605,0.0270310640335083
1695713564598868000,19.770867919921876,0.00612526573240757,0.04127896577119827,0.021704746410250664
1695713564608932400,19.780932373046873,0.009321057237684727,0.03169159218668938,0.009986846707761288
1695713564618996500,19.79099658203125,0.011451584286987782,0.01784316636621952,0.007856319658458233
1695713564629060900,19.801060791015626,0.011451584286987782,0.02210422046482563,0.0153131652623415
1695713564639125000,19.811125,0.0018642114009708166,0.02210422046482563,0.021704746410250664
1695713564649189400,19.821189453125,-0.006657897960394621,0.014647374860942364,0.020639482885599136
1695713564659226000,19.83122607421875,-0.013049479573965073,0.002929474925622344,0.014247900806367397
1695713564669248300,19.841248291015624,-0.0141147430986166,-0.007723161485046148,0.0035952648613601923
1695713564679285000,19.851284912109374,-0.0141147430986166,-0.005592633970081806,0.0003994738799519837
1695713574601039400,29.773039306640626,-0.006657897960394621,0.0018642114009708166,0.00892158318310976
1695713574611071700,29.78307177734375,-0.006657897960394621,0.0018642114009708166,0.009986846707761288
1695713574621103900,29.793103759765625,-0.008788425475358963,-0.0002663159102667123,0.004660528618842363
1695713574631136000,29.803135986328126,-0.008788425475358963,-0.0034621069207787514,0.0003994738799519837
1695713574641168400,29.81316845703125,-0.008788425475358963,-0.0023968431632965803,-0.002796316985040903
1695713574651200500,29.823200439453124,-0.008788425475358963,-0.0002663159102667123,0.0003994738799519837
1695713574661232600,29.833232666015626,-0.007723161485046148,0.00612526573240757,-0.0006657897611148655
1695713574671264800,29.8432646484375,-0.006657897960394621,0.007190529722720385,-0.003861580742523074
1695713574681297200,29.853297119140624,-0.005592633970081806,0.0018642114009708166,-0.0017310534603893757
1695713574691329300,29.863329345703125,-0.005592633970081806,0.00612526573240757,0.0035952648613601923
1695713574701355800,29.873355712890625,-0.006657897960394621,0.009321057237684727,0.005725792143493891
1695713574711388400,29.883388427734374,-0.006657897960394621,0.007190529722720385,0.0035952648613601923
1695713574721421300,29.89342138671875,-0.007723161485046148,0.003994738683104515,-0.002796316985040903
1695713574731454000,29.903453857421876,-0.006657897960394621,0.0050600022077560425,-0.005992108024656773
1695713574741486600,29.913486572265626,-0.006657897960394621,0.009321057237684727,-0.0070573715493083
1695713574751519500,29.92351953125,-0.005592633970081806,0.013582111336290836,-0.0070573715493083
1695713574761552100,29.93355224609375,-0.005592633970081806,0.015712639316916466,-0.002796316985040903
1695713574771585000,29.9435849609375,-0.0034621069207787514,0.021038956940174103,0.0025300011038780212
1695713574781617700,29.95361767578125,-0.0023968431632965803,0.019973693415522575,0.005725792143493891
1695713574791650300,29.963650390625,-0.004527370445430279,0.013582111336290836,0.006791055668145418
1695713574801683200,29.97368310546875,-0.0034621069207787514,0.008255792781710625,0.0035952648613601923
1695713574811710700,29.983710693359374,-0.001331579522229731,0.011451584286987782,0.0025300011038780212
1695713574821742800,29.993742919921875,-0.0034621069207787514,0.011451584286987782,0.006791055668145418
1695713574831775200,30.003775146484376,-0.007723161485046148,0.011451584286987782,0.014247900806367397
1695713574841807600,30.0138076171875,-0.011984216049313545,0.009321057237684727,0.016378428786993027
1695713574851839700,30.02383984375,-0.0141147430986166,0.0007989477599039674,0.01318263728171587
1695713574861872000,30.0338720703125,-0.010918952524662018,-0.004527370445430279,0.0035952648613601923
1695713574871904500,30.043904541015625,-0.007723161485046148,-0.0023968431632965803,-0.005992108024656773
1695713574881937000,30.05393701171875,-0.0023968431632965803,-0.0023968431632965803,-0.010253162123262882
1695713574891969000,30.063968994140627,-0.001331579522229731,0.0018642114009708166,-0.008122635073959827
1695713574902001400,30.07400146484375,-0.004527370445430279,0.010386320762336254,0.0025300011038780212
1695713574912030500,30.084030517578125,-0.008788425475358963,0.007190529722720385,0.009986846707761288
1695713574922065400,30.0940654296875,-0.010918952524662018,0.002929474925622344,0.011052110232412815
1695713574932100400,30.104100341796876,-0.007723161485046148,-0.007723161485046148,0.006791055668145418
1695713574942135600,30.114135498046874,-0.005592633970081806,-0.02263685315847397,-0.002796316985040903
1695713574952170500,30.12417041015625,-0.0023968431632965803,-0.024767380207777023,-0.002796316985040903
1695713574962205700,30.134205810546874,-0.001331579522229731,-0.007723161485046148,0.016378428786993027
1695713574972240600,30.14424072265625,-0.007723161485046148,0.0007989477599039674,0.0270310640335083
1695713574982275600,30.154275634765625,-0.0141147430986166,-0.011984216049313545,0.02277000993490219
1695713574992310500,30.164310546875,-0.017310533672571182,-0.031158961355686188,0.005725792143493891
1695713575002345700,30.174345703125,-0.016245270147919655,-0.04394212365150452,-0.009187898598611355
1695713575012380700,30.184380615234375,-0.013049479573965073,-0.03861580789089203,-0.01664474420249462
1695713575022410000,30.194409912109375,-0.013049479573965073,-0.03328948840498924,-0.015579480677843094
1695713575032441000,30.204441162109376,-0.011984216049313545,-0.026897907257080078,-0.012383690103888512
1695713575042472200,30.21447216796875,-0.007723161485046148,-0.015180006623268127,-0.012383690103888512
1695713575052503300,30.22450341796875,-0.005592633970081806,-0.004527370445430279,-0.015579480677843094
1695713575062534400,30.234534423828126,-0.004527370445430279,-0.0034621069207787514,-0.015579480677843094
1695713575072565200,30.244565185546875,-0.005592633970081806,-0.0023968431632965803,-0.008122635073959827
1695713575082596400,30.254596435546876,-0.00985368900001049,0.0050600022077560425,0.006791055668145418
1695713575092627500,30.26462744140625,-0.016245270147919655,0.002929474925622344,0.0153131652623415
1695713575102658600,30.274658447265626,-0.020506324246525764,-0.006657897960394621,0.00892158318310976
1695713575112689700,30.284689697265627,-0.020506324246525764,-0.013049479573965073,-0.0006657897611148655
1695713575122720800,30.294720703125,-0.015180006623268127,-0.015180006623268127,-0.013448953628540039
1695713575132751000,30.304751220703125,-0.007723161485046148,-0.00985368900001049,-0.018775271251797676
1695713575142785800,30.314785888671874,-0.006657897960394621,0.003994738683104515,-0.009187898598611355
1695713575152820700,30.32482080078125,-0.007723161485046148,0.018908429890871048,0.006791055668145418
1695713575162855400,30.33485546875,-0.010918952524662018,0.02636527456343174,0.014247900806367397
1695713575172890400,30.344890380859376,-0.013049479573965073,0.02210422046482563,0.009986846707761288
1695713575182925000,30.354925048828125,-0.013049479573965073,0.013582111336290836,0.001464737462811172
1695713575192960000,30.3649599609375,-0.011984216049313545,0.008255792781710625,-0.0070573715493083
1695713575202994700,30.37499462890625,-0.010918952524662018,0.0050600022077560425,-0.008122635073959827
1695713575213029400,30.385029296875,-0.008788425475358963,0.002929474925622344,-0.002796316985040903
1695713575223064300,30.395064208984376,-0.008788425475358963,0.008255792781710625,0.005725792143493891
1695713575233099000,30.40509912109375,-0.008788425475358963,0.014647374860942364,0.011052110232412815
1695713575243129300,30.41512939453125,-0.007723161485046148,0.013582111336290836,0.00892158318310976
1695713575253158700,30.42515869140625,-0.007723161485046148,0.008255792781710625,0.001464737462811172
1695713575263187700,30.435187744140624,-0.006657897960394621,0.008255792781710625,-0.0006657897611148655
1695713575273217000,30.445217041015624,-0.006657897960394621,0.009321057237684727,0.0035952648613601923
1695713575283246300,30.455246337890625,-0.007723161485046148,0.008255792781710625,0.006791055668145418
1695713575293275600,30.465275634765625,-0.007723161485046148,0.009321057237684727,0.006791055668145418
1695713575303304700,30.4753046875,-0.008788425475358963,0.007190529722720385,0.006791055668145418
1695713575313334000,30.485333984375,-0.00985368900001049,0.0007989477599039674,0.001464737462811172
1695713575323363300,30.49536328125,-0.008788425475358963,-0.0034621069207787514,-0.0006657897611148655
1695713575333392400,30.505392333984375,-0.008788425475358963,-0.008788425475358963,0.0003994738799519837
1695713575343421700,30.515421630859375,-0.007723161485046148,-0.00985368900001049,0.0025300011038780212
1695713575353455900,30.525455810546877,-0.006657897960394621,-0.004527370445430279,0.004660528618842363
1695713575363514600,30.5355146484375,-0.004527370445430279,-0.0034621069207787514,0.001464737462811172
1695713575373573600,30.54557373046875,-0.0034621069207787514,-0.006657897960394621,-0.0006657897611148655
1695713575383632400,30.55563232421875,-0.004527370445430279,-0.010918952524662018,-0.004926844500005245
1695713575393691100,30.565691162109374,-0.005592633970081806,-0.007723161485046148,-0.002796316985040903
1695713575403750100,30.575750244140625,-0.008788425475358963,-0.010918952524662018,-0.002796316985040903
1695713575413809000,30.585808837890625,-0.011984216049313545,-0.017310533672571182,-0.003861580742523074
1695713575423843000,30.595843017578126,-0.010918952524662018,-0.01837579719722271,-0.005992108024656773
1695713575433881600,30.605881591796877,-0.00985368900001049,-0.017310533672571182,-0.009187898598611355
1695713575443920400,30.61592041015625,-0.006657897960394621,-0.02263685315847397,-0.01664474420249462
1695713575453959200,30.625959228515626,-0.005592633970081806,-0.020506324246525764,-0.011318426579236984
1695713575463993300,30.635993408203124,-0.005592633970081806,-0.006657897960394621,-0.0006657897611148655
1695713575474026800,30.64602685546875,-0.007723161485046148,-0.001331579522229731,0.0025300011038780212
1695713575484061000,30.65606103515625,-0.00985368900001049,-0.005592633970081806,0.0003994738799519837
1695713575494063600,30.666063720703125,-0.00985368900001049,-0.006657897960394621,-0.0070573715493083
1695713575504096500,30.676096435546874,-0.008788425475358963,-0.006657897960394621,-0.009187898598611355
1695713575514130700,30.686130615234376,-0.007723161485046148,-0.005592633970081806,-0.008122635073959827
1695713575524134700,30.696134765625,-0.007723161485046148,-0.0002663159102667123,-0.002796316985040903
1695713575534208000,30.7062080078125,-0.004527370445430279,-0.0002663159102667123,-0.004926844500005245
1695713575544242200,30.7162421875,-0.001331579522229731,-0.0023968431632965803,-0.009187898598611355
1695713575554264000,30.72626416015625,-0.001331579522229731,-0.0034621069207787514,-0.005992108024656773
1695713575564286500,30.736286376953124,-0.004527370445430279,0.00612526573240757,0.0003994738799519837
1695713575574319600,30.746319580078126,-0.006657897960394621,0.008255792781710625,0.001464737462811172
1695713575584351500,30.7563515625,-0.007723161485046148,0.007190529722720385,0.001464737462811172
1695713575594383000,30.766383056640624,-0.004527370445430279,0.013582111336290836,0.0035952648613601923
1695713575604415000,30.7764150390625,-0.001331579522229731,0.011451584286987782,-0.0006657897611148655
1695713575614446800,30.78644677734375,0.0007989477599039674,0.013582111336290836,-0.003861580742523074
1695713575624478700,30.796478759765623,0.002929474925622344,0.021038956940174103,0.001464737462811172
1695713575634510600,30.806510498046876,0.0007989477599039674,0.021038956940174103,0.006791055668145418
1695713575644542200,30.816542236328125,-0.0023968431632965803,0.014647374860942364,0.005725792143493891
1695713575654574000,30.826573974609374,-0.005592633970081806,0.007190529722720385,0.001464737462811172
1695713575664606000,30.83660595703125,-0.004527370445430279,0.007190529722720385,-0.0017310534603893757
1695713575674639000,30.84663916015625,-0.004527370445430279,0.008255792781710625,-0.009187898598611355
1695713575684648700,30.856648681640625,-0.0002663159102667123,0.011451584286987782,-0.009187898598611355
1695713575694681900,30.866681884765626,-0.0002663159102667123,0.015712639316916466,-0.003861580742523074
1695713575704583200,30.876583251953125,-0.001331579522229731,0.01784316636621952,0.0025300011038780212
1695713590201140700,45.373140625,0.7175882458686829,1.4331790208816528,0.9460873007774353
1695713590211172900,45.3831728515625,0.9273120164871216,1.0274467468261719,0.860999345779419
1695713590221203200,45.393203125,1.1052110195159912,0.6579334735870361,0.7693866491317749
1695713590231233500,45.40323364257812,1.2181289196014404,0.38522595167160034,0.7299718856811523
1695713590241263900,45.41326391601562,1.3171985149383545,0.0774979293346405,0.7843003273010254
1695713590251294000,45.4232939453125,1.4033516645431519,-0.2474074810743332,0.8439550995826721
1695713590261324300,45.43332421875,1.439570665359497,-0.32943278551101685,0.8705866932868958
1695713590271354600,45.443354736328125,1.422526478767395,-0.15153375267982483,0.9366330504417419
1695713590281385000,45.453385009765626,1.3756548166275024,0.023169483989477158,1.065396785736084
1695713590291415300,45.463415283203126,1.3756548166275024,0.05832318589091301,1.186836838722229
1695713590301445600,45.47344555664063,1.315068006515503,0.09880319982767105,1.2422305345535278
1695713590311476000,45.48347607421875,1.1638004779815674,-0.11211899667978287,1.3434306383132935
1695713590321508000,45.49350805664063,0.917724609375,-0.19734008610248566,1.4211949110031128
1695713590331541500,45.50354150390625,0.6803039908409119,-0.056725289672613144,1.500956416130066
1695713590341574700,45.51357470703125,0.5407544374465942,0.10945583879947662,1.6074827909469604
1695713590351607800,45.52360791015625,0.5162534117698669,0.47364285588264465,1.7076176404953003
1695713590361641200,45.53364111328125,0.42783650755882263,0.8932235836982727,1.810948133468628
1695713590371674400,45.54367431640625,0.22130851447582245,1.3213263750076294,1.927061915397644
1695713590381707800,45.55370776367187,-0.001331579522229731,1.7686039209365845,2.024933099746704
1695713590391741000,45.56374096679688,-0.09720530360937119,2.0636820793151855,1.8088176250457764
1695713590401774000,45.573774169921876,-0.0588558167219162,1.6249265670776367,1.6990954875946045
1695713590411807500,45.583807373046874,0.09347688406705856,1.34369695186615,1.4860427379608154
1695713590421840600,45.59384057617188,0.12117373943328857,0.9976193904876709,1.2677968740463257
1695713590431872800,45.60387280273437,-0.001331579522229731,0.6334323883056641,1.0590052604675293
1695713590441904000,45.61390405273438,-0.25486433506011963,0.587626039981842,0.894022524356842
1695713590451935200,45.623935302734374,-0.5625923871994019,0.7653919458389282,0.6458160877227783
1695713590461966600,45.63396655273438,-0.921453058719635,0.825046718120575,0.31145647168159485
1695713590471997700,45.643997802734376,-1.3612737655639648,0.9368993639945984,0.16977639496326447
1695713590482029000,45.65402905273437,-1.7990971803665161,1.005076289176941,0.20812588930130005
1695713590492060400,45.66406030273438,-2.274071455001831,1.3895032405853271,0.2986733019351959
1695713590502091500,45.674091552734374,-2.7596986293792725,1.7293223142623901,0.17936377227306366
1695713590512123000,45.68412280273437,-3.209106683731079,1.8016271591186523,-0.15286533534526825
1695713590522154000,45.694154052734376,-3.6659717559814453,1.725061297416687,-0.5289034247398376
1695713590532185900,45.704185791015625,-4.189948081970215,1.9710040092468262,-0.8355661630630493
1695713590542216400,45.71421655273438,-4.658531188964844,2.464087963104248,-1.0614020824432373
1695713590552247000,45.7242470703125,-5.0654616355896,2.721881866455078,-1.4255890846252441
1695713590562277400,45.73427734375,-5.3359055519104,2.637725830078125,-1.935717225074768
1695713590572308000,45.744307861328124,-5.341231822967529,2.274604082107544,-2.5278706550598145
1695713590582338600,45.75433862304688,-5.168659210205078,1.96248197555542,-2.9847354888916016
1695713590592369000,45.76436889648438,-4.905672073364258,1.9156103134155273,-3.245725154876709
1695713590602399500,45.7743994140625,-4.448807239532471,2.1435768604278564,-3.289401054382324
1695713590612430000,45.78443017578125,-3.90032958984375,2.837862253189087,-3.329880952835083
1695713590622460400,45.79446044921875,-3.528552770614624,3.6206979751586914,-3.4565141201019287
1695713590632491000,45.80449096679688,-3.28900146484375,3.93694806098938,-3.5076467990875244
1695713590642523400,45.8145234375,-3.0844709873199463,3.7378768920898438,-3.569432258605957
1695713590652557600,45.8245576171875,-2.7256102561950684,3.040262460708618,-3.603520631790161
1695713590662592000,45.834592041015625,-2.0290608406066895,1.6323833465576172,-3.535343647003174
1695713590672626200,45.84462622070313,-1.0950909852981567,-0.07376950979232788,-3.170091390609741
1695713590682660600,45.85466064453125,-0.18668745458126068,-0.9269125461578369,-2.32120943069458
1695713590692694800,45.86469482421875,0.30000486969947815,-0.6265081763267517,-1.2881700992584229
1695713590702729200,45.874729248046876,0.32237541675567627,-0.12277163565158844,-0.34993910789489746
1695713590712763400,45.88476342773438,0.08495477586984634,-0.07163897901773453,0.5115928649902344
1695713590722797800,45.8947978515625,-0.04607265070080757,-0.3507380485534668,1.270992636680603
1695713590732832300,45.904832275390625,0.008255792781710625,-0.7319692969322205,1.8216007947921753
1695713590742866400,45.914866455078126,0.0636495053768158,-0.7319692969322205,1.6607459783554077
1695713590752898300,45.924898193359375,-0.05992107838392258,-0.18881797790527344,0.001464737462811172
1695713590762928000,45.93492822265625,-0.28668907284736633,-1.2346405982971191,-0.26152223348617554
1695713590772957700,45.94495776367187,-0.5285038948059082,-0.40706387162208557,0.2635195851325989
1695713590782987500,45.95498754882812,-0.554070234298706,0.3490070104598999,0.8641951084136963
1695713590793017300,45.96501733398438,-0.2984069883823395,-0.5061333775520325,1.1921632289886475
1695713590803047200,45.975047119140626,-0.056725289672613144,-0.8651272058486938,1.388171672821045
1695713590813077000,45.985076904296875,0.028495801612734795,-0.6829671263694763,1.5243922472000122
1695713590823106600,45.9951064453125,-0.010918952524662018,-0.633965015411377,1.7310534715652466
1695713590833136400,46.00513647460937,-0.13235901296138763,-0.4986765384674072,1.989912509918213
1695713590843166200,46.01516625976563,-0.1153147891163826,-0.68829345703125,2.125067710876465
1695713590853198300,46.0251982421875,0.13182637095451355,-0.8566051125526428,2.054760456085205
1695713590863232800,46.035232666015624,0.5599291920661926,-0.5657881498336792,1.8343839645385742
1695713590873267000,46.045266845703125,0.9507477879524231,-0.04713791608810425,1.520131230354309
1695713590883301000,46.05530102539063,1.1510173082351685,0.41292282938957214,1.2198600769042969
1695713590893335300,46.06533520507813,1.2831100225448608,0.7323687672615051,1.0131988525390625
1695713590903369500,46.07536938476562,1.311872124671936,1.100950002670288,0.9163930416107178
1695713590913403600,46.085403564453124,1.282044768333435,1.3831117153167725,0.8535425066947937
1695713590923437800,46.095437744140625,1.257543683052063,1.4065474271774292,0.7086666226387024
1695713590933472300,46.10547216796875,1.3214595317840576,1.24356210231781,0.5222455263137817
1695713590943506400,46.11550634765625,1.4342443943023682,1.2712589502334595,0.30293434858322144
1695713590953540000,46.1255400390625,1.3767200708389282,1.719735026359558,0.08881635963916779
1695713590963583200,46.13558325195312,1.2458258867263794,2.0029618740081787,-0.06138581782579422
1695713590973626000,46.14562622070312,1.1030805110931396,2.301102638244629,-0.06138581782579422
1695713590983669200,46.15566918945313,0.89641934633255,2.6505091190338135,-0.09653951972723007
1695713590993712400,46.16571240234375,0.6430197358131409,2.6664881706237793,-0.002796316985040903
1695713591003755500,46.17575561523437,0.36072489619255066,2.5301342010498047,-0.06884266436100006
1695713591013798700,46.18579858398437,0.056192658841609955,2.340517282485962,-0.1826927214860916
1695713591023841800,46.195841796875,-0.18242639303207397,2.171273708343506,-0.16671375930309296
1695713591033884700,46.205884765625,-0.33249542117118835,2.0828566551208496,0.00892158318310976
1695713591043927800,46.215927734375,-0.42304283380508423,2.165947198867798,0.1868206113576889
1695713591053965000,46.22596508789063,-0.3868238627910614,2.425738573074341,0.17510271072387695
1695713591064041700,46.23604174804687,-0.21012325584888458,2.8410580158233643,-0.09334372729063034
1695713591074079000,46.24607885742188,-0.14194637537002563,3.079677104949951,-0.354200154542923
1695713591084106200,46.256106201171875,-0.07696529477834702,3.3353404998779297,-0.5299686789512634
1695713591094133500,46.26613354492188,-0.03861580789089203,3.692070722579956,-0.5597960352897644
1695713591104025300,46.276025390625,-0.010918952524662018,3.865708589553833,-0.2775011658668518
1695713591114049800,46.2860498046875,-0.07590003311634064,3.8390769958496094,0.12503531575202942
1695713591124067300,46.2960673828125,-0.2749711871147156,3.6654391288757324,0.22303956747055054
1695713591134091000,46.30609106445313,-0.5956155061721802,3.567434787750244,-0.3659180700778961
1695713591144159200,46.3161591796875,-0.7958850860595703,3.3959274291992188,-0.9974862337112427
1695713591154187500,46.3261875,-0.9235835671424866,3.4129714965820312,-1.3787174224853516
1695713591164195800,46.33619580078125,-1.0748510360717773,3.5216283798217773,-1.585378646850586
1695713591174221800,46.346221923828125,-1.3166658878326416,3.573826313018799,-1.7462334632873535
1695713591184292900,46.35629296875,-1.67552649974823,3.454516887664795,-1.9548919200897217
1695713591194323500,46.36632348632813,-2.0929768085479736,3.1766161918640137,-2.19564151763916
1695713591204347400,46.376347412109375,-2.4912521839141846,2.9241487979888916,-2.4277358055114746
1695713591214377200,46.386377197265624,-2.876877546310425,2.7101638317108154,-2.638658046722412
1695713591224384800,46.396384765625,-3.2911319732666016,2.474740505218506,-2.818687677383423
1695713591234412300,46.40641235351563,-3.746931791305542,2.194709300994873,-2.978343963623047
1695713591244457500,46.41645751953125,-4.302865982055664,2.066877841949463,-3.0646302700042725
1695713591254487000,46.426487060546876,-4.71712064743042,2.0540945529937744,-3.0358681678771973
1695713591264513000,46.436512939453124,-4.958935260772705,2.235189437866211,-2.9495818614959717
1695713591274542000,46.4465419921875,-5.197421073913574,2.6100289821624756,-2.868621826171875
1695713591284615000,46.45661499023438,-5.515934944152832,3.0083045959472656,-2.8091001510620117
1695713591294648600,46.46664868164063,-5.86946964263916,3.3119046688079834,-2.7696855068206787
1695713591304668700,46.476668701171874,-6.189980506896973,3.479017972946167,-2.713226556777954
1695713591314700800,46.48670068359375,-6.509559631347656,3.6089799404144287,-2.6354622840881348
1695713591324734000,46.49673388671875,-6.829005718231201,3.7133758068084717,-2.5214791297912598
1695713591334766000,46.50676611328125,-7.125149250030518,3.86144757270813,-2.380864143371582
1695713591344784600,46.51678466796875,-7.340198993682861,4.175567150115967,-2.24570894241333
1695713591354815500,46.5268154296875,-7.393462181091309,4.476903438568115,-2.171140432357788
1695713591364867000,46.5368671875,-7.239132404327393,4.611126899719238,-2.1146814823150635
1695713591374900000,46.54689990234375,-6.893986701965332,4.575973033905029,-2.0752668380737305
1695713591384925200,46.55692529296875,-6.4839935302734375,4.500339508056641,-2.0592877864837646
1695713591394957300,46.56695727539063,-6.157090663909912,4.629236221313477,-1.9005634784698486
1695713591404992300,46.5769921875,-5.933385372161865,4.639888763427734,-1.582182765007019
1695713591415024600,46.58702465820313,-5.744833469390869,4.63349723815918,-1.2231889963150024
1695713591425052400,46.597052490234375,-5.482912063598633,4.292746067047119,-0.9143956899642944
1695713591435084500,46.60708447265625,-5.131374835968018,4.107390403747559,-0.6567350625991821
1695713591445129700,46.61712963867188,-4.725642681121826,4.190480709075928,-0.4554001986980438
1695713591455163100,46.6271630859375,-4.296474456787109,4.333226203918457,-0.2625874876976013
1695713591465196300,46.6371962890625,-3.9376139640808105,4.552537441253662,-0.08269108831882477
1695713591475364000,46.647364013671876,-3.681950569152832,4.648411273956299,0.03448791056871414
1695713591485409500,46.65740942382813,-3.477553129196167,4.298072338104248,0.02383527345955372
1695713591495443000,46.66744287109375,-3.229346752166748,3.552520990371704,-0.12530162930488586
1695713591505312800,46.67731274414062,-2.924814462661743,2.8804728984832764,-0.3478085696697235
1695713591515332400,46.687332275390624,-2.6638247966766357,2.656900644302368,-0.5331644415855408
1695713591525346000,46.697345947265624,-2.464620590209961,2.7549049854278564,-0.6375603079795837
1695713591535365000,46.707365234375,-2.2676799297332764,2.7996459007263184,-0.6832334399223328
1695713591545441800,46.71744189453125,-2.0642147064208984,2.757035493850708,-0.7045387625694275
1695713591555466800,46.727466796875,-1.8630129098892212,2.722947120666504,-0.7460840344429016
1695713591565479200,46.737479248046874,-1.720267653465271,2.6941850185394287,-0.7908250689506531
1695713591575502800,46.7475029296875,-1.6510255336761475,2.5865933895111084,-0.8291745781898499
1695713591585565700,46.757565673828125,-1.6680697202682495,2.2383852005004883,-0.8643282651901245
1695713591595593200,46.76759326171875,-1.7809876203536987,1.730387568473816,-0.8217177391052246
1695713591605632000,46.77763208007813,-1.8895113468170166,1.3543496131896973,-0.6663224101066589
1695713591615660800,46.78766088867187,-1.9438397884368896,1.1595394611358643,-0.3659180700778961
1695713591625695700,46.79769580078125,-1.8459687232971191,0.9827057123184204,0.10586057603359222
1695713591635725000,46.80772509765625,-1.5636738538742065,0.8218508958816528,0.60533607006073
1695713591645742600,46.81774267578125,-1.180312156677246,0.43209755420684814,0.9940241575241089
1695713591655770600,46.8277705078125,-0.755405068397522,-0.37630438804626465,1.2337085008621216
1695713591665818000,46.83781811523438,-0.3314301371574402,-0.8715187907218933,1.407346487045288
1695713591675848200,46.84784814453125,-0.0822916179895401,-0.3922833502292633,1.55741548538208
1695713591685865500,46.85786547851563,-0.00985368900001049,0.34687647223472595,1.5190659761428833
1695713591695894300,46.86789428710937,0.04234423115849495,0.7462171912193298,1.321060061454773
1695713591705950200,46.8779501953125,0.09454214572906494,0.8463519811630249,1.106942057609558
1695713591715981800,46.88798193359375,0.15206637978553772,0.6929540038108826,0.9865673184394836
1695713591726013700,46.898013671875,0.14567480981349945,0.3671164810657501,1.0025461912155151
1695713591736045000,46.908045166015626,0.025300011038780212,-0.017310533672571182,1.1910978555679321
1695713591746080300,46.918080322265624,-0.20799273252487183,-0.4251733422279358,1.4638054370880127
1695713591756112100,46.92811206054687,-0.48802390694618225,-0.779906153678894,1.7331839799880981
1695713591766152200,46.938152099609376,-0.6744450330734253,-1.0748510360717773,2.1218719482421875
1695713591776184800,46.94818481445313,-0.7436871528625488,-1.294295310974121,2.5383901596069336
1695713591786190000,46.958190185546876,-0.8287751078605652,-1.4402364492416382,2.736396074295044
1695713591796220000,46.968219970703124,-0.9768467545509338,-1.324122667312622,2.7023074626922607
1695713591806271200,46.97827124023438,-1.1227878332138062,-1.026914119720459,2.573410749435425
1695713591816303400,46.98830346679687,-1.222922682762146,-0.7202513813972473,2.3999059200286865
1695713591826333000,46.9983330078125,-1.282577395439148,-0.5178512930870056,2.259290933609009
1695713591836364500,47.008364501953125,-1.3964275121688843,-0.44541335105895996,2.1208066940307617
1695713591846389500,47.018389404296876,-1.5423686504364014,-0.6147902607917786,1.9792598485946655
1695713591856420600,47.02842065429687,-1.6126760244369507,-0.9598025679588318,1.8322534561157227
1695713591866463700,47.03846362304687,-1.608414888381958,-1.2048131227493286,1.7172050476074219
1695713591876496100,47.04849609375,-1.5508906841278076,-1.2506195306777954,1.6639418601989746
1695713591886542600,47.05854248046875,-1.4859095811843872,-1.1792469024658203,1.6479628086090088
1695713591896576300,47.068576171875,-1.4411685466766357,-1.0737857818603516,1.6085480451583862
1695713591906600400,47.07860034179687,-1.414536952972412,-1.01413094997406,1.525457501411438
1695713591916633300,47.08863330078125,-1.355947494506836,-0.9906951785087585,1.4243906736373901
1695713591926656500,47.09865649414063,-1.2335753440856934,-0.9949562549591064,1.3146685361862183
1695713591936688400,47.1086884765625,-1.0791120529174805,-0.9173251390457153,1.186836838722229
1695713591946716400,47.11871630859375,-0.9278446435928345,-0.6371608376502991,1.0387651920318604
1695713591956748000,47.128748046875,-0.8703203797340393,-0.5263733863830566,0.8908267021179199
1695713591966785800,47.138785888671876,-0.9193225502967834,-0.49761128425598145,0.7544729709625244
1695713591976817700,47.148817626953125,-1.0610026121139526,-0.38589176535606384,0.6181192398071289
1695713591986866000,47.158865966796874,-1.245293140411377,-0.3752391040325165,0.500940203666687
1695713591996899600,47.168899658203124,-1.4358422756195068,-0.5029376149177551,0.4071970283985138
1695713592006910000,47.178909912109376,-1.6052191257476807,-0.6978808641433716,0.342349112033844
1695713592016941300,47.18894140625,-1.6201328039169312,-0.7532745599746704,0.3668501675128937
1695713592026982000,47.19898193359375,-1.5423686504364014,-0.6691187024116516,0.47537389397621155
1695713592037014300,47.20901416015625,-1.5157370567321777,-0.5423523783683777,0.6415550112724304
1695713592047031300,47.21903125,-1.5402380228042603,-0.5689839720726013,0.7715172171592712
1695713592057062000,47.22906176757812,-1.5839139223098755,-0.7564703226089478,0.7992140650749207
1695713592067119900,47.239119873046874,-1.6190675497055054,-1.0365015268325806,0.7906919121742249
1695713592077153300,47.2491533203125,-1.5093454122543335,-1.1813774108886719,0.743820309638977
1695713592087182600,47.2591826171875,-1.2431626319885254,-1.269794225692749,0.6841655969619751
1695713592097215700,47.2692158203125,-0.9949562549591064,-1.2847079038619995,0.5797697305679321
1695713592107235300,47.2792353515625,-0.8054724931716919,-1.2420973777770996,0.4082622826099396
1695713592117267000,47.289266845703125,-0.6861629486083984,-1.1547458171844482,0.17616797983646393
1695713592127301000,47.299301025390626,-0.6137250065803528,-1.039697289466858,-0.08375635743141174
1695713592137333000,47.3093330078125,-0.5647228956222534,-0.7990809082984924,-0.3254380524158478
1695713592147358200,47.31935815429687,-0.5434176325798035,-0.42730388045310974,-0.5267728567123413
1695713592157389300,47.329389404296876,-0.5998765826225281,-0.24421168863773346,-0.6874945163726807
1695713592167440400,47.3394404296875,-0.7404913902282715,-0.6222470998764038,-0.8376966714859009
1695713592177473500,47.3494736328125,-0.9981520175933838,-0.9322388172149658,-0.8685893416404724
1695713592187478000,47.35947802734375,-1.2612721920013428,-0.801211416721344,-0.7290397882461548
