time,seconds_elapsed,z,y,x
1695713605775043800,0.1910439453125,9.577272415161133,3.8805601596832275,-2.0961127281188965
1695713605785095000,0.201094970703125,8.428119659423828,3.885345697402954,-2.225325107574463
1695713605795136800,0.21113671875,7.949554920196533,3.3296127319335938,-1.8951154947280884
1695713605805153500,0.221153564453125,8.073982238769531,2.884547710418701,-1.272383451461792
1695713605815202300,0.231202392578125,9.371489524841309,3.276970624923706,-0.6496513485908508
1695713605825185300,0.241185302734375,10.96630573272705,3.229114055633545,-0.28594231605529785
1695713605835262500,0.251262451171875,11.650653839111328,2.9659037590026855,-0.5491527915000916
1695713605845285400,0.261285400390625,12.225528717041016,2.6596224308013916,-0.9038887619972229
1695713605855278600,0.271278564453125,12.31645679473877,2.9419753551483154,-0.778863787651062
1695713605865289000,0.2812890625,12.263813972473145,3.1094729900360107,0.786640465259552
1695713605875391700,0.291391845703125,11.889935493469238,3.253042459487915,1.950150489807129
1695713605885441300,0.301441162109375,10.343574523925781,4.0145583152771,2.1272194385528564
1695713605895423500,0.311423583984375,8.456833839416504,4.55055046081543,2.3234307765960693
1695713605905444600,0.321444580078125,6.8865437507629395,4.8813581466674805,2.3718855381011963
1695713605915486000,0.33148583984375,5.880959987640381,5.015356063842773,1.892722725868225
1695713605925515300,0.341515380859375,5.358726501464844,4.9052863121032715,1.2604193687438965
1695713605935573500,0.351573486328125,5.210371494293213,4.867001056671143,0.9541380405426025
1695713605945615000,0.361614990234375,4.7796630859375,4.713860511779785,1.4524433612823486
1695713605955639300,0.371639404296875,5.833103179931641,4.339982032775879,1.825723648071289
1695713605965673200,0.381673095703125,6.326025009155273,4.402195453643799,2.572882652282715
1695713605975692300,0.3916923828125,6.282954216003418,4.560121536254883,3.387040376663208
1695713605985719800,0.4017197265625,6.105885028839111,4.728217601776123,3.812962770462036
1695713605995766800,0.411766845703125,6.000600814819336,4.8574299812316895,3.5545380115509033
1695713606005802500,0.421802490234375,5.861817359924316,4.766502857208252,3.33858585357666
1695713606015827200,0.4318271484375,5.928816318511963,4.584050178527832,2.9700911045074463
1695713606025858000,0.441858154296875,6.120242118835449,4.378267288208008,2.2229323387145996
1695713606035899400,0.4518994140625,6.148955821990967,4.057629108428955,1.8735800981521606
1695713606045934800,0.461934814453125,6.450451850891113,3.82791805267334,0.3798605799674988
1695713606055958500,0.47195849609375,6.062814235687256,3.45882511138916,0.6574280261993408
1695713606065988900,0.48198876953125,6.929614543914795,4.73300313949585,0.2021935135126114
1695713606076025900,0.49202587890625,7.264609336853027,5.302495002746582,0.9110672473907471
1695713606086058800,0.502058837890625,8.47597599029541,5.632704734802246,1.9214365482330322
1695713606096115500,0.512115478515625,9.1657075881958,3.544966697692871,3.1040892601013184
1695713606106158600,0.52215869140625,9.041280746459961,3.9667017459869385,2.132004976272583
1695713606116157200,0.5321572265625,9.639486312866211,2.9515466690063477,1.8496519327163696
1695713606126181000,0.54218115234375,9.548559188842773,2.4388844966888428,1.6390835046768188
1695713606136220200,0.55222021484375,9.481559753417969,1.9172492027282715,1.7826528549194336
1695713606146246000,0.562245849609375,9.141778945922852,1.7593228816986084,1.4811571836471558
1695713606156284700,0.57228466796875,8.12662410736084,1.5050854682922363,1.2269197702407837
1695713606166311400,0.5823115234375,6.977470874786377,1.1030912399291992,1.150349497795105
1695713606176376800,0.592376953125,6.110671043395996,0.7345965504646301,0.9876375198364258
1695713606186407700,0.60240771484375,5.598008632659912,0.14057832956314087,0.5856433510780334
1695713606196406000,0.612406005859375,5.6793646812438965,-0.6209374666213989,-0.22372891008853912
1695713606206433500,0.62243359375,6.062814235687256,-1.674377679824829,-0.9230313301086426
1695713606216499200,0.632499267578125,6.2159552574157715,-2.6943182945251465,-1.4877375364303589
1695713606226530600,0.642530517578125,5.478367328643799,-3.594019651412964,-2.062613010406494
1695713606236566800,0.65256689453125,4.439284324645996,-4.599603176116943,-2.4741785526275635
1695713606246598400,0.662598388671875,2.6488547325134277,-5.37069034576416,-1.5068800449371338
1695713606256605200,0.672605224609375,0.3978067636489868,-6.404987812042236,0.19262222945690155
1695713606266634200,0.68263427734375,0.03409772366285324,-7.654639720916748,1.643869161605835
1695713606276673500,0.692673583984375,0.9152546525001526,-8.46879768371582,3.0035905838012695
1695713606286703900,0.702703857421875,2.1744775772094727,-9.081958770751953,4.133601188659668
1695713606296751000,0.712751220703125,4.381856441497803,-9.751948356628418,4.109673023223877
1695713606306783000,0.722782958984375,7.073183536529541,-9.349954605102539,3.1902308464050293
1695713606316817000,0.73281689453125,8.49033260345459,-9.814162254333496,4.128815650939941
1695713606326849000,0.74284912109375,8.193622589111328,-8.986245155334473,6.240481376647949
1695713606336878600,0.752878662109375,6.498308181762695,-8.808578491210938,7.504489898681641
1695713606346910500,0.762910400390625,4.693521499633789,-9.972686767578125,10.009177207946777
1695713606356945400,0.7729453125,3.0029923915863037,-10.930414199829102,12.944572448730469
1695713606366977500,0.7829775390625,2.9072794914245605,-10.881958961486816,15.2620210647583
1695713606377009200,0.793009033203125,4.563711166381836,-10.743175506591797,17.9820613861084
1695713606387041300,0.803041259765625,7.264609336853027,-9.613164901733398,19.79163360595703
1695713606397077000,0.813076904296875,8.432905197143555,-7.683353424072266,21.429521560668945
1695713606407109400,0.823109375,7.020541667938232,-6.065207004547119,22.875385284423828
1695713606417140000,0.833139892578125,5.224728107452393,-4.9399824142456055,25.49492645263672
1695713606427172400,0.84317236328125,5.133800983428955,-3.4983067512512207,27.716663360595703
1695713606437204700,0.853204833984375,6.574878215789795,-1.688734531402588,27.95594596862793
1695713606447236900,0.86323681640625,7.95434045791626,-1.0037890672683716,27.506093978881836
1695713606457249000,0.8732490234375,9.381061553955078,-1.4105689525604248,25.96392059326172
1695713606467279000,0.883279052734375,9.89850902557373,-1.4105689525604248,23.938396453857422
1695713606477309400,0.893309326171875,8.49033260345459,-0.8027920126914978,22.262821197509766
1695713606487521800,0.903521728515625,4.908875465393066,-1.1617153882980347,20.74457550048828
1695713606497413000,0.9134130859375,-4.280161380767822,-1.8562321662902832,19.31307029724121
1695713606507430400,0.923430419921875,-25.401607513427734,0.16450655460357666,15.841084480285645
1695713606517466000,0.933466064453125,-43.08995056152344,2.7936203479766846,10.856834411621094
1695713606527485000,0.94348486328125,-12.870394706726074,3.6699917316436768,12.096915245056152
1695713606537527800,0.95352783203125,-1.0001999139785767,-0.44805604219436646,12.144771575927734
1695713606547549200,0.963549072265625,3.802793502807617,-5.950351715087891,11.574681282043457
1695713606557592300,0.97359228515625,3.5581271648406982,-8.550153732299805,4.871188640594482
1695713606567615700,0.98361572265625,1.0253244638442993,-9.847661972045898,0.04905286431312561
1695713606577670100,0.993670166015625,-0.047258246690034866,-8.24387264251709,0.9302098155021667
1695713606587697000,1.00369677734375,-3.298506021499634,-7.214360237121582,3.0801608562469482
1695713606597717500,1.013717529296875,-4.639084815979004,-2.909672260284424,3.755535125732422
1695713606607743500,1.023743408203125,-3.0209386348724365,-5.519045352935791,7.485347270965576
1695713606617789400,1.03378955078125,0.2350948303937912,-6.2566328048706055,6.767500877380371
1695713606627817500,1.0438173828125,0.6999006271362305,-8.114660263061523,2.816950559616089
1695713606637853000,1.05385302734375,-2.0919251441955566,-8.497511863708496,2.266003131866455
1695713606647881700,1.0638818359375,-2.4029922485351562,-7.22871732711792,4.11924409866333
1695713606657896000,1.07389599609375,-2.527418851852417,-7.420143127441406,8.749954223632812
1695713606667923200,1.083923095703125,-3.6430723667144775,-5.016552448272705,7.09292459487915
1695713606677983000,1.09398291015625,-2.939582586288452,-5.265406131744385,12.379267692565918
1695713606688013600,1.104013671875,2.035693883895874,-7.668996810913086,13.183854103088379
1695713606698045400,1.11404541015625,4.635495662689209,-8.919246673583984,11.00997543334961
1695713606708076000,1.124075927734375,2.9694929122924805,-11.447263717651367,10.339386940002441
1695713606718125000,1.134125,-0.727418065071106,-10.326824188232422,6.82014274597168
1695713606728157700,1.14415771484375,-4.3998026847839355,-10.106684684753418,6.652645111083984
1695713606738183700,1.15418359375,-4.4189453125,-10.097113609313965,8.673383712768555
1695713606748215600,1.164215576171875,-2.4508485794067383,-10.59960651397705,10.210174560546875
1695713606758245600,1.17424560546875,-1.196411371231079,-11.437692642211914,11.053046226501465
1695713606768277200,1.18427734375,-0.5982056856155396,-10.987841606140137,9.966106414794922
1695713606778314000,1.19431396484375,-0.25782662630081177,-10.499107360839844,9.156734466552734
1695713606788346400,1.204346435546875,-0.2626122832298279,-9.689735412597656,8.936594009399414
1695713606798382300,1.21438232421875,-0.7369893789291382,-8.789435386657715,9.276374816894531
1695713606808415000,1.2244150390625,-2.14935302734375,-7.10429048538208,10.243673324584961
1695713606818448000,1.23444775390625,-2.8390841484069824,-6.280561447143555,10.53081226348877
1695713606828480500,1.24448046875,-2.671586513519287,-5.423332691192627,9.42473030090332
1695713606838490400,1.254490478515625,-2.527418851852417,-5.255835056304932,8.400003433227539
1695713606848520700,1.264520751953125,0.9966106414794922,-4.503890514373779,7.6630144119262695
1695713606858557700,1.2745576171875,-0.6125625967979431,-3.6807594299316406,6.69571590423584
1695713606868588800,1.2845888671875,-3.4277184009552,-1.8658034801483154,7.236494064331055
1695713606878638000,1.29463818359375,-2.3599212169647217,-0.4863412082195282,10.100104331970215
1695713606888670700,1.304670654296875,-1.1820544004440308,1.3806586265563965,10.89990520477295
1695713606898708500,1.31470849609375,-1.4500504732131958,2.462812662124634,10.713265419006348
1695713606908742000,1.324741943359375,-1.7473586797714233,3.5928232669830322,9.812965393066406
1695713606918762200,1.33476220703125,-2.82951283454895,4.680361270904541,9.242876052856445
1695713606928794000,1.344794189453125,-2.633301258087158,4.9292144775390625,10.358529090881348
1695713606938827000,1.354826904296875,-1.6947166919708252,4.579264163970947,11.93898868560791
1695713606948859100,1.364859130859375,-2.5800609588623047,4.272983074188232,10.966904640197754
1695713606958896400,1.374896484375,-3.504288673400879,3.8901314735412598,8.74038314819336
1695713606968929000,1.384928955078125,-1.9818553924560547,2.9515466690063477,5.795416355133057
1695713606978966300,1.39496630859375,0.8195417523384094,0.8733802437782288,5.3593244552612305
1695713606988999400,1.40499951171875,1.3028919696807861,0.14057832956314087,3.889533281326294
1695713606999027000,1.41502685546875,-0.31046873331069946,-1.6265212297439575,3.0370900630950928
1695713607009059300,1.425059326171875,-1.2634103298187256,-2.1194427013397217,2.520240545272827
1695713607019090000,1.43508984375,-1.3926228284835815,-2.593221426010132,2.0650060176849365
1695713607029122300,1.445122314453125,-3.7872400283813477,-1.5254244804382324,0.542572557926178
1695713607039151900,1.45515185546875,-2.1158533096313477,1.9555343389511108,-0.3194418251514435
1695713607049184000,1.46518408203125,1.7102699279785156,-1.8897316455841064,3.655036687850952
1695713607059216600,1.475216552734375,3.3332018852233887,-0.31405797600746155,4.267599105834961
1695713607069248800,1.485248779296875,2.8450660705566406,-1.0372886657714844,6.729215621948242
1695713607079293200,1.495293212890625,-1.1054840087890625,0.1501496136188507,4.9190449714660645
1695713607089326600,1.50532666015625,-5.26181697845459,0.14057832956314087,6.297909259796143
1695713607099352000,1.51535205078125,-1.0049854516983032,-2.833101987838745,10.425528526306152
1695713607109384400,1.525384521484375,4.794020175933838,-3.3164522647857666,12.21655559539795
1695713607119419000,1.5354189453125,6.2159552574157715,-5.107480049133301,13.336995124816895
1695713607129451500,1.545451416015625,5.8953166007995605,-6.922435760498047,12.680763244628906
1695713607139478800,1.555478759765625,4.832305431365967,-10.441679954528809,11.383255958557129
1695713607149511000,1.565510986328125,2.4951157569885254,-12.950553894042969,9.501300811767578
1695713607159544300,1.57554443359375,-0.7082754969596863,-16.369897842407227,10.052248001098633
1695713607169576700,1.58557666015625,-3.3032915592193604,-17.236698150634766,12.226127624511719
1695713607179596000,1.595595947265625,-4.308875560760498,-16.192829132080078,12.704691886901855
1695713607189627100,1.605627197265625,-5.410171985626221,-15.153745651245117,13.25563907623291
1695713607199649500,1.6156494140625,-5.424529075622559,-13.468002319335938,11.8528470993042
1695713607209679600,1.6256796875,-4.826323509216309,-11.882757186889648,10.679765701293945
1695713607219747600,1.63574755859375,-3.432504177093506,-10.556535720825195,10.119247436523438
1695713607229781500,1.645781494140625,-2.015354871749878,-10.068399429321289,9.553942680358887
1695713607239816000,1.65581591796875,-0.33918261528015137,-10.72403335571289,9.597013473510742
1695713607249849900,1.665849853515625,1.4321043491363525,-10.810174942016602,9.185447692871094
1695713607259874000,1.6758740234375,2.912065267562866,-10.733604431152344,8.299505233764648
1695713607269907200,1.6859072265625,4.367499351501465,-10.867602348327637,7.360920429229736
1695713607279917300,1.695917236328125,5.377869129180908,-10.149755477905273,5.900700569152832
1695713607289948000,1.705947998046875,4.367499351501465,-9.488738059997559,4.421338081359863
1695713607299974700,1.715974609375,1.4799607992172241,-8.444869041442871,3.4540395736694336
1695713607310004700,1.726004638671875,-0.5982056856155396,-7.70249605178833,3.7507495880126953
1695713607320052200,1.73605224609375,-0.38703906536102295,-7.668996810913086,4.986044406890869
1695713607330084000,1.746083984375,0.5659025311470032,-8.033304214477539,6.474977970123291
1695713607340134000,1.7561337890625,2.0309081077575684,-7.664210796356201,7.135995388031006
1695713607350167600,1.76616748046875,2.7014968395233154,-6.764509677886963,7.308278560638428
1695713607360190200,1.776190185546875,3.1896326541900635,-7.621140003204346,7.720442295074463
1695713607370222600,1.78622265625,3.610769271850586,-6.601199626922607,6.925426959991455
1695713607380260000,1.796260009765625,3.1752755641937256,-5.274977684020996,6.4941205978393555
1695713607390293200,1.806293212890625,2.7972097396850586,-5.883352756500244,7.23170804977417
1695713607400324000,1.816323974609375,2.9455647468566895,-5.351547718048096,8.036294937133789
1695713607410357000,1.82635693359375,2.4711875915527344,-5.064409255981445,9.094520568847656
1695713607420391400,1.836391357421875,0.9200403094291687,-4.786841869354248,10.133604049682617
1695713607430424600,1.846424560546875,0.9918249845504761,-4.508676052093506,11.292327880859375
1695713607440460300,1.856460205078125,0.8147560954093933,-4.556532382965088,11.962916374206543
1695713607450493400,1.866493408203125,-1.3256237506866455,-4.111467361450195,12.18784236907959
1695713607460473900,1.876473876953125,0.3643072545528412,-3.436093330383301,11.301899909973145
1695713607470502000,1.886501953125,4.089931964874268,-3.675973892211914,10.904690742492676
1695713607480557600,1.8965576171875,-0.01375873014330864,-3.005385160446167,10.363314628601074
1695713607490588200,1.906588134765625,-3.0065815448760986,-2.516651153564453,10.703694343566895
1695713607500650200,1.916650146484375,4.932804107666016,-3.091526746749878,13.068999290466309
1695713607510684000,1.926683837890625,-1.8095721006393433,-2.454437732696533,10.9573335647583
1695713607520714200,1.93671435546875,-9.389435768127441,-0.9559326171875,8.275577545166016
1695713607530747600,1.94674755859375,-7.430910587310791,-1.262213945388794,10.933404922485352
1695713607540782800,1.956782958984375,-2.259422779083252,-1.2957134246826172,12.80578899383545
1695713607550816500,1.96681640625,-0.23389841616153717,-1.7126628160476685,13.073784828186035
1695713607560846800,1.976846923828125,-1.277767300605774,-1.0133603811264038,10.923833847045898
1695713607570880300,1.98688037109375,-1.9627127647399902,-0.9511470198631287,9.879964828491211
1695713607580885000,1.996885009765625,-0.3774677813053131,-0.46719861030578613,10.631311416625977
1695713607590915600,2.00691552734375,0.029312077909708023,-0.534795880317688,11.153544425964355
1695713607600970200,2.01697021484375,-1.9004993438720703,0.1453639715909958,8.764310836791992
1695713607611003100,2.027003173828125,-3.79681134223938,-0.2566302418708801,4.904688358306885
1695713607621046800,2.037046875,-3.0975089073181152,-1.3770694732666016,4.598406791687012
1695713607631081000,2.0470810546875,4.204787731170654,-2.9479575157165527,4.780261516571045
1695713607641106400,2.0571064453125,-0.243469700217247,-4.930410861968994,2.8456642627716064
1695713607651139600,2.0671396484375,-1.0480563640594482,-3.723830223083496,3.5306098461151123
1695713607661119000,2.077118896484375,-0.8327022790908813,-4.46560525894165,3.999603033065796
1695713607671146800,2.087146728515625,-0.4731806814670563,-4.657031059265137,5.594419479370117
1695713607681239000,2.097239013671875,-0.44446679949760437,-3.690330743789673,6.034698486328125
1695713607691273200,2.107273193359375,-0.023330021649599075,-4.77248477935791,5.4071807861328125
1695713607701299000,2.117298828125,-0.14297115802764893,-3.4743785858154297,5.143970489501953
1695713607711332400,2.127332275390625,-0.11425728350877762,-1.7078771591186523,5.522634506225586
1695713607721363500,2.137363525390625,0.32123643159866333,-3.603590965270996,8.218149185180664
1695713607731396600,2.147396728515625,1.058824062347412,-3.8386857509613037,9.247661590576172
1695713607741436700,2.157436767578125,0.5419743061065674,-4.135395526885986,8.974879264831543
1695713607751470600,2.167470703125,-0.8135597109794617,-4.034897327423096,8.989236831665039
1695713607761496300,2.177496337890625,-1.062413215637207,-4.983053207397461,9.2859468460083
1695713607771529500,2.187529541015625,-0.5886343717575073,-5.332405090332031,9.008378982543945
1695713607781566000,2.19756591796875,-1.521835207939148,-4.734199523925781,7.198208808898926
1695713607791599400,2.207599365234375,-1.5696916580200195,-5.255835056304932,7.088139057159424
1695713607801619500,2.217619384765625,-1.9435701370239258,-6.601199626922607,8.02193832397461
1695713607811651600,2.227651611328125,-1.7425731420516968,-5.193621635437012,7.461419105529785
1695713607821686800,2.237686767578125,-1.689931035041809,-3.8434712886810303,8.342576026916504
1695713607831719200,2.24771923828125,-1.2729816436767578,-4.106681823730469,8.749954223632812
1695713607841750500,2.25775048828125,-2.2737796306610107,-3.3786656856536865,7.5188469886779785
1695713607851782700,2.26778271484375,-1.594218134880066,-2.5405795574188232,6.973283290863037
1695713607861793000,2.27779296875,-0.052043892443180084,-4.149752616882324,8.783453941345215
1695713607871823000,2.287822998046875,0.388235479593277,-5.126622676849365,10.468599319458008
1695713607881882400,2.29788232421875,-0.4301098585128784,-4.661816596984863,11.182258605957031
1695713607891915300,2.307915283203125,-0.6939185857772827,-4.968696117401123,11.048260688781738
1695713607901945000,2.317945068359375,-0.9810572862625122,-5.638686656951904,10.444670677185059
1695713607911977700,2.327977783203125,-1.1102696657180786,-5.629115104675293,9.209376335144043
1695713607922012000,2.338011962890625,-1.5074782371520996,-6.314060688018799,8.68774127960205
1695713607932044500,2.34804443359375,-1.800000786781311,-6.27577543258667,8.01236629486084
1695713607942072600,2.358072509765625,-1.4979069232940674,-5.773283004760742,8.117650985717773
1695713607952105000,2.36810498046875,-0.9236295223236084,-6.6969122886657715,8.380861282348633
1695713607962136300,2.37813623046875,-1.3830515146255493,-7.80837869644165,9.985248565673828
1695713607972168400,2.38816845703125,-0.7226324677467346,-8.004590034484863,11.043475151062012
1695713607982206700,2.398206787109375,-0.8279166221618652,-7.611568927764893,11.139187812805176
1695713607992239400,2.4082392578125,0.43130627274513245,-6.2327046394348145,10.559526443481445
1695713608002264000,2.41826416015625,0.8291130661964417,-3.7334015369415283,9.477372169494629
1695713608012296200,2.428296142578125,0.0771685317158699,-2.507079839706421,7.734799385070801
1695713608022333400,2.43833349609375,-1.594218134880066,-3.1489546298980713,6.853642463684082
1695713608032365800,2.44836572265625,-1.0241280794143677,-3.7190446853637695,6.398407936096191
1695713608042407400,2.458407470703125,0.8434699773788452,-3.5748770236968994,6.32662296295166
1695713608052440800,2.46844091796875,2.1505494117736816,-3.397808074951172,7.140780925750732
1695713608062452000,2.478451904296875,2.3946173191070557,-3.517449378967285,7.677371501922607
1695713608072483000,2.488483154296875,2.050050735473633,-3.0484559535980225,8.117650985717773
1695713608082547200,2.498547119140625,1.5230315923690796,-3.4552359580993652,7.562515735626221
1695713608092582000,2.508581787109375,0.1010967567563057,-4.599603176116943,6.226124286651611
1695713608102590700,2.5185908203125,0.20159530639648438,-5.9647088050842285,4.584050178527832
1695713608112622800,2.528622802734375,-0.5306084156036377,-7.056434154510498,3.693321704864502
1695713608122650000,2.538650146484375,-1.2011969089508057,-8.377870559692383,3.3918261528015137
1695713608132681700,2.548681640625,-0.794417142868042,-10.082756042480469,3.999603033065796
1695713608142719200,2.55871923828125,0.014955141581594944,-10.72403335571289,4.521836757659912
1695713608152751000,2.568751220703125,-0.18125630915164948,-11.13619613647461,5.737988471984863
1695713608162767400,2.578767333984375,-1.948355793952942,-10.65224838256836,6.906284332275391
1695713608172798000,2.5887978515625,-2.748156785964966,-9.66102123260498,7.289135932922363
1695713608182830300,2.598830322265625,-2.000998020172119,-8.598010063171387,7.064210414886475
1695713608192861000,2.60886083984375,-1.3878371715545654,-8.042875289916992,6.958926677703857
1695713608202913300,2.618913330078125,-0.46839502453804016,-7.8658061027526855,7.327421188354492
1695713608212946000,2.62894580078125,1.3746765851974487,1.7353945970535278,5.536991596221924
1695713608222979800,2.638979736328125,0.5659025311470032,-0.5395814776420593,4.569693088531494
1695713608233012700,2.6490126953125,-0.5599204897880554,-2.454437732696533,5.527420520782471
1695713608243041800,2.659041748046875,-0.09511470049619675,-0.8219345808029175,4.981258392333984
1695713608253074200,2.66907421875,-0.46839502453804016,-1.583450436592102,4.703691005706787
1695713608263114000,2.679114013671875,-1.0815558433532715,-2.468794822692871,4.679762840270996
1695713608273147100,2.689147216796875,-1.129412293434143,-3.776472330093384,5.053043365478516
1695713608283167000,2.6991669921875,-1.3256237506866455,-5.236692428588867,5.2971110343933105
1695713608293198800,2.70919873046875,-1.5361921787261963,-6.936792850494385,5.647061347961426
1695713608303246300,2.719246337890625,-1.3351950645446777,-7.357929706573486,5.368896007537842
1695713608313279700,2.72927978515625,-0.5359922647476196,-7.008577346801758,2.9892337322235107
1695713608323310000,2.73931005859375,1.3124631643295288,-9.694520950317383,0.7722834944725037
1695713608333343000,2.749343017578125,2.6775684356689453,-9.000602722167969,-0.12801600992679596
1695713608343358000,2.75935791015625,1.662413477897644,-9.148957252502441,-0.4582255482673645
1695713608353389300,2.769389404296875,-0.004187439568340778,-11.050054550170898,-0.5682953596115112
1695713608363446800,2.77944677734375,0.46480581164360046,-11.911471366882324,-0.14715859293937683
1695713608373480700,2.789480712890625,2.207977056503296,-16.46561050415039,5.397609710693359
1695713608383480300,2.799480224609375,3.601198196411133,-20.056638717651367,7.413562774658203
1695713608393510700,2.8095107421875,4.027718544006348,-17.83011817932129,6.465406894683838
1695713608403555300,2.819555419921875,3.218346357345581,-14.48315715789795,4.512265205383301
1695713608413587200,2.829587158203125,1.5858432054519653,-12.309277534484863,1.6773686408996582
1695713608423610000,2.839610107421875,-0.008973085321485996,-12.290135383605957,-1.8951154947280884
1695713608433641000,2.849640869140625,-1.306481122970581,-11.34676456451416,-3.47019100189209
1695713608443710700,2.859710693359375,-1.28255295753479,-9.881759643554688,-3.762115478515625
1695713608453745400,2.869745361328125,-0.5647061467170715,-7.779066562652588,-1.784447431564331
1695713608463747300,2.879747314453125,0.8147560954093933,-5.983851432800293,-0.8033902049064636
1695713608473778700,2.88977880859375,1.4943177700042725,-5.193621635437012,-1.9142581224441528
1695713608483808000,2.89980810546875,1.7724833488464355,-5.174479007720947,-3.139981508255005
1695713608493839400,2.90983935546875,1.662413477897644,-9.460023880004883,-4.691128730773926
1695713608503894000,2.91989404296875,0.6664010882377625,-15.38345718383789,-7.358527660369873
1695713608513927700,2.929927734375,1.6959130764007568,-17.76790428161621,-10.944770812988281
1695713608523967000,2.939967041015625,1.2263215780258179,-12.270992279052734,-15.239887237548828
1695713608534001200,2.950001220703125,0.010169495828449726,-9.589237213134766,-11.778071403503418
1695713608544025300,2.960025390625,-1.373480200767517,-8.440083503723145,-5.189434051513672
1695713608554058500,2.97005859375,-1.277767300605774,-8.263014793395996,-2.9868409633636475
1695713608564066000,2.980066162109375,-0.4588237404823303,-8.339585304260254,-2.958127021789551
1695713608574096600,2.9900966796875,0.2925225794315338,-8.669795036315918,-2.5986053943634033
1695713608584130600,3.000130615234375,0.40259242057800293,-9.29731273651123,-2.297109842300415
1695713608594161400,3.010161376953125,-0.018544375896453857,-9.852447509765625,-2.0338993072509766
1695713608604221200,3.02022119140625,-0.24825534224510193,-9.780662536621094,-2.0099709033966064
1695713608614254800,3.0302548828125,-0.15254244208335876,-9.000602722167969,-1.0857433080673218
1695713608624289300,3.040289306640625,-0.8087740540504456,-9.321240425109863,-2.100898265838623
1695713608634323200,3.0503232421875,-0.5551348328590393,-9.215956687927246,-2.4023938179016113
1695713608644350200,3.06035009765625,-0.25782662630081177,-9.259027481079102,-2.8624141216278076
1695713608654383400,3.07038330078125,0.1010967567563057,-9.196813583374023,-3.336193084716797
1695713608664422400,3.08042236328125,-0.10468599200248718,-9.57487964630127,-3.087339401245117
1695713608674456000,3.0904560546875,-0.7800601720809937,-9.503094673156738,-1.9716858863830566
1695713608684482300,3.100482421875,-1.0241280794143677,-9.019744873046875,-1.7413766384124756
1695713608694515500,3.110515380859375,-1.3495519161224365,-8.885746955871582,-1.3298112154006958
1695713608704550100,3.120550048828125,-0.9954141974449158,-8.7176513671875,-1.8951154947280884
1695713608714583300,3.130583251953125,1.1114661693572998,-8.569295883178711,-3.029911756515503
1695713608724610600,3.140610595703125,1.6002001762390137,-9.177671432495117,-4.222135543823242
1695713608734643000,3.150642822265625,0.005383851006627083,-10.039685249328613,-4.514060020446777
1695713608744673800,3.160673828125,-1.9052850008010864,-10.125826835632324,-3.690330743789673
1695713608754706200,3.1707060546875,-2.565704107284546,-9.78544807434082,-3.36969256401062
1695713608764714500,3.180714599609375,-2.6087749004364014,-9.302098274230957,-3.762115478515625
1695713608774744300,3.190744384765625,-2.724228620529175,-9.10110092163086,-4.054637908935547
1695713608784806000,3.200805908203125,-2.7146573066711426,-8.885746955871582,-4.164707660675049
1695713608794839000,3.210839111328125,-2.3407788276672363,-8.703293800354004,-3.714258909225464
1695713608804872200,3.2208720703125,-1.6995022296905518,-8.842676162719727,-3.527618885040283
1695713608814905300,3.2309052734375,-1.0289137363433838,-8.943174362182617,-3.40797758102417
1695713608824937000,3.24093701171875,-0.7848458290100098,-9.024530410766602,-3.40797758102417
1695713608834970000,3.25097021484375,-0.8805587291717529,-9.388239860534668,-3.1686954498291016
1695713608844997400,3.260997314453125,-1.196411371231079,-10.207182884216309,-2.770888566970825
1695713608855029500,3.271029541015625,-1.5553346872329712,-10.65224838256836,-2.478964328765869
1695713608865038800,3.281038818359375,-1.5170495510101318,-10.436894416809082,-2.321038007736206
1695713608875069000,3.29106884765625,-1.2681959867477417,-9.732806205749512,-1.9621145725250244
1695713608885132000,3.301132080078125,-1.0959128141403198,-9.125029563903809,-2.100898265838623
1695713608895165400,3.31116552734375,-0.8709874153137207,-9.10110092163086,-2.1774685382843018
1695713608905193200,3.321193115234375,-0.6317051649093628,-9.378668785095215,-2.4119651317596436
1695713608915226000,3.33122607421875,-0.33918261528015137,-9.570094108581543,-2.3401806354522705
1695713608925255700,3.341255615234375,-0.4253242313861847,-9.493523597717285,-2.392822742462158
1695713608935288000,3.3512880859375,-0.8662018179893494,-9.555737495422363,-2.6943182945251465
1695713608945323800,3.36132373046875,-0.8805587291717529,-9.373882293701172,-2.9006991386413574
1695713608955356400,3.3713564453125,-0.7322037220001221,-9.096315383911133,-2.953341245651245
1695713608965361400,3.381361328125,-0.8470591902732849,-9.024530410766602,-3.5467612743377686
1695713608975391500,3.3913916015625,-0.9284151792526245,-8.85224723815918,-3.417548894882202
1695713608985455900,3.401455810546875,-1.0336993932724,-8.770293235778809,-3.393620729446411
1695713608995630000,3.411630126953125,-1.0289137363433838,-8.655437469482422,-3.2931220531463623
1695713609005663500,3.42166357421875,-0.7513462901115417,-8.526225090026855,-3.2069804668426514
1695713609015698400,3.431698486328125,-0.5066801905632019,-8.511868476867676,-3.149552822113037
1695713609025742800,3.441742919921875,-0.47796630859375,-8.698508262634277,-3.235694408416748
1695713609035776300,3.4517763671875,-0.511465847492218,-8.952746391296387,-3.101696252822876
1695713609045786600,3.46178662109375,-0.44446679949760437,-9.014959335327148,-2.929413080215454
1695713609055824600,3.47182470703125,-0.5359922647476196,-9.019744873046875,-3.0490541458129883
1695713609065858000,3.481858154296875,-0.5359922647476196,-9.07717227935791,-3.1208388805389404
1695713609075886800,3.491886962890625,-0.5742774605751038,-9.196813583374023,-3.0969107151031494
1695713609085902600,3.501902587890625,-0.6221339106559753,-9.263813018798828,-3.077768087387085
1695713609095936300,3.511936279296875,-0.5934200286865234,-9.383454322814941,-2.9964120388031006
1695713609105968600,3.52196875,-0.5742774605751038,-9.402596473693848,-2.9485557079315186
1695713609115999200,3.531999267578125,-0.7082754969596863,-9.43609619140625,-2.9868409633636475
1695713609126018800,3.542018798828125,-0.6652047038078308,-9.287740707397461,-2.7804598808288574
1695713609136038100,3.5520380859375,-0.7561319470405579,-9.029315948486328,-2.5986053943634033
1695713609146057500,3.562057373046875,-0.9523434042930603,-9.163313865661621,-2.612962245941162
1695713609156077000,3.5720771484375,-0.9092726111412048,-9.316454887390137,-2.6081767082214355
1695713609166096400,3.582096435546875,-0.8374879360198975,-9.268598556518555,-2.5986053943634033
1695713609176115700,3.59211572265625,-0.8087740540504456,-9.177671432495117,-2.7661030292510986
1695713609186135000,3.602135009765625,-0.7130611538887024,-9.134600639343262,-2.905484914779663
1695713609196154600,3.612154541015625,-0.641276478767395,-9.168100357055664,-2.9246275424957275
1695713609206174000,3.622174072265625,-0.727418065071106,-9.235098838806152,-2.847458839416504
1695713609216193300,3.632193359375,-0.7704889178276062,-9.292527198791504,-2.847458839416504
1695713609226224400,3.642224365234375,-0.7417750358581543,-9.407382011413574,-2.6368906497955322
1695713609236257300,3.65225732421875,-0.794417142868042,-9.507881164550781,-2.4598217010498047
1695713609246290200,3.662290283203125,-0.6652047038078308,-9.498309135437012,-2.421536445617676
1695713609256323000,3.672322998046875,-0.511465847492218,-9.4121675491333,-2.737389087677002
1695713609266355700,3.682355712890625,-0.27696922421455383,-9.388239860534668,-3.3074791431427
1695713609276388600,3.692388671875,-0.17647066712379456,-8.909674644470215,-3.3744781017303467
1695713609286421500,3.70242138671875,-0.3535395562648773,-9.139386177062988,-3.5371899604797363
1695713609296454400,3.712454345703125,-0.5742774605751038,-8.904889106750488,-3.063411235809326
1695713609306487000,3.722487060546875,-0.9332008361816406,-9.07717227935791,-2.9389843940734863
1695713609316520000,3.73252001953125,-0.9858429431915283,-9.32602596282959,-2.761317253112793
1695713609326552800,3.742552734375,-0.9427721500396729,-9.42173957824707,-2.6321048736572266
1695713609336584200,3.752584228515625,-0.8039883971214294,-9.445667266845703,-2.641676187515259
1695713609346616600,3.762616455078125,-0.5647061467170715,-9.440881729125977,-2.770888566970825
1695713609356649000,3.77264892578125,-0.32961133122444153,-9.302098274230957,-2.7517459392547607
1695713609366681000,3.78268115234375,-0.1094716340303421,-9.125029563903809,-2.9102704524993896
1695713609376713700,3.792713623046875,0.005383851006627083,-9.125029563903809,-3.2691938877105713
1695713609386745900,3.802745849609375,-0.1860419660806656,-9.2255277633667,-3.441477060317993
1695713609396778200,3.8127783203125,-0.5742774605751038,-9.369096755981445,-3.3122646808624268
1695713609406810600,3.822810546875,-0.914058268070221,-9.378668785095215,-3.1351959705352783
1695713609416843000,3.832843017578125,-1.129412293434143,-9.29731273651123,-2.982055187225342
1695713609426875400,3.84287548828125,-1.2299108505249023,-9.292527198791504,-2.7804598808288574
1695713609436907800,3.85290771484375,-1.210768222808838,-9.278169631958008,-2.56510591506958
1695713609446939100,3.862939208984375,-1.1581261157989502,-9.316454887390137,-2.469393014907837
1695713609456971000,3.872970947265625,-1.0289137363433838,-9.402596473693848,-2.2540390491485596
1695713609467003000,3.8830029296875,-0.8279166221618652,-9.550951957702637,-2.1822543144226074
1695713609477034800,3.89303466796875,-0.5599204897880554,-9.728020668029785,-2.335394859313965
1695713609487066600,3.903066650390625,-0.4827519655227661,-9.656235694885254,-2.56510591506958
1695713609497098500,3.913098388671875,-0.6364908218383789,-9.732806205749512,-2.7038896083831787
1695713609507130400,3.92313037109375,-0.7465606927871704,-9.278169631958008,-2.699103832244873
1695713609517162200,3.933162353515625,-0.7561319470405579,-9.273384094238281,-2.809173822402954
1695713609527194000,3.943194091796875,-0.8374879360198975,-8.900103569030762,-2.4741785526275635
1695713609537226000,3.95322607421875,-0.9188438653945923,-8.842676162719727,-2.7038896083831787
1695713609547257900,3.9632578125,-0.9044869542121887,-9.005388259887695,-2.895913600921631
1695713609557289200,3.973289306640625,-0.7992027401924133,-9.598808288574219,-2.8624141216278076
1695713609567320300,3.9833203125,-0.9571290612220764,-9.680164337158203,-3.0011978149414062
1695713609577351400,3.993351318359375,-0.8614161610603333,-9.77109146118164,-3.3553354740142822
1695713609587382500,4.003382568359375,-0.8327022790908813,-8.909674644470215,-2.857030153274536
1695713609597413400,4.013413330078125,-1.1150553226470947,-8.291728973388672,-2.6560330390930176
1695713609607444500,4.023444580078125,-1.0049854516983032,-8.813364028930664,-3.3744781017303467
1695713609617475600,4.0334755859375,-0.6269195079803467,-9.483952522277832,-3.3266217708587646
1695713609627506700,4.043506591796875,-0.7322037220001221,-9.220742225646973,-3.283550977706909
1695713609637537800,4.053537841796875,-1.1150553226470947,-8.69372272491455,-3.0681967735290527
1695713609647569000,4.06356884765625,-1.0480563640594482,-9.263813018798828,-3.8865420818328857
1695713609657600000,4.07360009765625,-0.5407779216766357,-9.641879081726074,-3.5946178436279297
1695713609667631900,4.0836318359375,-0.8039883971214294,-8.827720642089844,-2.7278177738189697
1695713609677666300,4.093666259765625,-1.0959128141403198,-8.890532493591309,-2.9389843940734863
1695713609687700500,4.103700439453125,-0.9332008361816406,-9.369096755981445,-2.9389843940734863
1695713609697735000,4.11373486328125,-0.641276478767395,-10.173684120178223,-3.628117322921753
1695713609707769000,4.12376904296875,-0.8135597109794617,-10.130613327026367,-3.7573297023773193
1695713609717803300,4.13380322265625,-1.0289137363433838,-9.53659439086914,-3.029911756515503
1695713609727837700,4.143837646484375,-1.0193424224853516,-9.148957252502441,-2.6225335597991943
1695713609737872000,4.153871826171875,-1.2203395366668701,-8.674580574035645,-2.0673987865448
1695713609747906300,4.16390625,-1.2586246728897095,-8.392227172851562,-1.44945228099823
1695713609757940500,4.1739404296875,-1.2299108505249023,-8.588438987731934,-1.8424733877182007
1695713609767974700,4.183974609375,-1.062413215637207,-9.21117115020752,-2.2444677352905273
1695713609778006800,4.1940068359375,-1.1150553226470947,-9.723235130310059,-2.641676187515259
1695713609788039400,4.204039306640625,-1.153340458869934,-9.718449592590332,-2.905484914779663
1695713609798072300,4.214072265625,-1.1868400573730469,-9.512666702270508,-2.713460922241211
1695713609808105200,4.224105224609375,-1.153340458869934,-9.105886459350586,-2.56510591506958
1695713609818137900,4.234137939453125,-1.1724830865859985,-8.837292671203613,-2.2157537937164307
1695713609828170800,4.244170654296875,-1.191625714302063,-8.583653450012207,-2.2923240661621094
1695713609838203400,4.254203369140625,-1.306481122970581,-8.69372272491455,-2.6368906497955322
1695713609848236300,4.264236328125,-1.3591232299804688,-9.31166934967041,-3.40797758102417
1695713609858269000,4.27426904296875,-1.3782658576965332,-9.393025398254395,-3.8865420818328857
1695713609868301800,4.2843017578125,-1.3591232299804688,-8.583653450012207,-3.4989049434661865
1695713609878333400,4.29433349609375,-1.3351950645446777,-8.416155815124512,-3.077768087387085
1695713609888362800,4.30436279296875,-1.3926228284835815,-8.803792953491211,-2.9629125595092773
1695713609898392600,4.314392578125,-1.4691931009292603,-9.038887977600098,-3.039483070373535
1695713609908422000,4.324421875,-1.4739787578582764,-9.105886459350586,-3.2452657222747803
1695713609918451500,4.334451416015625,-1.5361921787261963,-9.029315948486328,-3.3792638778686523
1695713609928481000,4.34448095703125,-1.5696916580200195,-9.268598556518555,-3.139981508255005
1695713609938510600,4.354510498046875,-1.5601203441619873,-9.637093544006348,-2.775674343109131
1695713609948540200,4.3645400390625,-1.2921242713928223,-9.694520950317383,-2.4358935356140137
1695713609958569700,4.37456982421875,-0.9906286001205444,-9.680164337158203,-2.225325107574463
1695713609968599300,4.384599365234375,-0.7513462901115417,-9.651450157165527,-2.091326951980591
1695713609978628900,4.39462890625,-0.5599204897880554,-9.570094108581543,-2.172683000564575
1695713609988660700,4.40466064453125,-0.4253242313861847,-9.378668785095215,-2.359323024749756
1695713609998694700,4.414694580078125,-0.4061816334724426,-9.230313301086426,-2.5076780319213867
1695713610008728600,4.424728515625,-0.4875376224517822,-9.17288589477539,-2.6464617252349854
1695713610018762500,4.434762451171875,-0.5162515044212341,-9.134600639343262,-2.713460922241211
1695713610028796400,4.44479638671875,-0.33918261528015137,-9.153742790222168,-2.713460922241211
1695713610038830300,4.454830322265625,-0.14297115802764893,-9.182456970214844,-2.723032236099243
1695713610048864300,4.4648642578125,-0.018544375896453857,-9.244669914245605,-2.7517459392547607
1695713610058898200,4.474898193359375,-0.01375873014330864,-9.306883811950684,-2.6799614429473877
1695713610068932000,4.48493212890625,-0.052043892443180084,-9.321240425109863,-2.493321180343628
1695713610078966000,4.494966064453125,-0.047258246690034866,-9.383454322814941,-2.2923240661621094
1695713610089000000,4.505,0.11066804826259613,-9.383454322814941,-2.2061824798583984
1695713610099032600,4.515032470703125,0.38344982266426086,-9.364311218261719,-2.1774685382843018
1695713610109067300,4.5250673828125,0.5850451588630676,-9.469595909118652,-2.2157537937164307
1695713610119102000,4.53510205078125,0.6807580590248108,-9.531808853149414,-2.3258235454559326
1695713610129136600,4.54513671875,0.7908278703689575,-9.469595909118652,-2.3401806354522705
1695713610139171600,4.555171630859375,0.8530412912368774,-9.550951957702637,-2.3018953800201416
1695713610149206300,4.565206298828125,1.1210373640060425,-9.527023315429688,-2.2923240661621094
1695713610159241000,4.575240966796875,1.29810631275177,-9.53659439086914,-2.2636101245880127
1695713610169276000,4.58527587890625,1.2885349988937378,-9.603593826293945,-2.2683959007263184
1695713610179310600,4.595310546875,1.3076776266098022,-9.613164901733398,-2.297109842300415
1695713610189345300,4.60534521484375,1.2789636850357056,-9.608379364013672,-2.3545374870300293
1695713610199380000,4.6153798828125,1.2167502641677856,-9.589237213134766,-2.3497519493103027
1695713610209412600,4.62541259765625,1.1593226194381714,-9.550951957702637,-2.4023938179016113
1695713610219445800,4.63544580078125,1.1210373640060425,-9.4121675491333,-2.493321180343628
1695713610229479000,4.64547900390625,0.8482556343078613,-9.440881729125977,-2.7086751461029053
1695713610239512000,4.655511962890625,0.5802595019340515,-9.2255277633667,-2.867199659347534
1695713610249545200,4.665545166015625,0.16331014037132263,-9.17288589477539,-2.991626501083374
1695713610259578400,4.675578369140625,-0.09511470049619675,-9.120243072509766,-3.063411235809326
1695713610269611500,4.685611572265625,-0.11425728350877762,-9.120243072509766,-3.0011978149414062
1695713610279644700,4.695644775390625,-0.047258246690034866,-9.330811500549316,-2.8522446155548096
1695713610289677800,4.705677734375,0.2063809484243393,-9.416953086853027,-2.641676187515259
1695713610299710700,4.715710693359375,0.43609192967414856,-9.589237213134766,-2.383251428604126
1695713610309743900,4.725743896484375,0.5180460810661316,-9.689735412597656,-2.1200408935546875
1695713610319776500,4.735776611328125,0.5946164131164551,-9.69930648803711,-1.8376877307891846
1695713610329809700,4.7458095703125,0.5659025311470032,-9.680164337158203,-1.5451651811599731
1695713610339842600,4.755842529296875,0.43609192967414856,-9.675378799438477,-1.334596872329712
1695713610349875500,4.76587548828125,0.43130627274513245,-9.704092025756836,-1.1958130598068237
1695713610359908400,4.775908447265625,0.5659025311470032,-9.713663101196289,-1.033101201057434
1695713610369941200,4.785941162109375,0.7286145091056824,-9.622735977172852,-0.966102123260498
1695713610379974400,4.795974365234375,0.833898663520813,-9.498309135437012,-1.0426725149154663
1695713610390007300,4.80600732421875,0.9631111025810242,-9.445667266845703,-1.277169108390808
1695713610400040200,4.816040283203125,1.0013962984085083,-9.498309135437012,-1.5308083295822144
1695713610410073000,4.826072998046875,0.9822536706924438,-9.689735412597656,-1.688734531402588
1695713610420106000,4.83610595703125,1.0205388069152832,-9.90568733215332,-1.8083757162094116
1695713610430138600,4.846138671875,1.1258230209350586,-10.020543098449707,-1.9860427379608154
1695713610440170800,4.856170654296875,1.2741780281066895,-10.001399993896484,-2.273181438446045
1695713610450202600,4.86620263671875,1.293320655822754,-9.82373332977295,-2.612962245941162
1695713610460234800,4.87623486328125,1.1018948554992676,-9.622735977172852,-2.823530673980713
1695713610470267000,4.886266845703125,0.9296116232872009,-9.531808853149414,-2.867199659347534
1695713610480299000,4.896299072265625,0.8865407705307007,-9.555737495422363,-2.823530673980713
1695713610490331100,4.9063310546875,0.98703932762146,-9.57487964630127,-2.7038896083831787
1695713610500363300,4.91636328125,1.1066805124282837,-9.479166984558105,-2.5698914527893066
1695713610510395400,4.9263955078125,1.211964726448059,-9.31166934967041,-2.416750907897949
1695713610520427500,4.936427490234375,1.3268201351165771,-9.21117115020752,-2.2683959007263184
1695713610530459400,4.94645947265625,1.3363914489746094,-9.206384658813477,-2.196611166000366
1695713610540492000,4.956491943359375,1.2646067142486572,-9.220742225646973,-2.287538528442383
1695713610550525000,4.96652490234375,1.1066805124282837,-9.239884376525879,-2.4598217010498047
1695713610560557800,4.976557861328125,0.9391828775405884,-9.259027481079102,-2.6225335597991943
1695713610570590700,4.9865908203125,0.8147560954093933,-9.235098838806152,-2.737389087677002
1695713610580623600,4.99662353515625,0.7812566161155701,-9.158528327941895,-2.809173822402954
1695713610590656500,5.006656494140625,0.8913264274597168,-9.10110092163086,-2.8426733016967773
1695713610600689400,5.016689453125,0.9918249845504761,-9.129815101623535,-2.8911280632019043
1695713610610722300,5.026722412109375,1.0636097192764282,-9.259027481079102,-3.125624656677246
1695713610620755200,5.036755126953125,1.0157532691955566,-9.18724250793457,-3.2309088706970215
1695713610630788000,5.0467880859375,1.0636097192764282,-9.192028045654297,-3.2691938877105713
1695713610640821000,5.056821044921875,1.0157532691955566,-9.278169631958008,-3.197409152984619
1695713610650853400,5.066853271484375,0.8865407705307007,-9.168100357055664,-3.5371899604797363
1695713610660885200,5.07688525390625,1.1162517070770264,-9.034101486206055,-3.446262836456299
1695713610670917000,5.086917236328125,1.4368900060653687,-9.69930648803711,-2.7661030292510986
1695713610680949000,5.096948974609375,1.2885349988937378,-10.317253112792969,-1.4398809671401978
1695713610690981000,5.106981201171875,0.776470959186554,-9.680164337158203,-1.44945228099823
1695713610701013000,5.117012939453125,0.34995031356811523,-9.517452239990234,-2.407179594039917
1695713610711044900,5.127044921875,0.8051848411560059,-9.091529846191406,-1.9621145725250244
1695713610721076700,5.13707666015625,1.2263215780258179,-9.29731273651123,-2.9150562286376953
1695713610731108600,5.147108642578125,1.6289139986038208,-9.469595909118652,-3.250051259994507
1695713610741140500,5.157140380859375,1.5619150400161743,-9.598808288574219,-3.8051862716674805
1695713610751172400,5.16717236328125,1.4033905267715454,-9.431310653686523,-3.3074791431427
1695713610761204500,5.17720458984375,1.077966570854187,-8.564510345458984,-3.1208388805389404
1695713610771235300,5.1872353515625,1.0827522277832031,-8.751151084899902,-3.2404799461364746
1695713610781266200,5.19726611328125,1.2502498626708984,-8.914461135864258,-3.8051862716674805
1695713610791297000,5.207297119140625,1.3698909282684326,-9.08674430847168,-3.6472599506378174
1695713610801327900,5.217327880859375,1.4943177700042725,-9.670592308044434,-4.097708702087402
1695713610811359000,5.22735888671875,1.451246976852417,-9.316454887390137,-3.5371899604797363
1695713610821389800,5.237389892578125,1.2263215780258179,-8.97667407989502,-3.2548370361328125
1695713610831420700,5.247420654296875,0.9822536706924438,-8.35872745513916,-2.651247501373291
1695713610841451500,5.257451416015625,0.833898663520813,-8.186444282531738,-2.68953275680542
1695713610851482400,5.267482421875,1.0348957777023315,-9.17288589477539,-3.360121250152588
1695713610861513200,5.27751318359375,1.3698909282684326,-9.69930648803711,-2.7326035499572754
1695713610871545600,5.287545654296875,1.0875378847122192,-9.29731273651123,-2.5698914527893066
1695713610881578200,5.297578125,1.144965648651123,-10.077970504760742,-3.384049415588379
1695713610891611000,5.30761083984375,1.2167502641677856,-9.316454887390137,-2.7086751461029053
1695713610901643500,5.3176435546875,0.7812566161155701,-8.277371406555176,-2.2444677352905273
1695713610911676200,5.32767626953125,0.623330295085907,-8.81814956665039,-3.259622573852539
1695713610921708800,5.337708740234375,0.9056833982467651,-9.158528327941895,-3.2452657222747803
1695713610931741700,5.34774169921875,1.0875378847122192,-9.383454322814941,-3.2165517807006836
1695713610941774300,5.3577744140625,1.0013962984085083,-9.57487964630127,-3.1686954498291016
1695713610951807000,5.367806884765625,0.9822536706924438,-9.579665184020996,-3.178266763687134
1695713610961839600,5.377839599609375,0.9487541913986206,-9.278169631958008,-3.4510483741760254
1695713610971872300,5.387872314453125,0.8291130661964417,-8.971888542175293,-3.604189157485962
1695713610981905200,5.3979052734375,0.6807580590248108,-8.97667407989502,-3.551547050476074
1695713610991940900,5.40794091796875,0.537188708782196,-8.97667407989502,-3.393620729446411
1695713611001976300,5.417976318359375,0.40737804770469666,-9.08674430847168,-3.1064820289611816
1695713611012012000,5.428011962890625,0.3930211067199707,-9.302098274230957,-2.867199659347534
1695713611022047500,5.438047607421875,0.4504488706588745,-9.345169067382812,-2.7326035499572754
1695713611032083200,5.448083251953125,0.46002015471458435,-9.527023315429688,-2.6464617252349854
1695713611042119000,5.458118896484375,0.5078766345977783,-9.57487964630127,-2.555534601211548
1695713611052154400,5.468154296875,0.49351966381073,-9.627521514892578,-2.612962245941162
1695713611062190000,5.478190185546875,0.4456632137298584,-9.66102123260498,-2.699103832244873
1695713611072225500,5.4882255859375,0.3643072545528412,-9.570094108581543,-2.7900311946868896
1695713611082258200,5.498258056640625,0.1824527233839035,-9.330811500549316,-2.8624141216278076
1695713611092289300,5.508289306640625,-0.023330021649599075,-9.196813583374023,-2.9150562286376953
1695713611102320400,5.5183203125,-0.23389841616153717,-9.177671432495117,-2.9724838733673096
1695713611112351700,5.528351806640625,-0.4540380835533142,-9.259027481079102,-3.0490541458129883
1695713611122382800,5.5383828125,-0.6891329288482666,-9.445667266845703,-3.163909673690796
1695713611132414000,5.5484140625,-0.9762716293334961,-9.507881164550781,-3.1304101943969727
1695713611142445000,5.558445068359375,-1.2681959867477417,-9.483952522277832,-3.039483070373535
1695713611152476200,5.56847607421875,-1.4452649354934692,-9.527023315429688,-2.929413080215454
1695713611162507300,5.57850732421875,-1.4691931009292603,-9.632308006286621,-2.7517459392547607
1695713611172538400,5.588538330078125,-1.5894324779510498,-9.780662536621094,-2.641676187515259
1695713611182570800,5.59857080078125,-1.6755740642547607,-9.939187049865723,-2.837887763977051
1695713611192601600,5.6086015625,-1.7569299936294556,-9.842875480651855,-2.7517459392547607
1695713611202632700,5.6186328125,-1.306481122970581,-10.068399429321289,-2.9246275424957275
1695713611212663800,5.628663818359375,-1.4931213855743408,-10.269396781921387,-3.589832067489624
1695713611222695000,5.63869482421875,-1.7377874851226807,-10.580463409423828,-3.6424741744995117
1695713611232726000,5.64872607421875,-1.526620864868164,-10.992627143859863,-3.4271202087402344
1695713611242756900,5.6587568359375,-1.6564314365386963,-11.045269012451172,-3.336193084716797
1695713611252788000,5.6687880859375,-1.9818553924560547,-10.978270530700684,-3.1686954498291016
1695713611262819000,5.678819091796875,-2.369492530822754,-11.035697937011719,-2.8911280632019043
1695713611272850200,5.68885009765625,-3.102294445037842,-10.925628662109375,-2.7086751461029053
1695713611282883000,5.698883056640625,-3.3990044593811035,-10.901102066040039,-2.541177749633789
1695713611292918800,5.708918701171875,-3.5090744495391846,-10.786246299743652,-2.431107759475708
1695713611302954800,5.718954833984375,-3.5808591842651367,-10.460822105407715,-2.392822742462158
1695713611312990500,5.728990478515625,-2.685943365097046,-9.871589660644531,-2.4741785526275635
1695713611323026400,5.7390263671875,-0.9188438653945923,-9.005388259887695,-2.555534601211548
1695713611333062100,5.749062255859375,0.5419743061065674,-8.411369323730469,-2.8139593601226807
1695713611343098000,5.75909814453125,0.833898663520813,-7.913662910461426,-3.1447670459747314
1695713611353133800,5.7691337890625,0.32123643159866333,-7.750352382659912,-3.6807594299316406
1695713611363169800,5.779169677734375,-0.28654050827026367,-7.803592681884766,-4.3178486824035645
1695713611373205500,5.78920556640625,-1.1485549211502075,-7.82273530960083,-4.403990268707275
1695713611383238000,5.79923779296875,-2.0440688133239746,-7.913662910461426,-4.485345840454102
1695713611393267700,5.809267822265625,-2.8582265377044678,-7.88494873046875,-4.2556352615356445
1695713611403297500,5.819297607421875,-3.0831520557403564,-7.7216386795043945,-4.169493675231934
1695713611413327400,5.829327392578125,-2.9826533794403076,-7.601997375488281,-4.303491592407227
1695713611423357200,5.839357177734375,-2.757728099822998,-7.45364236831665,-4.131208419799805
1695713611433387000,5.849386962890625,-2.4269204139709473,-7.343572616577148,-3.9349968433380127
1695713611443416800,5.859416748046875,-2.0584256649017334,-7.113861560821533,-3.7334015369415283
1695713611453446400,5.8694462890625,-1.8191434144973755,-6.879364967346191,-3.666402578353882
1695713611463476500,5.8794765625,-1.6995022296905518,-6.577271461486816,-3.8291144371032715
1695713611473506000,5.889506103515625,-1.7138592004776,-6.381059646606445,-3.9732820987701416
1695713611483538000,5.899537841796875,-1.800000786781311,-6.2566328048706055,-4.097708702087402
1695713611493567500,5.9095673828125,-2.015354871749878,-6.237490653991699,-4.164707660675049
1695713611503596800,5.9195966796875,-2.3120648860931396,-6.203990936279297,-4.121636867523193
1695713611513626400,5.92962646484375,-2.82951283454895,-6.314060688018799,-4.035495281219482
1695713611523655700,5.93965576171875,-3.2937204837799072,-6.558128833770752,-3.906282901763916
1695713611533685200,5.949685302734375,-3.882952928543091,-6.927221775054932,-3.666402578353882
1695713611543714800,5.95971484375,-4.308875560760498,-7.247859954833984,-3.4845480918884277
1695713611553744100,5.969744140625,-4.773681163787842,-7.496713161468506,-3.3649067878723145
1695713611563773700,5.979773681640625,-5.242674350738525,-7.750352382659912,-3.283550977706909
1695713611573803000,5.989802978515625,-5.280959606170654,-7.88494873046875,-3.283550977706909
1695713611583836000,5.9998359375,-5.1565327644348145,-7.8658061027526855,-3.2309088706970215
1695713611593873700,6.009873779296875,-5.127819061279297,-7.8418779373168945,-3.2165517807006836
1695713611603911400,6.019911376953125,-5.089533805847168,-7.88494873046875,-3.2404799461364746
1695713611613949000,6.029948974609375,-5.175675392150879,-7.606783390045166,-3.077768087387085
1695713611623986700,6.039986572265625,-5.108676433563232,-7.396214962005615,-2.958127021789551
1695713611634024400,6.0500244140625,-4.735395908355713,-7.046862602233887,-3.053839921951294
1695713611644062200,6.060062255859375,-4.692325115203857,-6.850651264190674,-3.1926236152648926
1695713611654100000,6.070099853515625,-4.816751956939697,-6.682555675506592,-3.4989049434661865
1695713611664137500,6.080137451171875,-5.2043890953063965,-6.711269378662109,-3.7429728507995605
1695713611674175200,6.09017529296875,-5.247459888458252,-6.984649181365967,-3.8913278579711914
1695713611684206600,6.10020654296875,-5.079962253570557,-7.247859954833984,-3.738187074661255
1695713611694231600,6.1102314453125,-4.969892501831055,-7.616354465484619,-3.2883365154266357
1695713611704256500,6.120256591796875,-4.78803825378418,-8.02373218536377,-2.833101987838745
1695713611714281500,6.130281494140625,-4.457230567932129,-8.172087669372559,-2.5603201389312744
1695713611724306700,6.140306640625,-4.174877166748047,-8.291728973388672,-2.4406790733337402
1695713611734331600,6.15033154296875,-3.9020955562591553,-8.339585304260254,-2.3162522315979004
1695713611744356600,6.160356689453125,-3.806382656097412,-8.23430061340332,-2.249253273010254
1695713611754381600,6.170381591796875,-3.9116668701171875,-7.837092399597168,-2.3976082801818848
1695713611764406500,6.180406494140625,-4.0935211181640625,-7.295716285705566,-2.7182464599609375
1695713611774431500,6.190431396484375,-4.194019794464111,-6.807580471038818,-3.1447670459747314
1695713611784464100,6.200464111328125,-4.428516387939453,-6.433701992034912,-3.4510483741760254
1695713611794502400,6.21050244140625,-4.701896667480469,-6.26141881942749,-3.738187074661255
1695713611804540400,6.22054052734375,-4.4955153465271,-6.290132522583008,-4.102494239807129
1695713611814578700,6.23057861328125,-3.308077335357666,-6.936792850494385,-4.705485820770264
1695713611824617000,6.240616943359375,-2.565704107284546,-8.574081420898438,-6.702296257019043
1695713611834655200,6.2506552734375,-3.3894333839416504,-10.743175506591797,-8.914461135864258
1695713611844693200,6.260693359375,-5.142175674438477,-12.404991149902344,-10.001399993896484
1695713611854731500,6.2707314453125,-5.879763603210449,-12.936197280883789,-8.909674644470215
1695713611864769500,6.28076953125,-5.61116886138916,-12.457633018493652,-7.16231632232666
1695713611874807800,6.290807861328125,-5.051248550415039,-12.07478141784668,-5.9647088050842285
1695713611884840400,6.30084033203125,-4.174877166748047,-12.218350410461426,-5.002793788909912
1695713611894872600,6.31087255859375,-4.0456647872924805,-11.911471366882324,-4.600201606750488
1695713611904904700,6.32090478515625,-4.716253280639648,-11.12183952331543,-5.074578762054443
1695713611914936800,6.330936767578125,-4.6438703536987305,-9.871589660644531,-5.342574596405029
1695713611924969000,6.340968994140625,-3.049652576446533,-8.018946647644043,-4.667200565338135
1695713611935001000,6.3510009765625,-0.6125625967979431,-6.318846225738525,-3.7046875953674316
1695713611945033200,6.361033203125,1.6576279401779175,-5.385047435760498,-3.053839921951294
1695713611955065300,6.3710654296875,3.074777126312256,-5.169693470001221,-2.416750907897949
1695713611965097500,6.381097412109375,3.5341989994049072,-5.356333255767822,-2.2683959007263184
1695713611975129600,6.391129638671875,3.4002010822296143,-5.907280921936035,-2.6225335597991943
1695713611985162500,6.40116259765625,2.715853691101074,-6.605985164642334,-2.6799614429473877
1695713611995197000,6.411197021484375,1.6528422832489014,-7.491927623748779,-2.6799614429473877
1695713612005231400,6.4212314453125,0.776470959186554,-8.435297966003418,-2.9246275424957275
1695713612015265800,6.431265869140625,1.29810631275177,-9.134600639343262,-3.163909673690796
1695713612025300200,6.44130029296875,2.644068956375122,-9.455238342285156,-3.178266763687134
1695713612035334700,6.451334716796875,3.5054850578308105,-9.862018585205078,-3.029911756515503
1695713612045368800,6.461368896484375,3.659224033355713,-10.216754913330078,-3.0442686080932617
1695713612055403300,6.4714033203125,2.691925525665283,-10.164112091064453,-3.0203404426574707
1695713612065437700,6.481437744140625,1.8681962490081787,-9.967901229858398,-2.8283164501190186
1695713612075472100,6.49147216796875,1.2023934125900269,-9.728020668029785,-2.579462766647339
1695713612085504500,6.50150439453125,0.7190431952476501,-9.56052303314209,-2.2683959007263184
1695713612095535000,6.51153515625,0.2350948303937912,-9.665806770324707,-2.124826431274414
1695713612105565700,6.521565673828125,0.024526432156562805,-9.747162818908691,-2.2540390491485596
1695713612115596300,6.53159619140625,0.24466611444950104,-10.121041297912598,-2.50289249420166
1695713612125626600,6.541626708984375,0.45523449778556824,-10.259825706481934,-2.953341245651245
1695713612135657200,6.5516572265625,0.2111666053533554,-9.900901794433594,-3.417548894882202
1695713612145687800,6.561687744140625,-0.22911277413368225,-9.479166984558105,-3.8434712886810303
1695713612155718400,6.571718505859375,-0.4492524564266205,-9.04845905303955,-3.872185230255127
1695713612165749000,6.5817490234375,-0.6125625967979431,-8.96231746673584,-3.5084762573242188
1695713612175779300,6.591779296875,-0.5790630578994751,-8.928817749023438,-2.799602508544922
1695713612185811700,6.601811767578125,-0.3248256742954254,-8.947959899902344,-2.1678972244262695
1695713612195843600,6.611843505859375,0.0771685317158699,-8.909674644470215,-1.6504493951797485
1695713612205875200,6.621875244140625,0.4743770956993103,-8.827720642089844,-1.2245270013809204
1695713612215907000,6.631906982421875,1.0492527484893799,-9.067601203918457,-1.028315544128418
1695713612225938700,6.641938720703125,1.3363914489746094,-9.364311218261719,-0.9326026439666748
1695713612235970600,6.651970458984375,1.6432709693908691,-9.244669914245605,-0.8847461938858032
1695713612246002200,6.662002197265625,1.6528422832489014,-9.2255277633667,-1.1335997581481934
1695713612256034000,6.672033935546875,1.3076776266098022,-9.110671997070312,-1.583450436592102
1695713612266065700,6.682065673828125,0.8291130661964417,-9.04845905303955,-2.1583259105682373
1695713612276097500,6.69209765625,0.1824527233839035,-8.803792953491211,-2.8187451362609863
1695713612286129200,6.702129150390625,-0.3248256742954254,-8.50708293914795,-3.2213375568389893
1695713612296162000,6.712162109375,-0.5599204897880554,-8.315656661987305,-3.3505499362945557
1695713612306197500,6.722197509765625,-0.5838487148284912,-8.25822925567627,-3.2787652015686035
1695713612316232700,6.732232666015625,-0.4205385744571686,-8.248658180236816,-2.9964120388031006
1695713612326268200,6.74226806640625,-0.21954147517681122,-8.100302696228027,-2.7661030292510986
1695713612336303600,6.7523037109375,0.20159530639648438,-8.172087669372559,-2.531606435775757
1695713612346338800,6.7623388671875,0.6664010882377625,-8.157731056213379,-2.4263222217559814
1695713612356374300,6.772374267578125,1.168893814086914,-8.296514511108398,-2.282752752304077
1695713612366409500,6.782409423828125,1.4656038284301758,-8.473583221435547,-2.249253273010254
1695713612376445000,6.79244482421875,1.4416756629943848,-8.808578491210938,-2.2683959007263184
1695713612386480400,6.80248046875,1.2263215780258179,-9.06281566619873,-2.2444677352905273
1695713612396515600,6.812515625,0.747757077217102,-9.263813018798828,-2.258824586868286
1695713612406548500,6.822548583984375,0.13459627330303192,-9.608379364013672,-2.2205393314361572
1695713612416580400,6.832580322265625,-0.46839502453804016,-10.202397346496582,-2.1343977451324463
1695713612426612200,6.8426123046875,-0.6556333899497986,-10.98305606842041,-1.7700905799865723
1695713612436644000,6.85264404296875,-0.10468599200248718,-11.56690502166748,-1.277169108390808
1695713612446676000,6.862676025390625,0.714257538318634,-11.882757186889648,-0.9373882412910461
1695713612456707800,6.872707763671875,1.0444670915603638,-11.998210906982422,-0.6113662123680115
1695713612466739700,6.88273974609375,0.867398202419281,-11.700902938842773,-0.4486542344093323
1695713612476771600,6.892771484375,0.27816563844680786,-11.504691123962402,-0.44386860728263855
1695713612486803500,6.902803466796875,-0.15254244208335876,-11.308480262756348,-0.8991031050682068
1695713612496835300,6.91283544921875,-0.4588237404823303,-11.251051902770996,-1.5930216312408447
1695713612506867200,6.9228671875,-0.5162515044212341,-11.011770248413086,-2.579462766647339
1695713612516899800,6.93289990234375,-0.9427721500396729,-10.939985275268555,-3.2883365154266357
1695713612526931000,6.942930908203125,-1.2921242713928223,-11.385049819946289,-3.7334015369415283
1695713612536962000,6.952962158203125,-1.0671988725662231,-12.854841232299805,-3.954139471054077
1695713612546993000,6.962992919921875,-0.25304099917411804,-13.707284927368164,-3.0586254596710205
1695713612557024000,6.97302392578125,0.010169495828449726,-13.061222076416016,-1.6648063659667969
1695713612567055000,6.98305517578125,-0.49232324957847595,-12.543774604797363,-0.26201409101486206
1695713612577086200,6.993086181640625,-1.397408366203308,-12.682558059692383,0.8344969153404236
1695713612587117300,7.003117431640625,-1.9962122440338135,-12.639487266540527,1.1168500185012817
1695713612597148400,7.0131484375,-2.527418851852417,-12.16092300415039,0.3846462368965149
1695713612607179500,7.023179443359375,-3.260220766067505,-11.499905586242676,-0.9134600162506104
1695713612617211600,7.033211669921875,-3.126222848892212,-10.905887603759766,-2.091326951980591
1695713612627242800,7.04324267578125,-1.2299108505249023,-10.685748100280762,-2.770888566970825
1695713612637274000,7.053274169921875,1.3603196144104004,-11.078768730163574,-3.699902057647705
1695713612647305200,7.06330517578125,3.5294134616851807,-11.557332992553711,-4.64805793762207
1695713612657336600,7.073336669921875,4.377070903778076,-12.371491432189941,-5.481358528137207
1695713612667367700,7.08336767578125,4.089931964874268,-13.133007049560547,-6.44387149810791
1695713612677399000,7.09339892578125,3.3858439922332764,-13.228719711303711,-6.955935478210449
1695713612687430100,7.10343017578125,2.490330219268799,-12.945768356323242,-6.702296257019043
1695713612697461200,7.113461181640625,2.0309081077575684,-12.318849563598633,-6.180660724639893
1695713612707492600,7.12349267578125,1.7341982126235962,-11.59561824798584,-5.648856163024902
1695713612717523700,7.133523681640625,1.6719847917556763,-11.093125343322754,-5.01715087890625
1695713612727556000,7.14355615234375,0.9152546525001526,-10.87717342376709,-4.518845558166504
1695713612737589800,7.15358984375,-0.20518454909324646,-11.006983757019043,-3.881756544113159
1695713612747623200,7.163623046875,-0.7800601720809937,-10.867602348327637,-3.4510483741760254
1695713612757656800,7.17365673828125,-0.20518454909324646,-10.743175506591797,-2.6225335597991943
1695713612767690200,7.183690185546875,0.8961120843887329,-10.317253112792969,-1.856830358505249
1695713612777724000,7.193723876953125,1.8921245336532593,-9.828518867492676,-1.3776676654815674
1695713612787757300,7.20375732421875,2.7732813358306885,-9.373882293701172,-0.966102123260498
1695713612797791000,7.213791015625,2.2510478496551514,-9.010173797607422,-1.0235298871994019
1695713612807824400,7.223824462890625,2.0787646770477295,-8.052446365356445,-1.44945228099823
1695713612817858000,7.233858154296875,2.0644078254699707,-7.1234331130981445,-1.7413766384124756
1695713612827891500,7.243891357421875,2.0404794216156006,-6.491129398345947,-2.076970100402832
1695713612837924400,7.25392431640625,2.1026928424835205,-5.754140377044678,-2.4358935356140137
1695713612847958300,7.263958251953125,1.8586249351501465,-5.337191104888916,-2.651247501373291
1695713612857992400,7.273992431640625,1.5810575485229492,-4.97348165512085,-2.833101987838745
1695713612868027000,7.28402685546875,1.412961721420288,-4.594817638397217,-2.953341245651245
1695713612878061000,7.29406103515625,1.231107234954834,-4.3172502517700195,-3.101696252822876
1695713612888095200,7.30409521484375,1.0971091985702515,-3.8673996925354004,-3.2213375568389893
1695713612898129400,7.31412939453125,0.8721838593482971,-3.335594654083252,-3.331407308578491
1695713612908163600,7.32416357421875,0.5276173949241638,-2.723032236099243,-3.4654054641723633
1695713612918197800,7.33419775390625,0.33080771565437317,-2.2534406185150146,-3.6472599506378174
1695713612928232000,7.34423193359375,0.13459627330303192,-2.2438695430755615,-3.809971809387207
1695713612938264600,7.3542646484375,-0.09032905846834183,-2.569293260574341,-3.8051862716674805
1695713612948297000,7.364296875,-0.5306084156036377,-3.187239646911621,-3.666402578353882
1695713612958329600,7.37432958984375,-0.9810572862625122,-3.714258909225464,-3.259622573852539
1695713612968362000,7.384362060546875,-1.6755740642547607,-4.140181541442871,-2.761317253112793
1695713612978394400,7.394394287109375,-2.757728099822998,-4.422534465789795,-2.5076780319213867
1695713612988427000,7.404427001953125,-4.088735580444336,-4.743771076202393,-2.493321180343628
1695713612998459400,7.41445947265625,-5.793622016906738,-5.30847692489624,-2.6847469806671143
1695713613008492000,7.424491943359375,-10.586445808410645,-6.749554634094238,-3.4510483741760254
1695713613018524400,7.4345244140625,-17.3814640045166,-9.244669914245605,-5.6153564453125
1695713613028557000,7.44455712890625,-18.937397003173828,-12.481560707092285,-7.87059211730957
1695713613038589400,7.45458935546875,-18.99003791809082,-17.791831970214844,-9.972686767578125
1695713613048622000,7.4646220703125,-17.05544090270996,-23.552553176879883,-10.01575756072998
1695713613058654200,7.474654296875,-9.30329418182373,-23.935405731201172,-6.0370917320251465
1695713613068686300,7.484686279296875,-5.438885688781738,-18.893129348754883,-2.929413080215454
1695713613078718700,7.49471875,-4.993820667266846,-13.180863380432129,-1.2388839721679688
1695713613088750800,7.504750732421875,-4.4189453125,-7.362715244293213,-0.5491527915000916
1695713613098783000,7.514782958984375,-3.0209386348724365,-2.4879374504089355,-0.5635097622871399
1695713613108815000,7.524815185546875,-2.1062822341918945,0.10229317098855972,-1.7988044023513794
1695713613118847200,7.53484716796875,-2.4987051486968994,-0.625723123550415,-3.906282901763916
1695713613128879600,7.544879638671875,-2.8869404792785645,-3.738187074661255,-5.002793788909912
1695713613138911700,7.554911865234375,-1.4835500717163086,-7.219145774841309,-4.8299126625061035
1695713613148944000,7.56494384765625,0.7429714202880859,-10.618748664855957,-4.423132419586182
1695713613158976500,7.5749765625,0.5706881880760193,-14.027922630310059,-4.528416633605957
1695713613169009700,7.585009765625,-3.710669755935669,-16.64267921447754,-4.920839786529541
1695713613179042600,7.59504248046875,-6.171687602996826,-17.12602996826172,-5.5005011558532715
1695713613189075700,7.60507568359375,-1.6420745849609375,-13.903495788574219,-6.0370917320251465
1695713613199108600,7.615108642578125,2.586043119430542,-9.680164337158203,-5.916851997375488
1695713613209141800,7.625141845703125,4.300500392913818,-5.993422508239746,-6.338587284088135
1695713613219174700,7.635174560546875,4.2622151374816895,-3.081955671310425,-6.692724704742432
1695713613229207800,7.645207763671875,3.5341989994049072,-1.262213945388794,-6.544369697570801
1695713613239241000,7.655240966796875,2.270190477371216,-1.1617153882980347,-5.696712493896484
1695713613249273900,7.66527392578125,1.4991034269332886,-2.6943182945251465,-4.2556352615356445
1695713613259306800,7.675306640625,2.5190439224243164,-5.519045352935791,-2.6177480220794678
1695713613269340200,7.685340087890625,3.438486099243164,-8.598010063171387,-1.7365909814834595
1695713613279373600,7.69537353515625,2.9551360607147217,-10.935199737548828,-1.2915260791778564
1695713613289406700,7.70540673828125,2.011765718460083,-12.6347017288208,-1.6360924243927002
1695713613299440000,7.715440185546875,1.6719847917556763,-13.448859214782715,-2.392822742462158
1695713613309473500,7.7254736328125,1.7772690057754517,-13.702498435974121,-2.6847469806671143
1695713613319507000,7.7355068359375,1.9830517768859863,-13.40578842163086,-2.431107759475708
1695713613329540400,7.745540283203125,2.002194404602051,-12.371491432189941,-2.210968017578125
1695713613339573800,7.75557373046875,2.0787646770477295,-10.96869945526123,-1.4638092517852783
1695713613349607200,7.765607177734375,1.810768485069275,-9.512666702270508,-1.2915260791778564
1695713613359640600,7.775640625,1.2406785488128662,-8.377870559692383,-1.3106685876846313
1695713613369672200,7.785672119140625,0.8434699773788452,-7.932805061340332,-1.6648063659667969
1695713613379698000,7.795697998046875,1.1258230209350586,-7.80837869644165,-2.029113531112671
1695713613389723600,7.8057236328125,1.3986048698425293,-7.683353424072266,-2.3497519493103027
1695713613399749600,7.81574951171875,0.8626125454902649,-7.300501823425293,-2.833101987838745
1695713613409775400,7.825775390625,-0.3200400173664093,-7.300501823425293,-2.8911280632019043
1695713613419801300,7.83580126953125,-1.34476637840271,-7.549355506896973,-2.746960401535034
1695713613429827000,7.8458271484375,-1.7186448574066162,-7.913662910461426,-2.641676187515259
1695713613439853000,7.85585302734375,-0.9571290612220764,-8.267800331115723,-2.3976082801818848
1695713613449878800,7.865878662109375,0.010169495828449726,-8.583653450012207,-2.139183521270752
1695713613459904800,7.87590478515625,0.7334001660346985,-8.952746391296387,-1.919043779373169
1695713613469937700,7.885937744140625,1.542174220085144,-8.794221878051758,-1.7892330884933472
1695713613479976000,7.895975830078125,1.882553219795227,-8.267800331115723,-1.8472590446472168
1695713613490014500,7.906014404296875,1.944766640663147,-7.774280548095703,-2.1439690589904785
1695713613500053000,7.916052978515625,1.8634105920791626,-7.558926582336426,-2.6273193359375
1695713613510091500,7.926091552734375,1.633699655532837,-7.70249605178833,-3.0251259803771973
1695713613520129800,7.9361298828125,1.1497513055801392,-8.306085586547852,-3.178266763687134
1695713613530168300,7.946168212890625,0.4695914387702942,-8.97667407989502,-3.226123094558716
1695713613540206800,7.956206787109375,-0.5359922647476196,-9.613164901733398,-3.250051259994507
1695713613550245000,7.9662451171875,-1.430907964706421,-10.221540451049805,-3.1304101943969727
1695713613560283600,7.97628369140625,-2.2785654067993164,-10.762317657470703,-2.8426733016967773
1695713613570322200,7.986322265625,-2.9012975692749023,-11.418549537658691,-2.187039852142334
1695713613580355000,7.99635498046875,-2.7529425621032715,-12.141779899597168,-1.277169108390808
1695713613590388000,8.006387939453125,-1.6037893295288086,-12.596416473388672,-0.5395814776420593
1695713613600420900,8.0164208984375,-0.12382857501506805,-12.28534984588623,-0.061016976833343506
1695713613610453800,8.026453857421876,0.9152546525001526,-11.653046607971191,0.389431893825531
1695713613620486700,8.036486572265625,1.4321043491363525,-11.882757186889648,1.174277663230896
1695713613630519600,8.04651953125,1.2215359210968018,-12.68734359741211,1.7635103464126587
1695713613640552200,8.05655224609375,0.7908278703689575,-13.319646835327148,1.7443677186965942
1695713613650585300,8.06658544921875,-0.41096729040145874,-13.802997589111328,0.6909275650978088
1695713613660618000,8.076617919921874,-2.455634355545044,-14.339588165283203,-0.8273184299468994
1695713613670651000,8.08665087890625,-3.8111681938171387,-14.885151863098145,-2.5076780319213867
1695713613680683500,8.09668359375,-3.67238450050354,-13.592429161071777,-3.7334015369415283
1695713613690713900,8.1067138671875,-3.4612178802490234,-12.395419120788574,-3.1543383598327637
1695713613700744400,8.116744384765624,-4.088735580444336,-12.56291675567627,-1.6552350521087646
1695713613710775000,8.126775146484375,-3.6532418727874756,-12.471989631652832,-1.090528964996338
1695713613720805400,8.136805419921876,-2.072782516479492,-11.887542724609375,-1.6791633367538452
1695713613730836000,8.1468359375,-0.028115665540099144,-11.251051902770996,-2.0482561588287354
1695713613740866600,8.156866455078125,1.9878374338150024,-11.37069320678711,-2.761317253112793
1695713613750897000,8.16689697265625,3.9798622131347656,-12.103495597839355,-3.637688636779785
1695713613760927500,8.176927490234375,4.391427993774414,-12.931411743164062,-4.844269275665283
1695713613770958000,8.1869580078125,3.9942193031311035,-13.544572830200195,-5.902495384216309
1695713613780990000,8.196989990234375,3.2709884643554688,-13.668999671936035,-6.415157318115234
1695713613791019000,8.20701904296875,2.145763635635376,-13.61635684967041,-6.367300987243652
1695713613801048300,8.21704833984375,1.5571293830871582,-13.290933609008789,-5.67756986618042
1695713613811077600,8.22707763671875,1.9543378353118896,-12.739986419677734,-4.887340068817139
1695713613821106700,8.237106689453125,2.0931215286254883,-12.141779899597168,-4.89691162109375
1695713613831136000,8.247135986328125,1.2741780281066895,-11.810972213745117,-4.643272399902344
1695713613841165300,8.257165283203125,-0.1621137410402298,-11.758330345153809,-3.809971809387207
1695713613851194400,8.2671943359375,-0.9858429431915283,-11.576476097106934,-3.3888349533081055
1695713613861223700,8.2772236328125,-0.4061816334724426,-10.446465492248535,-3.0203404426574707
1695713613871253000,8.2872529296875,0.776470959186554,-9.632308006286621,-1.8807586431503296
1695713613881285600,8.29728564453125,2.3515465259552,-9.2255277633667,-0.6975077986717224
1695713613891321000,8.307321044921874,2.644068956375122,-8.626724243164062,-0.3242274820804596
1695713613901356500,8.3173564453125,2.375474691390991,-8.224729537963867,-0.08973085135221481
1695713613911392300,8.327392333984376,2.365903377532959,-7.568498134613037,-0.22372891008853912
1695713613921427700,8.337427734375,2.485544443130493,-6.419344902038574,-0.20937198400497437
1695713613931463200,8.347463134765626,2.720639228820801,-5.193621635437012,-0.3768695592880249
1695713613941499000,8.357498779296876,2.667997360229492,-4.470390796661377,-0.6687939167022705
1695713613951534300,8.367534423828126,2.2749760150909424,-4.197608947753906,-1.114457130432129
1695713613961569800,8.37756982421875,1.705484390258789,-4.231108665466309,-1.7796618938446045
1695713613971605200,8.387605224609375,1.4991034269332886,-4.345963954925537,-2.407179594039917
1695713613981641000,8.397640869140625,1.4895321130752563,-4.3794636726379395,-2.8139593601226807
1695713613991673300,8.40767333984375,1.456032633781433,-4.336392879486084,-3.187838077545166
1695713614001705700,8.417705810546876,1.317248821258545,-3.982254981994629,-3.5084762573242188
1695713614011738000,8.427738037109375,0.8913264274597168,-3.493520975112915,-4.001996040344238
1695713614021770200,8.437770263671876,0.5467599630355835,-3.1585259437561035,-4.537988185882568
1695713614031802600,8.447802734375,-0.09032905846834183,-2.857030153274536,-4.863411903381348
1695713614041835000,8.4578349609375,-0.5647061467170715,-2.895315408706665,-4.868197441101074
1695713614051867100,8.4678671875,-1.057627558708191,-3.1680972576141357,-4.576273441314697
1695713614061899500,8.4778994140625,-1.6755740642547607,-3.4408788681030273,-4.054637908935547
1695713614071932000,8.487931884765626,-2.82951283454895,-3.7094733715057373,-3.6951162815093994
1695713614081964000,8.497964111328125,-4.0935211181640625,-3.982254981994629,-3.3553354740142822
1695713614091996400,8.507996337890624,-5.328815937042236,-4.499104976654053,-3.149552822113037
1695713614102028500,8.518028564453125,-8.340781211853027,-5.715256690979004,-3.40797758102417
1695713614112060000,8.528059814453124,-15.533008575439453,-7.875377655029297,-4.729413986206055
1695713614122091000,8.538091064453125,-19.171894073486328,-10.312467575073242,-7.334599494934082
1695713614132122400,8.548122314453124,-17.347963333129883,-14.521442413330078,-8.871390342712402
1695713614142153700,8.55815380859375,-18.84646987915039,-20.80379867553711,-11.026126861572266
1695713614152184800,8.568184814453126,-14.661422729492188,-24.926631927490234,-9.364909172058105
1695713614162216000,8.5782158203125,-7.287341594696045,-21.627527236938477,-4.595416069030762
1695713614172247300,8.588247314453126,-5.726024627685547,-15.804593086242676,-1.9621145725250244
1695713614182278700,8.598278564453125,-5.999404430389404,-10.25503921508789,-0.5539384484291077
1695713614192309800,8.608309814453126,-5.889334678649902,-5.437689304351807,-0.6975077986717224
1695713614202341000,8.618341064453125,-4.213162422180176,-3.0580272674560547,-3.077768087387085
1695713614212373800,8.628373779296876,-3.451646566390991,-3.7525441646575928,-5.002793788909912
1695713614222408400,8.638408447265626,-3.308077335357666,-5.749354839324951,-5.026721954345703
1695713614232443100,8.648443115234375,-0.15254244208335876,-8.3300142288208,-3.494119167327881
1695713614242477800,8.658477783203125,6.163312911987305,-10.5421781539917,-2.273181438446045
1695713614252512300,8.66851220703125,7.460821151733398,-11.758330345153809,-2.5938198566436768
1695713614262547000,8.678546875,4.1760735511779785,-12.538989067077637,-2.7421748638153076
1695713614272581600,8.68858154296875,2.121835470199585,-11.734402656555176,-3.092125177383423
1695713614282616300,8.6986162109375,1.3076776266098022,-9.6466646194458,-4.887340068817139
1695713614292651000,8.708651123046875,0.7238288521766663,-8.14815902709961,-7.593024253845215
1695713614302685700,8.718685791015625,1.906481385231018,-6.8410797119140625,-9.240483283996582
1695713614312720400,8.728720458984375,3.601198196411133,-5.480760097503662,-8.670392990112305
1695713614322753000,8.7387529296875,3.3619158267974854,-4.849055290222168,-7.674380302429199
1695713614332785200,8.74878515625,2.5094728469848633,-5.270191669464111,-6.486942291259766
1695713614342817300,8.7588173828125,2.2127628326416016,-6.8554368019104,-4.920839786529541
1695713614352849400,8.768849365234376,2.3132612705230713,-9.04845905303955,-3.5994033813476562
1695713614362881800,8.7788818359375,2.5429723262786865,-10.834102630615234,-2.579462766647339
1695713614372914000,8.788913818359376,2.217548370361328,-11.95454216003418,-2.0673987865448
1695713614382946000,8.798946044921875,1.3938192129135132,-12.170494079589844,-1.8951154947280884
1695713614392978200,8.808978271484374,1.0492527484893799,-11.897113800048828,-1.9956140518188477
1695713614403010300,8.81901025390625,1.7198412418365479,-11.432906150817871,-2.0817556381225586
1695713614413042700,8.829042724609375,2.466402053833008,-10.671390533447266,-1.8472590446472168
1695713614423074800,8.83907470703125,2.41375994682312,-9.689735412597656,-1.2340983152389526
1695713614433107200,8.849107177734375,1.8394824266433716,-8.784649848937988,-1.0091729164123535
1695713614443137800,8.8591376953125,1.3411771059036255,-7.961519241333008,-0.8512466549873352
1695713614453168400,8.86916845703125,1.293320655822754,-7.611568927764893,-1.119242787361145
1695713614463199000,8.879198974609375,1.5571293830871582,-7.310073375701904,-1.5930216312408447
1695713614473229600,8.8892294921875,1.633699655532837,-7.16650390625,-2.0721843242645264
1695713614483260400,8.899260498046875,0.833898663520813,-7.200003147125244,-2.4885356426239014
1695713614493291000,8.909291015625,-0.4875376224517822,-7.314858913421631,-2.4263222217559814
1695713614503321600,8.919321533203124,-1.368694543838501,-7.6498541831970215,-2.273181438446045
1695713614513352200,8.929352294921875,-0.8757730722427368,-8.157731056213379,-1.8903298377990723
1695713614523382800,8.9393828125,0.13459627330303192,-8.368298530578613,-1.578664779663086
1695713614533415200,8.949415283203125,0.9774680733680725,-8.282156944274902,-1.4063814878463745
1695713614543447800,8.95944775390625,1.4943177700042725,-7.932805061340332,-1.3680963516235352
1695713614553480400,8.96948046875,1.470389485359192,-7.659425258636475,-1.6504493951797485
1695713614563513000,8.97951318359375,1.3316057920455933,-7.659425258636475,-2.1343977451324463
1695713614573545700,8.989545654296874,1.1497513055801392,-8.411369323730469,-2.526820659637451
1695713614583578400,8.999578369140625,0.5563312768936157,-9.555737495422363,-2.4502503871917725
1695713614593611000,9.009611083984375,-0.22911277413368225,-10.360323905944824,-1.9621145725250244
1695713614603643600,9.0196435546875,-1.1868400573730469,-10.886744499206543,-1.4685949087142944
1695713614613676300,9.02967626953125,-2.292922258377075,-11.514262199401855,-0.7070791125297546
1695713614623709000,9.039708984375,-3.1788649559020996,-12.141779899597168,0.2793620526790619
1695713614633741600,9.049741455078125,-2.9252257347106934,-12.826128005981445,0.9828519225120544
1695713614643774000,9.05977392578125,-1.2969099283218384,-13.281362533569336,0.8967102766036987
1695713614653807000,9.06980712890625,0.5563312768936157,-12.8691987991333,0.24047867953777313
1695713614663840300,9.07984033203125,1.2406785488128662,-11.921042442321777,-0.28115665912628174
1695713614673873200,9.089873046875,1.1306086778640747,-11.643474578857422,-0.19980068504810333
1695713614683906300,9.09990625,1.058824062347412,-12.328420639038086,-0.09930214285850525
1695713614693939500,9.109939453125,0.714257538318634,-13.176077842712402,-0.5778666734695435
1695713614703972400,9.119972412109375,0.024526432156562805,-13.123435974121094,-1.3537393808364868
1695713614714005500,9.130005615234374,-1.6420745849609375,-12.716057777404785,-2.053041934967041
1695713614724038700,9.14003857421875,-3.5569307804107666,-13.056436538696289,-3.005983352661133
1695713614734071600,9.150071533203125,-4.026522159576416,-13.807783126831055,-4.590630054473877
1695713614744104700,9.160104736328124,-3.7633118629455566,-13.118650436401367,-4.925625324249268
1695713614754137000,9.17013720703125,-4.48115873336792,-12.32363510131836,-3.3026933670043945
1695713614764168200,9.180168212890624,-4.874179840087891,-12.046067237854004,-1.688734531402588
1695713614774199600,9.190199462890625,-3.8111681938171387,-11.475976943969727,-1.2005987167358398
1695713614784231000,9.20023095703125,-2.0344974994659424,-11.021341323852539,-1.2628121376037598
1695713614794262300,9.21026220703125,0.5994020700454712,-10.331609725952148,-1.5595221519470215
1695713614804293400,9.22029345703125,3.630510091781616,-10.16889762878418,-2.3736801147460938
1695713614814324700,9.23032470703125,5.406582832336426,-11.198410034179688,-3.111267566680908
1695713614824356000,9.240356201171876,4.837090969085693,-12.75912857055664,-4.059423446655273
1695713614834387500,9.250387451171875,3.5581271648406982,-13.544572830200195,-4.959722995758057
1695713614844418600,9.26041845703125,2.1266210079193115,-13.731212615966797,-5.184648513793945
1695713614854450000,9.270449951171875,0.5078766345977783,-13.692927360534668,-5.280361175537109
1695713614864482300,9.280482421875,0.8817551732063293,-13.310075759887695,-4.988437175750732
1695713614874515200,9.29051513671875,2.1170499324798584,-12.999009132385254,-4.475774765014648
1695713614884547800,9.3005478515625,0.8961120843887329,-12.701701164245605,-4.456632137298584
1695713614894580700,9.310580810546876,0.029312077909708023,-12.290135383605957,-4.456632137298584
1695713614904613400,9.32061328125,-0.914058268070221,-11.696117401123047,-4.226921081542969
1695713614914646300,9.330646240234374,-1.1820544004440308,-10.959127426147461,-3.7716867923736572
1695713614924679200,9.34067919921875,-0.5886343717575073,-9.689735412597656,-3.2787652015686035
1695713614934711800,9.3507119140625,0.9439685344696045,-8.900103569030762,-2.1774685382843018
1695713614944744700,9.36074462890625,1.6719847917556763,-8.253443717956543,-1.1575279235839844
1695713614954777300,9.37077734375,1.7341982126235962,-7.716853141784668,-0.46779683232307434
1695713614964810200,9.380810302734375,1.5469598770141602,-7.310073375701904,-0.20458634197711945
1695713614974841900,9.390841796875,1.6911274194717407,-6.491129398345947,-0.20937198400497437
1695713614984870700,9.40087060546875,2.160120725631714,-5.840281963348389,-0.3002992272377014
1695713614994899200,9.410899169921874,2.2606191635131836,-5.131408214569092,-0.592223584651947
1695713615004928000,9.420927978515625,2.3994028568267822,-4.542175769805908,-0.9565308690071106
1695713615014956800,9.430956787109375,2.097907304763794,-4.250251293182373,-1.4829518795013428
1695713615024985300,9.4409853515625,1.6719847917556763,-4.1593241691589355,-2.0243279933929443
1695713615035014100,9.45101416015625,1.4656038284301758,-3.9487555027008057,-2.5220351219177246
1695713615045042700,9.461042724609374,1.4416756629943848,-3.723830223083496,-2.905484914779663
1695713615055071500,9.471071533203125,1.23589289188385,-3.4743785858154297,-3.187838077545166
1695713615065100000,9.48110009765625,0.9296116232872009,-3.139383316040039,-3.6089746952056885
1695713615075133000,9.4911328125,0.5659025311470032,-2.799602508544922,-4.2556352615356445
1695713615085171700,9.501171630859375,0.29730820655822754,-2.5645077228546143,-4.676771640777588
1695713615095210500,9.51121044921875,-0.19561325013637543,-2.4640090465545654,-4.935196876525879
1695713615105249000,9.5212490234375,-0.8231309652328491,-2.5980072021484375,-4.9501519203186035
1695713615115287800,9.531287841796875,-1.6995022296905518,-2.9383862018585205,-4.83469820022583
1695713615125326600,9.54132666015625,-2.80558443069458,-3.421736478805542,-4.671986103057861
1695713615135365000,9.551365234375,-3.8781673908233643,-4.154538154602051,-4.140779495239258
1695713615145404000,9.56140380859375,-6.0711894035339355,-5.361119270324707,-3.7812578678131104
1695713615155442700,9.571442626953125,-12.406187057495117,-7.549355506896973,-4.370490550994873
1695713615165481200,9.581481201171876,-19.794626235961914,-10.269396781921387,-6.295516490936279
1695713615175514000,9.59151416015625,-18.559329986572266,-13.64028549194336,-7.803592681884766
1695713615185546200,9.601546142578124,-16.57687759399414,-18.66341781616211,-9.101698875427246
1695713615195578000,9.611578125,-16.203596115112305,-23.01117706298828,-10.155138969421387
1695713615205610200,9.6216103515625,-10.174880027770996,-22.479970932006836,-7.482954502105713
1695713615215642400,9.631642333984376,-4.8502516746521,-17.3754825592041,-4.427918434143066
1695713615225674200,9.64167431640625,-4.797609329223633,-11.60519027709961,-2.4646072387695312
1695713615235706400,9.651706298828126,-5.755336761474609,-6.33798885345459,-0.875174880027771
1695713615245738500,9.661738525390625,-5.467599868774414,-2.076371908187866,-0.9852447509765625
1695713615255770400,9.671770263671876,-3.9355950355529785,-0.6687939167022705,-3.1591241359710693
1695713615265802500,9.681802490234375,-2.80558443069458,-2.809173822402954,-5.165505886077881
1695713615275835100,9.691835205078124,-1.2586246728897095,-5.797211170196533,-5.050650596618652
1695713615285866500,9.701866455078125,3.2518460750579834,-9.091529846191406,-3.9349968433380127
1695713615295897900,9.71189794921875,6.072385787963867,-12.342777252197266,-3.556332588195801
1695713615305929500,9.721929443359375,3.7980077266693115,-14.760725021362305,-4.327419757843018
1695713615315961000,9.731961181640624,-0.49232324957847595,-16.197614669799805,-4.265206336975098
1695713615325992400,9.741992431640625,-1.3495519161224365,-14.966506958007812,-4.863411903381348
1695713615336024000,9.752024169921874,2.6297121047973633,-11.801401138305664,-5.955137252807617
1695713615346055400,9.762055419921875,5.387440204620361,-8.751151084899902,-6.324230194091797
1695713615356087000,9.772087158203124,5.148158073425293,-6.180062770843506,-6.6831536293029785
1695713615366118400,9.782118408203125,3.99900484085083,-3.8769710063934326,-6.7932233810424805
1695713615376150000,9.79214990234375,2.6249263286590576,-2.9958138465881348,-6.750152587890625
1695713615386182400,9.802182373046875,1.537388563156128,-3.6807594299316406,-6.075376510620117
1695713615396214000,9.812214111328124,1.2837493419647217,-5.466403484344482,-4.9160542488098145
1695713615406245600,9.82224560546875,2.0691933631896973,-8.430512428283691,-3.7046875953674316
1695713615416277200,9.83227734375,2.7397818565368652,-11.188838958740234,-2.445464849472046
1695713615426308900,9.842308837890625,2.246262311935425,-12.663415908813477,-1.919043779373169
1695713615436340500,9.852340576171875,1.4895321130752563,-13.26700496673584,-1.578664779663086
1695713615446372400,9.862372314453125,1.1593226194381714,-13.008580207824707,-1.8711873292922974
1695713615456404000,9.872404052734375,1.4991034269332886,-12.022139549255371,-2.00518536567688
1695713615466435600,9.882435546875,2.0213370323181152,-10.709675788879395,-1.7461622953414917
1695713615476467200,9.89246728515625,2.026122570037842,-9.388239860534668,-1.51166570186615
1695713615486498800,9.902498779296875,1.576271891593933,-8.157731056213379,-1.1670992374420166
1695713615496531000,9.912531005859375,1.2885349988937378,-7.314858913421631,-1.2436695098876953
1695713615506562300,9.922562255859376,1.168893814086914,-7.18086051940918,-1.3106685876846313
1695713615516593700,9.93259375,1.1736794710159302,-7.133004188537598,-2.148754835128784
1695713615526624800,9.942624755859375,1.211964726448059,-7.2095746994018555,-2.6368906497955322
1695713615536656100,9.95265625,0.3164508044719696,-7.348358154296875,-2.833101987838745
1695713615546687200,9.962687255859375,-1.454836130142212,-7.630711555480957,-2.9341988563537598
1695713615556718600,9.972718505859374,-2.4699912071228027,-8.105088233947754,-2.526820659637451
1695713615566750000,9.98275,-1.7282161712646484,-8.487939834594727,-1.8664016723632812
1695713615576781000,9.992781005859374,-0.10468599200248718,-8.435297966003418,-1.358525037765503
1695713615586812400,10.0028125,1.058824062347412,-8.263014793395996,-1.4111671447753906
1695713615596843800,10.01284375,1.7581263780593872,-7.880163192749023,-1.5260226726531982
1695713615606876000,10.0228759765625,2.026122570037842,-7.668996810913086,-1.6791633367538452
1695713615616908000,10.032907958984374,1.7581263780593872,-7.82273530960083,-2.091326951980591
1695713615626940200,10.042940185546875,1.1018948554992676,-8.473583221435547,-2.416750907897949
1695713615636972300,10.05297216796875,0.24466611444950104,-9.713663101196289,-2.3880369663238525
1695713615647004400,10.06300439453125,-0.8039883971214294,-10.743175506591797,-1.8903298377990723
1695713615657036500,10.07303662109375,-2.1206390857696533,-11.48076343536377,-0.908674418926239
1695713615667069000,10.08306884765625,-3.418147087097168,-12.19920825958252,0.2356930375099182
1695713615677101000,10.09310107421875,-3.835096597671509,-12.8691987991333,1.3088740110397339
1695713615687133200,10.10313330078125,-2.8103702068328857,-13.286148071289062,1.7204394340515137
1695713615697165300,10.113165283203125,-0.760917603969574,-13.185648918151855,1.2747762203216553
1695713615707197400,10.123197509765625,0.5030909776687622,-12.227921485900879,0.29371899366378784
1695713615717230300,10.133230224609376,0.714257538318634,-11.241480827331543,-0.3481557071208954
1695713615727266800,10.143266845703126,0.6041877269744873,-11.23190975189209,-0.31465616822242737
1695713615737303300,10.15330322265625,0.32123643159866333,-12.194422721862793,-0.2476571500301361
1695713615747340000,10.163340087890624,-0.38703906536102295,-13.276576042175293,-0.8608179688453674
1695713615757376500,10.17337646484375,-1.6372889280319214,-13.683356285095215,-1.7222341299057007
1695713615767413000,10.1834130859375,-3.064009428024292,-14.291731834411621,-2.785245656967163
1695713615777449500,10.193449462890625,-3.6287155151367188,-14.478371620178223,-3.848257064819336
1695713615787486200,10.203486328125,-4.318446636199951,-13.3770751953125,-3.1543383598327637
1695713615797522700,10.213522705078125,-5.405386447906494,-12.821341514587402,-1.6456637382507324
1695713615807559200,10.22355908203125,-4.380660057067871,-12.601202011108398,-0.7692924737930298
1695713615817591600,10.233591552734374,-1.3926228284835815,-12.294920921325684,-0.7890332937240601
1695713615827620900,10.243620849609375,1.1162517070770264,-11.653046607971191,-1.3154542446136475
1695713615837650200,10.253650146484375,2.754138946533203,-11.22233772277832,-2.517249345779419
1695713615847679200,10.26367919921875,4.089931964874268,-11.662617683410645,-3.7334015369415283
1695713615857708500,10.27370849609375,3.93679141998291,-12.778270721435547,-5.194219589233398
1695713615867737900,10.28373779296875,2.744567632675171,-13.731212615966797,-6.534798622131348
1695713615877767200,10.29376708984375,1.3698909282684326,-13.97528076171875,-6.908079147338867
1695713615887796500,10.30379638671875,0.0771685317158699,-14.143376350402832,-6.989434719085693
1695713615897825800,10.31382568359375,0.129810631275177,-13.71207046508789,-6.946363925933838
1695713615907855000,10.323855224609375,1.6002001762390137,-12.878769874572754,-6.774080753326416
1695713615917884400,10.333884521484375,3.0077781677246094,-12.390633583068848,-6.467799663543701
1695713615927917300,10.343917236328124,0.5180460810661316,-11.95454216003418,-6.214160442352295
1695713615937953000,10.353953125,-0.9858429431915283,-11.284551620483398,-5.5962138175964355
1695713615947989000,10.363989013671874,-1.3208380937576294,-10.073184967041016,-4.892126083374023
1695713615958024700,10.374024658203124,-0.6652047038078308,-9.08674430847168,-3.738187074661255
1695713615968060700,10.384060791015624,0.3978067636489868,-8.143373489379883,-2.1296122074127197
1695713615978096600,10.3940966796875,1.3459627628326416,-7.506284713745117,-0.8895317912101746
1695713615988132400,10.40413232421875,1.8299111127853394,-7.271788120269775,-0.10887342691421509
1695713615998168300,10.414168212890624,1.968694806098938,-6.812366008758545,0.1495514214038849
1695713616008204000,10.4242041015625,2.2271196842193604,-5.950351715087891,0.19740787148475647
1695713616018240000,10.434239990234374,2.4807589054107666,-5.4281182289123535,0.13998012244701385
1695713616028272600,10.444272705078125,2.6871397495269775,-4.844269275665283,-0.017946170642971992
1695713616038305000,10.454304931640625,2.682354211807251,-4.470390796661377,-0.3242274820804596
1695713616048337400,10.46433740234375,2.461616277694702,-4.307679176330566,-0.8991031050682068
1695713616058369800,10.474369873046875,2.131406784057617,-4.144967079162598,-1.5978072881698608
1695713616068402000,10.48440185546875,1.877767562866211,-3.943969964981079,-2.2683959007263184
1695713616078434300,10.494434326171875,1.6767704486846924,-3.7094733715057373,-2.723032236099243
1695713616088466700,10.504466796875,1.4368900060653687,-3.3643085956573486,-3.053839921951294
1695713616098499000,10.5144990234375,1.2167502641677856,-3.1489546298980713,-3.3409786224365234
1695713616108531200,10.52453125,1.0396814346313477,-2.919243574142456,-3.8291144371032715
1695713616118563600,10.5345634765625,0.6616154313087463,-2.8187451362609863,-4.226921081542969
1695713616128596000,10.544595947265625,0.10588239878416061,-2.9623143672943115,-4.490131855010986
1695713616138628600,10.554628662109375,-0.7704889178276062,-3.345165967941284,-4.346562385559082
1695713616148661200,10.5646611328125,-1.5696916580200195,-3.7573297023773193,-4.030709743499756
1695713616158694000,10.57469384765625,-2.772084951400757,-4.140181541442871,-3.8673996925354004
1695713616168726500,10.5847265625,-4.060021877288818,-4.637888431549072,-3.747758388519287
1695713616178759200,10.59475927734375,-5.304887771606445,-5.365904808044434,-3.8195431232452393
1695713616188791800,10.604791748046875,-8.97787094116211,-6.529414653778076,-4.705485820770264
1695713616198824400,10.614824462890626,-17.491533279418945,-8.698508262634277,-7.406384468078613
1695713616208857000,10.624857177734375,-20.541784286499023,-11.739188194274902,-10.39920711517334
1695713616218889500,10.634889404296874,-17.314464569091797,-17.188840866088867,-11.735000610351562
1695713616228922400,10.64492236328125,-16.452449798583984,-22.61875343322754,-12.357732772827148
1695713616238954800,10.654954833984375,-12.798609733581543,-22.61875343322754,-8.718249320983887
1695713616248987000,10.66498681640625,-6.760322093963623,-18.01675796508789,-4.399204254150391
1695713616259016400,10.675016357421875,-4.969892501831055,-12.433704376220703,-1.9908283948898315
1695713616269046000,10.6850458984375,-5.07517671585083,-7.1856465339660645,-0.3481557071208954
1695713616279075600,10.69507568359375,-5.0943193435668945,-3.359523057937622,-0.49651068449020386
1695713616289105000,10.70510498046875,-4.347160339355469,-2.114656925201416,-3.139981508255005
1695713616299134500,10.715134521484375,-4.0935211181640625,-3.8291144371032715,-6.008377552032471
1695713616309164000,10.7251640625,-3.183650493621826,-6.084349632263184,-6.620940208435059
1695713616319193300,10.735193359375,0.6711867451667786,-9.43609619140625,-5.5005011558532715
1695713616329223000,10.745222900390624,6.407381057739258,-12.52463150024414,-4.403990268707275
1695713616339252500,10.75525244140625,7.307680130004883,-13.965709686279297,-3.699902057647705
1695713616349282000,10.765281982421875,4.209573268890381,-14.114662170410156,-2.7278177738189697
1695713616359314200,10.775314208984375,2.3802602291107178,-12.08913803100586,-3.0442686080932617
1695713616369347600,10.78534765625,2.011765718460083,-10.03011417388916,-4.64805793762207
1695713616379381000,10.795381103515625,2.964707374572754,-8.473583221435547,-6.027520179748535
1695713616389414100,10.8054140625,4.204787731170654,-6.788437843322754,-6.802794933319092
1695713616399447600,10.815447509765624,4.300500392913818,-5.274977684020996,-6.716653347015381
1695713616409480700,10.825480712890625,3.6783666610717773,-4.844269275665283,-6.477370738983154
1695713616419514000,10.83551416015625,2.667997360229492,-5.337191104888916,-5.878567218780518
1695713616429547500,10.845547607421874,1.8873388767242432,-7.0755767822265625,-4.657629489898682
1695713616439580700,10.85558056640625,1.389033555984497,-9.833304405212402,-3.3170504570007324
1695713616449614000,10.865614013671875,1.2789636850357056,-11.820544242858887,-2.383251428604126
1695713616459646200,10.875646240234374,1.2550355195999146,-12.471989631652832,-1.9621145725250244
1695713616469678000,10.885677978515625,1.3698909282684326,-12.471989631652832,-1.7413766384124756
1695713616479710000,10.8957099609375,1.3459627628326416,-12.084352493286133,-1.6983058452606201
1695713616489741800,10.905741943359375,1.3028919696807861,-10.963912963867188,-1.6648063659667969
1695713616499773700,10.915773681640625,1.4368900060653687,-9.924830436706543,-1.4063814878463745
1695713616509805600,10.9258056640625,1.4943177700042725,-8.712865829467773,-0.8943174481391907
1695713616519837400,10.93583740234375,1.2693923711776733,-7.625925540924072,-0.7070791125297546
1695713616529869300,10.945869384765626,0.9822536706924438,-7.018148899078369,-0.9230313301086426
1695713616539901200,10.955901123046875,0.747757077217102,-7.046862602233887,-1.2867404222488403
1695713616549933000,10.96593310546875,0.5802595019340515,-6.989434719085693,-1.8376877307891846
1695713616559965000,10.97596484375,0.6041877269744873,-7.1856465339660645,-2.50289249420166
1695713616569997600,10.98599755859375,-0.1094716340303421,-7.3675007820129395,-3.0011978149414062
1695713616580031500,10.996031494140626,-1.4500504732131958,-7.7838521003723145,-2.895913600921631
1695713616590065700,11.006065673828125,-2.1206390857696533,-8.263014793395996,-2.469393014907837
1695713616600099600,11.016099609375,-1.9052850008010864,-8.7176513671875,-2.053041934967041
1695713616610133800,11.0261337890625,-0.794417142868042,-8.813364028930664,-1.688734531402588
1695713616620167700,11.036167724609374,0.40737804770469666,-8.727222442626953,-1.832902193069458
1695713616630201900,11.046201904296876,1.2646067142486572,-8.248658180236816,-2.062613010406494
1695713616640235800,11.05623583984375,1.633699655532837,-7.8418779373168945,-2.3545374870300293
1695713616650270000,11.06627001953125,1.7150555849075317,-7.894520282745361,-2.675175666809082
1695713616660304100,11.07630419921875,1.5571293830871582,-8.535796165466309,-2.991626501083374
1695713616670336300,11.086336181640625,0.8243274092674255,-9.522237777709961,-2.9150562286376953
1695713616680367400,11.096367431640624,-0.3966103494167328,-10.37946605682373,-2.234896421432495
1695713616690398500,11.1063984375,-1.866999864578247,-11.030912399291992,-1.2293126583099365
1695713616700429300,11.11642919921875,-3.576073408126831,-11.743973731994629,-0.09930214285850525
1695713616710460400,11.12646044921875,-4.466801643371582,-12.567702293395996,0.9445667266845703
1695713616720491500,11.136491455078126,-3.6047873497009277,-13.176077842712402,1.4141582250595093
1695713616730522600,11.146522705078125,-1.6995022296905518,-13.123435974121094,1.150349497795105
1695713616740553700,11.1565537109375,-0.243469700217247,-12.347562789916992,0.5234299302101135
1695713616750584800,11.166584716796875,0.5659025311470032,-11.418549537658691,0.1256231814622879
1695713616760616000,11.176615966796875,0.9535398483276367,-11.519047737121582,0.3080759048461914
1695713616770646800,11.186646728515624,0.4504488706588745,-12.610773086547852,-0.003589233849197626
1695713616780679700,11.1966796875,-0.6173482537269592,-13.649856567382812,-0.99481600522995
1695713616790714400,11.20671435546875,-1.9004993438720703,-14.32044506072998,-2.210968017578125
1695713616800749300,11.216749267578125,-2.939582586288452,-14.846866607666016,-3.3553354740142822
1695713616810784000,11.226783935546875,-3.6430723667144775,-13.759926795959473,-3.5228331089019775
1695713616820819000,11.23681884765625,-4.926821708679199,-12.888340950012207,-2.4981069564819336
1695713616830854000,11.24685400390625,-5.108676433563232,-12.778270721435547,-1.4015958309173584
1695713616840888600,11.256888671875,-2.7146573066711426,-12.582059860229492,-0.9852447509765625
1695713616850923500,11.266923583984376,-0.028115665540099144,-12.03649616241455,-1.602592945098877
1695713616860958500,11.27695849609375,2.184048891067505,-11.490334510803223,-2.7038896083831787
1695713616870993200,11.2869931640625,4.2000017166137695,-11.629117965698242,-3.9349968433380127
1695713616881025800,11.29702587890625,4.420141696929932,-12.696915626525879,-5.088935375213623
1695713616891058200,11.30705810546875,3.160918712615967,-13.721641540527344,-6.410371780395508
1695713616901090300,11.31709033203125,2.1026928424835205,-14.013566017150879,-7.234101295471191
1695713616911122700,11.327122802734374,0.7812566161155701,-13.932209968566895,-7.463811874389648
1695713616921155000,11.337155029296875,-0.10468599200248718,-13.755141258239746,-7.052246570587158
1695713616931187200,11.347187255859374,0.43609192967414856,-12.902697563171387,-6.544369697570801
1695713616941219600,11.357219482421876,2.620140790939331,-12.376276969909668,-6.089733600616455
1695713616951251700,11.367251708984375,1.4416756629943848,-12.218350410461426,-5.730212211608887
1695713616961284000,11.3772841796875,-0.08554340898990631,-11.949756622314453,-5.103292465209961
1695713616971316500,11.38731640625,-1.1820544004440308,-11.13619613647461,-4.260420799255371
1695713616981348600,11.3973486328125,-1.435693621635437,-10.020543098449707,-3.5946178436279297
1695713616991381000,11.407381103515625,-0.09990034252405167,-8.947959899902344,-2.043470621109009
1695713617001411600,11.41741162109375,0.9535398483276367,-8.02373218536377,-0.7597211599349976
1695713617011442200,11.427442138671875,1.7485551834106445,-7.558926582336426,0.005982056725770235
1695713617021473000,11.43747314453125,2.365903377532959,-6.994220733642578,0.2021935135126114
1695713617031503600,11.447503662109375,2.51425838470459,-6.0747785568237305,0.16869398951530457
1695713617041534200,11.4575341796875,2.538186550140381,-5.68175745010376,0.2356930375099182
1695713617051564800,11.467564697265624,2.7589244842529297,-4.743771076202393,0.07776673883199692
1695713617061595600,11.477595703125,2.8354947566986084,-4.173680782318115,-0.18065811693668365
1695713617071626200,11.487626220703126,2.523829698562622,-3.9870407581329346,-0.6544370055198669
1695713617081656800,11.49765673828125,2.0452651977539062,-3.872185230255127,-1.296311616897583
1695713617091689700,11.507689697265626,1.7916259765625,-3.8291144371032715,-1.9334007501602173
1695713617101724700,11.517724609375,1.6193426847457886,-3.8626139163970947,-2.383251428604126
1695713617111759600,11.527759521484375,1.6002001762390137,-3.9535412788391113,-2.746960401535034
1695713617121794600,11.537794677734375,1.475175142288208,-3.7908291816711426,-3.149552822113037
1695713617131829500,11.54782958984375,1.1976077556610107,-3.6711881160736084,-3.6568312644958496
1695713617141864700,11.55786474609375,0.8865407705307007,-3.517449378967285,-4.18863582611084
1695713617151899600,11.567899658203125,0.37866419553756714,-3.4983067512512207,-4.58584451675415
1695713617161934600,11.5779345703125,-0.12861421704292297,-3.5748770236968994,-4.839483737945557
1695713617171969500,11.587969482421874,-0.8614161610603333,-3.7573297023773193,-4.820341110229492
1695713617182004500,11.59800439453125,-1.9435701370239258,-3.8626139163970947,-4.83469820022583
1695713617192039400,11.608039306640626,-3.3511481285095215,-4.226323127746582,-4.614558696746826
1695713617202072300,11.618072265625,-4.5577287673950195,-4.930410861968994,-4.145565032958984
1695713617212104200,11.628104248046874,-6.544968128204346,-5.983851432800293,-4.006781578063965
1695713617222136000,11.638135986328125,-12.31525993347168,-7.798209190368652,-4.83469820022583
1695713617232168200,11.648168212890624,-19.47877311706543,-10.025328636169434,-7.3776702880859375
1695713617242200000,11.658199951171875,-17.261821746826172,-13.276576042175293,-9.000602722167969
1695713617252232000,11.66823193359375,-16.10728645324707,-18.424135208129883,-10.643275260925293
1695713617262264000,11.67826416015625,-15.53779411315918,-22.16351890563965,-10.62413215637207
1695713617272296000,11.6882958984375,-10.189236640930176,-20.564516067504883,-6.97986364364624
1695713617282327800,11.698327880859376,-5.7888360023498535,-15.713665962219238,-3.723830223083496
1695713617292359700,11.708359619140625,-4.960321426391602,-11.016555786132812,-1.6121642589569092
1695713617302391800,11.718391845703126,-5.6446685791015625,-6.821937561035156,-0.8081758618354797
1695713617312424000,11.728423828125,-5.237888813018799,-4.034897327423096,-2.287538528442383
1695713617322454000,11.7384541015625,-4.088735580444336,-3.857828378677368,-4.542773723602295
1695713617332484400,11.748484375,-3.6430723667144775,-4.901697158813477,-5.222933769226074
1695713617342514400,11.758514404296875,-2.2737796306610107,-7.156932353973389,-4.179064750671387
1695713617352544500,11.76854443359375,3.294916868209839,-10.518250465393066,-2.68953275680542
1695713617362574600,11.77857470703125,8.021339416503906,-12.711272239685059,-2.905484914779663
1695713617372605000,11.78860498046875,4.880161762237549,-13.568500518798828,-3.833899974822998
1695713617382635000,11.798635009765626,0.0771685317158699,-13.434502601623535,-3.690330743789673
1695713617392665000,11.8086650390625,0.747757077217102,-11.538190841674805,-4.3896331787109375
1695713617402695200,11.818695068359375,3.3236305713653564,-9.196813583374023,-5.404788017272949
1695713617412725200,11.828725341796876,4.554139614105225,-7.16650390625,-6.0849480628967285
1695713617422758000,11.8387578125,4.8466620445251465,-5.212764263153076,-6.640082836151123
1695713617432791300,11.848791259765624,3.610769271850586,-4.13060998916626,-6.472585201263428
1695713617442825000,11.858824951171876,2.318047046661377,-4.436891555786133,-6.123233318328857
1695713617452858400,11.8688583984375,1.7868403196334839,-5.811567783355713,-5.304289817810059
1695713617462892000,11.87889208984375,2.217548370361328,-8.602795600891113,-4.303491592407227
1695713617472925400,11.888925537109374,2.0787646770477295,-11.47119140625,-3.5946178436279297
1695713617482958800,11.898958740234375,1.724626898765564,-13.305290222167969,-2.8187451362609863
1695713617492992500,11.908992431640625,1.4847464561462402,-13.903495788574219,-2.3641088008880615
1695713617503026200,11.919026123046875,1.1353943347930908,-13.348361015319824,-2.1583259105682373
1695713617513059600,11.9290595703125,1.293320655822754,-12.290135383605957,-1.94297194480896
1695713617523093000,11.939093017578125,1.705484390258789,-10.87717342376709,-1.784447431564331
1695713617533125000,11.949125,1.9208383560180664,-9.53659439086914,-1.44945228099823
1695713617543156000,11.959156005859375,1.4847464561462402,-8.401798248291016,-1.3202399015426636
1695713617553186800,11.969186767578124,1.2598211765289307,-7.520641803741455,-1.4829518795013428
1695713617563217700,11.9792177734375,1.0157532691955566,-7.262216567993164,-1.8807586431503296
1695713617573248300,11.989248291015626,1.1210373640060425,-6.970292568206787,-2.517249345779419
1695713617583279000,11.999279052734375,1.0971091985702515,-6.692126750946045,-2.9629125595092773
1695713617593310000,12.00931005859375,0.747757077217102,-6.639484405517578,-3.3553354740142822
1695713617603340800,12.0193408203125,-0.17168502509593964,-6.783652305603027,-3.6329028606414795
1695713617613371400,12.029371337890625,-1.1724830865859985,-7.314858913421631,-3.2787652015686035
1695713617623402200,12.03940234375,-1.4069796800613403,-7.990232944488525,-2.5459632873535156
1695713617633433000,12.04943310546875,-0.4301098585128784,-8.444869041442871,-1.7461622953414917
1695713617643465500,12.059465576171876,0.6137589812278748,-8.598010063171387,-1.3872389793395996
1695713617653499100,12.0694990234375,1.3076776266098022,-8.598010063171387,-1.339382529258728
1695713617663533000,12.079532958984375,1.7581263780593872,-8.38265609741211,-1.4829518795013428
1695713617673566700,12.089566650390625,1.9830517768859863,-8.200801849365234,-1.6217355728149414
1695713617683600400,12.099600341796876,2.050050735473633,-8.167302131652832,-1.9094724655151367
1695713617693634300,12.10963427734375,1.5571293830871582,-8.478368759155273,-2.249253273010254
1695713617703668000,12.11966796875,0.5754738450050354,-9.024530410766602,-2.3306093215942383
1695713617713702000,12.129701904296875,-0.38225340843200684,-9.345169067382812,-2.234896421432495
1695713617723735600,12.139735595703126,-1.2490534782409668,-9.498309135437012,-1.9860427379608154
1695713617733769200,12.149769287109375,-2.2785654067993164,-9.94397258758545,-1.6648063659667969
1695713617743801600,12.159801513671875,-3.111865758895874,-10.824531555175781,-1.1096714735031128
1695713617753833200,12.169833251953126,-2.8151557445526123,-11.882757186889648,-0.36251261830329895
1695713617763865000,12.179864990234375,-1.4165509939193726,-12.778270721435547,0.015553346835076809
1695713617773896700,12.189896728515626,0.3930211067199707,-12.701701164245605,-0.008374879136681557
1695713617783928600,12.199928466796875,1.389033555984497,-11.801401138305664,-0.09930214285850525
1695713617793960400,12.20996044921875,1.3507484197616577,-11.289337158203125,0.18783657252788544
1695713617803992000,12.219991943359375,0.8721838593482971,-11.72004508972168,0.6143572330474854
1695713617814024000,12.23002392578125,0.1585244983434677,-12.668201446533203,0.2548356056213379
1695713617824055600,12.2400556640625,-0.6029912829399109,-13.458431243896484,-0.6065805554389954
1695713617834087400,12.25008740234375,-1.34476637840271,-14.027922630310059,-1.6600207090377808
1695713617844119000,12.260119140625,-1.9196419715881348,-14.181661605834961,-2.9485557079315186
1695713617854151200,12.270151123046874,-3.1932218074798584,-13.3770751953125,-3.930211305618286
1695713617864182500,12.2801826171875,-3.542573928833008,-11.983854293823242,-3.3553354740142822
1695713617874214100,12.290214111328124,-2.513062000274658,-11.825329780578613,-1.7748762369155884
1695713617884245200,12.300245361328125,-1.9100706577301025,-12.218350410461426,-0.9756734371185303
1695713617894276900,12.31027685546875,-1.9962122440338135,-12.136994361877441,-1.2340983152389526
1695713617904308200,12.32030810546875,-1.5409778356552124,-11.763115882873535,-1.8035900592803955
1695713617914339600,12.330339599609376,0.5228317379951477,-11.428120613098145,-2.5124638080596924
1695713617924371000,12.340370849609375,3.1896326541900635,-11.901900291442871,-3.589832067489624
1695713617934402300,12.35040234375,4.267001152038574,-12.940982818603516,-4.8777689933776855
1695713617944433700,12.36043359375,3.941577196121216,-13.654642105102539,-5.994020938873291
1695713617954465000,12.370465087890626,2.9790642261505127,-13.592429161071777,-6.754938125610352
1695713617964498400,12.38049853515625,1.4656038284301758,-13.64028549194336,-6.970292568206787
1695713617974538200,12.390538330078124,-0.3200400173664093,-13.410574913024902,-7.008577346801758
1695713617984578000,12.400578125,-0.01375873014330864,-12.706486701965332,-6.314659118652344
1695713617994617900,12.410617919921876,2.2845473289489746,-12.232707977294922,-5.639284610748291
1695713618004658000,12.420657958984375,1.4225330352783203,-11.408978462219238,-5.184648513793945
1695713618014697700,12.43069775390625,0.5276173949241638,-11.265409469604492,-4.31306266784668
1695713618024737500,12.440737548828125,-0.4827519655227661,-10.479965209960938,-3.666402578353882
1695713618034777300,12.45077734375,-1.1102696657180786,-9.915258407592773,-3.139981508255005
1695713618044817200,12.460817138671874,-0.12382857501506805,-9.306883811950684,-1.7796618938446045
1695713618054857000,12.47085693359375,1.1976077556610107,-8.943174362182617,-0.5539384484291077
1695713618064889300,12.480889404296875,1.700698733329773,-8.46879768371582,0.07776673883199692
1695713618074916600,12.49091650390625,1.6145570278167725,-7.683353424072266,0.0729810893535614
1695713618084944000,12.50094384765625,2.0931215286254883,-6.860222339630127,0.10648060590028763
1695713618094971100,12.51097119140625,2.4807589054107666,-6.1944193840026855,-0.061016976833343506
1695713618104998400,12.520998291015625,2.5764718055725098,-5.4041900634765625,-0.137587308883667
1695713618115025700,12.531025634765625,2.3611178398132324,-5.078765869140625,-0.39122650027275085
1695713618125053200,12.54105322265625,1.9351953268051147,-5.006981372833252,-0.8560323119163513
1695713618135080400,12.55108056640625,1.5230315923690796,-4.949553489685059,-1.4685949087142944
1695713618145107700,12.561107666015625,1.2598211765289307,-4.758127689361572,-2.0817556381225586
1695713618155135000,12.571135009765625,1.0971091985702515,-4.484747886657715,-2.66560435295105
1695713618165162200,12.581162353515625,0.9296116232872009,-4.178466320037842,-3.092125177383423
1695713618175194400,12.5911943359375,0.8243274092674255,-3.675973892211914,-3.43190598487854
1695713618185225000,12.601224853515625,0.7381857633590698,-3.1489546298980713,-3.800400495529175
1695713618195255600,12.611255615234375,0.5030909776687622,-2.7038896083831787,-4.150351047515869
1695713618205286400,12.621286376953124,0.12023933976888657,-2.54536509513855,-4.480560302734375
1695713618215317000,12.63131689453125,-0.4540380835533142,-2.7086751461029053,-4.614558696746826
1695713618225347800,12.641347900390626,-0.97148597240448,-2.981456995010376,-4.451846599578857
1695713618235378400,12.65137841796875,-1.77607262134552,-3.2829527854919434,-4.131208419799805
1695713618245409000,12.661408935546875,-2.882154941558838,-3.6711881160736084,-3.800400495529175
1695713618255440000,12.67143994140625,-4.026522159576416,-4.231108665466309,-3.4893336296081543
1695713618265470500,12.681470458984375,-5.544169902801514,-5.059623718261719,-3.3744781017303467
1695713618275502800,12.6915029296875,-10.026525497436523,-6.668198585510254,-4.150351047515869
1695713618285537300,12.701537353515626,-18.3248348236084,-8.995817184448242,-6.343372821807861
1695713618295571700,12.71157177734375,-19.880767822265625,-12.428918838500977,-8.579465866088867
1695713618305606400,12.7216064453125,-16.51944923400879,-18.19921112060547,-10.394421577453613
1695713618315640800,12.731640869140625,-15.78664779663086,-23.79183578491211,-11.892927169799805
1695713618325675300,12.74167529296875,-11.802597999572754,-23.3509578704834,-8.526823043823242
1695713618335709700,12.751709716796874,-6.243472576141357,-18.266210556030273,-4.514060020446777
1695713618345744100,12.761744140625,-4.831109046936035,-12.730414390563965,-1.8131613731384277
1695713618355778600,12.771778564453125,-4.730610370635986,-7.094718933105469,-0.06580262631177902
1695713618365813200,12.781813232421875,-5.151747226715088,-2.6943182945251465,-0.7310073375701904
1695713618375847200,12.79184716796875,-4.409373760223389,-0.9990034699440002,-3.2452657222747803
1695713618385887700,12.8018876953125,-3.6430723667144775,-2.6464617252349854,-5.423930644989014
1695713618395928600,12.811928466796875,-2.283350944519043,-5.160121917724609,-5.5005011558532715
1695713618405969200,12.82196923828125,2.4711875915527344,-8.660223007202148,-4.494917392730713
1695713618416010000,12.832010009765625,8.083553314208984,-11.95454216003418,-4.078566074371338
1695713618426050600,12.842050537109374,7.125825881958008,-14.387444496154785,-4.475774765014648
1695713618436091400,12.85209130859375,1.5326029062271118,-15.574882507324219,-3.9397823810577393
1695713618446132000,12.862132080078124,0.6089733839035034,-14.114662170410156,-4.4374895095825195
