time,seconds_elapsed,z,y,x
1695713495964664600,0.24566455078125,0.15212535858154297,-0.15545082092285156,-0.161299467086792
1695713495974741200,0.2557412109375,0.3210573196411133,-0.07411003112792969,-0.7698249816894531
1695713495984746500,0.26574658203125,0.5927367210388184,-0.04426240921020508,-0.8591220378875732
1695713495994784300,0.2757841796875,0.7757043838500977,0.16383123397827148,-0.8565040826797485
1695713496004986000,0.285986083984375,0.7916889190673828,-0.3992452621459961,-0.13572216033935547
1695713496014849500,0.295849609375,0.5399284362792969,-0.9367165565490723,0.46022510528564453
1695713496024887300,0.30588720703125,0.3036918640136719,-0.940758228302002,0.45813632011413574
1695713496034928000,0.31592822265625,0.47066497802734375,-0.45632171630859375,-0.011384248733520508
1695713496044978000,0.32597802734375,0.37380361557006836,-0.13611125946044922,-0.18270611763000488
1695713496054961000,0.3359609375,-0.10020589828491211,-0.20323944091796875,0.09387397766113281
1695713496065005300,0.34600537109375,-0.6033902168273926,-0.19115352630615234,0.5154643654823303
1695713496075014400,0.356014404296875,-0.790191650390625,-0.0395817756652832,0.9226716160774231
1695713496085078300,0.366078369140625,-0.40218162536621094,-0.18247556686401367,1.4522731304168701
1695713496095110400,0.3761103515625,-0.08041143417358398,-0.3768196105957031,1.9625170230865479
1695713496105163300,0.386163330078125,-0.17090511322021484,-0.5413579940795898,2.0292367935180664
1695713496115204000,0.3962041015625,-0.07575321197509766,-0.3820304870605469,1.5374152660369873
1695713496125199400,0.406199462890625,-0.22011899948120117,-0.30313587188720703,0.9819392561912537
1695713496135221000,0.416220947265625,-0.24753999710083008,-0.4562830924987793,0.3820224106311798
1695713496145265400,0.426265380859375,0.040781497955322266,-0.6460585594177246,0.2227293848991394
1695713496155296500,0.436296630859375,0.4161109924316406,-0.6805374622344971,0.08766824007034302
1695713496165351700,0.4463515625,0.7433567047119141,-0.44903564453125,-0.09234493970870972
1695713496175392800,0.456392822265625,0.743445873260498,-0.3330674171447754,0.03986617922782898
1695713496185415700,0.466415771484375,0.6629195213317871,-0.4649810791015625,0.3961104452610016
1695713496195449000,0.476448974609375,0.381807804107666,-0.11333537101745605,0.0767521858215332
1695713496205456600,0.48645654296875,0.4232511520385742,0.010484695434570312,0.13344408571720123
1695713496215479000,0.49647900390625,0.07207393646240234,0.20069646835327148,-0.24824686348438263
1695713496225544400,0.50654443359375,0.09436511993408203,-0.44629454612731934,0.23646549880504608
1695713496235585000,0.5165849609375,-0.05087757110595703,-0.3041198253631592,0.5536676049232483
1695713496245602300,0.526602294921875,-0.2298870086669922,-0.24413704872131348,0.7156816720962524
1695713496255633200,0.536633056640625,-0.2711458206176758,-0.12734055519104004,0.7421345710754395
1695713496265680400,0.546680419921875,-0.40202951431274414,-0.1356201171875,0.3851597309112549
1695713496275718100,0.55671826171875,-0.2526102066040039,-0.12543058395385742,0.18156158924102783
1695713496285758000,0.566758056640625,0.09290695190429688,-0.07303738594055176,0.08699989318847656
1695713496295796700,0.576796630859375,0.2684297561645508,-0.2483816146850586,0.3673803210258484
1695713496305794800,0.586794921875,0.7088165283203125,-0.4850730895996094,0.4291141629219055
1695713496315816200,0.596816162109375,1.2145414352416992,-0.5261867046356201,0.4799540042877197
1695713496325861600,0.606861572265625,1.2180042266845703,-0.3167738914489746,0.559101939201355
1695713496335893200,0.616893310546875,0.9347591400146484,-0.3684556484222412,0.8456298112869263
1695713496345952500,0.626952392578125,0.0855560302734375,-0.28172898292541504,1.0990421772003174
1695713496355996000,0.636995849609375,-0.8206229209899902,-0.1772153377532959,0.9685071706771851
1695713496365981700,0.646981689453125,-0.8346171379089355,-0.3424481153488159,0.42163002490997314
1695713496376019000,0.65701904296875,-0.10596084594726562,-0.6993148326873779,0.09755003452301025
1695713496386063000,0.66706298828125,1.1888751983642578,-1.0189913511276245,0.04103827476501465
1695713496396101000,0.67710107421875,2.542736053466797,-1.2404217720031738,-0.10420072078704834
1695713496406138400,0.687138427734375,3.6258697509765625,-1.468723177909851,-0.4597189426422119
1695713496416176400,0.69717626953125,4.60090446472168,-1.6139767169952393,-1.0764107704162598
1695713496426205700,0.707205810546875,5.148836135864258,-1.739089846611023,-1.755367636680603
1695713496436243000,0.717242919921875,4.784311294555664,-1.9897072315216064,-2.2239108085632324
1695713496446243600,0.72724365234375,2.7561426162719727,-2.072455644607544,-2.6971938610076904
1695713496456277000,0.737277099609375,-1.2555241584777832,-2.1278820037841797,-2.98215913772583
1695713496466338300,0.74733837890625,-5.045201778411865,-2.414806365966797,-2.8570072650909424
1695713496476374500,0.75737451171875,-6.998994827270508,-2.752481460571289,-2.320073127746582
1695713496486381300,0.76738134765625,-6.631107330322266,-3.18361496925354,-1.5428550243377686
1695713496496414700,0.777414794921875,-5.2840375900268555,-3.7348995208740234,-0.7172763347625732
1695713496506453000,0.787452880859375,-3.8089993000030518,-4.625141143798828,-0.24948716163635254
1695713496516486700,0.797486572265625,-2.19163179397583,-5.410488605499268,-0.45988035202026367
1695713496526514200,0.80751416015625,-0.4661722183227539,-5.910649299621582,-0.9473302364349365
1695713496536547300,0.81754736328125,0.750432014465332,-5.747354030609131,-0.7256577014923096
1695713496546599200,0.82759912109375,0.15037822723388672,-5.540153980255127,0.37036609649658203
1695713496556634000,0.837634033203125,-1.3237528800964355,-5.002206802368164,0.858576774597168
1695713496566645200,0.847645263671875,-2.096099853515625,-4.907393455505371,1.2033686637878418
1695713496576677600,0.857677734375,-2.3108348846435547,-4.3969831466674805,1.4681429862976074
1695713496586718700,0.86771875,-1.3596620559692383,-4.083287239074707,1.981020450592041
1695713496596752100,0.877752197265625,0.3936176300048828,-4.431695938110352,2.0487842559814453
1695713496606784300,0.8877841796875,2.2160396575927734,-4.825767517089844,1.8229284286499023
1695713496616817700,0.897817626953125,4.4649658203125,-4.815780162811279,2.472628116607666
1695713496626845700,0.907845703125,6.1218366622924805,-3.6172311305999756,4.043964862823486
1695713496636878300,0.91787841796875,6.5211181640625,-2.711440086364746,5.780116081237793
1695713496646920400,0.92792041015625,7.2577924728393555,-2.137981414794922,7.253726005554199
1695713496656954000,0.9379541015625,8.25882625579834,-1.3631782531738281,7.725594520568848
1695713496666966800,0.947966796875,9.346562385559082,-0.9775791168212891,7.523778915405273
1695713496676998400,0.957998291015625,10.632951736450195,-0.8291516304016113,6.979154586791992
1695713496687029500,0.968029541015625,11.830808639526367,-0.1520977020263672,6.904889106750488
1695713496697060900,0.978060791015625,11.885295867919922,1.2706317901611328,7.866852283477783
1695713496707099000,0.988098876953125,10.033689498901367,1.6352615356445312,9.418657302856445
1695713496717130800,0.998130859375,7.450924396514893,2.633279800415039,10.515544891357422
1695713496727165200,1.008165283203125,4.6487603187561035,3.9879274368286133,10.260137557983398
1695713496737197600,1.018197509765625,2.4851388931274414,4.83773946762085,9.0291748046875
1695713496747237600,1.028237548828125,1.2127375602722168,5.079986572265625,7.66568660736084
1695713496757270800,1.038270751953125,0.6878366470336914,5.105906963348389,6.581078052520752
1695713496767461000,1.048461181640625,0.7218852043151855,5.456509590148926,6.0302414894104
1695713496777330400,1.058330322265625,0.3859682083129883,5.5203938484191895,6.076448917388916
1695713496787349500,1.068349609375,-0.22528338432312012,5.610745906829834,5.836524963378906
1695713496797376500,1.07837646484375,-1.0869531631469727,6.101851463317871,5.412067413330078
1695713496807396400,1.088396240234375,-2.206521511077881,6.8760151863098145,5.135363578796387
1695713496817457400,1.09845751953125,-3.2847061157226562,7.368379592895508,4.447680473327637
1695713496827481300,1.1084814453125,-8.449631690979004,7.272391319274902,1.0937938690185547
1695713496837523500,1.1185234375,-31.283008575439453,2.6841487884521484,-10.8458833694458
1695713496847549400,1.128549560546875,-28.24310874938965,-0.5329818725585938,-7.940262317657471
1695713496857553200,1.13855322265625,1.7618398666381836,9.652169227600098,-1.4799151420593262
1695713496867576800,1.148576904296875,3.3236441612243652,3.9380831718444824,1.969986915588379
1695713496877645000,1.15864501953125,-0.11339521408081055,0.006541013717651367,0.9719209671020508
1695713496887673300,1.16867333984375,-1.1282685995101929,-0.9365193843841553,-2.169034957885742
1695713496897730800,1.178730712890625,1.3273593187332153,0.5643031597137451,-2.592684745788574
1695713496907762000,1.188761962890625,3.4554810523986816,-1.2493557929992676,-2.3996076583862305
1695713496917776000,1.19877587890625,4.300949573516846,-1.3638596534729004,-1.4445958137512207
1695713496927805200,1.20880517578125,1.5588250160217285,0.6006486415863037,-1.9641318321228027
1695713496937846500,1.218846435546875,0.35813766717910767,-1.877852201461792,-5.856542587280273
1695713496947876900,1.228876953125,-2.5567867755889893,-0.3403151035308838,-5.544415473937988
1695713496957917200,1.238917236328125,1.8137404918670654,0.1192324161529541,-3.8249974250793457
1695713496967948800,1.24894873046875,3.656745195388794,-3.574172258377075,-1.7429776191711426
1695713496977977000,1.25897705078125,1.1370699405670166,-5.3298845291137695,-1.8977794647216797
1695713496988008400,1.269008544921875,-0.39856499433517456,-2.340033769607544,-4.89104700088501
1695713496998056200,1.27905615234375,-0.9248875379562378,0.19367766380310059,-6.564610481262207
1695713497008089000,1.289089111328125,-3.1199684143066406,-0.8462462425231934,-1.7199325561523438
1695713497018104800,1.299104736328125,0.6608033180236816,-3.6866953372955322,3.6210737228393555
1695713497028136000,1.309135986328125,2.8221497535705566,-1.9614529609680176,3.320786476135254
1695713497038170000,1.319170166015625,3.6421279907226562,-3.0830767154693604,4.449280738830566
1695713497048201500,1.329201416015625,3.97062349319458,-4.2099738121032715,5.841883659362793
1695713497058218200,1.33921826171875,3.0182251930236816,-4.820598602294922,5.295419692993164
1695713497068248000,1.349248046875,1.5148530006408691,-5.022005081176758,3.592196464538574
1695713497078297300,1.35929736328125,-0.10015106201171875,-5.315281391143799,2.3916664123535156
1695713497088329200,1.3693291015625,-0.2977057695388794,-6.603168487548828,1.8439922332763672
1695713497098373400,1.379373291015625,-0.26401782035827637,-7.167267322540283,0.317291259765625
1695713497108406500,1.389406494140625,-0.8913238644599915,-6.30215311050415,-1.0927577018737793
1695713497118428700,1.3994287109375,-1.7973395586013794,-6.039539813995361,-1.3768010139465332
1695713497128460500,1.40946044921875,-1.9680848121643066,-6.477692127227783,-1.340186595916748
1695713497138493000,1.419492919921875,-1.308814287185669,-6.457452774047852,-1.8434677124023438
1695713497148524800,1.42952490234375,0.6497887969017029,-5.527133941650391,-2.6733264923095703
1695713497158553300,1.43955322265625,2.8565964698791504,-5.078205108642578,-3.6435418128967285
1695713497168585200,1.449585205078125,2.227668523788452,-4.3478851318359375,-4.605644226074219
1695713497178620000,1.459619873046875,0.9652503728866577,-3.3028440475463867,-4.956581115722656
1695713497188652000,1.469652099609375,1.0233687162399292,-2.7090206146240234,-4.653983116149902
1695713497198693400,1.479693359375,2.0746867656707764,-1.8749651908874512,-3.407317638397217
1695713497208726300,1.489726318359375,2.577547073364258,-1.0646233558654785,-0.5868773460388184
1695713497218750500,1.49975048828125,2.4706783294677734,0.12791156768798828,1.5880928039550781
1695713497228782300,1.5097822265625,2.489323139190674,0.8242354393005371,2.44167423248291
1695713497238812700,1.519812744140625,1.482400894165039,1.873800277709961,3.3414740562438965
1695713497248844300,1.52984423828125,0.8545199036598206,2.7335965633392334,4.562252521514893
1695713497258856400,1.5398564453125,0.2824441194534302,3.2263927459716797,5.783875942230225
1695713497268886500,1.549886474609375,-0.3477197289466858,3.3990273475646973,7.429891586303711
1695713497278944000,1.559944091796875,-0.33827081322669983,4.397414207458496,8.859321594238281
1695713497288976600,1.5699765625,3.89521861076355,3.022902011871338,8.450445175170898
1695713497299016700,1.5800166015625,1.9158909320831299,3.9491231441497803,7.1374077796936035
1695713497309050000,1.590050048828125,-8.789822578430176,5.211130142211914,5.599210739135742
1695713497319068000,1.60006787109375,-6.373319149017334,6.0793280601501465,7.120490074157715
1695713497329099800,1.610099853515625,-1.60118567943573,5.795127868652344,8.475493431091309
1695713497339137000,1.620136962890625,-0.13557195663452148,4.997513771057129,8.90084171295166
1695713497349169400,1.63016943359375,-1.9531687498092651,5.086191654205322,6.4022321701049805
1695713497359201500,1.640201416015625,-1.7450613975524902,5.1455607414245605,4.35096549987793
1695713497369234000,1.65023388671875,-2.460277557373047,4.428670406341553,-0.2649068832397461
1695713497379268000,1.66026806640625,-1.630924105644226,3.6529593467712402,-4.672278881072998
1695713497389300700,1.67030078125,0.9402295351028442,3.050948143005371,-6.431299209594727
1695713497399312400,1.6803125,0.19194936752319336,3.0365447998046875,-5.832545280456543
1695713497409342700,1.6903427734375,-0.7088578939437866,3.679216146469116,-7.780608654022217
1695713497419413500,1.70041357421875,0.6887722611427307,3.0190939903259277,-7.284604072570801
1695713497429448000,1.710447998046875,1.7421735525131226,2.7467923164367676,-6.829566955566406
1695713497439477800,1.720477783203125,0.7566211223602295,2.8068652153015137,-6.185355186462402
1695713497449512000,1.730511962890625,0.5050997734069824,2.274087905883789,-5.400801658630371
1695713497459528200,1.740528076171875,0.2789595127105713,1.9111497402191162,-4.725302219390869
1695713497469560300,1.750560302734375,1.6675059795379639,1.6985011100769043,-5.595415115356445
1695713497479568400,1.760568359375,2.039229393005371,1.2518510818481445,-5.372183799743652
1695713497489598200,1.77059814453125,2.0670664310455322,2.152167558670044,-4.350788593292236
1695713497499667000,1.7806669921875,1.9252649545669556,3.102708578109741,-2.926114082336426
1695713497509700600,1.79070068359375,1.7900259494781494,3.550747871398926,-1.8854427337646484
1695713497519732700,1.800732666015625,1.430788278579712,2.884834051132202,-0.9854974746704102
1695713497529766400,1.810766357421875,1.3253061771392822,2.0278544425964355,-0.45508384704589844
1695713497539765800,1.820765869140625,1.358467698097229,0.5390009880065918,-0.010096549987792969
1695713497549795800,1.8307958984375,0.34954917430877686,-0.4180335998535156,0.14621925354003906
1695713497559828000,1.840827880859375,-1.055540919303894,-1.920778751373291,0.21848297119140625
1695713497569858000,1.850858154296875,0.549117922782898,-0.8866932392120361,-0.5141019821166992
1695713497579917000,1.8609169921875,1.6484076976776123,-3.0400869846343994,0.5501461029052734
1695713497589950200,1.8709501953125,0.3346167206764221,-3.3179523944854736,-0.2707710266113281
1695713497599977000,1.88097705078125,-0.11171245574951172,-4.095090389251709,0.16520309448242188
1695713497610009300,1.89100927734375,-0.2604683041572571,-5.667326927185059,1.2379274368286133
1695713497620040400,1.90104052734375,-0.8579358458518982,-6.120228290557861,1.8545475006103516
1695713497630072800,1.91107275390625,-0.8183832764625549,-5.860165596008301,1.5727615356445312
1695713497640106000,1.92110595703125,-1.434257984161377,-6.376741409301758,1.689875602722168
1695713497650138400,1.931138427734375,-1.9285435676574707,-6.121967315673828,0.8204336166381836
1695713497660138500,1.941138427734375,-2.0378310680389404,-4.647246360778809,0.037314414978027344
1695713497670167600,1.95116748046875,-0.8724496364593506,-4.1134352684021,0.4663734436035156
1695713497680239400,1.9612392578125,1.45014488697052,-3.9407668113708496,0.8877410888671875
1695713497690272800,1.971272705078125,2.7342023849487305,-3.775111198425293,2.130159378051758
1695713497700298200,1.98129833984375,1.752895712852478,-3.000995635986328,2.523235321044922
1695713497710331000,1.991330810546875,0.3061678409576416,-1.8907384872436523,0.26709651947021484
1695713497720378400,2.00137841796875,1.1214238405227661,1.1577534675598145,-1.5896625518798828
1695713497730412500,2.01141259765625,0.489949494600296,2.875082015991211,-2.294203758239746
1695713497740431400,2.021431396484375,0.017053470015525818,2.9221630096435547,-3.0831027030944824
1695713497750464000,2.031464111328125,-0.6017398238182068,2.4625070095062256,-3.477621555328369
1695713497760492000,2.041491943359375,1.1891217231750488,2.704113721847534,-3.424069881439209
1695713497770524200,2.051524169921875,1.675321102142334,3.3035504817962646,-3.1531195640563965
1695713497780559600,2.0615595703125,1.8826110363006592,2.831660747528076,-2.446040153503418
1695713497790592000,2.071592041015625,2.1747548580169678,2.470022439956665,-0.8083739280700684
1695713497800628700,2.081628662109375,2.9013569355010986,2.564908981323242,-0.019397735595703125
1695713497810661600,2.09166162109375,3.4526662826538086,2.958893299102783,-0.29441165924072266
1695713497820674000,2.101674072265625,2.964362144470215,2.029181957244873,0.3771486282348633
1695713497830705000,2.111704833984375,2.740471601486206,-0.6239204406738281,3.1645898818969727
1695713497840764400,2.121764404296875,0.7901698350906372,-3.5530190467834473,5.325101852416992
1695713497850798300,2.13179833984375,-2.7280752658843994,-6.217161178588867,5.613893985748291
1695713497860809500,2.1418095703125,-2.3071396350860596,-7.94791316986084,3.7137508392333984
1695713497870840800,2.1518408203125,-1.0776716470718384,-7.65007209777832,0.613807201385498
1695713497880883200,2.16188330078125,0.06663042306900024,-6.003782272338867,-2.894434928894043
1695713497890915800,2.171915771484375,-0.05553964525461197,-1.396367073059082,-5.418341636657715
1695713497900950500,2.181950439453125,0.39918118715286255,0.09695148468017578,-4.559185981750488
1695713497910983400,2.1919833984375,0.280274361371994,2.000028610229492,-1.8942434787750244
1695713497921021000,2.20202099609375,0.9338983297348022,3.8408331871032715,0.405853271484375
1695713497931054300,2.212054443359375,1.9791901111602783,22.434389114379883,-0.713813304901123
1695713497941082000,2.22208203125,-0.3357882797718048,12.777265548706055,0.25013113021850586
1695713497951114800,2.23211474609375,-0.14640437066555023,5.190681457519531,1.2041587829589844
1695713497961142000,2.24214208984375,0.8303253650665283,5.989760398864746,0.8931207656860352
1695713497971174100,2.252174072265625,-0.1789892613887787,4.600388526916504,-0.4020090103149414
1695713497981212000,2.2622119140625,0.2698683738708496,3.61350679397583,-1.9675748348236084
1695713497991244500,2.27224462890625,0.2663470506668091,3.9632978439331055,-3.820316791534424
1695713498001280800,2.28228076171875,1.2189924716949463,2.0739145278930664,-4.854794979095459
1695713498011313700,2.292313720703125,1.6654250621795654,0.17912578582763672,-4.6413750648498535
1695713498021342000,2.302342041015625,1.2960326671600342,-8.069185256958008,1.6028022766113281
1695713498031374300,2.312374267578125,1.533036708831787,-17.159727096557617,7.266209602355957
1695713498041401300,2.3224013671875,0.39780107140541077,-13.533449172973633,6.0943403244018555
1695713498051433200,2.33243310546875,-0.1392190009355545,-11.408964157104492,4.277700424194336
1695713498061447400,2.342447509765625,1.6391887664794922,-8.262299537658691,1.7574830055236816
1695713498071477500,2.3524775390625,1.8378708362579346,-7.2491254806518555,-1.6796529293060303
1695713498081540900,2.362540771484375,0.2749716639518738,-6.128839492797852,-4.535526275634766
1695713498091574300,2.37257421875,-1.9602587223052979,-4.485428810119629,-5.049921035766602
1695713498101598000,2.382597900390625,-1.3196781873703003,-1.657536506652832,-4.683199882507324
1695713498111630300,2.39263037109375,-0.37207597494125366,2.969331741333008,-2.883815288543701
1695713498121666600,2.40266650390625,-0.3176535964012146,3.819258213043213,-1.11178457736969
1695713498131699500,2.412699462890625,1.1594810485839844,3.078449249267578,-0.9510661363601685
1695713498141728300,2.422728271484375,1.7796047925949097,2.5616207122802734,-0.8260835409164429
1695713498151760600,2.4327607421875,1.4213382005691528,2.166522979736328,-0.9692201614379883
1695713498161788200,2.4427880859375,0.8699943423271179,1.8867511749267578,-0.895199179649353
1695713498171820000,2.452820068359375,1.037302851676941,1.8000144958496094,-0.8680657148361206
1695713498181854500,2.4628544921875,1.4826664924621582,1.2344036102294922,-1.0036530494689941
1695713498191886600,2.472886474609375,1.5707528591156006,1.369131088256836,-0.6916391849517822
1695713498201923300,2.48292333984375,1.7463371753692627,0.8979339599609375,-0.7879360914230347
1695713498211956000,2.4929560546875,2.0214085578918457,0.43325138092041016,-1.4409072399139404
1695713498221993000,2.502992919921875,1.0857198238372803,-0.9596328735351562,-3.0200939178466797
1695713498232026000,2.513026123046875,-0.23826199769973755,-2.3809146881103516,-3.6852598190307617
1695713498242047700,2.5230478515625,-0.9627822041511536,-2.4231691360473633,-2.8194832801818848
1695713498252079600,2.53307958984375,-0.33529871702194214,-1.2714290618896484,-2.0054256916046143
1695713498262108400,2.5431083984375,0.41143178939819336,-0.4223184585571289,-1.3748087882995605
1695713498272140000,2.55314013671875,0.508985161781311,0.06589126586914062,-0.30578041076660156
1695713498282173400,2.56317333984375,0.7249427437782288,0.22806644439697266,0.6420167684555054
1695713498292205300,2.573205322265625,1.0213826894760132,-0.1828622817993164,0.8366800546646118
1695713498302237700,2.58323779296875,1.2279890775680542,-0.6429557800292969,0.772750735282898
1695713498312269600,2.59326953125,1.1415566205978394,-0.5461359024047852,0.322421669960022
1695713498322319000,2.603319091796875,0.8852071166038513,-0.2293081283569336,-0.20032823085784912
1695713498332352800,2.613352783203125,0.6162148118019104,-0.26580333709716797,-0.8275728225708008
1695713498342383900,2.6233837890625,0.27030014991760254,0.02296161651611328,-0.8307682275772095
1695713498352417000,2.6334169921875,-0.2696880102157593,0.4207124710083008,-0.7190713882446289
1695713498362449200,2.64344921875,-0.4944922924041748,0.5353984832763672,-0.6041069030761719
1695713498372482300,2.653482421875,-0.6945874691009521,0.26842308044433594,-0.559400200843811
1695713498382514000,2.663513916015625,-0.7313318252563477,0.2501811981201172,-1.0787935256958008
1695713498392547000,2.673547119140625,-0.9886455535888672,0.7236003875732422,-0.8840769529342651
1695713498402571300,2.6835712890625,-1.327684998512268,0.8765363693237305,-0.35230720043182373
1695713498412603400,2.693603271484375,-1.2741354703903198,0.4674663543701172,-0.3715859651565552
1695713498422637600,2.703637451171875,-1.1409121751785278,0.3762388229370117,-0.25634241104125977
1695713498432670000,2.713669921875,-1.0079213380813599,0.46672821044921875,0.19210422039031982
1695713498442695700,2.72369580078125,-1.2497037649154663,0.9233951568603516,0.09399271011352539
1695713498452727300,2.733727294921875,-1.008540153503418,0.6819820404052734,0.053273916244506836
1695713498462754800,2.7437548828125,-0.19671416282653809,0.005764007568359375,2.9595985412597656
1695713498472786200,2.7537861328125,-3.291081190109253,-0.3006734848022461,4.143027305603027
1695713498482830300,2.763830322265625,-0.38199061155319214,0.32259464263916016,-0.0846717357635498
1695713498492862700,2.77386279296875,1.85882568359375,1.2007579803466797,-1.4471783638000488
1695713498502899500,2.7838994140625,0.6288997530937195,0.9097929000854492,-1.3772118091583252
1695713498512932400,2.793932373046875,-0.3914980888366699,-0.0738973617553711,-0.3400712013244629
1695713498522967800,2.8039677734375,-0.7344964146614075,-0.5193586349487305,0.7613520622253418
1695713498533001200,2.814001220703125,-0.37674373388290405,-0.2892789840698242,1.3476488590240479
1695713498543019000,2.82401904296875,0.051795125007629395,0.06836318969726562,1.581221580505371
1695713498553050600,2.834050537109375,0.2415090799331665,0.042098045349121094,1.1662859916687012
1695713498563071200,2.8440712890625,0.07633829116821289,0.029020309448242188,1.1274781227111816
1695713498573101800,2.854101806640625,0.20932233333587646,-0.08602046966552734,1.2850844860076904
1695713498583160800,2.864160888671875,0.36673280596733093,-0.33509063720703125,1.2036705017089844
1695713498593194200,2.8741943359375,0.12483876943588257,-0.5248603820800781,0.5247867107391357
1695713498603197200,2.884197265625,-0.1654834747314453,-0.04485511779785156,0.5569052696228027
1695713498613227500,2.8942275390625,-0.2644299268722534,0.2761659622192383,0.2822127342224121
1695713498623258400,2.90425830078125,-0.4846796989440918,0.4819812774658203,-0.10199356079101562
1695713498633288700,2.914288818359375,-0.6792616844177246,0.35350799560546875,-0.13325560092926025
1695713498643321000,2.924321044921875,-0.7781162261962891,0.20162296295166016,-0.03982424736022949
1695713498653351700,2.9343515625,-0.7534655332565308,0.2119607925415039,0.05102884769439697
1695713498663387000,2.944386962890625,-0.4188656806945801,0.3592338562011719,0.292896032333374
1695713498673418000,2.95441796875,-0.4787524938583374,0.42439842224121094,0.2706536054611206
1695713498683453000,2.964452880859375,-1.0751056671142578,0.5226860046386719,0.30177414417266846
1695713498693484300,2.974484375,-0.9404194355010986,0.7019672393798828,0.32116925716400146
1695713498703553000,2.984552978515625,-0.2916264533996582,0.6855268478393555,0.4497494697570801
1695713498713588200,2.994588134765625,0.1978183388710022,0.8271493911743164,0.7879785299301147
1695713498723614700,3.00461474609375,0.5865212082862854,0.7872524261474609,1.0413190126419067
1695713498733649000,3.01464892578125,0.5724491477012634,0.8193874359130859,0.5822087526321411
1695713498743655200,3.0246552734375,0.6763209104537964,0.6624240875244141,-0.7718329429626465
1695713498753686800,3.034686767578125,0.29785478115081787,0.45134639739990234,-2.0943243503570557
1695713498763710500,3.04471044921875,0.5263965725898743,0.34412670135498047,-2.0859973430633545
1695713498773741000,3.054740966796875,-0.7436034679412842,0.11318492889404297,-2.3246045112609863
1695713498783799000,3.064799072265625,-0.9285275936126709,0.1721334457397461,-1.7893768548965454
1695713498793832400,3.07483251953125,-0.6275840997695923,0.008862495422363281,-2.1849076747894287
1695713498803866600,3.08486669921875,-0.03822898864746094,-0.14141082763671875,-2.1504547595977783
1695713498813900300,3.094900390625,0.2118539810180664,0.5101737976074219,-1.6024056673049927
1695713498823922200,3.104922119140625,-0.3317834138870239,0.9549045562744141,-1.1542129516601562
1695713498833954600,3.11495458984375,-0.3824894428253174,0.6489543914794922,-1.0232861042022705
1695713498843984100,3.124984130859375,-0.27398574352264404,0.23523330688476562,-0.7029466032981873
1695713498854016300,3.135016357421875,-0.16002345085144043,0.14765357971191406,-0.2178560495376587
1695713498864058600,3.14505859375,-0.1650683879852295,0.3701286315917969,0.18320000171661377
1695713498874091800,3.155091796875,-0.20786499977111816,0.5863332748413086,0.48834753036499023
1695713498884118300,3.1651181640625,-0.05338001251220703,0.20034503936767578,0.3352057933807373
1695713498894150700,3.175150634765625,-0.17622578144073486,-0.04041099548339844,0.4463503360748291
1695713498904182800,3.185182861328125,-0.27369630336761475,0.09601020812988281,0.7256741523742676
1695713498914215200,3.195215087890625,-0.35590124130249023,-0.0034856796264648438,0.711261510848999
1695713498924249600,3.20524951171875,-0.399869441986084,0.11067676544189453,0.643214225769043
1695713498934282200,3.2152822265625,-0.4655139446258545,0.5290985107421875,1.6121445894241333
1695713498944311000,3.22531103515625,-0.5414735078811646,0.7715654373168945,2.1474928855895996
1695713498954343200,3.23534326171875,0.45305120944976807,-0.18494892120361328,0.8816217184066772
1695713498964382700,3.2453828125,0.8889567852020264,-0.572667121887207,1.5141830444335938
1695713498974415600,3.25541552734375,1.0179548263549805,-1.740656852722168,0.8720102310180664
1695713498984440000,3.265440185546875,0.612172544002533,-1.6343860626220703,0.5518903732299805
1695713498994472200,3.27547216796875,-0.05422067642211914,-0.6572351455688477,0.8761200904846191
1695713499004505000,3.285505126953125,-0.3205230236053467,0.2854337692260742,0.22380518913269043
1695713499014537200,3.295537109375,-0.5340180397033691,-0.3311586380004883,-1.067406415939331
1695713499024571600,3.305571533203125,-0.7175506353378296,-0.8858776092529297,-0.3360675573348999
1695713499034604000,3.31560400390625,-0.9351567029953003,-0.29814815521240234,0.37754368782043457
1695713499044645400,3.325645263671875,-0.6754655838012695,0.28690338134765625,0.3581143617630005
1695713499054678500,3.335678466796875,-0.10591983795166016,0.6330661773681641,-0.19356775283813477
1695713499064719400,3.34571923828125,-0.03602302074432373,0.5518932342529297,0.13686680793762207
1695713499074753500,3.35575341796875,-0.5949196815490723,1.0697746276855469,-0.22818171977996826
1695713499084766000,3.365765869140625,-0.5788213014602661,0.4185295104980469,-0.6584483981132507
1695713499094797600,3.375797607421875,-0.34364259243011475,0.39113712310791016,0.36380696296691895
1695713499104843300,3.38584326171875,-0.047243475914001465,0.09166526794433594,0.6865636110305786
1695713499114876400,3.39587646484375,0.17615795135498047,-0.1351318359375,0.24177980422973633
1695713499124900000,3.405900146484375,0.23257505893707275,0.10199356079101562,-0.3884281516075134
1695713499134932500,3.415932373046875,0.00933527946472168,0.2296304702758789,-1.6675126552581787
1695713499144963600,3.425963623046875,-0.502698540687561,0.954615592956543,-2.4753074645996094
1695713499154995700,3.43599560546875,-1.3273221254348755,1.6347723007202148,-1.3556334972381592
1695713499165005600,3.446005615234375,-1.4917590618133545,2.1213436126708984,-2.5633044242858887
1695713499175035600,3.45603564453125,-0.9874720573425293,1.6754274368286133,-2.297698736190796
1695713499185098200,3.46609814453125,0.1386415958404541,0.7341785430908203,-0.061756908893585205
1695713499195131400,3.47613134765625,0.328599214553833,-0.056603431701660156,1.0936205387115479
1695713499205166600,3.48616650390625,0.45285695791244507,-0.15318679809570312,1.438611388206482
1695713499215200000,3.496199951171875,-0.2651185989379883,-0.8994407653808594,1.4528286457061768
1695713499225233200,3.506233154296875,-0.19815528392791748,-1.0151338577270508,1.4833927154541016
1695713499235266600,3.5162666015625,0.3553752303123474,-0.7020635604858398,1.2431862354278564
1695713499245295600,3.526295654296875,0.511664628982544,-0.3475790023803711,0.8210412263870239
1695713499255328500,3.53632861328125,0.8701063394546509,0.3495616912841797,0.3834255337715149
1695713499265353200,3.546353271484375,0.4050847291946411,0.3146944046020508,-0.05686920881271362
1695713499275385000,3.556385009765625,0.18360519409179688,0.3419017791748047,-0.2820205092430115
1695713499285429200,3.56642919921875,0.2706068754196167,0.33080482482910156,-0.4125918745994568
1695713499295462400,3.57646240234375,0.09021598100662231,0.18103885650634766,-0.44842445850372314
1695713499305484800,3.58648486328125,0.5420129299163818,0.2987337112426758,-0.3610968589782715
1695713499315517000,3.596516845703125,0.8914216160774231,0.40163612365722656,-0.40826576948165894
1695713499325548000,3.606548095703125,1.3327332735061646,0.5664005279541016,-0.6209643483161926
1695713499335580200,3.616580078125,1.4789435863494873,0.5688753128051758,-0.7809617519378662
1695713499345624300,3.626624267578125,1.0174574851989746,0.2517738342285156,-0.9737226366996765
1695713499355657500,3.636657470703125,0.6988020539283752,0.07869815826416016,-0.9578386545181274
1695713499365654300,3.646654296875,0.520569384098053,-0.1372823715209961,-0.865692138671875
1695713499375683800,3.656683837890625,0.706363320350647,-0.04751110076904297,-0.8035982251167297
1695713499385745000,3.666744873046875,0.747349739074707,0.008245468139648438,-0.7277685403823853
1695713499395777800,3.67677783203125,0.9165352582931519,0.3212862014770508,-0.8106905221939087
1695713499405813800,3.686813720703125,0.8159968852996826,0.4184913635253906,-1.0279874801635742
1695713499415846700,3.6968466796875,0.462740421295166,0.06142902374267578,-1.136871576309204
1695713499425869000,3.706869140625,0.6287949085235596,-0.061191558837890625,-1.107933521270752
1695713499435901000,3.71690087890625,0.5019757747650146,-0.36067867279052734,-1.0066314935684204
1695713499445941000,3.72694091796875,0.5957401394844055,-0.043839454650878906,-0.8716368079185486
1695713499455974000,3.736973876953125,0.708916962146759,0.22883129119873047,-0.6269149780273438
1695713499466002700,3.747002685546875,0.7606979012489319,0.35719776153564453,-0.38759130239486694
1695713499476034800,3.757034912109375,0.6153680682182312,0.12677764892578125,-0.2837238907814026
1695713499486069200,3.7670693359375,0.47127145528793335,0.14986324310302734,-0.02962139993906021
1695713499496102000,3.777101806640625,0.8167589902877808,0.40189361572265625,0.2795480489730835
1695713499506146800,3.787146728515625,0.9992828965187073,0.3329792022705078,0.4293941259384155
1695713499516180700,3.7971806640625,0.8267426490783691,-0.06550025939941406,0.48181402683258057
1695713499526198500,3.807198486328125,0.48617371916770935,-0.27199840545654297,0.43559059500694275
1695713499536230700,3.817230712890625,0.3620896637439728,-0.005367279052734375,0.42191430926322937
1695713499546241500,3.827241455078125,0.5680060386657715,0.36995792388916016,0.2950284779071808
1695713499556271600,3.837271728515625,0.03892233967781067,0.12327766418457031,0.15604563057422638
1695713499566340600,3.847340576171875,-0.23507380485534668,0.016061782836914062,0.06523215770721436
1695713499576374300,3.857374267578125,0.18396079540252686,0.2628822326660156,0.04699566215276718
1695713499586393300,3.867393310546875,0.42859429121017456,0.21304988861083984,0.04525647684931755
1695713499596425700,3.87742578125,0.4790661334991455,0.12041854858398438,0.1307295262813568
1695713499606452700,3.88745263671875,0.39793139696121216,0.07107067108154297,0.2692027688026428
1695713499616484600,3.897484619140625,0.5237476229667664,0.17946338653564453,0.37849855422973633
1695713499626498800,3.907498779296875,0.14331293106079102,-0.032425880432128906,0.496274471282959
1695713499636528600,3.917528564453125,-0.07480674982070923,-0.18620014190673828,0.6535159349441528
1695713499646591200,3.92759130859375,-0.07410633563995361,-0.12921619415283203,0.6602667570114136
1695713499656624600,3.937624755859375,0.15265995264053345,-0.019768714904785156,0.6192320585250854
1695713499666630400,3.94763037109375,-0.04435831308364868,-0.2734508514404297,0.7262656688690186
1695713499676660700,3.95766064453125,-0.012815296649932861,-0.3399324417114258,0.8403360843658447
1695713499686719500,3.967719482421875,0.1543647050857544,-0.18163394927978516,0.7954201698303223
1695713499696753000,3.9777529296875,0.17567473649978638,-0.20026016235351562,0.7972353100776672
1695713499706786300,3.987786376953125,0.2094132900238037,-0.20905590057373047,0.6779990196228027
1695713499716819700,3.99781982421875,0.17531949281692505,-0.18885135650634766,0.4319426417350769
1695713499726850800,4.007850830078125,0.015272796154022217,-0.23055171966552734,0.10782262682914734
1695713499736884000,4.017884033203125,-0.032927751541137695,-0.11441707611083984,-0.23148038983345032
1695713499746891500,4.0278916015625,-0.16160395741462708,0.044414520263671875,-0.4745809733867645
1695713499756922000,4.037922119140625,-0.3075641989707947,0.193328857421875,-0.5538607835769653
1695713499766957000,4.04795703125,-0.46380603313446045,0.33725452423095703,-0.622647762298584
1695713499776988200,4.05798828125,-0.41748130321502686,0.413055419921875,-0.5540855526924133
1695713499787030000,4.068030029296875,-0.1373840570449829,0.44062042236328125,-0.5333050489425659
1695713499797062100,4.078062255859375,0.08681026101112366,0.32637596130371094,-0.5117852687835693
1695713510070319400,14.3513193359375,5.443594932556152,2.341855049133301,-4.267755508422852
1695713510080354800,14.361354736328124,2.633436679840088,1.7840776443481445,-2.5727760791778564
1695713510090390300,14.371390380859374,1.330161690711975,0.17534542083740234,-0.03392338752746582
1695713510100422100,14.381422119140625,1.4429128170013428,-1.5061111450195312,1.6022365093231201
1695713510110451000,14.391450927734375,1.4645633697509766,-2.2971391677856445,2.0920920372009277
1695713510120479700,14.401479736328126,1.2109376192092896,-2.3885602951049805,2.3085598945617676
1695713510130508500,14.411508544921874,1.1429888010025024,-2.194453239440918,2.7464494705200195
1695713510140537300,14.421537353515625,1.793127179145813,-2.1951589584350586,2.9764719009399414
1695713510150566100,14.431566162109375,2.287984848022461,-1.5536670684814453,2.808535575866699
1695713510160595000,14.441594970703125,1.704335331916809,-0.2553062438964844,2.15771484375
1695713510170623700,14.451623779296876,1.2154834270477295,0.5157880783081055,1.8527144193649292
1695713510180652500,14.461652587890624,1.0413793325424194,0.9535379409790039,1.8203188180923462
1695713510190681300,14.471681396484374,0.8693895936012268,1.5294666290283203,1.5160324573516846
1695713510200713700,14.481713623046875,0.6301820278167725,1.805206298828125,1.0959281921386719
1695713510210749200,14.491749267578125,-0.11173954606056213,2.0115890502929688,0.5107893943786621
1695713510220784600,14.50178466796875,-1.4729602336883545,1.9573335647583008,-0.008194923400878906
1695713510230820000,14.511820068359375,-2.6217923164367676,1.6149473190307617,-0.10064148902893066
1695713510240855600,14.52185546875,-3.505422592163086,0.9041748046875,-0.03856229782104492
1695713510250891000,14.53189111328125,-3.5067949295043945,0.6750707626342773,0.2471606731414795
1695713510260926500,14.541926513671875,-2.7832489013671875,0.9739532470703125,0.6219193935394287
1695713510270962000,14.5519619140625,-1.8688266277313232,1.3222293853759766,0.9639012813568115
1695713510280997400,14.561997314453125,-1.2618212699890137,1.6053667068481445,0.9984616041183472
1695713510291032800,14.57203271484375,-0.753186047077179,1.7650232315063477,0.7304303646087646
1695713510301068300,14.582068359375,-0.2064913511276245,1.4263505935668945,0.42551183700561523
1695713510311100700,14.5921005859375,-0.08541762828826904,0.6894502639770508,0.22256088256835938
1695713510321132500,14.602132568359375,-0.710408091545105,-0.005313873291015625,0.35450053215026855
1695713510331164400,14.612164306640626,-2.025301456451416,-0.5695476531982422,0.9293627738952637
1695713510341196000,14.622196044921875,-3.3261971473693848,-1.0855741500854492,1.7423361539840698
1695713510351228000,14.632227783203126,-4.402399063110352,-1.763972282409668,2.6816318035125732
1695713510361259800,14.642259765625,-4.777566432952881,-2.715428352355957,3.5119285583496094
1695713510371291600,14.652291748046874,-4.756893634796143,-3.622774124145508,3.7615346908569336
1695713510381323300,14.6623232421875,-4.453590393066406,-4.079784393310547,3.627026319503784
1695713510391355100,14.672355224609374,-3.9155006408691406,-4.144433975219727,3.3545806407928467
1695713510401387000,14.682386962890625,-3.8738813400268555,-4.161429405212402,3.4652717113494873
1695713510411419000,14.6924189453125,-4.222659587860107,-3.9476985931396484,3.5031867027282715
1695713510421451300,14.702451171875,-4.767895698547363,-3.4366283416748047,3.0444138050079346
1695713510431484200,14.712484130859375,-5.924598217010498,-3.0257396697998047,2.1229629516601562
1695713510441517000,14.72251708984375,-6.751733779907227,-3.702988624572754,1.1445693969726562
1695713510451550000,14.732550048828125,-6.648828983306885,-4.886626243591309,0.7307860851287842
1695713510461582800,14.742582763671875,-7.0347442626953125,-5.111655235290527,0.3775961399078369
1695713510471615700,14.75261572265625,-7.385766983032227,-5.0019378662109375,0.45085620880126953
1695713510481648600,14.762648681640625,-4.519527435302734,-4.316082954406738,1.0662293434143066
1695713510491681500,14.772681640625,-1.3323442935943604,-3.9982986450195312,0.8003790378570557
1695713510501714200,14.782714111328126,1.1110100746154785,-3.7656784057617188,0.16993451118469238
1695713510511747000,14.7927470703125,3.848376512527466,-3.365480422973633,-0.1674497127532959
1695713510521780000,14.802780029296875,5.199697494506836,-3.6946372985839844,-1.229712963104248
1695713510531812600,14.8128125,5.097578048706055,-4.111907958984375,-2.6544041633605957
1695713510541845800,14.822845703125,3.9573471546173096,-4.951921463012695,-3.6345505714416504
1695713510551879000,14.83287890625,1.961308479309082,-6.2292680740356445,-3.9965016841888428
1695713510561911800,14.842911865234376,0.6298729777336121,-6.455887794494629,-3.5763275623321533
1695713510571945000,14.852945068359375,2.4890589714050293,-5.616904258728027,-2.668856382369995
1695713510581977900,14.862977783203124,4.103294372558594,-4.694194793701172,-1.8045361042022705
1695713510592011000,14.873010986328126,2.8315603733062744,-4.18145751953125,-1.1217548847198486
1695713510602044200,14.883044189453125,0.7373940944671631,-3.6691246032714844,-1.2259023189544678
1695713510612077000,14.8930771484375,1.3499150276184082,-3.0481319427490234,-1.8241031169891357
1695713510622110200,14.903110107421876,3.2518343925476074,-2.180034637451172,-1.928969383239746
1695713510632143400,14.913143310546875,4.308495998382568,-1.1724538803100586,-1.4236010313034058
1695713510642175500,14.923175537109374,5.117959022521973,-0.35291194915771484,-0.4679219722747803
1695713510652206000,14.9332060546875,5.673941135406494,0.24833965301513672,0.4035073518753052
1695713510662236700,14.943236572265626,5.676021575927734,0.7834568023681641,0.9248084425926208
1695713510672267300,14.953267333984375,5.499884128570557,1.8395309448242188,1.1058988571166992
1695713510682297900,14.9632978515625,5.717663764953613,3.041689395904541,0.6256959438323975
1695713510692328400,14.973328369140624,5.991143226623535,3.351107597351074,0.15212595462799072
1695713510702359000,14.983359130859375,6.493159294128418,3.3252458572387695,-0.1792689561843872
1695713510712389600,14.9933896484375,6.8062238693237305,3.3110976219177246,-0.6806315183639526
1695713510722420200,15.003420166015625,7.028558254241943,3.3731796741485596,-1.0784826278686523
1695713510732450800,15.013450927734375,7.131613731384277,3.7552332878112793,-1.6141905784606934
1695713510742481400,15.0234814453125,7.253754615783691,4.200339317321777,-1.9467806816101074
1695713510752513800,15.033513671875,7.18190860748291,4.786149978637695,-2.0851974487304688
1695713510762547700,15.043547607421875,6.9168901443481445,5.2966790199279785,-2.252654552459717
1695713510772581600,15.05358154296875,6.531476974487305,5.860699653625488,-2.292978048324585
1695713510782615300,15.063615234375,5.2580060958862305,6.4170918464660645,-3.8828134536743164
1695713510792649200,15.073649169921875,3.888746976852417,6.317508697509766,-3.6351654529571533
1695713510802683000,15.083682861328125,2.5019145011901855,6.14789342880249,-2.2680373191833496
1695713510812716800,15.093716796875,1.4220895767211914,5.514429569244385,-0.9685938358306885
1695713510822750500,15.10375048828125,0.7884297370910645,4.6279120445251465,0.9822603464126587
1695713510832784400,15.113784423828125,-0.08064556121826172,3.0063369274139404,2.4766628742218018
1695713510842818300,15.123818359375,-0.7506985664367676,0.9627189636230469,3.588010787963867
1695713510852850200,15.13385009765625,-0.6132726669311523,-0.517486572265625,4.21961784362793
1695713510862880300,15.14388037109375,0.1775217056274414,-1.704826831817627,4.863364219665527
1695713510872910600,15.15391064453125,0.7342424392700195,-2.3534865379333496,5.365936279296875
1695713510882940700,15.163940673828124,0.742551326751709,-2.3083863258361816,5.581219673156738
1695713510892971000,15.173970947265625,1.0587477684020996,-1.2281746864318848,5.729492664337158
1695713510903001000,15.1840009765625,1.5249700546264648,0.4254875183105469,4.917821407318115
1695713510913031200,15.19403125,2.462583541870117,2.5694308280944824,3.9802732467651367
1695713510923061500,15.2040615234375,4.519590854644775,4.233160972595215,2.6649415493011475
1695713510933091600,15.214091552734375,6.523649215698242,5.6577911376953125,1.889399528503418
1695713510943121700,15.22412158203125,4.989630699157715,4.758817672729492,0.21837961673736572
1695713510953152000,15.234152099609375,-8.880687713623047,0.7072069644927979,-2.0018467903137207
1695713510963183400,15.244183349609376,-22.7222900390625,-4.617978572845459,-4.616413116455078
1695713510973212200,15.254212158203124,-12.494633674621582,-7.620888710021973,-7.255777835845947
1695713510983241000,15.264240966796875,-3.374020576477051,-6.10411262512207,-9.316354751586914
1695713510993269800,15.274269775390625,11.720170021057129,-5.1572794914245605,-4.892342567443848
1695713511003298800,15.284298828125,17.324953079223633,-0.008952975273132324,-1.831334114074707
1695713511013327600,15.29432763671875,4.09822940826416,3.0702641010284424,-1.412858009338379
1695713511023356400,15.3043564453125,-8.311441421508789,0.5691334009170532,-0.48142313957214355
1695713511033385200,15.31438525390625,-3.1933507919311523,-5.103171348571777,5.794184684753418
1695713511043414000,15.3244140625,8.993830680847168,-7.432124137878418,10.227777481079102
1695713511053442800,15.33444287109375,0.6352977752685547,-8.348701477050781,5.3425188064575195
1695713511063471600,15.3444716796875,-6.007360458374023,-8.498425483703613,-0.8752214908599854
1695713511073504300,15.354504150390625,-1.2393932342529297,-6.60318660736084,-2.403360605239868
1695713511083542300,15.364542236328125,0.4422616958618164,-4.332353115081787,-3.470014810562134
1695713511093580500,15.37458056640625,0.9191765785217285,-2.294435977935791,-3.946596622467041
1695713511103618600,15.38461865234375,0.6322059631347656,-1.9206335544586182,-2.8918356895446777
1695713511113656800,15.39465673828125,-0.6622810363769531,-1.7140835523605347,-1.1604909896850586
1695713511123694800,15.40469482421875,0.3356142044067383,-1.6278314590454102,-1.956907033920288
1695713511133733000,15.414733154296876,-1.0433855056762695,-1.5217753648757935,-1.3094897270202637
1695713511143771100,15.424771240234374,-1.8851299285888672,-1.4858216047286987,-1.3951289653778076
1695713511153809400,15.434809326171875,0.009320259094238281,-0.8096468448638916,-0.2945120334625244
1695713511163847700,15.44484765625,0.4448103904724121,-0.6500952243804932,-1.076521396636963
1695713511173880000,15.454880126953125,0.31009912490844727,-0.14690089225769043,-1.975647211074829
1695713511183912400,15.464912353515626,0.4650883674621582,0.007620811462402344,-2.1593332290649414
1695713511193944600,15.474944580078125,-0.5205821990966797,-0.8614785671234131,-2.5521063804626465
1695713511203976700,15.484976806640624,0.45403146743774414,0.46937036514282227,-0.1718437671661377
1695713511214009000,15.495009033203125,-0.389066219329834,-0.3320655822753906,-0.7180061340332031
1695713511224041200,15.505041259765624,-0.1924285888671875,-0.31682252883911133,-1.4582207202911377
1695713511234073300,15.5150732421875,0.9222326278686523,-0.3779478073120117,-1.175354242324829
1695713511244105700,15.525105712890625,0.23805809020996094,-0.9445934295654297,-0.7654640674591064
1695713511254137900,15.535137939453126,-1.3798813819885254,-1.091646671295166,0.8304750919342041
1695713511264170200,15.545170166015625,0.7826404571533203,-2.0283186435699463,-1.1938650608062744
1695713511274202400,15.555202392578124,-1.9489426612854004,-2.3558661937713623,-1.6510989665985107
1695713511284233200,15.565233154296875,-1.6131725311279297,-0.782752513885498,0.8943313360214233
1695713511294264000,15.57526416015625,-2.8390722274780273,-0.7650251388549805,-0.11237716674804688
1695713511304295000,15.585294921875,-2.601532459259033,-0.8418989181518555,-0.9643726348876953
1695713511314325800,15.59532568359375,-2.47182559967041,-1.6117897033691406,-1.6547781229019165
1695713511324356600,15.605356689453124,-2.1380796432495117,-0.8713169097900391,0.19337260723114014
1695713511334387500,15.615387451171875,-1.9198579788208008,-1.2369627952575684,0.7461540102958679
1695713511344418300,15.625418212890626,-1.26896333694458,-1.3706822395324707,0.9747059941291809
1695713511354449200,15.63544921875,-0.8178644180297852,-1.6026735305786133,1.8872830867767334
1695713511364480000,15.64547998046875,-0.677675724029541,-1.2756247520446777,1.9076366424560547
1695713511374510800,15.6555107421875,-1.3633160591125488,-1.4657812118530273,0.52210932970047
1695713511384543000,15.66554296875,-4.972405433654785,0.7791628837585449,-2.0685558319091797
1695713511394574600,15.67557470703125,-9.438488960266113,3.134060859680176,-2.7937068939208984
1695713511404606500,15.6856064453125,-12.453485488891602,6.0870280265808105,-3.3426575660705566
1695713511414638300,15.695638427734375,-12.546619415283203,7.433668613433838,-2.016329288482666
1695713511424670000,15.705669921875,-9.057229995727539,6.7650251388549805,-2.4409945011138916
1695713511434701800,15.715701904296875,-3.091723918914795,3.160780906677246,-3.279843807220459
1695713511444733700,15.725733642578126,0.6110053062438965,-0.20559263229370117,-2.5986087322235107
1695713511454765600,15.735765625,0.500821590423584,-0.6960873603820801,-1.1978906393051147
1695713511464797200,15.745797119140626,-1.5152392387390137,1.9018778800964355,-0.936786413192749
1695713511474829000,15.7558291015625,-2.8281478881835938,3.9290013313293457,-1.0023460388183594
1695713511484861000,15.76586083984375,-3.4368438720703125,3.9881033897399902,-0.4436352252960205
1695713511494891000,15.77589111328125,-2.9135942459106445,2.9483938217163086,-0.25069761276245117
1695713511504921300,15.78592138671875,-1.679832935333252,2.0575170516967773,-0.4040842056274414
1695713511514951400,15.795951416015624,-0.7341909408569336,1.4654479026794434,-0.19948875904083252
1695713511524981800,15.805981689453125,-0.6190757751464844,0.9920330047607422,0.2784616947174072
1695713511535011800,15.81601171875,-0.6811680793762207,0.36209535598754883,0.9466465711593628
1695713511545042200,15.826042236328124,-0.3002347946166992,-0.15820884704589844,1.7295715808868408
1695713511555072300,15.836072265625,0.2369680404663086,-0.6800007820129395,2.0313878059387207
1695713511565102600,15.8461025390625,0.962285041809082,-0.8724355697631836,1.9828271865844727
1695713511575132700,15.856132568359374,1.8146038055419922,-1.0377464294433594,2.2408082485198975
1695713511585165000,15.8661650390625,2.378371238708496,-0.5658931732177734,1.2035167217254639
1695713511595200300,15.8762001953125,2.7677860260009766,-0.6251621246337891,1.0011330842971802
1695713511605235500,15.8862353515625,2.552682399749756,-0.5639643669128418,0.6884632110595703
1695713511615270700,15.896270751953125,2.220947742462158,-0.5697550773620605,0.5321962833404541
1695713511625305900,15.906305908203125,2.094125270843506,-0.49350881576538086,0.729680061340332
1695713511635341000,15.916341064453125,1.8317556381225586,-0.42252445220947266,1.0801221132278442
1695713511645376000,15.9263759765625,1.476121425628662,-0.38759946823120117,1.5484731197357178
1695713511655411200,15.9364111328125,1.2177400588989258,-0.25583839416503906,1.6909639835357666
1695713511665446400,15.9464462890625,1.4250011444091797,-0.30382871627807617,1.7035882472991943
1695713511675481600,15.956481689453126,1.8902740478515625,-0.39754486083984375,1.5243422985076904
1695713511685516800,15.966516845703126,1.8260540962219238,-0.6262392997741699,1.2725251913070679
1695713511695549000,15.976548828125,1.76934814453125,-1.037520408630371,1.3037463426589966
1695713511705579500,15.98657958984375,1.5294222831726074,-1.2672710418701172,1.0968948602676392
1695713511715610000,15.996610107421875,1.0851922035217285,-1.3418655395507812,0.8504228591918945
1695713511725640700,16.006640625,1.0141339302062988,-1.1896300315856934,0.7446191310882568
1695713511735671300,16.01667138671875,0.8964333534240723,-0.8416423797607422,0.23217272758483887
1695713511745702000,16.026701904296875,0.2827110290527344,-0.7059059143066406,-0.5358917713165283
1695713511755732700,16.036732666015624,-0.05377531051635742,-0.4066739082336426,-1.1442255973815918
1695713511765763300,16.046763427734376,-0.4449338912963867,-0.26600170135498047,-1.1685540676116943
1695713511775794000,16.0567939453125,-0.6754274368286133,-0.23395538330078125,-0.903937816619873
1695713511785824500,16.066824462890626,-0.04913043975830078,-0.4774608612060547,-0.6334047317504883
1695713511795855000,16.076855224609375,0.47549867630004883,-0.41304588317871094,-0.9334776401519775
1695713511805887700,16.0868876953125,0.286038875579834,0.05775737762451172,-0.9228026866912842
1695713511815922400,16.09692236328125,0.19245433807373047,0.5856795310974121,-0.5611931085586548
1695713511825957000,16.10695703125,0.020785808563232422,1.5127878189086914,-0.9434551000595093
1695713511835991800,16.11699169921875,-0.2535572052001953,2.368915557861328,-1.360949993133545
1695713511846026500,16.127026611328127,-0.1315007209777832,2.5937719345092773,-0.9114772081375122
1695713511856061200,16.137061279296876,0.4460301399230957,2.560108184814453,-0.2533388137817383
1695713511866096000,16.14709619140625,0.7939505577087402,2.3201189041137695,0.02219831943511963
1695713511876130800,16.157130859375,0.6975765228271484,2.5230236053466797,-0.35196423530578613
1695713511886165500,16.16716552734375,0.6737585067749023,2.7424378395080566,-0.47016263008117676
1695713511896200200,16.1772001953125,0.6761536598205566,2.9129796028137207,-0.39823389053344727
1695713511906235000,16.18723486328125,0.7909440994262695,2.9868245124816895,-0.1132650375366211
1695713511916267300,16.197267333984374,0.8798718452453613,2.7347488403320312,0.21024608612060547
1695713511926298400,16.20729833984375,0.8180274963378906,2.199326515197754,0.7377394437789917
1695713511936329500,16.21732958984375,0.9394097328186035,1.7099056243896484,1.0570094585418701
1695713511946360600,16.227360595703125,0.9616293907165527,1.4331450462341309,1.062312364578247
1695713511956392000,16.237391845703126,0.7787337303161621,1.219294548034668,0.9782229065895081
1695713511966423000,16.247423095703127,0.5186715126037598,1.0048370361328125,0.9581713080406189
1695713511976454400,16.257454345703124,0.40898704528808594,0.6924796104431152,0.8154224157333374
1695713511986485500,16.267485595703125,0.21879291534423828,0.32422780990600586,0.7933447360992432
1695713511996516600,16.2775166015625,0.05670928955078125,-0.029786109924316406,0.875755786895752
1695713512006547700,16.287547607421875,0.018088340759277344,-0.27916383743286133,0.8847324848175049
1695713512016579000,16.2975791015625,0.059810638427734375,-0.4144473075866699,0.9542675614356995
1695713512026611500,16.307611572265625,0.1858353614807129,-0.40784311294555664,1.0221199989318848
1695713512036644400,16.317644287109374,0.2711658477783203,-0.35590457916259766,1.0639691352844238
1695713512046677200,16.32767724609375,0.367917537689209,-0.2830047607421875,1.0804407596588135
1695713512056710000,16.3377099609375,0.36647462844848633,-0.27472925186157227,1.0772814750671387
1695713512066742800,16.34774267578125,0.30026865005493164,-0.2880735397338867,1.0262956619262695
1695713512076775700,16.357775634765623,0.27417516708374023,-0.29471445083618164,0.9560618996620178
1695713512086808600,16.36780859375,0.3314237594604492,-0.2180318832397461,0.818356990814209
1695713512096841500,16.377841552734374,0.4050302505493164,-0.07717132568359375,0.709192156791687
1695713512106874000,16.3878740234375,0.45714378356933594,-0.015172958374023438,0.6047286987304688
1695713512116907000,16.397906982421876,0.42548322677612305,-0.027174949645996094,0.5244842171669006
1695713512126939400,16.407939453125,0.4344935417175293,0.01600503921508789,0.401373028755188
1695713512136971800,16.4179716796875,0.42763614654541016,0.052876949310302734,0.2398512363433838
1695713512147004000,16.42800390625,0.3820176124572754,0.18935298919677734,0.13521921634674072
1695713512157036300,16.438036376953125,0.3463573455810547,0.24919891357421875,0.07279491424560547
1695713512167068400,16.448068359375,0.17260074615478516,0.18961524963378906,0.10003483295440674
1695713512177100800,16.458100830078124,0.01827239990234375,0.19211864471435547,0.21247661113739014
1695713512187133000,16.4681328125,0.026567935943603516,0.2851395606994629,0.1756911277770996
1695713512197165300,16.478165283203126,0.010825634002685547,0.42565488815307617,0.07683813571929932
1695713512207197400,16.488197509765627,0.013681411743164062,0.49864768981933594,-0.0022215843200683594
1695713512217229800,16.498229736328124,0.01567840576171875,0.4562654495239258,-0.023301362991333008
1695713512227262000,16.508261962890625,0.17465543746948242,0.40882444381713867,-0.0009998083114624023
1695713512237294000,16.518294189453126,0.385983943939209,0.4910445213317871,-0.03453385829925537
1695713512247324400,16.528324462890627,0.5640110969543457,0.688725471496582,-0.10427463054656982
1695713512257355000,16.53835498046875,0.6473813056945801,0.8875861167907715,-0.147527813911438
1695713512267385300,16.54838525390625,0.6361041069030762,0.991818904876709,-0.17422735691070557
1695713512277415700,16.558415771484373,0.5398039817810059,0.9679708480834961,-0.04641604423522949
1695713512287446300,16.5684462890625,0.4736461639404297,0.9406356811523438,0.06742429733276367
1695713512297476600,16.5784765625,0.5717902183532715,0.8910021781921387,0.14280176162719727
1695713512307507000,16.5885068359375,0.6955523490905762,0.8910207748413086,0.22311246395111084
1695713512317537500,16.59853759765625,0.7255582809448242,0.8499455451965332,0.34688305854797363
1695713512327568000,16.60856787109375,0.6525955200195312,0.8349013328552246,0.5191880464553833
1695713512337598500,16.618598388671874,0.615227222442627,0.8313260078430176,0.5823804140090942
1695713512347630800,16.628630859375,0.5844988822937012,0.8437519073486328,0.5699654817581177
1695713512357665000,16.6386650390625,0.6176900863647461,0.7956075668334961,0.5437326431274414
1695713512367699500,16.648699462890626,0.6384477615356445,0.615501880645752,0.6130917072296143
1695713512377733600,16.658733642578124,0.5935969352722168,0.47997474670410156,0.7063567042350769
1695713512387767800,16.668767822265625,0.54449462890625,0.455141544342041,0.680763304233551
1695713512397802200,16.67880224609375,0.5192651748657227,0.4495358467102051,0.6035698652267456
1695713512407836400,16.68883642578125,0.5416183471679688,0.38167667388916016,0.5601308345794678
1695713512417870800,16.698870849609374,0.5637469291687012,0.31854677200317383,0.5784521102905273
1695713512427905000,16.708905029296876,0.5328583717346191,0.21679401397705078,0.5955485105514526
1695713512437939500,16.718939453125,0.46315813064575195,0.16235733032226562,0.6309894323348999
1695713512447971300,16.728971435546875,0.38327550888061523,0.19795799255371094,0.5030124187469482
1695713512458002000,16.739001953125,0.46974611282348633,0.2131662368774414,0.33536386489868164
1695713512468032500,16.749032470703124,0.5409526824951172,0.18915462493896484,0.271284818649292
1695713512478063000,16.75906298828125,0.6114139556884766,0.16432857513427734,0.23392045497894287
1695713512488093400,16.769093505859374,0.605161190032959,0.20606040954589844,0.18560755252838135
1695713512498124000,16.7791240234375,0.5182294845581055,0.31488800048828125,0.1273348331451416
1695713512508154600,16.789154541015623,0.48012208938598633,0.3382234573364258,0.0359959602355957
1695713512518185200,16.799185302734376,0.4457707405090332,0.4133114814758301,0.035118937492370605
1695713512528215800,16.8092158203125,0.44038820266723633,0.4212636947631836,0.12324404716491699
1695713512538246400,16.819246337890625,0.4723224639892578,0.44287586212158203,0.19595861434936523
1695713512548276700,16.82927685546875,0.44679927825927734,0.4120359420776367,0.17828834056854248
1695713512558308900,16.839308837890623,0.44463300704956055,0.4237680435180664,0.14311933517456055
1695713512568341500,16.849341552734376,0.4043159484863281,0.3597273826599121,0.11900806427001953
1695713512578374000,16.859373779296874,0.27469587326049805,0.40470457077026367,0.161651611328125
1695713512588406300,16.86940625,0.23614168167114258,0.43433141708374023,0.0857841968536377
1695713512598438700,16.879438720703124,0.24989652633666992,0.45854854583740234,0.13301515579223633
1695713512608471300,16.88947119140625,0.2685418128967285,0.41681957244873047,0.21731603145599365
1695713512618503700,16.899503662109375,0.23543405532836914,0.4092702865600586,0.20734214782714844
1695713512628536000,16.9095361328125,0.2549629211425781,0.4022359848022461,0.1607128381729126
1695713512638568400,16.919568359375,0.26985979080200195,0.3249025344848633,0.19422197341918945
1695713512648600800,16.929600830078126,0.24739980697631836,0.2726902961730957,0.2732642889022827
1695713512658633500,16.939633544921875,0.2632150650024414,0.2826199531555176,0.2466259002685547
1695713512668665900,16.949665771484376,0.30744457244873047,0.33966970443725586,0.17715919017791748
1695713512678700000,16.959699951171874,0.3421802520751953,0.40563058853149414,0.20243310928344727
1695713512688734500,16.969734375,0.3444828987121582,0.3205447196960449,0.21207785606384277
1695713512698768600,16.9797685546875,0.2723064422607422,0.24229192733764648,0.28728336095809937
1695713512708802800,16.989802734375,0.25357818603515625,0.21752548217773438,0.29537898302078247
1695713512718837000,16.9998369140625,0.23070812225341797,0.21229124069213867,0.20016419887542725
1695713512728871400,17.009871337890626,0.20354747772216797,0.2308049201965332,0.11174345016479492
1695713512738905600,17.019905517578124,0.18615102767944336,0.1830158233642578,0.095467209815979
1695713512748939800,17.029939697265625,0.11675310134887695,0.13094568252563477,0.07495272159576416
1695713512758974000,17.039973876953123,0.07608222961425781,0.0791311264038086,0.05440831184387207
1695713512769005800,17.050005859375,-0.006989955902099609,0.008618354797363281,0.1273791790008545
1695713512779034000,17.0600341796875,0.04718971252441406,-0.01439809799194336,0.08948075771331787
1695713512789062400,17.0700625,0.09030294418334961,0.009315967559814453,0.027791976928710938
1695713512799090700,17.080090576171877,0.10378170013427734,0.08375787734985352,-0.005502223968505859
1695713512809119000,17.090118896484373,0.17258977890014648,0.15619373321533203,0.041803956031799316
1695713512819147300,17.100147216796874,0.20658302307128906,0.16094636917114258,0.08839273452758789
1695713512829175600,17.110175537109374,0.1685504913330078,0.16024208068847656,0.12945300340652466
1695713512839203800,17.120203857421874,0.25289297103881836,0.20604419708251953,0.14122670888900757
1695713512849232100,17.130232177734374,0.33571910858154297,0.23679447174072266,0.11920827627182007
1695713512859260400,17.140260498046874,0.3703141212463379,0.28608274459838867,0.026942849159240723
1695713512869293000,17.15029296875,0.31537628173828125,0.26433801651000977,-0.00738370418548584
1695713512879328800,17.160328857421874,0.29959917068481445,0.2528510093688965,0.04828834533691406
1695713512889364500,17.170364501953124,0.3170003890991211,0.25101613998413086,0.08462709188461304
1695713512899400200,17.180400146484374,0.2963547706604004,0.2963728904724121,0.16836822032928467
1695713512909436000,17.190435791015624,0.28519582748413086,0.2844705581665039,0.24277544021606445
1695713512919471900,17.200471923828125,0.26418495178222656,0.2631044387817383,0.2564789056777954
1695713512929507600,17.210507568359375,0.2522406578063965,0.2322826385498047,0.2993478775024414
1695713512939543300,17.220543212890625,0.2586841583251953,0.24399948120117188,0.34735268354415894
1695713512949579000,17.2305791015625,0.30713367462158203,0.2789649963378906,0.26347804069519043
1695713512959615000,17.240614990234373,0.32227563858032227,0.29483556747436523,0.22296881675720215
1695713512969650700,17.250650634765623,0.2768697738647461,0.27349376678466797,0.19243139028549194
1695713512979683000,17.26068310546875,0.26129865646362305,0.31435298919677734,0.25636154413223267
1695713512989715200,17.270715087890625,0.24172353744506836,0.2512698173522949,0.262489914894104
1695713512999747300,17.280747314453127,0.2701139450073242,0.19438934326171875,0.23084968328475952
1695713513009779500,17.290779541015624,0.28932905197143555,0.13900470733642578,0.1854533553123474
1695713513019811600,17.3008115234375,0.2951335906982422,0.14655351638793945,0.13123846054077148
1695713513029843700,17.31084375,0.2970290184020996,0.20644330978393555,0.12002032995223999
1695713513039875800,17.320875732421875,0.22866201400756836,0.21858692169189453,0.1609676480293274
1695713513049908000,17.330907958984376,0.17089223861694336,0.20235395431518555,0.17333507537841797
1695713513059940000,17.340940185546874,0.16581058502197266,0.1816558837890625,0.1621527075767517
1695713513069972200,17.35097216796875,0.11852788925170898,0.18496370315551758,0.1326817274093628
1695713513080007400,17.36100732421875,0.09585189819335938,0.16972017288208008,0.10941129922866821
1695713513090055400,17.371055419921873,0.0029463768005371094,0.10310125350952148,0.1254342794418335
1695713513100103700,17.381103759765626,-0.06567525863647461,0.0982961654663086,0.23170161247253418
1695713513110152000,17.39115185546875,-0.044071197509765625,0.12625551223754883,0.29401594400405884
1695713513120200200,17.4012001953125,0.0671844482421875,0.0976719856262207,0.26107996702194214
1695713513130248200,17.411248291015625,0.13527441024780273,0.11748361587524414,0.2380584478378296
1695713513140296400,17.42129638671875,0.15146589279174805,0.16125869750976562,0.2902300953865051
1695713513150344700,17.4313447265625,0.17745733261108398,0.18596744537353516,0.3602163791656494
1695713513160393000,17.44139306640625,0.18960285186767578,0.19200944900512695,0.3820858895778656
1695713513170441000,17.45144091796875,0.14059829711914062,0.1322469711303711,0.3612632751464844
1695713513180476200,17.46147607421875,0.14889287948608398,0.09703683853149414,0.28450608253479004
1695713513190522000,17.471522216796874,0.11937332153320312,0.062438011169433594,0.14332878589630127
1695713513200557300,17.481557373046876,0.11881828308105469,0.06154441833496094,0.07974237203598022
1695713513210592300,17.49159228515625,0.10399246215820312,0.0369720458984375,0.0734131932258606
1695713513220627500,17.50162744140625,0.04206657409667969,0.06441688537597656,0.09556496143341064
1695713513230630000,17.5116298828125,-0.019273757934570312,0.07224225997924805,0.12224340438842773
1695713513240489000,17.521489013671875,-0.014403343200683594,0.01815319061279297,0.09200137853622437
1695713513250507000,17.531507080078125,0.0038399696350097656,-0.06849479675292969,0.057823002338409424
1695713513260549400,17.54154931640625,0.04445171356201172,-0.01778411865234375,0.005870521068572998
1695713513270569700,17.55156982421875,0.09317636489868164,0.050449371337890625,-0.03080850839614868
1695713513280606500,17.5616064453125,0.07482671737670898,0.023079395294189453,-0.019996941089630127
1695713513290628400,17.57162841796875,0.018642425537109375,0.03342485427856445,-0.01908642053604126
1695713513300716500,17.581716552734374,-0.03716468811035156,0.09966278076171875,-0.008706331253051758
1695713513310745300,17.591745361328126,-0.021825313568115234,0.11737060546875,0.006109774112701416
1695713513320778800,17.60177880859375,0.016871929168701172,0.06892681121826172,-0.002800166606903076
1695713513330807800,17.611807861328124,0.054897308349609375,0.07782983779907227,0.04074186086654663
1695713513340831200,17.621831298828123,0.06875371932983398,0.08667373657226562,0.013675212860107422
1695713513350859800,17.63185986328125,0.0914764404296875,0.09516286849975586,0.05339306592941284
1695713513360907800,17.64190771484375,0.08057641983032227,0.08443212509155273,0.04049760103225708
1695713513370938400,17.6519384765625,0.0699625015258789,0.02683877944946289,0.04630565643310547
1695713513381135000,17.662135009765624,0.08353900909423828,0.012938976287841797,0.042439281940460205
1695713513391175400,17.672175537109375,0.10153532028198242,0.03684806823730469,0.05709660053253174
1695713513401163500,17.68216357421875,0.07230138778686523,0.10756778717041016,0.019708454608917236
1695713513411193900,17.69219384765625,0.05754232406616211,0.13458919525146484,0.025039494037628174
1695713513421226000,17.70222607421875,0.05245494842529297,0.1140742301940918,0.07730406522750854
1695713513431273000,17.71227294921875,0.07588338851928711,0.07993078231811523,0.1005597710609436
1695713513441303600,17.722303466796873,0.09903669357299805,0.0558629035949707,0.08574295043945312
1695713513451346700,17.7323466796875,0.09837818145751953,0.018170833587646484,0.061822474002838135
1695713513461390000,17.74239013671875,0.06462907791137695,0.03279256820678711,0.09483647346496582
1695713513471420700,17.752420654296873,0.021713733673095703,0.03749847412109375,0.061315059661865234
1695713513481451300,17.762451171875,0.021608352661132812,0.02774667739868164,0.05635029077529907
1695713513491481600,17.772481689453127,0.026105880737304688,0.06050682067871094,0.028430640697479248
1695713513501506800,17.7825068359375,0.04463624954223633,0.03153705596923828,0.06726568937301636
1695713513511537200,17.792537109375,0.06278705596923828,-0.0017032623291015625,0.1008419394493103
1695713513521540000,17.8025400390625,0.0378875732421875,-0.02056264877319336,0.11498874425888062
1695713513531570200,17.812570068359374,0.0977325439453125,-0.011227607727050781,0.10506093502044678
1695713513541478400,17.822478515625,0.1333789825439453,0.021759986877441406,0.10936093330383301
1695713513551664400,17.832664306640623,0.12193489074707031,0.07818078994750977,0.06626337766647339
1695713513561685200,17.842685302734374,0.11116933822631836,0.15287494659423828,0.019114911556243896
1695713513571709200,17.852709228515625,0.07721757888793945,0.12752580642700195,0.019313693046569824
1695713513581773600,17.862773681640626,0.05319976806640625,0.055416107177734375,0.03312641382217407
1695713513591799800,17.8727998046875,0.057750701904296875,0.007995128631591797,0.04678875207901001
1695713513601820700,17.882820556640624,0.02453899383544922,0.0367283821105957,0.03233742713928223
1695713513611868200,17.8928681640625,0.0057506561279296875,0.06481170654296875,0.018414795398712158
1695713513621874700,17.902874755859376,0.024596691131591797,0.06390380859375,0.037711501121520996
1695713513631895600,17.9128955078125,0.019257545471191406,-0.01257944107055664,0.06616824865341187
1695713513641929000,17.922928955078124,0.02805328369140625,-0.05491781234741211,0.04211771488189697
1695713513651952600,17.93295263671875,0.041253089904785156,-0.016630172729492188,0.013757407665252686
1695713513661995300,17.942995361328126,0.05440855026245117,0.03527021408081055,-0.02838003635406494
1695713513672037600,17.95303759765625,0.05798006057739258,0.09105968475341797,-0.05095064640045166
1695713513682080300,17.963080322265625,0.07548379898071289,0.08932638168334961,-0.01650184392929077
1695713513692104000,17.97310400390625,0.0739145278930664,0.04528093338012695,0.00319594144821167
1695713513702121700,17.983121826171875,0.06765365600585938,0.034920692443847656,0.008422553539276123
1695713513712145200,17.993145263671874,0.08045482635498047,0.053110599517822266,0.013814866542816162
1695713513722041300,18.003041259765624,0.07916450500488281,0.09940147399902344,-0.018939673900604248
1695713513732054800,18.0130546875,0.06424903869628906,0.08876943588256836,-0.018422424793243408
1695713513742105600,18.023105712890626,0.021314620971679688,0.050046443939208984,-0.017946839332580566
1695713513752123000,18.033122802734376,0.05920219421386719,0.02141094207763672,-0.022381484508514404
1695713514273823200,18.5548232421875,0.0648183822631836,0.04377555847167969,0.05930304527282715
1695713514283849200,18.56484912109375,0.05659627914428711,0.0021123886108398438,0.07314413785934448
1695713514293881300,18.57488134765625,0.015182018280029297,0.026828289031982422,0.07322776317596436
1695713514303913200,18.584913330078123,0.006989002227783203,0.017879009246826172,0.05025964975357056
1695713514313945300,18.5949453125,-0.006118297576904297,0.03709983825683594,0.04222983121871948
1695713514323977500,18.6049775390625,-0.00985097885131836,0.03700399398803711,0.04896962642669678
1695713514334009300,18.61500927734375,-0.004358768463134766,-0.005649566650390625,0.04167747497558594
1695713514344041500,18.62504150390625,0.029132366180419922,-0.024155139923095703,0.0629991888999939
1695713514354073600,18.635073486328125,0.07166290283203125,-0.009259223937988281,0.02264505624771118
1695713514364105500,18.64510546875,0.06663894653320312,0.019716262817382812,0.001958489418029785
1695713514374137600,18.6551376953125,0.04783344268798828,0.029557228088378906,0.019016146659851074
1695713514384164600,18.66516455078125,0.029340267181396484,0.03451871871948242,0.02158433198928833
1695713514394197200,18.675197265625,0.02529430389404297,0.0017232894897460938,0.028610944747924805
1695713514404229600,18.685229736328125,0.03080606460571289,0.016611099243164062,0.04013150930404663
1695713514414262300,18.69526220703125,0.022166728973388672,0.012485980987548828,0.03283196687698364
1695713514424294700,18.705294677734376,-0.00022029876708984375,0.0321497917175293,0.016139507293701172
1695713514434327000,18.7153271484375,-0.03165864944458008,0.02793741226196289,0.032668113708496094
1695713514444359700,18.725359619140626,-0.03448200225830078,0.014252185821533203,0.0300866961479187
1695713514454392000,18.73539208984375,-0.009014129638671875,0.0007839202880859375,0.032159388065338135
1695713514464424700,18.7454248046875,-0.0311431884765625,0.011020183563232422,0.006009101867675781
1695713514474457000,18.75545703125,0.0036668777465820312,0.03528785705566406,0.01354140043258667
1695713514484485000,18.765485107421874,0.0003199577331542969,0.02155160903930664,0.006776988506317139
1695713514494516200,18.77551611328125,-0.0076923370361328125,0.026885509490966797,0.028582751750946045
1695713514504547300,18.78554736328125,0.0030226707458496094,0.008404731750488281,0.03127080202102661
1695713514514578400,18.795578369140625,0.004314422607421875,0.004497051239013672,0.038656532764434814
1695713514524609500,18.805609619140625,-0.003907203674316406,0.019444942474365234,0.0460963249206543
1695713514534640600,18.815640625,0.025534629821777344,0.005784511566162109,0.0252111554145813
1695713514544672000,18.825672119140624,0.021593093872070312,-0.00287628173828125,0.014217615127563477
1695713514554703000,18.835703125,-0.0058994293212890625,0.007384777069091797,0.022258520126342773
1695713514564734200,18.845734130859373,0.013923168182373047,-0.015675067901611328,-0.007629990577697754
1695713514574765300,18.855765380859374,0.014655113220214844,-0.0006184577941894531,0.0054201483726501465
1695713514584794000,18.865794189453126,0.03421449661254883,-0.004664897918701172,0.008532226085662842
1695713514594827500,18.87582763671875,0.03467559814453125,-0.013277053833007812,0.03077620267868042
1695713514604860700,18.885860595703125,0.0069751739501953125,0.006563663482666016,0.05708801746368408
1695713514614894000,18.89589404296875,0.017404556274414062,0.026067256927490234,0.07346394658088684
1695713514624927500,18.905927490234376,0.01817464828491211,0.016925334930419922,0.05169123411178589
1695713514634960600,18.915960693359374,0.009525299072265625,0.007930278778076172,0.015948832035064697
1695713514644994000,18.925994140625,0.024779796600341797,0.013395309448242188,-0.023733317852020264
1695713514655027500,18.93602734375,0.01606464385986328,-0.014317035675048828,0.0032927989959716797
1695713514665060600,18.946060546875,0.007660388946533203,-0.022606372833251953,0.029805123805999756
1695713514675094000,18.956093994140623,-0.014724254608154297,0.011632442474365234,0.03242915868759155
1695713514685123800,18.966123779296876,0.0008578300476074219,-0.0065517425537109375,0.03973507881164551
1695713514695158500,18.976158447265625,0.011374473571777344,-0.0056438446044921875,0.04264014959335327
1695713514705193000,18.98619287109375,0.017000675201416016,0.028215408325195312,-0.001445770263671875
1695713514715227600,18.9962275390625,0.0037670135498046875,0.0333104133605957,-0.016578733921051025
1695713514725262300,19.006262451171875,0.014267921447753906,-0.02288532257080078,-0.007519364356994629
1695713514735296800,19.016296875,0.005690574645996094,0.006536006927490234,-0.00831514596939087
1695713514745331500,19.02633154296875,0.03029012680053711,0.021398067474365234,-0.013822793960571289
1695713514755366100,19.0363662109375,0.0027594566345214844,0.0030994415283203125,0.018253445625305176
1695713514765400600,19.046400634765625,0.0039958953857421875,-0.028962135314941406,0.040551960468292236
1695713514775435300,19.056435302734375,-0.023125648498535156,-0.03700971603393555,0.02958226203918457
1695713514785465900,19.0664658203125,-0.016910076141357422,-0.021460533142089844,-0.009758949279785156
1695713514795498800,19.076498779296877,-0.02499246597290039,-0.020377159118652344,-0.01114267110824585
1695713514805532000,19.086531982421874,-0.014094352722167969,0.01365518569946289,0.0015753507614135742
1695713514815565000,19.09656494140625,-0.012646675109863281,-0.004535675048828125,0.02849411964416504
1695713514825598000,19.106597900390625,-0.016119956970214844,0.0104217529296875,0.022481799125671387
1695713514835631000,19.116631103515626,-0.005689144134521484,0.015516281127929688,0.031060636043548584
1695713514845664300,19.126664306640624,-0.02378082275390625,0.006348133087158203,0.011595606803894043
1695713514855697200,19.136697265625,-0.03191375732421875,-0.016590595245361328,0.04440954327583313
1695713514865730300,19.146730224609374,-0.04452848434448242,-0.024946212768554688,0.03904053568840027
1695713514875763500,19.156763427734376,-0.01940155029296875,-0.028564453125,0.043163567781448364
1695713514885793800,19.166793701171876,-0.013505935668945312,0.02438068389892578,0.018711864948272705
1695713514895824100,19.17682421875,0.011199951171875,0.038838863372802734,0.027691543102264404
1695713514905854500,19.1868544921875,-0.006820201873779297,0.02015972137451172,0.01787811517715454
1695713514915884800,19.196884765625,0.013185977935791016,0.011272907257080078,0.036734551191329956
1695713514925915100,19.2069150390625,-0.005054950714111328,-0.040033817291259766,0.03650602698326111
1695713514935945500,19.216945556640624,-0.018192291259765625,-0.057466983795166016,0.050200074911117554
1695713514945975800,19.226975830078125,0.0019345283508300781,-0.018043041229248047,0.044768065214157104
1695713514956006100,19.237006103515625,-0.006451606750488281,-0.0357208251953125,0.020576179027557373
1695713514966036500,19.247036376953126,-0.0005831718444824219,-0.02956104278564453,0.01574951410293579
1695713514976066800,19.25706689453125,-0.004326820373535156,-0.000024318695068359375,0.05828055739402771
1695713514986098200,19.26709814453125,0.010746479034423828,0.0007162094116210938,0.053176552057266235
1695713514996132600,19.277132568359374,0.0066661834716796875,-0.008030891418457031,0.05281868577003479
1695713515006167000,19.2871669921875,0.025940895080566406,0.0020165443420410156,0.06215515732765198
1695713515016201500,19.297201416015625,0.030773639678955078,0.016615867614746094,0.038471609354019165
1695713515026236000,19.30723583984375,0.05930805206298828,0.021751880645751953,0.019971132278442383
1695713515036270600,19.3172705078125,0.02615499496459961,0.05035066604614258,0.00656735897064209
1695713515046305000,19.327304931640626,-0.011239051818847656,0.03604936599731445,0.007815837860107422
1695713515056339500,19.33733935546875,-0.043381690979003906,0.03605937957763672,0.013911664485931396
1695713515066374000,19.347373779296873,-0.03755331039428711,0.007632255554199219,-0.0036208629608154297
1695713515076408600,19.35740869140625,-0.0368499755859375,0.0029726028442382812,-0.02549004554748535
1695713515086443000,19.367443115234376,-0.017393112182617188,-0.02050161361694336,-0.0046651363372802734
1695713515096471600,19.377471435546877,-0.01717996597290039,-0.024802207946777344,-0.05459403991699219
1695713515106505200,19.387505126953126,-0.01720428466796875,-0.033908843994140625,-0.03280586004257202
1695713515116539100,19.3975390625,-0.036375999450683594,-0.05252981185913086,-0.011364936828613281
1695713515126573000,19.407572998046874,-0.03208446502685547,-0.03816938400268555,-0.004008650779724121
1695713515136607000,19.41760693359375,-0.01875448226928711,-0.029006004333496094,0.00788569450378418
1695713515146640600,19.427640625,0.03187370300292969,-0.01542520523071289,-0.004248142242431641
1695713515156674600,19.437674560546874,0.0579676628112793,0.0025229454040527344,-0.006730616092681885
1695713515166708500,19.44770849609375,0.07899713516235352,0.02966594696044922,-0.01372063159942627
1695713515176742100,19.4577421875,0.06679534912109375,0.018752098083496094,-0.04884535074234009
1695713515186776000,19.467776123046875,0.045435428619384766,0.017508983612060547,-0.04067254066467285
1695713515196810000,19.47781005859375,0.01955699920654297,0.03501272201538086,-0.032332777976989746
1695713515206838800,19.4878388671875,0.007750988006591797,0.06598901748657227,-0.061498939990997314
1695713515216867800,19.497867919921877,0.009946346282958984,0.039723873138427734,-0.08036190271377563
1695713515226897200,19.507897216796874,0.025806903839111328,0.01361846923828125,-0.06992506980895996
1695713515236926500,19.517926513671874,0.04100179672241211,0.0017976760864257812,-0.06389117240905762
1695713515246955800,19.527955810546874,0.07922601699829102,0.004138946533203125,-0.05744725465774536
1695713515256985000,19.537985107421875,0.08393096923828125,0.034793853759765625,-0.05071073770523071
1695713515267014400,19.548014404296875,0.09797811508178711,0.07436752319335938,-0.025234639644622803
1695713515277043700,19.558043701171876,0.08841228485107422,0.04279184341430664,-0.023708045482635498
1695713515287072800,19.56807275390625,0.07439470291137695,0.05418252944946289,-0.017767131328582764
1695713515297102000,19.57810205078125,0.07490777969360352,0.02783346176147461,-0.02633613348007202
1695713515307131400,19.58813134765625,0.07097578048706055,-0.012021064758300781,-0.030528783798217773
1695713515317160200,19.59816015625,0.06274032592773438,-0.018021106719970703,-0.03516089916229248
1695713515327180800,19.608180908203124,0.031127452850341797,-0.019227981567382812,0.016292273998260498
1695713515337224200,19.61822412109375,0.0046844482421875,-0.04875040054321289,0.005255281925201416
1695713515347267600,19.628267578125,0.007128238677978516,-0.030607223510742188,0.03598308563232422
1695713515357310700,19.638310791015623,0.014601707458496094,-0.05022239685058594,0.08417373895645142
1695713515367329500,19.64832958984375,0.017766952514648438,-0.03148794174194336,0.07906526327133179
1695713515377361400,19.658361328125,0.03551816940307617,-0.008020401000976562,0.06853914260864258
1695713515387393300,19.668393310546875,-0.007810115814208984,-0.027048110961914062,0.07158178091049194
1695713515397425200,19.678425048828124,-0.026453495025634766,-0.012517452239990234,0.05044102668762207
1695713515407457000,19.68845703125,-0.049080848693847656,-0.007364749908447266,0.047959983348846436
1695713515417488600,19.698488525390626,-0.08067560195922852,0.0024728775024414062,0.0267484188079834
1695713515427520500,19.7085205078125,-0.07889842987060547,0.01208353042602539,0.025039196014404297
1695713515437552400,19.718552490234377,-0.06767463684082031,0.0027489662170410156,0.042221128940582275
1695713515447584300,19.728584228515626,-0.08977842330932617,-0.015965938568115234,0.045259833335876465
1695713515457616100,19.7386162109375,-0.059893131256103516,-0.015661239624023438,0.03895634412765503
1695713515467647700,19.748647705078124,-0.04935407638549805,-0.0012292861938476562,-0.004704654216766357
1695713515477670000,19.758669921875,-0.039183616638183594,-0.015408992767333984,-0.02369934320449829
1695713515487705300,19.768705322265625,-0.04341554641723633,0.0035448074340820312,-0.03270810842514038
1695713515497741000,19.778740966796875,-0.043148040771484375,0.04552936553955078,-0.02714228630065918
1695713515507776800,19.78877685546875,-0.0004477500915527344,0.05861234664916992,-0.03576582670211792
1695713515517812200,19.798812255859374,-0.005344390869140625,0.06222963333129883,-0.01585555076599121
1695713515527848000,19.808847900390624,-0.014734268188476562,0.04707908630371094,-0.019567549228668213
1695713515537883600,19.818883544921874,0.028040409088134766,0.04177427291870117,-0.04195976257324219
1695713515547919000,19.828919189453124,-0.005322456359863281,0.031772613525390625,-0.04053306579589844
1695713515557954800,19.838954833984374,0.004254817962646484,0.007805347442626953,-0.04869067668914795
1695713515567990500,19.848990478515624,0.004321575164794922,-0.011004447937011719,-0.028494954109191895
1695713515578026000,19.85902587890625,0.009142398834228516,0.017641544342041016,-0.013108789920806885
1695713515588050400,19.869050537109374,-0.0004239082336425781,0.0032858848571777344,-0.026282668113708496
1695713515598086000,19.8790859375,-0.019335269927978516,-0.006205081939697266,0.007672250270843506
1695713515608121300,19.889121337890625,-0.023778438568115234,-0.029691219329833984,-0.006597995758056641
1695713515618156800,19.89915673828125,0.004912853240966797,-0.06213951110839844,-0.0019852519035339355
1695713515628192300,19.909192138671877,0.04290437698364258,-0.023151874542236328,-0.011793553829193115
1695713515638227700,19.919227783203127,0.047235965728759766,0.01983785629272461,0.006767153739929199
1695713515648263200,19.92926318359375,0.051422119140625,0.057332515716552734,-0.036336541175842285
1695713515658298600,19.939298583984375,0.04139280319213867,0.028275489807128906,-0.03152686357498169
1695713515668334300,19.949334228515625,0.0031919479370117188,0.00434112548828125,-0.003271639347076416
1695713515678369800,19.959369873046874,0.031508445739746094,-0.00983285903930664,0.033631324768066406
1695713515688395300,19.969395263671874,0.059546470642089844,-0.023657798767089844,0.017649948596954346
1695713515698427000,19.979427001953123,0.0450139045715332,0.014731407165527344,0.011035919189453125
1695713515708458800,19.989458740234376,0.035619258880615234,-0.003901958465576172,-0.009926140308380127
1695713515718490400,19.999490478515625,0.04051351547241211,-0.026939868927001953,-0.030681967735290527
1695713515728522000,20.00952197265625,0.026591777801513672,-0.04012012481689453,-0.02310967445373535
1695713515738553600,20.0195537109375,-0.0058460235595703125,-0.0012421607971191406,0.002867460250854492
1695713515748585200,20.029585205078124,-0.014187812805175781,0.004022121429443359,-0.000046312808990478516
1695713515758616800,20.039616943359373,-0.0128936767578125,0.023388385772705078,0.011214256286621094
1695713515768648400,20.0496484375,-0.040040016174316406,0.03760385513305664,0.031847357749938965
1695713515778680000,20.05968017578125,-0.029319286346435547,0.013738632202148438,0.028879880905151367
1695713515788707000,20.06970703125,-0.009280204772949219,0.009161949157714844,0.04471713304519653
1695713515798740000,20.079739990234376,0.024550437927246094,-0.018867015838623047,0.046323418617248535
1695713515808772600,20.089772705078126,0.015593528747558594,0.014915943145751953,0.0009604096412658691
1695713515818805500,20.099805419921875,0.04446077346801758,0.03871965408325195,-0.034292638301849365
1695713515828838100,20.109838134765624,0.01624441146850586,0.033792972564697266,-0.0360487699508667
1695713515838870800,20.119870849609374,-0.04472160339355469,0.0004949569702148438,-0.023620545864105225
1695713515848903700,20.129903564453127,-0.04824256896972656,-0.018172264099121094,-0.02071964740753174
1695713515858936300,20.139936279296876,-0.032790184020996094,-0.01763010025024414,-0.017867088317871094
1695713515868969000,20.149968994140625,-0.03675651550292969,-0.02203989028930664,-0.0006327629089355469
1695713515879001900,20.160001953125,-0.02687692642211914,-0.007775306701660156,0.030933380126953125
1695713515889034500,20.170034423828124,0.0015668869018554688,-0.003197193145751953,0.02495819330215454
1695713515899062500,20.1800625,0.005987644195556641,0.01545572280883789,0.024174988269805908
1695713515909094000,20.190093994140625,0.010174751281738281,-0.018117427825927734,0.051736295223236084
1695713515919125200,20.200125244140626,0.018692970275878906,-0.009000301361083984,0.036414504051208496
1695713515929156600,20.210156494140627,0.027222633361816406,0.009502410888671875,0.016622543334960938
1695713515939188000,20.22018798828125,0.04503345489501953,0.01828622817993164,0.006594538688659668
1695713515949219600,20.230219482421877,0.04857015609741211,0.012924671173095703,-0.003139972686767578
1695713515959251000,20.2402509765625,-0.000006198883056640625,0.00275421142578125,0.006311595439910889
1695713515969282300,20.2502822265625,-0.0007052421569824219,0.021017074584960938,-0.012296199798583984
1695713515979313700,20.260313720703124,-0.029736995697021484,0.010660648345947266,0.0024924874305725098
1695713515989345000,20.270344970703125,-0.025404930114746094,-0.02312326431274414,0.021823406219482422
1695713515999376600,20.280376708984374,-0.016424179077148438,-0.01396036148071289,0.03136873245239258
1695713516009405000,20.290405029296874,-0.007574558258056641,-0.019075870513916016,0.0028966665267944336
1695713516019435800,20.300435791015627,-0.013146400451660156,-0.0006952285766601562,-0.0017642974853515625
1695713516029467000,20.310466796875,0.0048503875732421875,0.012613296508789062,-0.0016851425170898438
1695713516039497700,20.320497802734376,0.04616975784301758,0.016339778900146484,0.012438297271728516
1695713516049528800,20.33052880859375,0.020960330963134766,0.020086288452148438,0.03127551078796387
1695713516059559700,20.3405595703125,0.033901214599609375,0.03795957565307617,0.049987971782684326
1695713516069590800,20.3505908203125,-0.0005459785461425781,0.00838613510131836,0.0354914665222168
1695713516079621600,20.36062158203125,-0.0016069412231445312,0.03568840026855469,0.025899171829223633
1695713516089652500,20.370652587890625,0.00208282470703125,0.039005279541015625,0.006957888603210449
1695713516099683600,20.38068359375,0.00101470947265625,0.009313583374023438,0.0024123787879943848
1695713516109714400,20.39071435546875,0.028573989868164062,0.013347625732421875,-0.006903290748596191
1695713516119740200,20.400740234375,0.0366673469543457,0.017188549041748047,0.0028966665267944336
1695713516129772800,20.410772705078124,0.030591964721679688,0.02573680877685547,0.0029906034469604492
1695713516139805400,20.420805419921876,0.019927978515625,0.01061248779296875,0.0360148549079895
1695713516149837800,20.430837890625,-0.004672050476074219,-0.004260063171386719,0.030694246292114258
1695713516159870500,20.440870361328123,0.008824825286865234,0.009379386901855469,0.02543419599533081
1695713516169903000,20.450903076171876,0.012759685516357422,0.027569293975830078,0.010925114154815674
1695713516179935700,20.460935791015626,0.016703128814697266,0.026703357696533203,0.015796422958374023
1695713516189968400,20.470968505859375,-0.0029621124267578125,0.007017612457275391,0.015878260135650635
1695713516200001000,20.4810009765625,0.03428983688354492,0.011271953582763672,0.030102074146270752
1695713516210033700,20.49103369140625,0.04748344421386719,-0.008036613464355469,0.006007969379425049
1695713516220066300,20.50106640625,0.05120038986206055,0.0013475418090820312,0.0010697245597839355
1695713516230093000,20.511093017578126,0.026770591735839844,-0.008145332336425781,0.0006991028785705566
1695713516240126000,20.5211259765625,0.0026493072509765625,0.0012788772583007812,0.009779810905456543
1695713516250158800,20.531158935546873,-0.0020074844360351562,0.029562950134277344,-0.014205455780029297
1695713516260192000,20.54119189453125,-0.006598472595214844,0.010283470153808594,-0.028328299522399902
1695713516270225000,20.551224853515624,-0.00635528564453125,0.0008053779602050781,-0.03248405456542969
1695713516280257800,20.5612578125,-0.0015058517456054688,0.0008397102355957031,-0.02696460485458374
1695713516290290700,20.571290771484374,-0.01564645767211914,0.0008039474487304688,-0.026389002799987793
1695713516300323600,20.581323486328124,-0.015505790710449219,0.01954030990600586,-0.011697232723236084
1695713516310356500,20.5913564453125,-0.0014085769653320312,0.056661128997802734,-0.02559959888458252
1695713516320389400,20.601389404296874,-0.011002540588378906,0.027299880981445312,0.002963840961456299
1695713516330422500,20.611422607421876,-0.015561103820800781,0.012685298919677734,-0.001891493797302246
1695713516340450600,20.621450439453124,0.01777935028076172,-0.0062618255615234375,-0.015939772129058838
1695713516350484500,20.631484375,-0.005678653717041016,-0.020008563995361328,-0.034812092781066895
1695713516360518100,20.64151806640625,0.00894784927368164,-0.042943477630615234,-0.020661532878875732
1695713516370552000,20.651552001953124,0.018621444702148438,-0.008992671966552734,0.007378935813903809
1695713516380586000,20.6615859375,0.009200572967529297,0.005488395690917969,0.03506040573120117
1695713516390619600,20.67161962890625,0.004527568817138672,0.0008368492126464844,0.043904125690460205
1695713516400653600,20.681653564453125,0.004467964172363281,-0.013286113739013672,0.06206309795379639
1695713516410687200,20.691687255859375,0.004650592803955078,0.0012540817260742188,0.056215763092041016
1695713516420721200,20.70172119140625,-0.004080295562744141,-0.012309074401855469,0.040957629680633545
1695713516430755000,20.711755126953125,0.0205535888671875,0.03575420379638672,0.02105623483657837
1695713516440788700,20.721788818359375,0.049825191497802734,0.0503082275390625,-0.0034110546112060547
1695713516450817800,20.73181787109375,0.022351741790771484,0.05538463592529297,0.005346477031707764
1695713516460849700,20.741849609375,0.00019979476928710938,0.027536392211914062,0.004523098468780518
1695713516470881500,20.751881591796874,-0.02157735824584961,0.018987178802490234,0.013067305088043213
1695713516480913400,20.761913330078126,0.008889198303222656,-0.012898921966552734,0.011988639831542969
1695713516490945300,20.7719453125,0.010614395141601562,-0.015990257263183594,-0.00793534517288208
1695713516500977200,20.78197705078125,0.012304306030273438,0.03747367858886719,-0.04159039258956909
1695713516511009300,20.79200927734375,-0.0048007965087890625,0.01006460189819336,-0.055724382400512695
1695713516521041200,20.802041259765623,0.02073192596435547,-0.02631664276123047,-0.055405616760253906
1695713516531073000,20.812072998046876,-0.0013337135314941406,-0.015074729919433594,-0.05040085315704346
1695713516541105000,20.82210498046875,-0.013706684112548828,-0.013512611389160156,-0.06905686855316162
1695713516551136800,20.83213671875,-0.021405696868896484,-0.026309490203857422,-0.05468255281448364
1695713516561167000,20.8421669921875,-0.014937400817871094,-0.029551029205322266,-0.040644943714141846
1695713516571203600,20.85220361328125,-0.02757120132446289,-0.02816152572631836,-0.02221357822418213
1695713516581240000,20.862239990234375,-0.007047176361083984,-0.012674808502197266,-0.018168926239013672
1695713516591276500,20.872276611328125,0.036418914794921875,-0.0023560523986816406,0.009380638599395752
1695713516601312800,20.882312744140624,0.04636096954345703,-0.015631675720214844,-0.005986392498016357
1695713516611349200,20.892349365234374,0.03737068176269531,-0.009806632995605469,-0.025919675827026367
1695713516621385700,20.9023857421875,0.018940448760986328,-0.027760028839111328,-0.04084581136703491
1695713516631422200,20.912422119140626,-0.018011093139648438,-0.026597976684570312,-0.022866547107696533
1695713516641458700,20.922458740234376,-0.021466732025146484,0.016847610473632812,-0.019472718238830566
1695713516651495200,20.9324951171875,-0.020310401916503906,0.012351036071777344,0.021390020847320557
1695713516661531600,20.94253173828125,-0.033385276794433594,-0.020379066467285156,0.03346359729766846
1695713516671562000,20.95256201171875,-0.0323634147644043,-0.015072822570800781,0.040851891040802
1695713516681592800,20.9625927734375,0.01103067398071289,-0.0286712646484375,0.02939629554748535
1695713516691624000,20.9726240234375,0.016038894653320312,-0.023201942443847656,0.013439953327178955
1695713516701654800,20.98265478515625,-0.016853809356689453,0.005605220794677734,0.021326124668121338
1695713516711686000,20.992685791015624,-0.025821208953857422,0.00555419921875,0.015018284320831299
1695713516721717000,21.002717041015625,-0.020427703857421875,0.024407386779785156,0.0465010404586792
1695713516731747800,21.012747802734374,-0.038678646087646484,0.014689445495605469,0.0398368239402771
1695713516741779000,21.022779052734375,-0.018950462341308594,0.0004253387451171875,0.04263758659362793
1695713516751809800,21.032809814453124,0.01474618911743164,-0.00405120849609375,0.06888803839683533
1695713516761841000,21.0428408203125,0.019800662994384766,0.015233993530273438,0.061854273080825806
1695713516771871700,21.052871826171874,0.006096363067626953,0.03433036804199219,0.059726327657699585
1695713516781902300,21.06290234375,0.00675201416015625,0.024874210357666016,0.029559075832366943
1695713516791933200,21.07293310546875,-0.002026081085205078,0.015575408935546875,0.014083683490753174
1695713516801964300,21.08296435546875,-0.029578208923339844,0.0016541481018066406,0.008266568183898926
1695713516811995100,21.0929951171875,-0.033277034759521484,-0.031001567840576172,0.02117401361465454
1695713516822026000,21.10302587890625,-0.013291358947753906,-0.03951740264892578,0.024289071559906006
1695713516832057000,21.11305712890625,-0.031542301177978516,-0.029246807098388672,0.022580325603485107
1695713516842088000,21.123087890625,-0.03082561492919922,-0.005142688751220703,-0.0024361610412597656
1695713516852119000,21.133119140625,-0.020795345306396484,0.009101390838623047,-0.012463152408599854
1695713516862150000,21.14314990234375,0.0030107498168945312,0.008861064910888672,0.0015535354614257812
1695713516872180700,21.1531806640625,0.0028772354125976562,-0.005495548248291016,0.029542386531829834
1695713516882211800,21.1632119140625,0.026369094848632812,-0.005412101745605469,0.02897322177886963
1695713516892244500,21.173244384765624,0.021137714385986328,-0.014827728271484375,0.03288203477859497
1695713516902277400,21.18327734375,0.01591348648071289,-0.005309104919433594,-0.005571544170379639
1695713516912310000,21.19331005859375,-0.0033550262451171875,0.004039287567138672,-0.034063756465911865
1695713516922342700,21.2033427734375,0.010571956634521484,-0.005671024322509766,-0.047971904277801514
1695713516932375600,21.21337548828125,-0.013578414916992188,-0.005935192108154297,-0.019160747528076172
1695713516942408200,21.223408203125,-0.018658161163330078,-0.006321430206298828,-0.014309406280517578
1695713516952441000,21.233441162109376,-0.02860736846923828,-0.02572011947631836,0.014147400856018066
1695713516962473700,21.2434736328125,-0.005430698394775391,0.0022907257080078125,0.028004109859466553
1695713516972506400,21.25350634765625,-0.02046346664428711,0.0014677047729492188,0.01347494125366211
1695713516982538000,21.2635380859375,-0.011708259582519531,0.019492626190185547,0.003959834575653076
1695713516992571600,21.273571533203125,-0.007796764373779297,0.008976459503173828,-0.005363345146179199
1695713517002605600,21.28360546875,0.01009511947631836,0.007984161376953125,-0.024028480052947998
1695713517012639200,21.29363916015625,-0.005197048187255859,-0.011768817901611328,-0.018856406211853027
1695713517022673200,21.303673095703125,-0.025028705596923828,0.0017046928405761719,-0.013707220554351807
1695713517032706800,21.313706787109375,-0.007021427154541016,0.005410194396972656,-0.0086439847946167
1695713517042740500,21.323740478515624,-0.012851715087890625,0.0043506622314453125,0.010477423667907715
1695713517052774400,21.3337744140625,0.004883289337158203,-0.010879993438720703,0.024508118629455566
1695713517062808000,21.34380810546875,0.017614364624023438,0.007109165191650391,0.028967857360839844
1695713517072842000,21.353842041015625,0.03005838394165039,-0.008224964141845703,0.023872733116149902
1695713517082873000,21.363873046875,0.018677711486816406,0.02372598648071289,0.03300517797470093
1695713517092903000,21.37390283203125,0.012366294860839844,0.012888431549072266,0.01823580265045166
1695713517102932700,21.3839326171875,0.043903350830078125,0.01641559600830078,0.022529959678649902
1695713517112962300,21.39396240234375,0.013926506042480469,0.010656356811523438,0.026942014694213867
1695713517122992000,21.4039921875,0.00809478759765625,-0.009063720703125,0.012273669242858887
1695713517133022000,21.41402197265625,-0.011690616607666016,-0.02368307113647461,-0.03504723310470581
1695713517143051800,21.4240517578125,-0.02180957794189453,-0.028710365295410156,-0.011030733585357666
1695713517153081600,21.43408154296875,-0.01769733428955078,-0.0337061882019043,-0.0015693306922912598
1695713517163111400,21.444111328125,0.0002422332763671875,-0.029390811920166016,0.0028995275497436523
1695713517173141000,21.45414111328125,-0.005671024322509766,0.0031042098999023438,0.0027115941047668457
1695713517183172900,21.4641728515625,0.0259246826171875,0.04428577423095703,-0.011409640312194824
1695713517193206800,21.474206787109374,0.02882242202758789,0.03303861618041992,0.0027955174446105957
1695713517203241000,21.484240966796875,-0.0056934356689453125,0.022231578826904297,-0.011298418045043945
1695713517213275100,21.494275146484377,0.012481689453125,0.007159709930419922,0.022089004516601562
1695713517223309000,21.50430908203125,0.007046699523925781,0.01137399673461914,0.017474889755249023
1695713517233343000,21.514343017578124,0.016074180603027344,0.058112144470214844,-0.0055582523345947266
1695713517243377200,21.524377197265625,0.006122112274169922,0.05226564407348633,0.013946175575256348
1695713517253411300,21.534411376953123,-0.008441448211669922,0.02291107177734375,-0.018795013427734375
1695713517263445200,21.5444453125,-0.008872032165527344,0.017399311065673828,-0.04634499549865723
1695713517273479400,21.5544794921875,-0.014227867126464844,-0.025872230529785156,-0.021750032901763916
1695713517283515400,21.564515380859376,0.00876474380493164,-0.016620635986328125,-0.002257227897644043
1695713517293576000,21.574575927734376,-0.0016536712646484375,-0.007578849792480469,-0.011367440223693848
1695713517303636500,21.584636474609376,0.025908470153808594,0.006153106689453125,-0.029409587383270264
1695713517313697000,21.594697021484375,-0.008286476135253906,0.01487874984741211,-0.009499609470367432
1695713517323757600,21.604757568359375,0.009876728057861328,-0.014203548431396484,-0.0039033889770507812
1695713517333818000,21.614818115234375,-0.014772891998291016,-0.0052642822265625,0.005911886692047119
1695713517343854000,21.62485400390625,-0.0014057159423828125,-0.01536703109741211,0.01072758436203003
1695713517353897700,21.634897705078124,0.011492252349853516,-0.020790576934814453,0.015383541584014893
1695713517363916000,21.644916015625,0.042949676513671875,-0.016772747039794922,0.014984369277954102
1695713517373970700,21.654970703125,0.031495094299316406,0.006021022796630859,0.0053986310958862305
1695713517384006400,21.66500634765625,0.04847383499145508,0.004893779754638672,-0.008609950542449951
1695713517394024200,21.675024169921876,0.01832103729248047,-0.010149478912353516,-0.017613768577575684
1695713517404060200,21.68506005859375,0.01707315444946289,-0.020095348358154297,0.03032088279724121
1695713517414081800,21.695081787109373,-0.040750980377197266,-0.015813350677490234,0.05404064059257507
1695713517424094000,21.705093994140626,-0.03209114074707031,0.002204418182373047,0.03490680456161499
1695713517434127600,21.715127685546875,-0.019192218780517578,0.024360179901123047,0.0017262101173400879
1695713517444163600,21.72516357421875,-0.006434440612792969,-0.0008878707885742188,-0.035707831382751465
1695713517454170400,21.73517041015625,0.029899120330810547,-0.011408329010009766,-0.03501039743423462
1695713517464260000,21.745260009765627,0.04238414764404297,-0.0026760101318359375,-0.04832327365875244
1695713517474294800,21.755294677734376,0.022017478942871094,0.015561580657958984,-0.02394324541091919
1695713517484322000,21.765322021484376,-0.01207733154296875,0.03354167938232422,-0.04233741760253906
1695713517494357000,21.77535693359375,-0.01778411865234375,0.027318477630615234,-0.01366966962814331
1695713517504355300,21.785355224609376,0.028873443603515625,0.10632705688476562,-0.018394172191619873
1695713517514390300,21.795390380859374,-0.08552026748657227,0.06145048141479492,-0.0042604804039001465
1695713517524276000,21.80527587890625,0.013716697692871094,-0.006333827972412109,0.04749599099159241
1695713517534299400,21.81529931640625,0.02234506607055664,-0.0066242218017578125,0.00018775463104248047
1695713517544342000,21.825342041015624,-0.13473272323608398,-0.10637283325195312,-0.03677952289581299
1695713517554367500,21.835367431640623,-0.012534141540527344,-0.11586618423461914,0.00724560022354126
1695713517564408800,21.845408935546875,0.16465044021606445,0.021248340606689453,0.01866203546524048
1695713517574435800,21.855435791015626,0.08089542388916016,0.11919164657592773,0.03480672836303711
1695713517584467500,21.865467529296875,0.06013822555541992,0.1545238494873047,0.05910643935203552
1695713517594495000,21.875494873046875,-0.03578805923461914,0.09018182754516602,-0.0026848912239074707
1695713517604536600,21.88553662109375,-0.0603184700012207,-0.006755352020263672,-0.026646077632904053
1695713517614565600,21.895565673828123,-0.02831554412841797,-0.05530738830566406,-0.07879006862640381
1695713517624601600,21.9056015625,0.0031585693359375,-0.10304546356201172,-0.1017959713935852
1695713517634631200,21.915631103515626,0.0013279914855957031,-0.12158632278442383,-0.08661407232284546
1695713517644660700,21.92566064453125,-0.028879165649414062,-0.12580585479736328,-0.05746060609817505
1695713517654690300,21.935690185546875,-0.025939464569091797,-0.08310079574584961,-0.014487683773040771
1695713517664734500,21.945734375,0.005043983459472656,-0.04124641418457031,0.027544379234313965
1695713517674765600,21.955765625,0.05434751510620117,-0.004818439483642578,0.026176631450653076
1695713517684798000,21.9657978515625,0.08896255493164062,0.03116750717163086,0.005487024784088135
1695713517694829000,21.9758291015625,0.1139230728149414,0.09031343460083008,-0.010820627212524414
1695713517704851700,21.985851806640625,0.11525964736938477,0.10631895065307617,-0.02267444133758545
1695713517714882000,21.995882080078125,0.07914590835571289,0.08926200866699219,-0.01582181453704834
1695713517724918000,22.00591796875,0.06748151779174805,0.0821390151977539,-0.018558263778686523
1695713517734948900,22.015948974609376,0.00921487808227539,0.01415109634399414,-0.00236356258392334
1695713517744991700,22.02599169921875,-0.03876781463623047,-0.01982259750366211,-0.05706501007080078
1695713517755024000,22.03602392578125,-0.07671689987182617,-0.05335283279418945,-0.058808207511901855
1695713517765049300,22.04604931640625,-0.08570623397827148,-0.015621185302734375,-0.08854818344116211
1695713517775080700,22.056080810546874,-0.08982086181640625,-0.0020384788513183594,-0.018777132034301758
1695713517785105200,22.066105224609377,-0.08924436569213867,0.04426145553588867,0.050541430711746216
1695713517795135700,22.0761357421875,-0.10741472244262695,0.02867269515991211,0.057790130376815796
1695713517805179000,22.086178955078125,-0.14873409271240234,-0.0007033348083496094,0.03207424283027649
1695713517815210800,22.096210693359374,-0.11376762390136719,-0.0623621940612793,0.03956142067909241
1695713517825240300,22.106240234375,-0.11704158782958984,-0.09945011138916016,0.08917686343193054
1695713517835272000,22.11627197265625,-0.04475116729736328,-0.11697149276733398,0.10000988841056824
1695713517845331200,22.126331298828124,-0.025385379791259766,-0.08706331253051758,0.02109476923942566
1695713517855365600,22.13636572265625,0.012341022491455078,-0.07665395736694336,-0.03372925519943237
1695713517865386800,22.14638671875,0.0118408203125,-0.07108497619628906,-0.045456886291503906
1695713517875420000,22.156419921875,-0.04507923126220703,-0.06557846069335938,-0.057415008544921875
1695713517885460200,22.166460205078124,-0.025638103485107422,-0.0836491584777832,-0.017399907112121582
1695713517895494000,22.176493896484374,-0.058503150939941406,-0.06857109069824219,0.045967310667037964
1695713517905523500,22.1865234375,-0.09587335586547852,-0.039861202239990234,0.08035844564437866
1695713517915556900,22.196556884765624,-0.12862920761108398,0.049031734466552734,0.0577092170715332
1695713517925588000,22.206587890625,-0.07624101638793945,0.10335445404052734,-0.030626237392425537
1695713517935621000,22.21662109375,-0.052826881408691406,0.07683610916137695,-0.10819178819656372
1695713517945652500,22.226652587890626,-0.09038829803466797,0.018288612365722656,-0.17025157809257507
1695713517955685400,22.236685302734376,-0.14575862884521484,-0.05311250686645508,-0.13257771730422974
1695713517965685500,22.246685546875,-0.17171621322631836,-0.09958696365356445,-0.062419116497039795
1695713517975715000,22.256715087890626,-0.0417323112487793,-0.11219263076782227,0.02128767967224121
1695713517985752600,22.266752685546876,0.08143758773803711,-0.07743358612060547,0.02859187126159668
1695713517995783000,22.276782958984374,0.14125776290893555,0.0037703514099121094,0.017003804445266724
1695713518005841700,22.286841552734376,0.17142438888549805,0.08328866958618164,0.000570446252822876
1695713518015875000,22.296875,0.19619369506835938,0.1377859115600586,0.017201006412506104
1695713518025902300,22.30690234375,0.20182418823242188,0.1726517677307129,0.04341289401054382
1695713518035935000,22.31693505859375,0.2077312469482422,0.16957521438598633,0.08837324380874634
1695713518045976600,22.3269765625,0.1526341438293457,0.16680526733398438,0.08582410216331482
1695713518056010200,22.33701025390625,0.12216663360595703,0.1171121597290039,0.08309143781661987
1695713518066008000,22.347008056640625,0.08744668960571289,0.14353322982788086,0.06136232614517212
1695713518076038100,22.3570380859375,0.1100926399230957,0.13676118850708008,0.053941428661346436
1695713518086070500,22.367070556640623,0.09993219375610352,0.1305103302001953,0.04665052890777588
1695713518096100900,22.377100830078124,0.11434316635131836,0.14856719970703125,0.06305098533630371
1695713518106300700,22.38730078125,0.11514949798583984,0.08685636520385742,0.10263228416442871
1695713518116359700,22.397359619140627,0.07851266860961914,0.06405973434448242,0.13270023465156555
1695713518126239700,22.40723974609375,0.09895992279052734,0.05109214782714844,0.13492798805236816
1695713518136257500,22.417257568359375,0.1285238265991211,0.07609224319458008,0.09091919660568237
1695713518146426600,22.427426513671875,0.10112190246582031,0.09133577346801758,0.048581600189208984
1695713518156444400,22.4374443359375,0.0738840103149414,0.06374549865722656,0.026146382093429565
1695713518166360000,22.447360107421876,0.08458089828491211,0.02706766128540039,-0.005111783742904663
1695713518176369200,22.457369140625,0.043233394622802734,-0.037278175354003906,0.006976813077926636
1695713518186397000,22.46739697265625,0.016399860382080078,-0.0725245475769043,0.0613197386264801
1695713518196408000,22.477407958984376,0.0038166046142578125,-0.09328937530517578,0.08676058053970337
1695713518206489300,22.4874892578125,0.03359365463256836,-0.09503507614135742,0.0648917555809021
1695713518216507600,22.497507568359374,-0.007755279541015625,-0.06378459930419922,0.08115282654762268
1695713518226552000,22.507552001953126,-0.048729896545410156,-0.06154584884643555,0.06420814990997314
1695713518236573000,22.517572998046877,-0.079925537109375,-0.05959510803222656,0.06160041689872742
1695713518246612200,22.5276123046875,-0.1014251708984375,-0.057861328125,0.06845781207084656
1695713518256635000,22.537634765625,-0.12727117538452148,-0.0514531135559082,0.03267389535903931
1695713518266681000,22.54768115234375,-0.14334344863891602,-0.04522514343261719,0.03485563397407532
1695713518276706300,22.557706298828126,-0.11669540405273438,-0.03434467315673828,0.03681427240371704
1695713518286746400,22.567746337890625,-0.1280984878540039,-0.018877506256103516,0.01066085696220398
1695713518296772900,22.57777294921875,-0.14426279067993164,-0.03212165832519531,-0.024720489978790283
1695713518306808300,22.587808349609375,-0.1084585189819336,-0.04522132873535156,-0.04543951153755188
1695713518316835800,22.5978359375,-0.10629701614379883,-0.05816936492919922,-0.0234566330909729
1695713518326873600,22.60787353515625,-0.14209699630737305,-0.04754495620727539,-0.03461053967475891
1695713518336902100,22.617902099609374,-0.13526105880737305,-0.08443307876586914,-0.03597638010978699
1695713518346938000,22.627938232421876,-0.08626842498779297,-0.10665225982666016,-0.03245741128921509
1695713518356967400,22.637967529296876,-0.014559268951416016,-0.04374504089355469,-0.024165689945220947
1695713518366977300,22.647977294921876,-0.009905338287353516,-0.02420949935913086,-0.03947204351425171
1695713518377004800,22.6580048828125,-0.028969287872314453,0.01375722885131836,-0.012194633483886719
1695713518387052300,22.66805224609375,-0.029044151306152344,-0.005541801452636719,0.0051364898681640625
1695713518397081600,22.67808154296875,-0.014980792999267578,-0.015121936798095703,0.021725445985794067
1695713518407100200,22.68810009765625,0.01313018798828125,-0.052668094635009766,0.028680533170700073
1695713518417128400,22.69812841796875,0.017251014709472656,-0.07546806335449219,-0.01189512014389038
1695713518427165700,22.708165771484374,0.0023012161254882812,-0.04622936248779297,-0.00009697675704956055
1695713518437194800,22.71819482421875,-0.02678823471069336,0.0011529922485351562,-0.021448850631713867
1695713518447232500,22.728232421875,-0.04134321212768555,-0.022962093353271484,-0.02391338348388672
1695713518457262300,22.738262451171874,-0.036896705627441406,-0.08913660049438477,-0.04555779695510864
1695713518467322400,22.748322265625,0.00020170211791992188,-0.10732316970825195,-0.04358154535293579
1695713518477355500,22.75835546875,0.0319819450378418,-0.06400299072265625,-0.06540852785110474
1695713518487392800,22.768392822265625,0.030179977416992188,0.0020589828491210938,-0.12936556339263916
1695713518497426400,22.778426513671874,0.07069921493530273,0.03397035598754883,-0.11726033687591553
1695713518507450600,22.78845068359375,0.049234867095947266,0.008751392364501953,-0.11977952718734741
1695713518517483300,22.798483154296875,-0.009807109832763672,0.0025768280029296875,-0.11291229724884033
1695713518527520300,22.808520263671873,-0.021033763885498047,0.005722999572753906,-0.11561352014541626
1695713518537553200,22.81855322265625,-0.00844430923461914,-0.014679908752441406,-0.11857497692108154
1695713518547584800,22.828584716796875,-0.0006060600280761719,0.021896839141845703,-0.10255426168441772
1695713518557617400,22.838617431640625,0.025957107543945312,0.0484466552734375,-0.0870509147644043
1695713518567647700,22.848647705078125,0.04249906539916992,0.0885610580444336,-0.06701719760894775
1695713518577680100,22.85868017578125,0.07290124893188477,0.09503555297851562,-0.03347885608673096
1695713518587683300,22.868683349609373,0.046465396881103516,0.0544281005859375,-0.03847140073776245
1695713518597713000,22.878712890625,0.020482540130615234,0.07569503784179688,-0.04844087362289429
1695713518607778000,22.888778076171874,0.014113903045654297,0.05446481704711914,-0.054015517234802246
1695713518617811200,22.898811279296876,0.04600381851196289,0.04809761047363281,-0.06405782699584961
1695713518627839700,22.90883984375,0.07774972915649414,0.028028488159179688,-0.05012166500091553
1695713518637872600,22.91887255859375,0.06204795837402344,0.04138994216918945,-0.003358900547027588
1695713518647904500,22.928904541015626,0.1082301139831543,0.04542827606201172,0.04264304041862488
1695713518657937200,22.938937255859376,0.07411623001098633,0.03094482421875,0.026373684406280518
1695713518667974700,22.948974609375,0.02199077606201172,0.031004905700683594,0.033631324768066406
1695713518678007600,22.959007568359375,0.022545337677001953,0.012213706970214844,0.04504767060279846
1695713518688006100,22.969006103515625,0.02789306640625,0.017333507537841797,0.06543150544166565
1695713518698035700,22.97903564453125,0.04720449447631836,0.008171558380126953,0.04757532477378845
1695713518708093200,22.98909326171875,0.009790897369384766,0.00865030288696289,0.044029027223587036
1695713518718125600,22.99912548828125,-0.008081912994384766,-0.004942893981933594,0.03577783703804016
1695713518728158000,23.009157958984375,-0.0634012222290039,-0.018360137939453125,0.02305510640144348
1695713518738190300,23.0191904296875,-0.03800678253173828,-0.031740665435791016,-0.00345689058303833
1695713518748230000,23.02922998046875,-0.022452831268310547,-0.05901193618774414,0.0035932064056396484
1695713518758263000,23.039262939453124,-0.035490989685058594,-0.07175922393798828,0.043568581342697144
1695713518768288000,23.0492880859375,-0.020191669464111328,-0.0326085090637207,0.05449661612510681
1695713518778320400,23.0593203125,-0.000438690185546875,0.020021915435791016,0.06532153487205505
1695713518788326000,23.069325927734376,0.004781246185302734,0.057591915130615234,0.052447736263275146
1695713518798355500,23.07935546875,0.024110794067382812,0.014553546905517578,0.03990733623504639
1695713518808421600,23.089421630859373,-0.01819896697998047,0.009839534759521484,0.027880728244781494
1695713518818454800,23.099454833984375,-0.03653097152709961,0.0050220489501953125,0.007036417722702026
1695713518828482600,23.109482666015627,-0.02167797088623047,0.00022792816162109375,0.005455464124679565
1695713518838515200,23.11951513671875,0.01637887954711914,-0.013950347900390625,0.018393278121948242
1695713518848519200,23.129519287109375,0.0017595291137695312,-0.01393270492553711,0.017377644777297974
1695713518858549000,23.139549072265623,0.015553951263427734,-0.004550457000732422,-0.00700417160987854
1695713518868586200,23.149586181640625,-0.03201770782470703,-0.023519515991210938,-0.0027469396591186523
1695713518878616800,23.159616943359374,-0.03642892837524414,-0.009201526641845703,0.0299777090549469
1695713518888647200,23.169647216796875,-0.00783681869506836,-0.009242534637451172,0.04377773404121399
1695713518898677500,23.179677490234376,0.0013427734375,0.018910884857177734,0.038843750953674316
1695713518908709400,23.18970947265625,-0.022676467895507812,0.008869171142578125,0.03413531184196472
1695713518918740000,23.199739990234374,0.014916419982910156,-0.03397083282470703,0.038841575384140015
1695713518928786200,23.2097861328125,0.00018358230590820312,-0.02424478530883789,0.029076069593429565
1695713518938818600,23.219818603515623,0.00931549072265625,-0.019321918487548828,0.029033303260803223
1695713518948847400,23.229847412109375,0.004326343536376953,-0.000240325927734375,0.04301753640174866
1695713518958879200,23.239879150390625,0.04658699035644531,-0.009671211242675781,0.02372780442237854
1695713518968906200,23.24990625,0.03626298904418945,-0.00960540771484375,0.013996392488479614
1695713518978937300,23.259937255859374,0.045107364654541016,-0.00001430511474609375,0.023018956184387207
1695713518988984000,23.269984130859374,0.07735252380371094,0.032959938049316406,0.008285433053970337
1695713518999017000,23.280016845703123,0.07626152038574219,0.046680450439453125,0.022130072116851807
1695713519009045800,23.290045654296875,0.0046405792236328125,0.06024456024169922,-0.0017631053924560547
