time,seconds_elapsed,z,y,x
1695713495964664600,0.24566455078125,-0.4848281145095825,-0.9396957159042358,-0.15606112778186798
1695713495974741200,0.2557412109375,-0.3175817131996155,-0.7458177208900452,-0.24234747886657715
1695713495984746500,0.26574658203125,-0.17283903062343597,-0.4059986174106598,-0.3584612011909485
1695713495994784300,0.2757841796875,0.0018642114009708166,-0.15579481422901154,-0.44368231296539307
1695713496004986000,0.285986083984375,0.2095906287431717,0.0050600022077560425,-0.5033370852470398
1695713496014849500,0.295849609375,0.3500722646713257,0.10839057713747025,-0.6002760529518127
1695713496024887300,0.30588720703125,0.4257059693336487,-0.06205160543322563,-0.8014777302742004
1695713496034928000,0.31592822265625,0.5173186659812927,-0.303866446018219,-1.0283788442611694
1695713496044978000,0.32597802734375,0.7069355845451355,-0.6307692527770996,-1.2210584878921509
1695713496054961000,0.3359609375,0.9805752038955688,-0.93117356300354,-1.3307806253433228
1695713496065005300,0.34600537109375,1.2309120893478394,-1.0855036973953247,-1.3371721506118774
1695713496075014400,0.356014404296875,1.3596758842468262,-0.9896299242973328,-1.2359721660614014
1695713496085078300,0.366078369140625,1.289501667022705,-0.6531397700309753,-1.0294440984725952
1695713496095110400,0.3761103515625,1.0114678144454956,-0.1813611388206482,-0.7705850601196289
1695713496105163300,0.386163330078125,0.5396891832351685,0.2637858986854553,-0.5491434335708618
1695713496115204000,0.3962041015625,0.07430213689804077,0.37457332015037537,-0.5651223659515381
1695713496125199400,0.406199462890625,-0.1664474457502365,0.146606907248497,-0.8249135613441467
1695713496135221000,0.416220947265625,-0.20692746341228485,-0.007723161485046148,-1.0145304203033447
1695713496145265400,0.426265380859375,-0.19840535521507263,0.0774979293346405,-1.0518146753311157
1695713496155296500,0.436296630859375,-0.15472954511642456,0.2083922028541565,-1.0113346576690674
1695713496165351700,0.4463515625,-0.11744531989097595,0.1009337306022644,-0.9367662072181702
1695713496175392800,0.456392822265625,-0.09081372618675232,-0.2900180220603943,-0.8728504180908203
1695713496185415700,0.466415771484375,-0.08868319541215897,-0.7884282469749451,-0.8217177391052246
1695713496195449000,0.476448974609375,-0.1291632205247879,-1.1494194269180298,-0.7514103651046753
1695713496205456600,0.48645654296875,-0.13129374384880066,-1.3294490575790405,-0.7151913642883301
1695713496215479000,0.49647900390625,-0.07590003311634064,-1.319861650466919,-0.7290397882461548
1695713496225544400,0.50654443359375,0.008255792781710625,-1.1824426651000977,-0.7503450512886047
1695713496235585000,0.5165849609375,0.0870852991938591,-1.076981544494629,-0.8014777302742004
1695713496245602300,0.526602294921875,0.11904320865869522,-0.9119988083839417,-0.8760461807250977
1695713496255633200,0.536633056640625,0.09773793816566467,-0.7586008906364441,-0.970854640007019
1695713496265680400,0.546680419921875,0.07430213689804077,-0.6765755414962769,-1.075250506401062
1695713496275718100,0.55671826171875,0.06578002870082855,-0.6382260918617249,-1.1871031522750854
1695713496285758000,0.566758056640625,0.0870852991938591,-0.7351650595664978,-1.2476900815963745
1695713496295796700,0.576796630859375,0.09986846894025803,-0.9077377915382385,-1.2657995223999023
1695713496305794800,0.586794921875,0.06684529036283493,-1.0578068494796753,-1.2604732513427734
1695713496315816200,0.596816162109375,0.04660528525710106,-1.2335753440856934,-1.176450490951538
1695713496325861600,0.606861572265625,0.025300011038780212,-1.5008232593536377,-1.0262483358383179
1695713496335893200,0.616893310546875,-0.0002663159102667123,-1.7468992471694946,-0.9825725555419922
1695713496345952500,0.626952392578125,-0.03328948840498924,-1.7309203147888184,-1.0603368282318115
1695713496355996000,0.636995849609375,-0.09081372618675232,-1.4061479568481445,-1.3126710653305054
1695713496365981700,0.646981689453125,-0.09933583438396454,-0.9438235759735107,-1.7153407335281372
1695713496376019000,0.65701904296875,-0.052464235574007034,-0.4752407371997833,-2.0539615154266357
1695713496386063000,0.66706298828125,-0.02263685315847397,-0.20586219429969788,-2.2275993824005127
1695713496396101000,0.67710107421875,-0.013049479573965073,-0.26871275901794434,-2.1892499923706055
1695713496406138400,0.687138427734375,0.023169483989477158,-0.6190513372421265,-1.9218688011169434
1695713496416176400,0.69717626953125,0.11691268533468246,-1.2133352756500244,-1.4362417459487915
1695713496426205700,0.707205810546875,0.3021354079246521,-2.040778875350952,-0.719452440738678
1695713496436243000,0.717242919921875,0.5631250143051147,-3.069690227508545,0.17084164917469025
1695713496446243600,0.72724365234375,0.879375159740448,-4.109121322631836,1.0387651920318604
1695713496456277000,0.737277099609375,1.2863059043884277,-4.64907693862915,1.5520890951156616
1695713496466338300,0.74733837890625,1.7772592306137085,-4.357194423675537,1.4393043518066406
1695713496476374500,0.75737451171875,2.2959094047546387,-3.378483533859253,0.8269109129905701
1695713496486381300,0.76738134765625,2.7655575275421143,-2.200568437576294,0.05685844644904137
1695713496496414700,0.777414794921875,3.1222877502441406,-1.2325100898742676,-0.5683181285858154
1695713496506453000,0.787452880859375,3.3172309398651123,-0.6627271175384521,-0.9474188685417175
1695713496516486700,0.797486572265625,3.4450626373291016,-0.566853404045105,-1.0784462690353394
1695713496526514200,0.80751416015625,3.5706305503845215,-1.0578068494796753,-0.9442230463027954
1695713496536547300,0.81754736328125,3.757051706314087,-2.1664798259735107,-0.5842971205711365
1695713496546599200,0.82759912109375,3.960517168045044,-3.601123809814453,-0.20080219209194183
1695713496556634000,0.837634033203125,3.9828875064849854,-4.586226463317871,-0.18588849902153015
1695713496566645200,0.847645263671875,4.037082672119141,-4.919520854949951,-0.45859599113464355
1695713496576677600,0.857677734375,4.216047286987305,-4.565986156463623,-0.840892493724823
1695713496586718700,0.86771875,4.4376220703125,-3.855588674545288,-1.2828437089920044
1695713496596752100,0.877752197265625,4.5844950675964355,-3.2676961421966553,-1.609879732131958
1695713496606784300,0.8877841796875,4.735762596130371,-2.995121955871582,-1.6354459524154663
1695713496616817700,0.897817626953125,4.851876258850098,-3.2826099395751953,-1.4032185077667236
1695713496626845700,0.907845703125,4.834832191467285,-4.0665106773376465,-0.9804420471191406
1695713496636878300,0.91787841796875,4.7144575119018555,-4.772514343261719,-0.5704486966133118
1695713496646920400,0.92792041015625,4.485558986663818,-5.066526889801025,-0.2924148738384247
1695713496656954000,0.9379541015625,4.293811321258545,-4.925912380218506,-0.054994236677885056
1695713496666966800,0.947966796875,4.2266998291015625,-4.467981815338135,0.1772332340478897
1695713496676998400,0.957998291015625,4.241613388061523,-3.9812896251678467,0.5073317885398865
1695713496687029500,0.968029541015625,4.262918949127197,-3.8087170124053955,1.072853684425354
1695713496697060900,0.978060791015625,4.170240879058838,-4.033487796783447,1.8439713716506958
1695713496707099000,0.988098876953125,3.906188726425171,-4.336954593658447,2.6586318016052246
1695713496717130800,0.998130859375,3.438671112060547,-4.580900192260742,3.3147010803222656
1695713496727165200,1.008165283203125,2.881671190261841,-4.675708293914795,3.751325845718384
1695713496737197600,1.018197509765625,2.419480085372925,-4.66185998916626,3.954791307449341
1695713496747237600,1.028237548828125,2.10522723197937,-4.559594631195068,3.9750313758850098
1695713496757270800,1.038270751953125,1.8614150285720825,-4.38382625579834,3.9771618843078613
1695713496767461000,1.048461181640625,1.6217306852340698,-4.331628322601318,4.08262300491333
1695713496777330400,1.058330322265625,1.2969584465026855,-4.4402852058410645,4.249736309051514
1695713496787349500,1.068349609375,0.8644614219665527,-4.574508190155029,4.427635192871094
1695713496797376500,1.07837646484375,0.39907440543174744,-4.685295581817627,4.548009872436523
1695713496807396400,1.088396240234375,-0.056725289672613144,-4.687426567077637,4.553336143493652
1695713496817457400,1.09845751953125,-0.5434176325798035,-4.552137851715088,4.3935465812683105
1695713496827481300,1.1084814453125,-0.9502151608467102,-4.265582084655762,3.929224967956543
1695713496837523500,1.1185234375,-0.679771363735199,-3.1824750900268555,2.064347743988037
1695713496847549400,1.128549560546875,0.44168493151664734,-0.7820366621017456,-2.4426496028900146
1695713496857553200,1.13855322265625,0.12330426275730133,0.4150533378124237,-2.2574267387390137
1695713496867576800,1.148576904296875,-0.10892320424318314,-1.0407625436782837,-1.3307806253433228
1695713496877645000,1.15864501953125,-0.7245124578475952,-2.7884607315063477,-0.7056040167808533
1695713496887673300,1.16867333984375,-1.0205225944519043,-2.733067035675049,-0.14221268892288208
1695713496897730800,1.178730712890625,-1.084438443183899,-2.538256883621216,0.18042902648448944
1695713496907762000,1.188761962890625,-1.0407625436782837,-2.771416425704956,0.6436855792999268
1695713496917776000,1.19877587890625,-1.131309986114502,-3.0867345333099365,1.1250516176223755
1695713496927805200,1.20880517578125,-1.3060132265090942,-3.362504720687866,1.567002773284912
1695713496937846500,1.218846435546875,-1.088699460029602,-3.447725772857666,1.5744596719741821
1695713496947876900,1.228876953125,-0.6840324401855469,-3.02068829536438,1.2283821105957031
1695713496957917200,1.238917236328125,-0.3687143921852112,-2.4125559329986572,1.162335753440857
1695713496967948800,1.24894873046875,-0.3292996287345886,-2.2708756923675537,1.2017505168914795
1695713496977977000,1.25897705078125,-0.4443480968475342,-1.9993666410446167,1.332777976989746
1695713496988008400,1.269008544921875,-0.28988486528396606,-1.7990971803665161,1.1175947189331055
1695713496998056200,1.27905615234375,0.5290365815162659,-1.4029521942138672,0.8716519474983215
1695713497008089000,1.289089111328125,1.0785794258117676,-1.1898994445800781,0.32637014985084534
1695713497018104800,1.299104736328125,1.1403647661209106,-0.6840324401855469,0.01850895583629608
1695713497028136000,1.309135986328125,1.039164662361145,-0.47417548298835754,-0.10399636626243591
1695713497038170000,1.319170166015625,1.056208848953247,-0.508263885974884,-0.06777740269899368
1695713497048201500,1.329201416015625,0.9294425249099731,-0.7106640338897705,0.04833633825182915
1695713497058218200,1.33921826171875,0.7399587631225586,-0.8129293322563171,0.20386482775211334
1695713497068248000,1.349248046875,0.6355628967285156,-0.7319692969322205,0.24647536873817444
1695713497078297300,1.35929736328125,0.6771082282066345,-0.360325425863266,0.03874896466732025
1695713497088329200,1.3693291015625,0.7175882458686829,0.16897743940353394,-0.267913818359375
1695713497098373400,1.379373291015625,0.8165245652198792,0.7675224542617798,-0.5555350184440613
1695713497108406500,1.389406494140625,1.009337306022644,1.3873727321624756,-0.8025429844856262
1695713497118428700,1.3994287109375,1.2298468351364136,1.9475682973861694,-1.0411620140075684
1695713497128460500,1.40946044921875,1.2969584465026855,2.259690523147583,-1.2977573871612549
1695713497138493000,1.419492919921875,1.244760513305664,2.2989721298217773,-1.5448986291885376
1695713497148524800,1.42952490234375,1.1765836477279663,2.1073577404022217,-1.6801871061325073
1695713497158553300,1.43955322265625,1.1765836477279663,1.790974497795105,-1.4990922212600708
1695713497168585200,1.449585205078125,1.2756532430648804,1.4012211561203003,-1.2210584878921509
1695713497178620000,1.459619873046875,1.4779201745986938,1.1254510879516602,-1.1285136938095093
1695713497188652000,1.469652099609375,1.7687370777130127,1.0945583581924438,-1.0976210832595825
1695713497198693400,1.479693359375,2.0572903156280518,1.1467562913894653,-1.0411620140075684
1695713497208726300,1.489726318359375,2.17020845413208,1.113733172416687,-0.8771114349365234
1695713497218750500,1.49975048828125,2.0040271282196045,1.1329078674316406,-0.6567350625991821
1695713497228782300,1.5097822265625,1.7474318742752075,1.1584742069244385,-0.37017911672592163
1695713497238812700,1.519812744140625,1.4832464456558228,1.100950002670288,-0.21784640848636627
1695713497248844300,1.52984423828125,1.2287815809249878,0.9709877967834473,-0.13475584983825684
1695713497258856400,1.5398564453125,0.9954888820648193,0.972053050994873,-0.035819489508867264
1695713497268886500,1.549886474609375,0.7665903568267822,1.0945583581924438,-0.09440898895263672
1695713497278944000,1.559944091796875,0.38948702812194824,1.059404730796814,-0.030493171885609627
1695713497288976600,1.5699765625,-0.016245270147919655,0.9347688555717468,0.20173430442810059
1695713497299016700,1.5800166015625,-0.34634384512901306,0.44488072395324707,0.8056056499481201
1695713497309050000,1.590050048828125,-0.47950178384780884,0.616388201713562,0.5126581192016602
1695713497319068000,1.60006787109375,-0.6073334217071533,1.1925626993179321,-0.3488738536834717
1695713497329099800,1.610099853515625,-0.9725856781005859,1.1574089527130127,-0.41705071926116943
1695713497339137000,1.620136962890625,-1.6680697202682495,0.5695165991783142,-0.19441060721874237
1695713497349169400,1.63016943359375,-2.1771326065063477,0.12543480098247528,0.0270310640335083
1695713497359201500,1.640201416015625,-2.518949031829834,-0.24421168863773346,0.12397005409002304
1695713497369234000,1.65023388671875,-2.533862829208374,-0.6350302696228027,0.1346226930618286
1695713497379268000,1.66026806640625,-2.2517011165618896,-0.9247819781303406,0.11757847666740417
1695713497389300700,1.67030078125,-1.8811224699020386,-1.4732595682144165,0.30293434858322144
1695713497399312400,1.6803125,-1.7223981618881226,-2.106825113296509,0.6340981721878052
1695713497409342700,1.6903427734375,-1.499758005142212,-2.283658981323242,0.8290414214134216
1695713497419413500,1.70041357421875,-1.2974910736083984,-2.2580926418304443,0.9334372878074646
1695713497429448000,1.710447998046875,-1.2879037857055664,-2.06634521484375,1.144226312637329
1695713497439477800,1.720477783203125,-1.331579566001892,-2.010019302368164,1.1964242458343506
1695713497449512000,1.730511962890625,-1.4784528017044067,-1.804423451423645,1.1484873294830322
1695713497459528200,1.740528076171875,-1.6435686349868774,-1.5029538869857788,0.9940241575241089
1695713497469560300,1.750560302734375,-1.6840486526489258,-1.1536805629730225,0.8333024978637695
1695713497479568400,1.760568359375,-1.4933664798736572,-0.7586008906364441,0.6543381810188293
1695713497489598200,1.77059814453125,-1.3452948331832886,-0.4155859649181366,0.4498075842857361
1695713497499667000,1.7806669921875,-1.1835079193115234,-0.14940322935581207,0.2667153775691986
1695713497509700600,1.79070068359375,-1.039697289466858,-0.05566002428531647,0.13781848549842834
1695713497519732700,1.800732666015625,-0.9534109830856323,-0.04500738903880119,0.004660528618842363
1695713497529766400,1.810766357421875,-0.9001477956771851,-0.027963170781731606,-0.02090579830110073
1695713497539765800,1.820765869140625,-0.7990809082984924,0.044474758207798004,0.07603318989276886
1695713497549795800,1.8307958984375,-0.6563355326652527,0.10626004636287689,0.19747324287891388
1695713497559828000,1.840827880859375,-0.39428070187568665,0.22437115013599396,0.24114905297756195
1695713497569858000,1.850858154296875,-0.07909582555294037,0.18815219402313232,0.25606274604797363
1695713497579917000,1.8609169921875,0.138217955827713,-0.07803056389093399,0.6330329179763794
1695713497589950200,1.8709501953125,0.2978743314743042,-0.3454117476940155,0.9163930416107178
1695713497599977000,1.88097705078125,0.43635863065719604,-0.46565335988998413,1.0131988525390625
1695713497610009300,1.89100927734375,0.4853607416152954,-0.3880222737789154,1.069657802581787
1695713497620040400,1.90104052734375,0.4427502155303955,-0.09720530360937119,1.1644662618637085
1695713497630072800,1.91107275390625,0.45979443192481995,0.08921582996845245,1.1793800592422485
1695713497640106000,1.92110595703125,0.533297598361969,0.29893961548805237,1.0888326168060303
1695713497650138400,1.931138427734375,0.6749776601791382,0.7270424365997314,0.9121319651603699
1695713497660138500,1.941138427734375,0.9358341097831726,1.0881668329238892,0.5989444851875305
1695713497670167600,1.95116748046875,1.2191942930221558,1.269128441810608,0.17936377227306366
1695713497680239400,1.9612392578125,1.3692632913589478,1.1169289350509644,-0.14221268892288208
1695713497690272800,1.971272705078125,1.4193305969238281,0.7547392845153809,-0.3254380524158478
1695713497700298200,1.98129833984375,1.265000581741333,0.4257059693336487,-0.4799012839794159
1695713497710331000,1.991330810546875,1.344895362854004,0.3213101327419281,-0.8099998235702515
1695713497720378400,2.00137841796875,1.6345138549804688,0.6727139949798584,-1.0933599472045898
1695713497730412500,2.01141259765625,1.9699387550354004,0.850612998008728,-1.3989574909210205
1695713497740431400,2.021431396484375,2.444913148880005,0.9315730333328247,-1.6311849355697632
1695713497750464000,2.031464111328125,2.9646286964416504,1.5897728204727173,-1.4927006959915161
1695713497760492000,2.041491943359375,3.468498468399048,2.0040271282196045,-1.2274500131607056
1695713497770524200,2.051524169921875,3.9317548274993896,1.7335834503173828,-1.0369009971618652
1695713497780559600,2.0615595703125,4.28741979598999,1.3618063926696777,-0.8099998235702515
1695713497790592000,2.071592041015625,4.502603054046631,0.7547392845153809,-0.502271831035614
1695713497800628700,2.081628662109375,4.743219375610352,0.025300011038780212,-0.10399636626243591
1695713497810661600,2.09166162109375,5.046819686889648,-1.0279793739318848,0.13781848549842834
1695713497820674000,2.101674072265625,5.364135265350342,-1.9844529628753662,0.07177213579416275
1695713497830705000,2.111704833984375,5.227781295776367,-2.3475747108459473,0.02277000993490219
1695713497840764400,2.121764404296875,4.393946170806885,-2.482863187789917,-0.11571425944566727
1695713497850798300,2.13179833984375,3.1233530044555664,-1.866208791732788,-0.37337490916252136
1695713497860809500,2.1418095703125,1.749562382698059,-0.9269125461578369,-0.39681071043014526
1695713497870840800,2.1518408203125,0.5226449966430664,-0.36245596408843994,-0.028362644836306572
1695713497880883200,2.16188330078125,-0.33782172203063965,-0.2420811653137207,0.32530489563941956
1695713497890915800,2.171915771484375,-0.5711144804954529,-0.14940322935581207,0.4157191216945648
1695713497900950500,2.181950439453125,-0.5434176325798035,0.09028109163045883,0.37856805324554443
1695713497910983400,2.1919833984375,-0.6605966091156006,0.7249119281768799,0.2475406378507614
1695713497921021000,2.20202099609375,-0.8319709300994873,1.2297136783599854,0.13888375461101532
1695713497931054300,2.212054443359375,-0.3921501636505127,0.4821649491786957,-0.4617917835712433
1695713497941082000,2.22208203125,0.3830954432487488,-0.16431692242622375,-1.1370357275009155
1695713497951114800,2.23211474609375,0.08602003753185272,1.2064111232757568,-0.4330296814441681
1695713497961142000,2.24214208984375,0.34687647223472595,1.186171054840088,-0.44474756717681885
1695713497971174100,2.252174072265625,0.8282424807548523,0.9880320429801941,-0.5534044504165649
1695713497981212000,2.2622119140625,1.4662022590637207,1.1989542245864868,-0.5597960352897644
1695713497991244500,2.27224462890625,2.388587474822998,1.4331790208816528,-0.24128220975399017
1695713498001280800,2.28228076171875,3.5397379398345947,1.3575453758239746,0.21771325170993805
1695713498011313700,2.292313720703125,4.472775936126709,0.8399603962898254,0.6213150024414062
1695713498021342000,2.302342041015625,4.973316669464111,0.3351585865020752,0.9865673184394836
1695713498031374300,2.312374267578125,4.324704170227051,-0.6850976943969727,0.49880969524383545
1695713498041401300,2.3224013671875,3.547194719314575,-1.7181371450424194,-0.5267728567123413
1695713498051433200,2.33243310546875,2.860366106033325,-1.4466279745101929,-0.7258440256118774
1695713498061447400,2.342447509765625,1.91987144947052,-1.1462236642837524,-0.2498043179512024
1695713498071477500,2.3524775390625,1.1030805110931396,-1.3880385160446167,0.1964079886674881
1695713498081540900,2.362540771484375,0.5322323441505432,-1.8491644859313965,0.3370227813720703
1695713498091574300,2.37257421875,0.15419691801071167,-1.8278592824935913,0.1495363861322403
1695713498101598000,2.382597900390625,-0.1898832470178604,-1.0950909852981567,-0.018775271251797676
1695713498111630300,2.39263037109375,0.19787272810935974,-0.5732449889183044,-0.01664474420249462
1695713498121666600,2.40266650390625,1.136103630065918,-0.04607265070080757,-0.23702116310596466
1695713498131699500,2.412699462890625,1.6121433973312378,0.048735812306404114,-0.5352949500083923
1695713498141728300,2.422728271484375,1.5897728204727173,-0.34860754013061523,-0.6684529185295105
1695713498151760600,2.4327607421875,1.277783751487732,-0.658466100692749,-0.6695181727409363
1695713498161788200,2.4427880859375,0.8516782522201538,-0.566853404045105,-0.65353924036026
1695713498171820000,2.452820068359375,0.4672512710094452,-0.4816323220729828,-0.636495053768158
1695713498181854500,2.4628544921875,0.35539859533309937,-0.6233124136924744,-0.5853623747825623
1695713498191886600,2.472886474609375,0.4715123176574707,-1.02158784866333,-0.5352949500083923
1695713498201923300,2.48292333984375,0.5290365815162659,-1.3528847694396973,-0.599210798740387
1695713498211956000,2.4929560546875,0.2671148478984833,-1.5849791765213013,-0.5661876201629639
1695713498221993000,2.502992919921875,-0.08442214131355286,-1.6265244483947754,-0.3797664940357208
1695713498232026000,2.513026123046875,-0.14940322935581207,-1.2112047672271729,-0.34141698479652405
1695713498242047700,2.5230478515625,-0.1249021589756012,-0.4667186439037323,-0.4010717570781708
1695713498252079600,2.53307958984375,-0.2707101106643677,0.24780695140361786,-0.4234423041343689
1695713498262108400,2.5431083984375,-0.41665124893188477,0.7089329361915588,-0.3382211923599243
1695713498272140000,2.55314013671875,-0.4209122955799103,0.9358341097831726,-0.26045694947242737
1695713498282173400,2.56317333984375,-0.3953459560871124,0.9273120164871216,-0.2593916952610016
1695713498292205300,2.573205322265625,-0.3740406930446625,0.6558029055595398,-0.31372013688087463
1695713498302237700,2.58323779296875,-0.2644517123699188,0.23502379655838013,-0.3531349003314972
1695713498312269600,2.59326953125,-0.15686006844043732,-0.17390428483486176,-0.3573959469795227
1695713498322319000,2.603319091796875,-0.10785794258117676,-0.39441385865211487,-0.32650330662727356
1695713498332352800,2.613352783203125,-0.07909582555294037,-0.40400123596191406,-0.2817622423171997
1695713498342383900,2.6233837890625,-0.05352949723601341,-0.29640960693359375,-0.23595589399337769
1695713498352417000,2.6334169921875,-0.0354200154542923,-0.15686006844043732,-0.21465063095092773
1695713498362449200,2.64344921875,-0.036485280841588974,-0.060986343771219254,-0.21571588516235352
1695713498372482300,2.653482421875,-0.020506324246525764,-0.08016108721494675,-0.211454838514328
1695713498382514000,2.663513916015625,-0.04181159660220146,-0.16005586087703705,-0.19973693788051605
1695713498392547000,2.673547119140625,-0.03861580789089203,-0.2612559199333191,-0.16564849019050598
1695713498402571300,2.6835712890625,0.0050600022077560425,-0.23995064198970795,-0.15286533534526825
1695713498412603400,2.693603271484375,0.0636495053768158,-0.11851058155298233,-0.12956269085407257
1695713498422637600,2.703637451171875,0.10519478470087051,0.1519332230091095,-0.07203845679759979
1695713498432670000,2.713669921875,0.07962846010923386,0.3681817352771759,-0.018775271251797676
1695713498442695700,2.72369580078125,0.013582111336290836,0.7440866827964783,0.029161592945456505
1695713498452727300,2.733727294921875,0.0050600022077560425,1.126516342163086,0.04833633825182915
1695713498462754800,2.7437548828125,-0.20266640186309814,1.5823159217834473,0.25925853848457336
1695713498472786200,2.7537861328125,-0.5679186582565308,2.887929677963257,0.5360939502716064
1695713498482830300,2.763830322265625,-0.4965460002422333,2.6206817626953125,0.3093259334564209
1695713498492862700,2.77386279296875,-0.007723161485046148,0.9219856858253479,0.21771325170993805
1695713498502899500,2.7838994140625,0.1904158741235733,0.25206801295280457,0.061119500547647476
1695713498512932400,2.793932373046875,0.16058848798274994,0.003994738683104515,-0.1284974217414856
1695713498522967800,2.8039677734375,0.16911059617996216,-0.07803056389093399,-0.11997532099485397
1695713498533001200,2.814001220703125,0.1723063886165619,0.019973693415522575,0.025965800508856773
1695713498543019000,2.82401904296875,0.10199899226427078,0.05512739345431328,0.16125428676605225
1695713498553050600,2.834050537109375,0.03169159218668938,-0.3166496157646179,0.22730062901973724
1695713498563071200,2.8440712890625,-0.026897907257080078,-0.7309040427207947,0.22943115234375
1695713498573101800,2.854101806640625,-0.09507478028535843,-1.034371018409729,0.1772332340478897
1695713498583160800,2.864160888671875,-0.11744531989097595,-1.294295310974121,0.12397005409002304
1695713498593194200,2.8741943359375,-0.05033370852470398,-1.458345890045166,0.08881635963916779
1695713498603197200,2.884197265625,0.024234747514128685,-1.4274532794952393,0.04727107286453247
1695713498613227500,2.8942275390625,0.05725792050361633,-1.4018869400024414,-0.003861580742523074
1695713498623258400,2.90425830078125,0.09773793816566467,-1.3603416681289673,-0.04008054360747337
1695713498633288700,2.914288818359375,0.13289164006710052,-1.2996217012405396,-0.06671213358640671
1695713498643321000,2.924321044921875,0.1435442715883255,-1.2037478685379028,-0.0858868807554245
1695713498653351700,2.9343515625,0.1296958476305008,-1.0748510360717773,-0.10612688958644867
1695713498663387000,2.944386962890625,0.0679105594754219,-1.0247836112976074,-0.11784479022026062
1695713498673418000,2.95441796875,0.016777902841567993,-0.9343693852424622,-0.06671213358640671
1695713498683453000,2.964452880859375,0.0050600022077560425,-0.658466100692749,-0.04860265180468559
1695713498693484300,2.974484375,0.024234747514128685,-0.30067065358161926,-0.059255290776491165
1695713498703553000,2.984552978515625,0.05193160101771355,-0.019441060721874237,-0.05819002538919449
1695713498713588200,2.994588134765625,0.07004108279943466,0.11584742367267609,-0.04008054360747337
1695713498723614700,3.00461474609375,0.08282424509525299,0.030626330524683,-0.035819489508867264
1695713498733649000,3.01464892578125,0.11371689289808273,-0.07057371735572815,-0.059255290776491165
1695713498743655200,3.0246552734375,0.2277000993490219,-0.40506649017333984,-0.07949529588222504
1695713498753686800,3.034686767578125,0.38416069746017456,-0.5785713195800781,-0.09653951972723007
1695713498763710500,3.04471044921875,0.5301018357276917,-0.5711144804954529,-0.04860265180468559
1695713498773741000,3.054740966796875,0.5769734382629395,-0.6819018721580505,-0.08801741153001785
1695713498783799000,3.064799072265625,0.4757733643054962,-0.2857569754123688,-0.08375635743141174
1695713498793832400,3.07483251953125,0.2882869839668274,0.04767054691910744,-0.026232117787003517
1695713498803866600,3.08486669921875,0.11584742367267609,0.31385329365730286,0.04620581120252609
1695713498813900300,3.094900390625,0.1009337306022644,-0.0588558167219162,0.040879491716623306
1695713498823922200,3.104922119140625,0.17550218105316162,-0.048203181475400925,-0.002796316985040903
1695713498833954600,3.11495458984375,0.22450430691242218,0.011451584286987782,-0.05712476372718811
1695713498843984100,3.124984130859375,0.28509119153022766,0.1796300858259201,-0.04966791719198227
1695713498854016300,3.135016357421875,0.28615644574165344,0.2829606533050537,-0.026232117787003517
1695713498864058600,3.14505859375,0.23941799998283386,0.40759649872779846,-0.0017310534603893757
1695713498874091800,3.155091796875,0.17550218105316162,0.6110618710517883,0.014247900806367397
1695713498884118300,3.1651181640625,0.14674006402492523,0.7089329361915588,0.03448791056871414
1695713498894150700,3.175150634765625,0.17337165772914886,0.825046718120575,0.06751108169555664
1695713498904182800,3.185182861328125,0.14141374826431274,0.8516782522201538,0.05259739235043526
1695713498914215200,3.195215087890625,0.06471476703882217,0.7813708782196045,0.006791055668145418
1695713498924249600,3.20524951171875,-0.0002663159102667123,0.7600656151771545,-0.03795001655817032
1695713498934282200,3.2152822265625,-0.036485280841588974,0.7760445475578308,-0.0624510794878006
1695713498944311000,3.22531103515625,-0.17070849239826202,0.9699225425720215,-0.1327584832906723
1695713498954343200,3.23534326171875,-0.1579253375530243,1.0945583581924438,-0.16777902841567993
1695713498964382700,3.2453828125,-0.0141147430986166,0.6844319105148315,-0.13795164227485657
1695713498974415600,3.25541552734375,0.04980107396841049,0.25206801295280457,-0.11997532099485397
1695713498984440000,3.265440185546875,0.10199899226427078,-0.15046848356723785,-0.10825742036104202
1695713498994472200,3.27547216796875,-0.00985368900001049,-0.5700492262840271,-0.14753901958465576
1695713499004505000,3.285505126953125,-0.15472954511642456,-0.7724493145942688,-0.1837579756975174
1695713499014537200,3.295537109375,-0.1856221854686737,-0.8757798671722412,-0.16138744354248047
1695713499024571600,3.305571533203125,-0.05459476262331009,-0.9438235759735107,-0.10825742036104202
1695713499034604000,3.31560400390625,-0.06311687082052231,-0.9077377915382385,-0.10186583548784256
1695713499044645400,3.325645263671875,-0.10998847335577011,-0.8342345952987671,-0.10612688958644867
1695713499054678500,3.335678466796875,-0.04607265070080757,-0.8843019604682922,-0.05392897129058838
1695713499064719400,3.34571923828125,0.10199899226427078,-1.0301098823547363,0.03129211813211441
1695713499074753500,3.35575341796875,0.17869797348976135,-1.0120004415512085,0.10905636847019196
1695713499084766000,3.365765869140625,0.2553969621658325,-0.8576703667640686,0.1772332340478897
1695713499094797600,3.375797607421875,0.31385329365730286,-0.7980156540870667,0.21877852082252502
1695713499104843300,3.38584326171875,0.29893961548805237,-0.9502151608467102,0.23688800632953644
1695713499114876400,3.39587646484375,0.2925480306148529,-1.1526153087615967,0.26458486914634705
1695713499124900000,3.405900146484375,0.2968090772628784,-1.441301703453064,0.28802067041397095
1695713499134932500,3.415932373046875,0.35539859533309937,-1.6169370412826538,0.3285006880760193
1695713499144963600,3.425963623046875,0.45020705461502075,-1.623328685760498,0.34980595111846924
1695713499154995700,3.43599560546875,0.447011262178421,-1.0247836112976074,0.4114580750465393
1695713499165005600,3.446005615234375,0.45127230882644653,-0.3326285779476166,0.39561229944229126
1695713499175035600,3.45603564453125,0.5812344551086426,-0.026897907257080078,0.3146522343158722
1695713499185098200,3.46609814453125,0.6014744639396667,0.18176060914993286,0.3146522343158722
1695713499195131400,3.47613134765625,0.5098618268966675,0.1988048255443573,0.38282912969589233
1695713499205166600,3.48616650390625,0.44594597816467285,0.0913463607430458,0.42317599058151245
1695713499215200000,3.496199951171875,0.42783650755882263,-0.03328948840498924,0.40093860030174255
1695713499225233200,3.506233154296875,0.35539859533309937,0.011451584286987782,0.3008038103580475
1695713499235266600,3.5162666015625,0.2660495936870575,-0.04394212365150452,0.2571280002593994
1695713499245295600,3.526295654296875,0.19361166656017303,-0.14727269113063812,0.2571280002593994
1695713499255328500,3.53632861328125,0.15952323377132416,-0.2420811653137207,0.2901511788368225
1695713499265353200,3.546353271484375,0.15845796465873718,-0.3454117476940155,0.35832804441452026
1695713499275385000,3.556385009765625,0.15526217222213745,-0.2793653905391693,0.3668501675128937
1695713499285429200,3.56642919921875,0.1478053331375122,-0.1909485012292862,0.38602492213249207
1695713499295462400,3.57646240234375,0.1478053331375122,-0.06524740159511566,0.37643754482269287
1695713499305484800,3.58648486328125,0.1435442715883255,0.012516847811639309,0.3572627902030945
1695713499315517000,3.596516845703125,0.13502216339111328,-0.02157158963382244,0.3668501675128937
1695713499325548000,3.606548095703125,0.14460954070091248,-0.0918789878487587,0.39667755365371704
1695713499335580200,3.616580078125,0.17976324260234833,-0.23142851889133453,0.4785696864128113
1695713499345624300,3.626624267578125,0.22663484513759613,-0.3070622384548187,0.5392897129058838
1695713499355657500,3.636657470703125,0.2575274705886841,-0.2985401451587677,0.5563339591026306
1695713499365654300,3.646654296875,0.261788547039032,-0.2516685426235199,0.5446160435676575
1695713499375683800,3.656683837890625,0.2522011697292328,-0.21758009493350983,0.5339633822441101
1695713499385745000,3.666744873046875,0.24794010818004608,-0.22929799556732178,0.5424855351448059
1695713499395777800,3.67677783203125,0.23941799998283386,-0.2474074810743332,0.5499423742294312
1695713499405813800,3.686813720703125,0.27656906843185425,-0.3645864725112915,0.6202497482299805
1695713499415846700,3.6968466796875,0.3074617087841034,-0.34328120946884155,0.6181192398071289
1695713499425869000,3.706869140625,0.30107012391090393,-0.29108327627182007,0.5893571376800537
1695713499435901000,3.71690087890625,0.26285380125045776,-0.2516685426235199,0.5499423742294312
1695713499445941000,3.72694091796875,0.22130851447582245,-0.21331904828548431,0.49348339438438416
1695713499455974000,3.736973876953125,0.22556957602500916,-0.2623211741447449,0.4881570637226105
1695713499466002700,3.747002685546875,0.2277000993490219,-0.25379905104637146,0.4775044322013855
1695713499476034800,3.757034912109375,0.2181127369403839,-0.27403905987739563,0.48922231793403625
1695713499486069200,3.7670693359375,0.19467693567276,-0.1621863842010498,0.4306328296661377
1695713499496102000,3.777101806640625,0.17869797348976135,-0.09294424951076508,0.4082622826099396
1695713499506146800,3.787146728515625,0.1712411344051361,-0.1483379602432251,0.4530033767223358
1695713499516180700,3.7971806640625,0.1573926955461502,-0.16964323818683624,0.46578651666641235
1695713499526198500,3.807198486328125,0.12650005519390106,-0.1291632205247879,0.4316980838775635
1695713499536230700,3.817230712890625,0.11478215456008911,-0.08016108721494675,0.42424124479293823
1695713499546241500,3.827241455078125,0.13289164006710052,-0.1664474457502365,0.4721781015396118
1695713499556271600,3.837271728515625,0.15526217222213745,-0.22290641069412231,0.46152547001838684
1695713499566340600,3.847340576171875,0.15206637978553772,-0.14620743691921234,0.3572627902030945
1695713499576374300,3.857374267578125,0.1573926955461502,-0.09400951862335205,0.2624543309211731
1695713499586393300,3.867393310546875,0.18295903503894806,-0.15366427600383759,0.22730062901973724
1695713499596425700,3.87742578125,0.2000032514333725,-0.2239716798067093,0.20279955863952637
1695713499606452700,3.88745263671875,0.2095906287431717,-0.25379905104637146,0.17936377227306366
1695713499616484600,3.897484619140625,0.2095906287431717,-0.27190855145454407,0.16445007920265198
1695713499626498800,3.907498779296875,0.20319904386997223,-0.28256118297576904,0.16125428676605225
1695713499636528600,3.917528564453125,0.17017586529254913,-0.2751043438911438,0.12290479242801666
1695713499646591200,3.92759130859375,0.15100112557411194,-0.30067065358161926,0.08775109052658081
1695713499656624600,3.937624755859375,0.1531316488981247,-0.32517173886299133,0.07070687413215637
1695713499666630400,3.94763037109375,0.1531316488981247,-0.32943278551101685,0.05153212696313858
1695713499676660700,3.95766064453125,0.13076111674308777,-0.33902016282081604,0.014247900806367397
1695713499686719500,3.967719482421875,0.12117373943328857,-0.3656517565250397,-0.0070573715493083
1695713499696753000,3.9777529296875,0.10839057713747025,-0.34754225611686707,-0.03368896245956421
1695713499706786300,3.987786376953125,0.09028109163045883,-0.3326285779476166,-0.06351634114980698
1695713499716819700,3.99781982421875,0.05832318589091301,-0.3123885691165924,-0.10293109714984894
1695713499726850800,4.007850830078125,0.03169159218668938,-0.2708432674407959,-0.13169321417808533
1695713499736884000,4.017884033203125,0.010386320762336254,-0.21758009493350983,-0.1464737504720688
1695713499746891500,4.0278916015625,0.0050600022077560425,-0.171773761510849,-0.15180006623268127
1695713499756922000,4.037922119140625,0.010386320762336254,-0.1291632205247879,-0.16564849019050598
1695713499766957000,4.04795703125,0.014647374860942364,-0.07909582555294037,-0.2018674612045288
1695713499776988200,4.05798828125,0.013582111336290836,-0.010918952524662018,-0.2530001103878021
1695713499787030000,4.068030029296875,0.015712639316916466,0.03382211923599243,-0.2913496196269989
1695713499797062100,4.078062255859375,0.025300011038780212,0.06897582113742828,-0.2966759204864502
1695713512327568000,16.60856787109375,0.13608743250370026,-0.1856221854686737,-0.023036325350403786
1695713512337598500,16.618598388671874,0.11904320865869522,-0.18455693125724792,0.0035952648613601923
1695713512347630800,16.628630859375,0.10306425392627716,-0.1813611388206482,0.0270310640335083
1695713512357665000,16.6386650390625,0.09028109163045883,-0.17390428483486176,0.049401599913835526
1695713512367699500,16.648699462890626,0.07962846010923386,-0.16112112998962402,0.0739026665687561
1695713512377733600,16.658733642578124,0.0636495053768158,-0.14514216780662537,0.08881635963916779
1695713512387767800,16.668767822265625,0.03701791167259216,-0.12596742808818817,0.09094688296318054
1695713512397802200,16.67880224609375,0.013582111336290836,-0.11211899667978287,0.08668582886457443
1695713512407836400,16.68883642578125,-0.0023968431632965803,-0.09507478028535843,0.08029424399137497
1695713512417870800,16.698870849609374,-0.015180006623268127,-0.0727042406797409,0.0739026665687561
1695713512427905000,16.708905029296876,-0.02157158963382244,-0.04607265070080757,0.06325002759695053
1695713512437939500,16.718939453125,-0.027963170781731606,-0.026897907257080078,0.0504668653011322
1695713512447971300,16.728971435546875,-0.03328948840498924,-0.005592633970081806,0.03555317223072052
1695713512458002000,16.739001953125,-0.027963170781731606,0.016777902841567993,0.017443692311644554
1695713512468032500,16.749032470703124,-0.015180006623268127,0.03275685757398605,0.004660528618842363
1695713512478063000,16.75906298828125,-0.004527370445430279,0.0540621280670166,-0.0070573715493083
1695713512488093400,16.769093505859374,-0.001331579522229731,0.07430213689804077,-0.012383690103888512
1695713512498124000,16.7791240234375,-0.001331579522229731,0.08282424509525299,-0.0070573715493083
1695713512508154600,16.789154541015623,-0.0034621069207787514,0.08175898343324661,0.004660528618842363
1695713512518185200,16.799185302734376,-0.0023968431632965803,0.08069372177124023,0.012117373757064342
1695713512528215800,16.8092158203125,-0.0002663159102667123,0.08602003753185272,0.01318263728171587
1695713512538246400,16.819246337890625,-0.004527370445430279,0.08815056830644608,0.006791055668145418
1695713512548276700,16.82927685546875,-0.006657897960394621,0.08602003753185272,0.001464737462811172
1695713512558308900,16.839308837890623,-0.011984216049313545,0.07536740601062775,-0.004926844500005245
1695713512568341500,16.849341552734376,-0.01837579719722271,0.06578002870082855,-0.010253162123262882
1695713512578374000,16.859373779296874,-0.02157158963382244,0.06258423626422882,-0.01664474420249462
1695713512588406300,16.86940625,-0.024767380207777023,0.0679105594754219,-0.02516685426235199
1695713512598438700,16.879438720703124,-0.023702116683125496,0.07643266767263412,-0.028362644836306572
1695713512608471300,16.88947119140625,-0.027963170781731606,0.07856319099664688,-0.023036325350403786
1695713512618503700,16.899503662109375,-0.03861580789089203,0.07004108279943466,-0.01664474420249462
1695713512628536000,16.9095361328125,-0.04394212365150452,0.06258423626422882,-0.011318426579236984
1695713512638568400,16.919568359375,-0.0354200154542923,0.0636495053768158,-0.005992108024656773
1695713512648600800,16.929600830078126,-0.027963170781731606,0.07110634446144104,0.0003994738799519837
1695713512658633500,16.939633544921875,-0.02263685315847397,0.0774979293346405,0.0025300011038780212
1695713512668665900,16.949665771484376,-0.013049479573965073,0.08069372177124023,0.007856319658458233
1695713512678700000,16.959699951171874,-0.0023968431632965803,0.0774979293346405,0.017443692311644554
1695713512688734500,16.969734375,0.011451584286987782,0.07856319099664688,0.03235738351941109
1695713512698768600,16.9797685546875,0.016777902841567993,0.07536740601062775,0.045140545815229416
1695713512708802800,16.989802734375,0.016777902841567993,0.07430213689804077,0.05153212696313858
1695713512718837000,16.9998369140625,0.014647374860942364,0.07004108279943466,0.05579318478703499
1695713512728871400,17.009871337890626,0.015712639316916466,0.060453712940216064,0.05792371183633804
1695713512738905600,17.019905517578124,0.02210422046482563,0.05193160101771355,0.05792371183633804
1695713512748939800,17.029939697265625,0.02636527456343174,0.04340949282050133,0.05259739235043526
1695713512758974000,17.039973876953123,0.03488738462328911,0.03914843872189522,0.04407528415322304
1695713512769005800,17.050005859375,0.04234423115849495,0.04660528525710106,0.033422645181417465
1695713512779034000,17.0600341796875,0.04767054691910744,0.06258423626422882,0.021704746410250664
1695713512789062400,17.0700625,0.05086633935570717,0.0732368752360344,0.009986846707761288
1695713512799090700,17.080090576171877,0.05938844755291939,0.0774979293346405,0.0003994738799519837
1695713512809119000,17.090118896484373,0.05938844755291939,0.0774979293346405,-0.012383690103888512
1695713512819147300,17.100147216796874,0.0636495053768158,0.07110634446144104,-0.02090579830110073
1695713512829175600,17.110175537109374,0.06684529036283493,0.0679105594754219,-0.031558435410261154
1695713512839203800,17.120203857421874,0.06897582113742828,0.07110634446144104,-0.04114580899477005
1695713512849232100,17.130232177734374,0.0732368752360344,0.07643266767263412,-0.043276336044073105
1695713512859260400,17.140260498046874,0.07217161357402802,0.0774979293346405,-0.04008054360747337
1695713512869293000,17.15029296875,0.07004108279943466,0.08175898343324661,-0.03368896245956421
1695713512879328800,17.160328857421874,0.0679105594754219,0.08495477586984634,-0.026232117787003517
1695713512889364500,17.170364501953124,0.06471476703882217,0.08175898343324661,-0.026232117787003517
1695713512899400200,17.180400146484374,0.05832318589091301,0.07430213689804077,-0.026232117787003517
1695713512909436000,17.190435791015624,0.05299686640501022,0.056192658841609955,-0.027297381311655045
1695713512919471900,17.200471923828125,0.04660528525710106,0.03488738462328911,-0.03262370079755783
1695713512929507600,17.210507568359375,0.04234423115849495,0.021038956940174103,-0.04008054360747337
1695713512939543300,17.220543212890625,0.03382211923599243,0.012516847811639309,-0.047537390142679214
1695713512949579000,17.2305791015625,0.025300011038780212,0.010386320762336254,-0.050733182579278946
1695713512959615000,17.240614990234373,0.018908429890871048,0.025300011038780212,-0.04647212475538254
1695713512969650700,17.250650634765623,0.010386320762336254,0.03808317333459854,-0.035819489508867264
1695713512979683000,17.26068310546875,0.003994738683104515,0.04980107396841049,-0.026232117787003517
1695713512989715200,17.270715087890625,0.002929474925622344,0.05512739345431328,-0.02090579830110073
1695713512999747300,17.280747314453127,0.002929474925622344,0.05512739345431328,-0.013448953628540039
1695713513009779500,17.290779541015624,0.0050600022077560425,0.05512739345431328,-0.003861580742523074
1695713513019811600,17.3008115234375,0.007190529722720385,0.05512739345431328,0.009986846707761288
1695713513029843700,17.31084375,0.009321057237684727,0.05725792050361633,0.021704746410250664
1695713513039875800,17.320875732421875,0.013582111336290836,0.048735812306404114,0.028096329420804977
1695713513049908000,17.330907958984376,0.018908429890871048,0.035952646285295486,0.030226856470108032
1695713513059940000,17.340940185546874,0.02210422046482563,0.028495801612734795,0.030226856470108032
1695713513069972200,17.35097216796875,0.023169483989477158,0.021038956940174103,0.03235738351941109
1695713513080007400,17.36100732421875,0.019973693415522575,0.008255792781710625,0.03768370300531387
1695713513090055400,17.371055419921873,0.016777902841567993,-0.008788425475358963,0.03981423005461693
1695713513100103700,17.381103759765626,0.010386320762336254,-0.01837579719722271,0.030226856470108032
1695713513110152000,17.39115185546875,0.00612526573240757,-0.016245270147919655,0.024900536984205246
1695713513120200200,17.4012001953125,0.0007989477599039674,-0.008788425475358963,0.03129211813211441
1695713513130248200,17.411248291015625,-0.007723161485046148,0.002929474925622344,0.04407528415322304
1695713513140296400,17.42129638671875,-0.0141147430986166,0.019973693415522575,0.05579318478703499
1695713513150344700,17.4313447265625,-0.020506324246525764,0.030626330524683,0.06325002759695053
1695713513160393000,17.44139306640625,-0.029028434306383133,0.03914843872189522,0.07177213579416275
1695713513170441000,17.45144091796875,-0.032224226742982864,0.04234423115849495,0.07496792823076248
1695713513180476200,17.46147607421875,-0.03435475379228592,0.04127896577119827,0.07496792823076248
1695713513190522000,17.471522216796874,-0.036485280841588974,0.040213704109191895,0.07496792823076248
1695713513200557300,17.481557373046876,-0.03435475379228592,0.03914843872189522,0.07816372066736221
1695713513210592300,17.49159228515625,-0.031158961355686188,0.040213704109191895,0.07603318989276886
1695713513220627500,17.50162744140625,-0.031158961355686188,0.03808317333459854,0.07283740490674973
1695713513230630000,17.5116298828125,-0.031158961355686188,0.03488738462328911,0.06751108169555664
1695713513240489000,17.521489013671875,-0.029028434306383133,0.03169159218668938,0.05898897349834442
1695713513250507000,17.531507080078125,-0.03009369783103466,0.028495801612734795,0.049401599913835526
1695713513260549400,17.54154931640625,-0.029028434306383133,0.018908429890871048,0.03874896466732025
1695713513270569700,17.55156982421875,-0.026897907257080078,0.011451584286987782,0.03129211813211441
1695713513280606500,17.5616064453125,-0.02157158963382244,0.008255792781710625,0.0270310640335083
1695713513290628400,17.57162841796875,-0.01837579719722271,0.009321057237684727,0.020639482885599136
1695713513300716500,17.581716552734374,-0.01837579719722271,0.008255792781710625,0.01318263728171587
1695713513310745300,17.591745361328126,-0.016245270147919655,0.007190529722720385,0.007856319658458233
1695713513320778800,17.60177880859375,-0.016245270147919655,0.00612526573240757,0.00892158318310976
1695713513330807800,17.611807861328124,-0.020506324246525764,0.002929474925622344,0.00892158318310976
1695713513340831200,17.621831298828123,-0.023702116683125496,-0.005592633970081806,0.009986846707761288
1695713513350859800,17.63185986328125,-0.02157158963382244,-0.015180006623268127,0.006791055668145418
1695713513360907800,17.64190771484375,-0.015180006623268127,-0.020506324246525764,0.0035952648613601923
1695713513370938400,17.6519384765625,-0.005592633970081806,-0.026897907257080078,0.005725792143493891
1695713513381135000,17.662135009765624,-0.001331579522229731,-0.029028434306383133,0.012117373757064342
1695713513391175400,17.672175537109375,0.0007989477599039674,-0.02583264373242855,0.011052110232412815
1695713513401163500,17.68216357421875,0.0007989477599039674,-0.02583264373242855,0.01318263728171587
1695713513411193900,17.69219384765625,0.002929474925622344,-0.023702116683125496,0.011052110232412815
1695713513421226000,17.70222607421875,0.002929474925622344,-0.02263685315847397,0.011052110232412815
1695713513431273000,17.71227294921875,-0.0002663159102667123,-0.020506324246525764,0.01318263728171587
1695713513441303600,17.722303466796873,-0.0034621069207787514,-0.016245270147919655,0.014247900806367397
1695713513451346700,17.7323466796875,-0.007723161485046148,-0.011984216049313545,0.0153131652623415
1695713513461390000,17.74239013671875,-0.00985368900001049,-0.00985368900001049,0.01318263728171587
1695713513471420700,17.752420654296873,-0.00985368900001049,-0.008788425475358963,0.00892158318310976
1695713513481451300,17.762451171875,-0.00985368900001049,-0.004527370445430279,0.004660528618842363
1695713513491481600,17.772481689453127,-0.0141147430986166,-0.007723161485046148,0.0035952648613601923
1695713513501506800,17.7825068359375,-0.017310533672571182,-0.00985368900001049,0.0035952648613601923
1695713513511537200,17.792537109375,-0.019441060721874237,-0.008788425475358963,0.0025300011038780212
1695713513521540000,17.8025400390625,-0.02157158963382244,-0.005592633970081806,-0.002796316985040903
1695713513531570200,17.812570068359374,-0.02263685315847397,0.0007989477599039674,-0.009187898598611355
1695713513541478400,17.822478515625,-0.023702116683125496,0.002929474925622344,-0.004926844500005245
1695713513551664400,17.832664306640623,-0.023702116683125496,0.007190529722720385,0.0025300011038780212
1695713513561685200,17.842685302734374,-0.023702116683125496,0.008255792781710625,0.00892158318310976
1695713513571709200,17.852709228515625,-0.01837579719722271,0.010386320762336254,0.011052110232412815
1695713513581773600,17.862773681640626,-0.0141147430986166,0.013582111336290836,0.009986846707761288
1695713513591799800,17.8727998046875,-0.015180006623268127,0.013582111336290836,0.00892158318310976
1695713513601820700,17.882820556640624,-0.01837579719722271,0.011451584286987782,0.00892158318310976
1695713513611868200,17.8928681640625,-0.020506324246525764,0.009321057237684727,0.005725792143493891
1695713513621874700,17.902874755859376,-0.01837579719722271,0.00612526573240757,0.001464737462811172
1695713513631895600,17.9128955078125,-0.01837579719722271,0.0050600022077560425,-0.002796316985040903
1695713513641929000,17.922928955078124,-0.015180006623268127,0.0050600022077560425,-0.003861580742523074
1695713513651952600,17.93295263671875,-0.015180006623268127,0.0050600022077560425,-0.005992108024656773
1695713513661995300,17.942995361328126,-0.015180006623268127,0.007190529722720385,-0.003861580742523074
1695713513672037600,17.95303759765625,-0.013049479573965073,0.003994738683104515,-0.002796316985040903
1695713513682080300,17.963080322265625,-0.00985368900001049,-0.0023968431632965803,-0.003861580742523074
1695713513692104000,17.97310400390625,-0.006657897960394621,-0.005592633970081806,-0.002796316985040903
1695713513702121700,17.983121826171875,-0.005592633970081806,-0.006657897960394621,-0.002796316985040903
1695713513712145200,17.993145263671874,-0.005592633970081806,-0.010918952524662018,-0.0006657897611148655
1695713513722041300,18.003041259765624,-0.001331579522229731,-0.00985368900001049,0.0025300011038780212
1695713513732054800,18.0130546875,0.0018642114009708166,-0.00985368900001049,0.00892158318310976
1695713513742105600,18.023105712890626,0.003994738683104515,-0.011984216049313545,0.00892158318310976
1695713513752123000,18.033122802734376,0.008255792781710625,-0.0141147430986166,0.009986846707761288
1695713516531073000,20.812072998046876,-0.005592633970081806,0.013582111336290836,0.02383527345955372
1695713516541105000,20.82210498046875,-0.0034621069207787514,0.011451584286987782,0.02277000993490219
1695713516551136800,20.83213671875,-0.0002663159102667123,0.011451584286987782,0.01957421936094761
1695713516561167000,20.8421669921875,0.0018642114009708166,0.010386320762336254,0.01850895583629608
1695713516571203600,20.85220361328125,0.002929474925622344,0.010386320762336254,0.016378428786993027
1695713516581240000,20.862239990234375,0.003994738683104515,0.008255792781710625,0.016378428786993027
1695713516591276500,20.872276611328125,0.00612526573240757,0.0050600022077560425,0.01318263728171587
1695713516601312800,20.882312744140624,0.007190529722720385,0.0050600022077560425,0.0153131652623415
1695713516611349200,20.892349365234374,0.010386320762336254,0.002929474925622344,0.016378428786993027
1695713516621385700,20.9023857421875,0.012516847811639309,0.0007989477599039674,0.014247900806367397
1695713516631422200,20.912422119140626,0.015712639316916466,0.0018642114009708166,0.014247900806367397
1695713516641458700,20.922458740234376,0.01784316636621952,0.0018642114009708166,0.01318263728171587
1695713516651495200,20.9324951171875,0.018908429890871048,0.002929474925622344,0.011052110232412815
1695713516661531600,20.94253173828125,0.01784316636621952,0.0018642114009708166,0.009986846707761288
1695713516671562000,20.95256201171875,0.015712639316916466,0.0007989477599039674,0.006791055668145418
1695713516681592800,20.9625927734375,0.012516847811639309,0.002929474925622344,0.006791055668145418
1695713516691624000,20.9726240234375,0.011451584286987782,0.003994738683104515,0.006791055668145418
1695713516701654800,20.98265478515625,0.009321057237684727,0.00612526573240757,0.004660528618842363
1695713516711686000,20.992685791015624,0.009321057237684727,0.0050600022077560425,0.0025300011038780212
1695713516721717000,21.002717041015625,0.008255792781710625,0.00612526573240757,0.0035952648613601923
1695713516731747800,21.012747802734374,0.009321057237684727,0.003994738683104515,0.0035952648613601923
1695713516741779000,21.022779052734375,0.009321057237684727,0.0050600022077560425,0.0035952648613601923
1695713516751809800,21.032809814453124,0.008255792781710625,0.007190529722720385,0.005725792143493891
1695713516761841000,21.0428408203125,0.0050600022077560425,0.009321057237684727,0.007856319658458233
1695713516771871700,21.052871826171874,0.003994738683104515,0.009321057237684727,0.009986846707761288
1695713516781902300,21.06290234375,0.0007989477599039674,0.010386320762336254,0.009986846707761288
1695713516791933200,21.07293310546875,0.0007989477599039674,0.009321057237684727,0.009986846707761288
1695713516801964300,21.08296435546875,0.0018642114009708166,0.008255792781710625,0.00892158318310976
1695713516811995100,21.0929951171875,0.002929474925622344,0.010386320762336254,0.006791055668145418
1695713516822026000,21.10302587890625,0.0050600022077560425,0.010386320762336254,0.007856319658458233
1695713516832057000,21.11305712890625,0.0050600022077560425,0.011451584286987782,0.004660528618842363
1695713516842088000,21.123087890625,0.003994738683104515,0.009321057237684727,0.0025300011038780212
1695713516852119000,21.133119140625,-0.0002663159102667123,0.007190529722720385,0.001464737462811172
1695713516862150000,21.14314990234375,-0.001331579522229731,0.002929474925622344,-0.0006657897611148655
1695713516872180700,21.1531806640625,-0.0023968431632965803,0.002929474925622344,-0.0006657897611148655
1695713516882211800,21.1632119140625,-0.004527370445430279,0.002929474925622344,0.0003994738799519837
1695713516892244500,21.173244384765624,-0.001331579522229731,0.002929474925622344,-0.0006657897611148655
1695713516902277400,21.18327734375,-0.0023968431632965803,0.002929474925622344,-0.0017310534603893757
1695713516912310000,21.19331005859375,-0.0002663159102667123,0.0018642114009708166,-0.0017310534603893757
1695713516922342700,21.2033427734375,0.0007989477599039674,0.0007989477599039674,-0.002796316985040903
1695713516932375600,21.21337548828125,0.0018642114009708166,-0.0023968431632965803,-0.004926844500005245
1695713516942408200,21.223408203125,0.0018642114009708166,-0.0034621069207787514,-0.0070573715493083
1695713516952441000,21.233441162109376,0.0007989477599039674,-0.004527370445430279,-0.010253162123262882
1695713516962473700,21.2434736328125,0.0007989477599039674,-0.004527370445430279,-0.010253162123262882
1695713516972506400,21.25350634765625,-0.001331579522229731,-0.0034621069207787514,-0.012383690103888512
1695713516982538000,21.2635380859375,-0.001331579522229731,-0.004527370445430279,-0.012383690103888512
1695713516992571600,21.273571533203125,-0.0034621069207787514,-0.0023968431632965803,-0.012383690103888512
1695713517002605600,21.28360546875,-0.0023968431632965803,-0.0023968431632965803,-0.013448953628540039
1695713517012639200,21.29363916015625,-0.001331579522229731,-0.0034621069207787514,-0.012383690103888512
1695713517022673200,21.303673095703125,-0.001331579522229731,-0.004527370445430279,-0.013448953628540039
1695713517032706800,21.313706787109375,-0.001331579522229731,-0.004527370445430279,-0.015579480677843094
1695713517042740500,21.323740478515624,-0.0023968431632965803,-0.0034621069207787514,-0.015579480677843094
1695713517052774400,21.3337744140625,-0.0023968431632965803,-0.0023968431632965803,-0.01664474420249462
1695713517062808000,21.34380810546875,-0.0034621069207787514,-0.0023968431632965803,-0.01664474420249462
1695713517072842000,21.353842041015625,-0.0034621069207787514,-0.001331579522229731,-0.01771000772714615
1695713517082873000,21.363873046875,-0.004527370445430279,-0.0002663159102667123,-0.018775271251797676
1695713517092903000,21.37390283203125,-0.0034621069207787514,0.0018642114009708166,-0.01664474420249462
1695713517102932700,21.3839326171875,-0.0023968431632965803,0.0007989477599039674,-0.015579480677843094
1695713517112962300,21.39396240234375,-0.0023968431632965803,-0.0023968431632965803,-0.012383690103888512
1695713517122992000,21.4039921875,-0.0034621069207787514,0.0018642114009708166,-0.011318426579236984
1695713517133022000,21.41402197265625,-0.0034621069207787514,0.0007989477599039674,-0.010253162123262882
1695713517143051800,21.4240517578125,-0.0023968431632965803,0.0007989477599039674,-0.011318426579236984
1695713517153081600,21.43408154296875,-0.004527370445430279,0.003994738683104515,-0.012383690103888512
1695713517163111400,21.444111328125,-0.004527370445430279,0.00612526573240757,-0.015579480677843094
1695713517173141000,21.45414111328125,-0.004527370445430279,0.003994738683104515,-0.015579480677843094
1695713517183172900,21.4641728515625,-0.004527370445430279,0.0007989477599039674,-0.018775271251797676
1695713517193206800,21.474206787109374,-0.0023968431632965803,0.0007989477599039674,-0.01771000772714615
1695713517203241000,21.484240966796875,-0.0023968431632965803,-0.0023968431632965803,-0.013448953628540039
1695713517213275100,21.494275146484377,-0.004527370445430279,-0.0023968431632965803,-0.009187898598611355
1695713517223309000,21.50430908203125,-0.006657897960394621,-0.0034621069207787514,-0.005992108024656773
1695713517233343000,21.514343017578124,-0.011984216049313545,-0.0023968431632965803,-0.002796316985040903
1695713517243377200,21.524377197265625,-0.00985368900001049,-0.001331579522229731,-0.002796316985040903
1695713517253411300,21.534411376953123,-0.00985368900001049,0.0007989477599039674,-0.003861580742523074
1695713517263445200,21.5444453125,-0.00985368900001049,0.0018642114009708166,-0.0070573715493083
1695713517273479400,21.5544794921875,-0.010918952524662018,0.0050600022077560425,-0.010253162123262882
1695713517283515400,21.564515380859376,-0.011984216049313545,0.00612526573240757,-0.010253162123262882
1695713517293576000,21.574575927734376,-0.0141147430986166,0.009321057237684727,-0.011318426579236984
1695713517303636500,21.584636474609376,-0.015180006623268127,0.0050600022077560425,-0.009187898598611355
1695713517313697000,21.594697021484375,-0.0141147430986166,0.003994738683104515,-0.010253162123262882
1695713517323757600,21.604757568359375,-0.015180006623268127,0.002929474925622344,-0.010253162123262882
1695713517333818000,21.614818115234375,-0.0141147430986166,0.008255792781710625,-0.012383690103888512
1695713517343854000,21.62485400390625,-0.0141147430986166,0.010386320762336254,-0.013448953628540039
1695713517353897700,21.634897705078124,-0.013049479573965073,0.010386320762336254,-0.01664474420249462
1695713517363916000,21.644916015625,-0.011984216049313545,0.013582111336290836,-0.01771000772714615
1695713517373970700,21.654970703125,-0.0141147430986166,0.012516847811639309,-0.01771000772714615
1695713517384006400,21.66500634765625,-0.0141147430986166,0.010386320762336254,-0.01771000772714615
1695713517394024200,21.675024169921876,-0.0141147430986166,0.009321057237684727,-0.014514217153191566
1695713517404060200,21.68506005859375,-0.016245270147919655,0.007190529722720385,-0.012383690103888512
1695713517414081800,21.695081787109373,-0.016245270147919655,0.0050600022077560425,-0.013448953628540039
1695713517424094000,21.705093994140626,-0.015180006623268127,0.0050600022077560425,-0.018775271251797676
1695713517434127600,21.715127685546875,-0.011984216049313545,0.0050600022077560425,-0.023036325350403786
1695713517444163600,21.72516357421875,-0.00985368900001049,0.003994738683104515,-0.02197106182575226
1695713517454170400,21.73517041015625,-0.007723161485046148,0.003994738683104515,-0.018775271251797676
1695713517464260000,21.745260009765627,-0.007723161485046148,0.0018642114009708166,-0.014514217153191566
1695713517474294800,21.755294677734376,-0.0034621069207787514,-0.0002663159102667123,-0.010253162123262882
1695713517484322000,21.765322021484376,-0.0002663159102667123,-0.004527370445430279,-0.009187898598611355
1695713517494357000,21.77535693359375,0.008255792781710625,-0.00985368900001049,-0.014514217153191566
1695713517504355300,21.785355224609376,0.009321057237684727,-0.011984216049313545,-0.008122635073959827
1695713517514390300,21.795390380859374,0.012516847811639309,-0.015180006623268127,-0.010253162123262882
1695713517524276000,21.80527587890625,0.012516847811639309,-0.01837579719722271,-0.012383690103888512
1695713517534299400,21.81529931640625,0.009321057237684727,-0.02583264373242855,-0.004926844500005245
1695713517544342000,21.825342041015624,0.012516847811639309,-0.032224226742982864,-0.014514217153191566
1695713517554367500,21.835367431640623,0.011451584286987782,-0.036485280841588974,-0.0294279083609581
1695713517564408800,21.845408935546875,0.002929474925622344,-0.04394212365150452,-0.02197106182575226
1695713517574435800,21.855435791015626,-0.0023968431632965803,-0.040746334940195084,-0.009187898598611355
1695713517584467500,21.865467529296875,0.0007989477599039674,-0.027963170781731606,-0.004926844500005245
1695713517594495000,21.875494873046875,0.003994738683104515,-0.016245270147919655,-0.008122635073959827
1695713517604536600,21.88553662109375,0.007190529722720385,-0.005592633970081806,-0.019840534776449203
1695713517614565600,21.895565673828123,0.008255792781710625,-0.001331579522229731,-0.02516685426235199
1695713517624601600,21.9056015625,0.007190529722720385,-0.0002663159102667123,-0.02516685426235199
1695713517634631200,21.915631103515626,0.002929474925622344,0.002929474925622344,-0.023036325350403786
1695713517644660700,21.92566064453125,0.0007989477599039674,0.003994738683104515,-0.02516685426235199
1695713517654690300,21.935690185546875,-0.0023968431632965803,0.0050600022077560425,-0.0294279083609581
1695713517664734500,21.945734375,-0.0002663159102667123,0.00612526573240757,-0.031558435410261154
1695713517674765600,21.955765625,0.003994738683104515,0.00612526573240757,-0.031558435410261154
1695713517684798000,21.9657978515625,0.008255792781710625,0.009321057237684727,-0.028362644836306572
1695713517694829000,21.9758291015625,0.014647374860942364,0.012516847811639309,-0.024101590737700462
1695713517704851700,21.985851806640625,0.019973693415522575,0.014647374860942364,-0.019840534776449203
1695713517714882000,21.995882080078125,0.024234747514128685,0.014647374860942364,-0.01664474420249462
1695713517724918000,22.00591796875,0.027430538088083267,0.011451584286987782,-0.012383690103888512
1695713517734948900,22.015948974609376,0.03169159218668938,0.0050600022077560425,-0.008122635073959827
1695713517744991700,22.02599169921875,0.03488738462328911,0.0007989477599039674,-0.009187898598611355
1695713517755024000,22.03602392578125,0.03488738462328911,-0.0034621069207787514,-0.011318426579236984
1695713517765049300,22.04604931640625,0.03275685757398605,-0.004527370445430279,-0.010253162123262882
1695713517775080700,22.056080810546874,0.028495801612734795,-0.001331579522229731,-0.010253162123262882
1695713517785105200,22.066105224609377,0.019973693415522575,-0.0023968431632965803,-0.011318426579236984
1695713517795135700,22.0761357421875,0.013582111336290836,0.0007989477599039674,-0.010253162123262882
1695713517805179000,22.086178955078125,0.010386320762336254,0.002929474925622344,-0.009187898598611355
1695713517815210800,22.096210693359374,0.010386320762336254,0.00612526573240757,-0.005992108024656773
1695713517825240300,22.106240234375,0.010386320762336254,0.008255792781710625,-0.005992108024656773
1695713517835272000,22.11627197265625,0.012516847811639309,0.010386320762336254,-0.003861580742523074
1695713517845331200,22.126331298828124,0.014647374860942364,0.009321057237684727,-0.002796316985040903
1695713517855365600,22.13636572265625,0.023169483989477158,0.011451584286987782,-0.004926844500005245
1695713517865386800,22.14638671875,0.027430538088083267,0.009321057237684727,-0.003861580742523074
1695713517875420000,22.156419921875,0.03382211923599243,0.008255792781710625,-0.002796316985040903
1695713517885460200,22.166460205078124,0.03488738462328911,0.007190529722720385,-0.0017310534603893757
1695713517895494000,22.176493896484374,0.03275685757398605,0.0018642114009708166,-0.003861580742523074
1695713517905523500,22.1865234375,0.03169159218668938,-0.0023968431632965803,-0.008122635073959827
1695713517915556900,22.196556884765624,0.029561065137386322,-0.0002663159102667123,-0.01771000772714615
1695713517925588000,22.206587890625,0.030626330524683,0.0007989477599039674,-0.019840534776449203
1695713517935621000,22.21662109375,0.03382211923599243,-0.001331579522229731,-0.01771000772714615
1695713517945652500,22.226652587890626,0.035952646285295486,-0.005592633970081806,-0.009187898598611355
1695713517955685400,22.236685302734376,0.03914843872189522,-0.006657897960394621,-0.003861580742523074
1695713517965685500,22.246685546875,0.03808317333459854,-0.007723161485046148,-0.0006657897611148655
1695713517975715000,22.256715087890626,0.035952646285295486,-0.015180006623268127,0.001464737462811172
1695713517985752600,22.266752685546876,0.03488738462328911,-0.019441060721874237,0.0025300011038780212
1695713517995783000,22.276782958984374,0.03488738462328911,-0.020506324246525764,0.001464737462811172
1695713518005841700,22.286841552734376,0.03914843872189522,-0.020506324246525764,-0.003861580742523074
1695713518015875000,22.296875,0.04554001986980438,-0.02583264373242855,-0.005992108024656773
1695713518025902300,22.30690234375,0.048735812306404114,-0.03755054250359535,-0.003861580742523074
1695713518035935000,22.31693505859375,0.04980107396841049,-0.04500738903880119,0.001464737462811172
1695713518045976600,22.3269765625,0.048735812306404114,-0.0492684431374073,0.005725792143493891
1695713518056010200,22.33701025390625,0.05086633935570717,-0.048203181475400925,0.007856319658458233
1695713518066008000,22.347008056640625,0.048735812306404114,-0.04181159660220146,0.006791055668145418
1695713518076038100,22.3570380859375,0.044474758207798004,-0.03328948840498924,0.009986846707761288
1695713518086070500,22.367070556640623,0.03701791167259216,-0.023702116683125496,0.016378428786993027
1695713518096100900,22.377100830078124,0.028495801612734795,-0.013049479573965073,0.0270310640335083
1695713518106300700,22.38730078125,0.01784316636621952,0.0018642114009708166,0.03555317223072052
1695713518116359700,22.397359619140627,0.0050600022077560425,0.009321057237684727,0.03874896466732025
1695713518126239700,22.40723974609375,-0.010918952524662018,0.014647374860942364,0.03874896466732025
1695713518136257500,22.417257568359375,-0.02263685315847397,0.014647374860942364,0.03874896466732025
1695713518146426600,22.427426513671875,-0.032224226742982864,0.011451584286987782,0.03874896466732025
1695713518156444400,22.4374443359375,-0.036485280841588974,0.010386320762336254,0.03555317223072052
1695713518166360000,22.447360107421876,-0.03968106955289841,0.010386320762336254,0.033422645181417465
1695713518176369200,22.457369140625,-0.04287686198949814,0.007190529722720385,0.03235738351941109
1695713518186397000,22.46739697265625,-0.04713791608810425,0.011451584286987782,0.028096329420804977
1695713518196408000,22.477407958984376,-0.05139897018671036,0.012516847811639309,0.02383527345955372
1695713518206489300,22.4874892578125,-0.05459476262331009,0.013582111336290836,0.020639482885599136
1695713518216507600,22.497507568359374,-0.05779055133461952,0.015712639316916466,0.020639482885599136
1695713518226552000,22.507552001953126,-0.0588558167219162,0.016777902841567993,0.016378428786993027
1695713518236573000,22.517572998046877,-0.0588558167219162,0.01784316636621952,0.012117373757064342
1695713518246612200,22.5276123046875,-0.0588558167219162,0.01784316636621952,0.00892158318310976
1695713518256635000,22.537634765625,-0.05779055133461952,0.018908429890871048,0.00892158318310976
1695713518266681000,22.54768115234375,-0.05459476262331009,0.019973693415522575,0.007856319658458233
1695713518276706300,22.557706298828126,-0.05139897018671036,0.018908429890871048,0.00892158318310976
1695713518286746400,22.567746337890625,-0.05033370852470398,0.014647374860942364,0.009986846707761288
1695713518296772900,22.57777294921875,-0.04713791608810425,0.014647374860942364,0.006791055668145418
1695713518306808300,22.587808349609375,-0.04394212365150452,0.011451584286987782,0.005725792143493891
1695713518316835800,22.5978359375,-0.04287686198949814,0.010386320762336254,0.004660528618842363
1695713518326873600,22.60787353515625,-0.04287686198949814,0.007190529722720385,0.001464737462811172
1695713518336902100,22.617902099609374,-0.04287686198949814,0.003994738683104515,-0.002796316985040903
1695713518346938000,22.627938232421876,-0.040746334940195084,-0.001331579522229731,-0.003861580742523074
1695713518356967400,22.637967529296876,-0.040746334940195084,-0.0034621069207787514,-0.003861580742523074
1695713518366977300,22.647977294921876,-0.03861580789089203,-0.007723161485046148,-0.002796316985040903
1695713518377004800,22.6580048828125,-0.0354200154542923,-0.010918952524662018,-0.003861580742523074
1695713518387052300,22.66805224609375,-0.03435475379228592,-0.010918952524662018,-0.005992108024656773
1695713518397081600,22.67808154296875,-0.03009369783103466,-0.008788425475358963,-0.005992108024656773
1695713518407100200,22.68810009765625,-0.03009369783103466,-0.00985368900001049,-0.003861580742523074
1695713518417128400,22.69812841796875,-0.029028434306383133,-0.005592633970081806,-0.003861580742523074
1695713518427165700,22.708165771484374,-0.026897907257080078,-0.006657897960394621,-0.005992108024656773
1695713518437194800,22.71819482421875,-0.023702116683125496,-0.010918952524662018,-0.009187898598611355
1695713518447232500,22.728232421875,-0.020506324246525764,-0.00985368900001049,-0.010253162123262882
1695713518457262300,22.738262451171874,-0.016245270147919655,-0.008788425475358963,-0.011318426579236984
1695713518467322400,22.748322265625,-0.0141147430986166,-0.006657897960394621,-0.014514217153191566
1695713518477355500,22.75835546875,-0.011984216049313545,-0.005592633970081806,-0.014514217153191566
1695713518487392800,22.768392822265625,-0.008788425475358963,-0.007723161485046148,-0.015579480677843094
1695713518497426400,22.778426513671874,-0.0034621069207787514,-0.008788425475358963,-0.01664474420249462
1695713518507450600,22.78845068359375,0.002929474925622344,-0.011984216049313545,-0.01771000772714615
1695713518517483300,22.798483154296875,0.007190529722720385,-0.016245270147919655,-0.02090579830110073
1695713518527520300,22.808520263671873,0.009321057237684727,-0.01837579719722271,-0.024101590737700462
1695713518537553200,22.81855322265625,0.012516847811639309,-0.017310533672571182,-0.023036325350403786
1695713518547584800,22.828584716796875,0.010386320762336254,-0.016245270147919655,-0.02090579830110073
1695713518557617400,22.838617431640625,0.010386320762336254,-0.011984216049313545,-0.02090579830110073
1695713518567647700,22.848647705078125,0.009321057237684727,-0.011984216049313545,-0.023036325350403786
1695713518577680100,22.85868017578125,0.011451584286987782,-0.00985368900001049,-0.023036325350403786
1695713518587683300,22.868683349609373,0.014647374860942364,-0.008788425475358963,-0.02090579830110073
1695713518597713000,22.878712890625,0.016777902841567993,-0.005592633970081806,-0.02090579830110073
1695713518607778000,22.888778076171874,0.018908429890871048,-0.0002663159102667123,-0.01664474420249462
1695713518617811200,22.898811279296876,0.01784316636621952,-0.001331579522229731,-0.010253162123262882
1695713518627839700,22.90883984375,0.016777902841567993,-0.004527370445430279,-0.004926844500005245
1695713518637872600,22.91887255859375,0.014647374860942364,-0.0034621069207787514,-0.002796316985040903
1695713518647904500,22.928904541015626,0.013582111336290836,-0.0023968431632965803,0.0025300011038780212
1695713518657937200,22.938937255859376,0.012516847811639309,0.003994738683104515,0.00892158318310976
1695713518667974700,22.948974609375,0.014647374860942364,0.00612526573240757,0.012117373757064342
1695713518678007600,22.959007568359375,0.01784316636621952,0.009321057237684727,0.012117373757064342
1695713518688006100,22.969006103515625,0.018908429890871048,0.012516847811639309,0.01318263728171587
1695713518698035700,22.97903564453125,0.021038956940174103,0.013582111336290836,0.012117373757064342
1695713518708093200,22.98909326171875,0.019973693415522575,0.016777902841567993,0.01318263728171587
1695713518718125600,22.99912548828125,0.019973693415522575,0.01784316636621952,0.014247900806367397
1695713518728158000,23.009157958984375,0.01784316636621952,0.018908429890871048,0.01318263728171587
1695713518738190300,23.0191904296875,0.01784316636621952,0.016777902841567993,0.009986846707761288
1695713518748230000,23.02922998046875,0.015712639316916466,0.016777902841567993,0.009986846707761288
1695713518758263000,23.039262939453124,0.014647374860942364,0.016777902841567993,0.00892158318310976
1695713518768288000,23.0492880859375,0.011451584286987782,0.023169483989477158,0.006791055668145418
1695713518778320400,23.0593203125,0.010386320762336254,0.023169483989477158,0.006791055668145418
1695713518788326000,23.069325927734376,0.009321057237684727,0.024234747514128685,0.005725792143493891
1695713518798355500,23.07935546875,0.009321057237684727,0.02210422046482563,0.006791055668145418
1695713518808421600,23.089421630859373,0.009321057237684727,0.016777902841567993,0.005725792143493891
1695713518818454800,23.099454833984375,0.008255792781710625,0.011451584286987782,0.0025300011038780212
1695713518828482600,23.109482666015627,0.007190529722720385,0.011451584286987782,0.001464737462811172
1695713518838515200,23.11951513671875,0.003994738683104515,0.009321057237684727,0.0003994738799519837
1695713518848519200,23.129519287109375,-0.0002663159102667123,0.008255792781710625,-0.002796316985040903
1695713518858549000,23.139549072265623,-0.0023968431632965803,0.008255792781710625,-0.003861580742523074
1695713518868586200,23.149586181640625,-0.001331579522229731,0.007190529722720385,-0.002796316985040903
1695713518878616800,23.159616943359374,-0.0034621069207787514,0.0050600022077560425,-0.002796316985040903
1695713518888647200,23.169647216796875,-0.004527370445430279,-0.001331579522229731,-0.002796316985040903
1695713518898677500,23.179677490234376,-0.005592633970081806,-0.005592633970081806,-0.003861580742523074
1695713518908709400,23.18970947265625,-0.006657897960394621,-0.006657897960394621,-0.004926844500005245
1695713518918740000,23.199739990234374,-0.005592633970081806,-0.006657897960394621,-0.004926844500005245
1695713518928786200,23.2097861328125,-0.004527370445430279,-0.0034621069207787514,-0.003861580742523074
1695713518938818600,23.219818603515623,-0.005592633970081806,-0.004527370445430279,-0.002796316985040903
1695713518948847400,23.229847412109375,-0.0034621069207787514,-0.005592633970081806,-0.0006657897611148655
1695713518958879200,23.239879150390625,-0.0023968431632965803,-0.005592633970081806,0.0003994738799519837
1695713518968906200,23.24990625,0.0007989477599039674,-0.006657897960394621,-0.0006657897611148655
1695713518978937300,23.259937255859374,0.003994738683104515,-0.006657897960394621,0.001464737462811172
1695713518988984000,23.269984130859374,0.003994738683104515,-0.005592633970081806,0.001464737462811172
1695713518999017000,23.280016845703123,0.002929474925622344,-0.005592633970081806,0.0035952648613601923
1695713519009045800,23.290045654296875,0.0007989477599039674,-0.005592633970081806,0.004660528618842363
1695713519019078100,23.300078125,-0.0002663159102667123,-0.0034621069207787514,0.0035952648613601923
1695713519029124600,23.31012451171875,-0.0023968431632965803,-0.001331579522229731,0.005725792143493891
1695713519039158500,23.320158447265626,-0.006657897960394621,0.0018642114009708166,0.0035952648613601923
1695713519049167000,23.3301669921875,-0.008788425475358963,0.0050600022077560425,0.0025300011038780212
1695713519059198500,23.340198486328124,-0.007723161485046148,0.009321057237684727,0.001464737462811172
1695713519069226200,23.350226318359375,-0.007723161485046148,0.013582111336290836,-0.002796316985040903
1695713519079257000,23.360257080078124,-0.008788425475358963,0.014647374860942364,-0.004926844500005245
1695713519089318700,23.370318603515624,-0.010918952524662018,0.013582111336290836,-0.004926844500005245
1695713519099352800,23.380352783203126,-0.011984216049313545,0.010386320762336254,-0.002796316985040903
1695713519109366800,23.39036669921875,-0.0141147430986166,0.009321057237684727,-0.0006657897611148655
1695713519119398700,23.400398681640624,-0.0141147430986166,0.014647374860942364,-0.0006657897611148655
1695713519129450200,23.4104501953125,-0.0141147430986166,0.012516847811639309,-0.0017310534603893757
1695713519139484200,23.420484130859375,-0.013049479573965073,0.013582111336290836,-0.0006657897611148655
1695713519149513700,23.430513671875,-0.00985368900001049,0.013582111336290836,-0.0017310534603893757
1695713519159547100,23.440547119140625,-0.006657897960394621,0.015712639316916466,-0.0017310534603893757
1695713519169548500,23.450548583984375,-0.004527370445430279,0.016777902841567993,-0.0017310534603893757
1695713519179579000,23.460578857421876,-0.0034621069207787514,0.016777902841567993,-0.0017310534603893757
1695713519189636000,23.470635986328126,-0.0034621069207787514,0.012516847811639309,0.0003994738799519837
1695713519199669200,23.480669189453124,-0.005592633970081806,0.010386320762336254,0.0003994738799519837
1695713519209682400,23.490682373046877,-0.005592633970081806,0.009321057237684727,0.0003994738799519837
1695713519219713300,23.50071337890625,-0.004527370445430279,0.00612526573240757,-0.0006657897611148655
1695713519229740800,23.51074072265625,-0.004527370445430279,0.00612526573240757,-0.0006657897611148655
1695713519239771400,23.520771484375,-0.006657897960394621,0.003994738683104515,-0.0006657897611148655
1695713519249839600,23.530839599609376,-0.004527370445430279,-0.0023968431632965803,0.0025300011038780212
1695713519259874000,23.5408740234375,-0.0034621069207787514,-0.001331579522229731,0.0025300011038780212
1695713519269885200,23.55088525390625,-0.0023968431632965803,-0.0023968431632965803,0.00892158318310976
1695713519279917000,23.5609169921875,-0.0023968431632965803,-0.0023968431632965803,0.0153131652623415
1695713519289967900,23.5709677734375,-0.007723161485046148,-0.004527370445430279,0.017443692311644554
1695713519300001800,23.581001708984374,-0.007723161485046148,-0.005592633970081806,0.01850895583629608
1695713519309997800,23.590997802734375,-0.008788425475358963,-0.006657897960394621,0.01850895583629608
1695713519320028000,23.60102783203125,-0.008788425475358963,-0.00985368900001049,0.016378428786993027
1695713519330093600,23.611093505859376,-0.00985368900001049,-0.010918952524662018,0.016378428786993027
1695713519340127200,23.621127197265626,-0.011984216049313545,-0.010918952524662018,0.014247900806367397
1695713519350136000,23.631135986328125,-0.0141147430986166,-0.008788425475358963,0.0153131652623415
1695713519360167200,23.641167236328126,-0.011984216049313545,-0.006657897960394621,0.016378428786993027
1695713519370187000,23.65118701171875,-0.0141147430986166,-0.006657897960394621,0.01850895583629608
1695713519380217000,23.661217041015625,-0.016245270147919655,-0.0034621069207787514,0.0153131652623415
1695713519390265300,23.671265380859374,-0.016245270147919655,-0.001331579522229731,0.0153131652623415
1695713519400297200,23.681297119140623,-0.0141147430986166,0.0018642114009708166,0.012117373757064342
1695713519410320000,23.69131982421875,-0.0141147430986166,0.00612526573240757,0.012117373757064342
1695713519420350700,23.701350830078123,-0.013049479573965073,0.009321057237684727,0.011052110232412815
1695713519430417000,23.7114169921875,-0.011984216049313545,0.007190529722720385,0.009986846707761288
1695713519440451600,23.72145166015625,-0.010918952524662018,0.007190529722720385,0.009986846707761288
1695713519450456800,23.731456787109376,-0.010918952524662018,0.007190529722720385,0.00892158318310976
1695713519460488400,23.741488525390626,-0.010918952524662018,0.003994738683104515,0.007856319658458233
1695713519470492400,23.751492431640624,-0.00985368900001049,0.003994738683104515,0.007856319658458233
1695713519480521200,23.761521240234377,-0.00985368900001049,0.003994738683104515,0.0035952648613601923
1695713519490721300,23.77172119140625,-0.00985368900001049,0.003994738683104515,-0.0006657897611148655
1695713519500797200,23.781797119140624,-0.010918952524662018,0.0050600022077560425,-0.003861580742523074
1695713519510826000,23.791825927734376,-0.010918952524662018,0.00612526573240757,-0.005992108024656773
1695713519520836000,23.801836181640624,-0.013049479573965073,0.007190529722720385,-0.0017310534603893757
1695713519530889000,23.811888916015626,-0.0141147430986166,0.010386320762336254,0.0003994738799519837
1695713519540917800,23.821917724609374,-0.015180006623268127,0.013582111336290836,-0.005992108024656773
1695713519550931700,23.831931640625,-0.015180006623268127,0.012516847811639309,-0.009187898598611355
1695713519560960500,23.84196044921875,-0.015180006623268127,0.010386320762336254,-0.011318426579236984
1695713519571000800,23.852000732421875,-0.013049479573965073,0.008255792781710625,-0.012383690103888512
1695713519601107700,23.882107666015624,-0.00985368900001049,-0.0002663159102667123,-0.012383690103888512
1695713519611119000,23.892119140625,-0.007723161485046148,-0.005592633970081806,-0.012383690103888512
1695713519621143000,23.90214306640625,-0.005592633970081806,-0.013049479573965073,-0.012383690103888512
1695713519631158500,23.912158447265625,-0.0034621069207787514,-0.017310533672571182,-0.012383690103888512
1695713519641174300,23.92217431640625,0.0007989477599039674,-0.01837579719722271,-0.013448953628540039
1695713519651190000,23.93218994140625,0.0007989477599039674,-0.019441060721874237,-0.013448953628540039
1695713519661205500,23.94220556640625,0.0018642114009708166,-0.020506324246525764,-0.010253162123262882
1695713519671221200,23.95222119140625,0.0018642114009708166,-0.01837579719722271,-0.009187898598611355
1695713519681237000,23.962237060546876,0.0018642114009708166,-0.015180006623268127,-0.004926844500005245
1695713519691252500,23.97225244140625,0.0018642114009708166,-0.013049479573965073,-0.003861580742523074
1695713519701268200,23.982268310546875,-0.0002663159102667123,-0.015180006623268127,-0.005992108024656773
1695713519711284000,23.992283935546876,-0.001331579522229731,-0.015180006623268127,-0.004926844500005245
1695713519721305900,24.002305908203127,-0.001331579522229731,-0.015180006623268127,-0.008122635073959827
1695713519731341800,24.012341796875,-0.001331579522229731,-0.010918952524662018,-0.011318426579236984
1695713519741377800,24.022377685546875,-0.0023968431632965803,-0.008788425475358963,-0.013448953628540039
1695713519751414000,24.0324140625,-0.004527370445430279,-0.0023968431632965803,-0.013448953628540039
1695713519761450000,24.042449951171875,-0.004527370445430279,-0.001331579522229731,-0.012383690103888512
1695713519771486000,24.05248583984375,-0.005592633970081806,0.0007989477599039674,-0.011318426579236984
1695713519781522000,24.06252197265625,-0.007723161485046148,0.003994738683104515,-0.011318426579236984
1695713519791558000,24.072557861328125,-0.008788425475358963,0.00612526573240757,-0.013448953628540039
1695713519801593900,24.08259375,-0.008788425475358963,0.00612526573240757,-0.015579480677843094
1695713519811629800,24.0926298828125,-0.007723161485046148,0.010386320762336254,-0.015579480677843094
1695713519821654000,24.102654052734376,-0.005592633970081806,0.013582111336290836,-0.015579480677843094
1695713519831686400,24.112686279296874,-0.006657897960394621,0.013582111336290836,-0.014514217153191566
1695713519841718800,24.12271875,-0.007723161485046148,0.010386320762336254,-0.014514217153191566
1695713519851751200,24.132751220703124,-0.008788425475358963,0.0050600022077560425,-0.014514217153191566
1695713519861783600,24.142783447265625,-0.00985368900001049,0.0007989477599039674,-0.014514217153191566
1695713519871816000,24.15281591796875,-0.008788425475358963,0.003994738683104515,-0.014514217153191566
1695713519881848300,24.162848388671875,-0.006657897960394621,0.00612526573240757,-0.013448953628540039
1695713519891880700,24.172880615234376,-0.008788425475358963,0.002929474925622344,-0.010253162123262882
1695713519901913000,24.1829130859375,-0.008788425475358963,0.0050600022077560425,-0.010253162123262882
1695713519911945500,24.192945556640623,-0.007723161485046148,0.00612526573240757,-0.013448953628540039
1695713519921977900,24.202977783203124,-0.008788425475358963,0.008255792781710625,-0.013448953628540039
1695713519932003600,24.213003662109376,-0.007723161485046148,0.00612526573240757,-0.013448953628540039
1695713519942036700,24.22303662109375,-0.007723161485046148,0.002929474925622344,-0.010253162123262882
1695713519952069600,24.233069580078126,-0.008788425475358963,0.0007989477599039674,-0.009187898598611355
1695713519962102800,24.243102783203124,-0.0023968431632965803,-0.0002663159102667123,-0.0070573715493083
1695713519972135700,24.2531357421875,0.0018642114009708166,0.0018642114009708166,-0.0017310534603893757
1695713519982168600,24.26316845703125,0.002929474925622344,0.0018642114009708166,0.0025300011038780212
1695713519992201700,24.27320166015625,0.002929474925622344,0.002929474925622344,0.0035952648613601923
1695713520002234600,24.283234619140625,0.0007989477599039674,-0.0002663159102667123,0.0035952648613601923
1695713520012267800,24.293267822265626,0.0050600022077560425,-0.0002663159102667123,0.0035952648613601923
1695713520022300700,24.30330078125,0.003994738683104515,-0.006657897960394621,0.006791055668145418
1695713520032333800,24.313333740234373,0.002929474925622344,-0.007723161485046148,0.009986846707761288
1695713520042360300,24.3233603515625,0.0050600022077560425,-0.006657897960394621,0.007856319658458233
1695713520052391400,24.333391357421874,0.009321057237684727,-0.004527370445430279,0.005725792143493891
1695713520062422500,24.343422607421875,0.010386320762336254,0.0007989477599039674,0.0035952648613601923
1695713520072453600,24.35345361328125,0.009321057237684727,0.00612526573240757,0.0025300011038780212
1695713520082484700,24.363484619140625,0.009321057237684727,0.007190529722720385,0.0003994738799519837
1695713520092515800,24.373515869140626,0.007190529722720385,0.00612526573240757,0.0003994738799519837
1695713520102547000,24.383546875,0.002929474925622344,0.007190529722720385,0.0003994738799519837
1695713520112578000,24.393578125,0.002929474925622344,0.00612526573240757,0.0003994738799519837
1695713520122609200,24.403609130859376,0.003994738683104515,0.00612526573240757,-0.003861580742523074
1695713520132640300,24.41364013671875,0.002929474925622344,0.00612526573240757,-0.004926844500005245
1695713520142668000,24.42366796875,0.002929474925622344,0.008255792781710625,-0.009187898598611355
1695713520152700700,24.43370068359375,0.0018642114009708166,0.010386320762336254,-0.008122635073959827
1695713520162733300,24.4437333984375,0.002929474925622344,0.008255792781710625,-0.0070573715493083
1695713520172766200,24.45376611328125,0.003994738683104515,0.00612526573240757,-0.003861580742523074
1695713520182798800,24.463798828125,0.00612526573240757,0.00612526573240757,0.0003994738799519837
1695713520192831500,24.47383154296875,0.0050600022077560425,0.011451584286987782,-0.0006657897611148655
1695713520202864000,24.483864013671877,0.007190529722720385,0.015712639316916466,0.0025300011038780212
1695713520212896800,24.493896728515626,0.007190529722720385,0.015712639316916466,0.0025300011038780212
1695713520222929400,24.503929443359375,0.0050600022077560425,0.02210422046482563,0.001464737462811172
1695713520232962300,24.51396240234375,0.003994738683104515,0.023169483989477158,0.0025300011038780212
1695713520242995000,24.523994873046874,0.0007989477599039674,0.024234747514128685,0.0025300011038780212
1695713520253023200,24.534023193359374,-0.001331579522229731,0.021038956940174103,0.004660528618842363
1695713520263054600,24.5440546875,-0.0023968431632965803,0.018908429890871048,0.006791055668145418
1695713520273086000,24.5540859375,-0.0023968431632965803,0.021038956940174103,0.006791055668145418
1695713520283117300,24.564117431640625,-0.0023968431632965803,0.025300011038780212,0.006791055668145418
1695713520293149000,24.57414892578125,-0.0034621069207787514,0.025300011038780212,0.006791055668145418
1695713520303180000,24.584179931640627,-0.004527370445430279,0.023169483989477158,0.012117373757064342
1695713520313211600,24.594211669921876,-0.004527370445430279,0.016777902841567993,0.014247900806367397
1695713520323243000,24.604242919921877,-0.0034621069207787514,0.012516847811639309,0.016378428786993027
1695713520333274400,24.6142744140625,-0.001331579522229731,0.010386320762336254,0.017443692311644554
1695713520343305700,24.6243056640625,0.0007989477599039674,0.008255792781710625,0.016378428786993027
1695713520353342700,24.6343427734375,0.003994738683104515,0.008255792781710625,0.01318263728171587
1695713520363437600,24.6444375,0.0050600022077560425,0.009321057237684727,0.011052110232412815
1695713520373532200,24.6545322265625,0.0050600022077560425,0.011451584286987782,0.007856319658458233
1695713520383626800,24.664626708984375,0.00612526573240757,0.010386320762336254,0.005725792143493891
1695713522108989000,26.389989013671876,-0.5391565561294556,-0.5167860388755798,1.2209253311157227
1695713522119020800,26.400020751953125,-0.6936197876930237,-0.5988113284111023,1.2699273824691772
1695713522129052700,26.410052734375,-0.5636576414108276,-0.5572660565376282,1.3913674354553223
1695713522139084500,26.42008447265625,-0.5050681233406067,-0.6957502961158752,1.4765886068344116
1695713522149116700,26.43011669921875,-0.6478134393692017,-0.9109335541725159,1.525457501411438
1695713522159148500,26.4401484375,-0.5530049800872803,-0.8395609259605408,1.646897554397583
1695713522169180400,26.450180419921875,-0.46032705903053284,-0.9045419692993164,1.7491629123687744
1695713522179212500,26.460212646484376,-0.5029376149177551,-0.93117356300354,1.8237313032150269
1695713522189244400,26.470244384765625,-0.3996070325374603,-0.7500787377357483,1.9579545259475708
1695713522199276300,26.4802763671875,-0.25379905104637146,-0.7905587553977966,1.932388186454773
1695713522209309200,26.49030908203125,-0.18775272369384766,-0.892824113368988,1.8642113208770752
1695713522219342800,26.5003427734375,-0.14727269113063812,-0.9066725373268127,1.8610155582427979
1695713522229376800,26.510376708984374,-0.1898832470178604,-0.8715187907218933,1.9824556112289429
1695713522239410400,26.520410400390624,-0.25806012749671936,-0.7937545776367188,2.114415168762207
1695713522249444000,26.530444091796873,-0.25379905104637146,-0.771384060382843,2.214550018310547
1695713522259478000,26.54047802734375,-0.23462431132793427,-0.8065377473831177,2.2912490367889404
1695713522269511700,26.55051171875,-0.21118851006031036,-0.8257125020027161,2.3253374099731445
1695713522279545600,26.560545654296874,-0.16325165331363678,-0.9183903932571411,2.317880630493164
1695713522289579300,26.570579345703123,-0.12064110487699509,-0.9789772629737854,2.308293104171753
1695713522299613000,26.580613037109377,-0.08122635632753372,-1.0151962041854858,2.3540995121002197
1695713522309645600,26.5906455078125,-0.0588558167219162,-0.9949562549591064,2.436124801635742
1695713522319676200,26.60067626953125,-0.040746334940195084,-0.9364998936653137,2.520280599594116
1695713522329706800,26.610706787109375,-0.03755054250359535,-0.822516679763794,2.5989768505096436
1695713522339737300,26.6207373046875,-0.04181159660220146,-0.7106640338897705,2.6873939037323
1695713522349768200,26.630768310546873,-0.03009369783103466,-0.5870934128761292,2.815225601196289
1695713522359798800,26.640798828125,0.0050600022077560425,-0.40706387162208557,2.978210926055908
1695713522369829400,26.650829345703126,0.04340949282050133,-0.2516685426235199,3.1453239917755127
1695713522379860200,26.660860107421875,0.06151897460222244,-0.05139897018671036,3.343463182449341
1695713522389890800,26.670890869140624,0.07430213689804077,0.18176060914993286,3.545863151550293
1695713522399921400,26.68092138671875,0.110521100461483,0.3958786129951477,3.681018590927124
1695713522409952000,26.690951904296874,0.1808284968137741,0.5780386924743652,3.7566521167755127
1695713522419984400,26.700984375,0.26391905546188354,0.7025413513183594,3.8120460510253906
1695713522430015700,26.711015625,0.3777691125869751,0.7515435218811035,3.830155372619629
1695713522440047400,26.72104736328125,0.48429548740386963,0.7270424365997314,3.795001745223999
1695713522450078700,26.73107861328125,0.5780386924743652,0.6494113206863403,3.7289552688598633
1695713522460110000,26.741110107421875,0.6504766345024109,0.554602861404419,3.6682353019714355
1695713522470141700,26.7511416015625,0.6898913383483887,0.5524723529815674,3.6874101161956787
1695713522480173000,26.761173095703125,0.6941524147987366,0.4704470634460449,3.6629090309143066
1695713522490204400,26.771204345703126,0.6568682193756104,0.4065312445163727,3.6586480140686035
1695713522500236000,26.781236083984375,0.5961481928825378,0.27230802178382874,3.600191593170166
1695713522510267400,26.791267333984376,0.5258407592773438,0.20093534886837006,3.646929979324341
1695713522520298800,26.801298828125,0.4810996949672699,0.22437115013599396,3.6969974040985107
1695713522530331400,26.811331298828126,0.5290365815162659,0.3266364634037018,3.820568084716797
1695713522540365300,26.821365234375,0.5950828790664673,0.5066660046577454,3.9366817474365234
1695713522550399200,26.831399169921873,0.6036050319671631,0.5609944462776184,3.9963364601135254
1695713522560433000,26.841432861328126,0.4917523264884949,0.45020705461502075,3.8567869663238525
1695713522570466800,26.851466796875,0.47790390253067017,0.3213101327419281,3.760913372039795
1695713522580500700,26.861500732421874,1.368198037147522,0.4810996949672699,3.9313554763793945
1695713522590534700,26.87153466796875,3.294860363006592,0.7941540479660034,4.019772529602051
1695713522600568300,26.881568359375,1.9763303995132446,0.5205144286155701,3.641603708267212
1695713522610602200,26.891602294921874,0.4342280924320221,0.5471460223197937,3.755586862564087
1695713522620636200,26.90163623046875,-0.4677838981151581,0.1806953400373459,3.609779119491577
1695713522630669800,26.911669921875,-0.43689125776290894,0.07004108279943466,3.7577176094055176
1695713522640702200,26.9217021484375,0.06151897460222244,0.6057355403900146,4.226300239562988
1695713522650733600,26.931733642578124,0.5908218622207642,1.2021499872207642,4.576772212982178
1695713522660765000,26.941764892578124,0.9187898635864258,1.4480928182601929,4.641753196716309
1695713522670796500,26.951796630859373,0.9784446358680725,1.4800506830215454,4.509660243988037
1695713522680828000,26.961827880859374,1.257543683052063,1.608947515487671,4.451070785522461
1695713522690859300,26.971859375,1.3841769695281982,1.3021516799926758,4.212451934814453
1695713522700890600,26.981890625,1.0956236124038696,0.8910930156707764,3.8429386615753174
1695713522710922200,26.991922119140625,0.9816404581069946,0.7408908605575562,3.586343288421631
1695713522720953600,27.00195361328125,0.8612656593322754,0.5620597004890442,3.361572504043579
1695713522730985000,27.01198486328125,0.8271772265434265,0.4107922911643982,3.2103052139282227
1695713522741016300,27.022016357421876,0.8612656593322754,0.203065887093544,3.122953414916992
1695713522751049000,27.032049072265625,0.8889625072479248,-0.011984216049313545,3.02295184135437
1695713522761083100,27.042083251953127,0.8154593110084534,-0.14727269113063812,2.9015119075775146
1695713522771117000,27.052116943359376,0.7090660929679871,-0.1856221854686737,2.816290855407715
1695713522781151000,27.06215087890625,0.721849262714386,-0.09081372618675232,2.8173561096191406
1695713522791185000,27.072184814453124,0.5897566080093384,-0.14940322935581207,2.759831666946411
1695713522801219000,27.082218994140625,0.43635863065719604,-0.18775272369384766,2.671414852142334
1695713522811253000,27.0922529296875,0.24794010818004608,0.08175898343324661,2.651174783706665
1695713522821287000,27.102286865234376,0.148870587348938,0.40333545207977295,2.6628928184509277
1695713522831321000,27.112321044921874,0.11584742367267609,0.6217144727706909,2.6351959705352783
1695713522841355000,27.12235498046875,0.1531316488981247,0.699345588684082,2.567018985748291
1695713522851389000,27.132388916015625,0.3298322558403015,0.5279712677001953,2.445712089538574
1695713522861423600,27.142423583984375,0.32450592517852783,0.13595427572727203,2.2124195098876953
1695713522871468800,27.15246875,0.19893798232078552,-0.2047969400882721,1.8578197956085205
1695713522881514200,27.16251416015625,0.12223900109529495,-0.5817670822143555,1.407346487045288
1695713522891559400,27.172559326171875,0.26285380125045776,-0.8491482734680176,0.98124098777771
1695713522901604600,27.1826044921875,0.42783650755882263,-1.0950909852981567,0.6372939944267273
1695713522911649800,27.19264990234375,0.37989965081214905,-1.2410321235656738,0.37856805324554443
1695713522921695200,27.2026953125,0.2138516753911972,-1.2314447164535522,0.25606274604797363
1695713522931740400,27.212740478515624,0.1392832249403,-1.0833730697631836,0.27949854731559753
1695713522941785600,27.22278564453125,0.110521100461483,-0.8523440957069397,0.38602492213249207
1695713522951830800,27.232830810546876,0.15845796465873718,-0.5998765826225281,0.5020055174827576
1695713522961865500,27.242865478515625,0.33835434913635254,-0.4475438892841339,0.5850960612297058
1695713522971966000,27.252966064453126,0.38522595167160034,-0.3795001804828644,0.5222455263137817
1695713522981997600,27.26299755859375,0.2234390527009964,-0.303866446018219,0.3519364893436432
1695713522992002300,27.273002197265626,-0.06631266325712204,-0.2878875136375427,0.17829850316047668
1695713523002034000,27.283033935546875,-0.23675484955310822,-0.11957584321498871,0.12823110818862915
1695713523012045600,27.293045654296876,-0.31971225142478943,0.15406376123428345,0.23582273721694946
1695713523022077200,27.3030771484375,-0.3719101548194885,0.43103229999542236,0.49348339438438416
1695713523032115200,27.313115234375,-0.49761128425598145,0.4384891390800476,0.781104564666748
1695713523042135300,27.32313525390625,-0.5636576414108276,0.4427502155303955,1.040895700454712
1695713523052166700,27.333166748046875,-0.5402218103408813,0.4896217882633209,1.2401000261306763
1695713523062201600,27.34320166015625,-0.5135902166366577,0.45446810126304626,1.3349084854125977
1695713523072264000,27.353263916015624,-0.48802390694618225,0.3490070104598999,1.3349084854125977
1695713523082295600,27.363295654296873,-0.40386807918548584,0.392682820558548,1.2124031782150269
1695713523092289800,27.373289794921874,-0.311190128326416,0.5077312588691711,0.9759146571159363
1695713523102331000,27.383330810546877,-0.18881797790527344,0.5407544374465942,0.748081386089325
1695713523112362500,27.393362548828126,-0.011984216049313545,0.511992335319519,0.6554034352302551
1695713523122403000,27.403403076171877,0.010386320762336254,0.3820301592350006,0.6404897570610046
1695713523132434400,27.413434326171874,-0.060986343771219254,0.25739431381225586,0.6543381810188293
1695713523142466000,27.423466064453127,-0.06950845569372177,0.15086796879768372,0.6660560965538025
1695713523152482000,27.43348193359375,-0.017310533672571182,0.010386320762336254,0.6660560965538025
1695713523162513400,27.443513427734374,-0.04287686198949814,-0.12703268229961395,0.659664511680603
1695713523172556500,27.453556640625,0.012516847811639309,0.0050600022077560425,0.6948181986808777
1695713523182591200,27.46359130859375,-0.019441060721874237,0.3063964545726776,0.7278413772583008
1695713523192636000,27.473635986328127,-0.10998847335577011,0.6398239731788635,0.7161234617233276
1695713523202667500,27.48366748046875,-0.1291632205247879,0.909202516078949,0.6958834528923035
1695713523212678000,27.493677978515624,-0.1430116444826126,0.9912278056144714,0.6564686894416809
1695713525299216600,29.580216552734374,-6.1549601554870605,-0.6105292439460754,7.240330696105957
1695713525309249300,29.590249267578123,-6.07719612121582,-1.0237183570861816,6.96655797958374
1695713525319281700,29.60028173828125,-5.973865509033203,-1.921602487564087,6.372273921966553
1695713525329314300,29.610314208984374,-5.954690456390381,-3.180344581604004,5.685445308685303
1695713525339347000,29.620346923828127,-6.044172763824463,-4.387022018432617,5.0655951499938965
1695713525349379600,29.630379638671876,-6.203829288482666,-5.244426250457764,4.472376346588135
1695713525359412200,29.640412109375,-6.442448139190674,-5.6437668800354,3.889810085296631
1695713525369444600,29.650444580078126,-6.748045921325684,-5.605417251586914,3.3551809787750244
1695713525379477200,29.660477294921876,-7.110235214233398,-5.350819110870361,2.835465431213379
1695713525389509600,29.670509521484377,-7.4584431648254395,-4.697013854980469,2.1719393730163574
1695713525399542000,29.6805419921875,-7.713041305541992,-3.810847520828247,1.4169337749481201
1695713525409574700,29.69057470703125,-7.870567321777344,-2.796982765197754,0.6575340032577515
1695713525419607300,29.700607177734376,-7.867371559143066,-1.544499158859253,-0.04540686309337616
1695713525429640000,29.710639892578126,-7.562839031219482,0.010386320762336254,-0.5342296957969666
1695713525439672300,29.72067236328125,-6.90463924407959,1.5290528535842896,-0.6641919016838074
1695713525449705000,29.730705078125,-6.121936798095703,2.618551254272461,-0.5395560264587402
1695713525459737600,29.740737548828125,-5.256011009216309,3.288468837738037,-0.3659180700778961
1695713525469770000,29.75077001953125,-4.324171543121338,3.4971272945404053,-0.29028433561325073
1695713525479802600,29.760802734375,-3.4104416370391846,3.389535665512085,-0.3957454562187195
1695713525489835300,29.770835205078125,-2.583930015563965,3.190464496612549,-0.5704486966133118
1695713525499867600,29.78086767578125,-1.8555561304092407,3.031740427017212,-0.7460840344429016
1695713525509900500,29.790900634765624,-2.413621187210083,5.8327178955078125,0.42850229144096375
1695713525519933400,29.800933349609377,-4.730968952178955,9.334372520446777,2.6724801063537598
1695713525529966600,29.810966552734374,-4.315649509429932,5.675058841705322,1.7598155736923218
1695713525539999500,29.82099951171875,-4.712859630584717,1.8026924133300781,1.9036260843276978
1695713525550032400,29.831032470703125,-5.215530872344971,-1.1249184608459473,2.771549701690674
1695713525560065300,29.841065185546874,-5.38597297668457,-1.9674087762832642,2.9281435012817383
1695713525570098200,29.85109814453125,-5.345492839813232,-1.7362465858459473,2.9281435012817383
1695713525580131000,29.861131103515625,-5.099550247192383,-2.2240042686462402,2.706568479537964
1695713525590164200,29.871164306640626,-4.686227798461914,-3.139864683151245,2.3455774784088135
1695713525600197000,29.881197021484375,-4.349737644195557,-3.896068572998047,2.031324625015259
1695713525610229800,29.891229736328125,-4.23362398147583,-4.160254001617432,1.7193355560302734
1695713525620263200,29.90126318359375,-4.111118793487549,-3.766106367111206,1.3711274862289429
1695713525630296800,29.911296875,-3.964245557785034,-3.088865041732788,1.1953589916229248
1695713525640330200,29.921330322265625,-3.712843179702759,-2.473275899887085,1.2092074155807495
1695713525650364000,29.931364013671875,-3.3902015686035156,-1.9919098615646362,1.3189295530319214
1695713525660397300,29.941397216796876,-3.0823402404785156,-1.5349117517471313,1.429716944694519
1695713525670431000,29.951430908203125,-2.7841997146606445,-1.327318549156189,1.472327470779419
1695713525680464400,29.96146435546875,-2.4614248275756836,-1.9450381994247437,1.3125379085540771
1695713525690498000,29.971498046875,-2.071671485900879,-2.1622188091278076,1.261405348777771
1695713525700531500,29.981531494140626,-1.4187979698181152,-2.071671485900879,1.6767250299453735
1695713525710565000,29.991565185546875,-0.792689323425293,-1.9738004207611084,1.9547587633132935
1695713525720597800,30.00159765625,-0.31332066655158997,-1.7085497379302979,2.044107675552368
1695713525730630700,30.011630615234374,0.011451584286987782,-1.1643331050872803,1.9366493225097656
1695713525740663600,30.02166357421875,0.22130851447582245,-0.582832396030426,1.6117439270019531
1695713525750696400,30.031696533203124,0.33728909492492676,-0.4304996728897095,1.1250516176223755
1695713525760729300,30.041729248046874,0.3127880394458771,-0.5498092174530029,0.6106624007225037
1695713525770762200,30.05176220703125,0.1765674501657486,-0.591354489326477,0.22303956747055054
1695713525780795100,30.061795166015624,0.029561065137386322,-0.3986749053001404,0.06325002759695053
1695713525790828000,30.071828125,-0.048203181475400925,-0.09294424951076508,0.08881635963916779
1695713525800861000,30.08186083984375,-0.015180006623268127,0.09454214572906494,0.15699322521686554
1695713525810893800,30.091893798828124,0.019973693415522575,0.2414153665304184,0.22303956747055054
1695713525820926700,30.1019267578125,0.02636527456343174,0.2318280041217804,0.22943115234375
1695713525830958800,30.111958740234375,-0.007723161485046148,0.18815219402313232,0.20279955863952637
1695713525840988400,30.121988525390623,-0.08868319541215897,0.33728909492492676,0.17510271072387695
1695713525851018200,30.132018310546876,0.00612526573240757,0.5929523706436157,0.1591237634420395
1695713525861047800,30.1420478515625,0.3500722646713257,0.6972150802612305,0.07496792823076248
1695713525871077600,30.15207763671875,0.5439502596855164,0.8111982345581055,-0.056059498339891434
1695713525881107500,30.162107421875,0.5737776160240173,0.8974846005439758,-0.14966954290866852
1695713525891137000,30.172136962890626,0.54181969165802,0.7728487849235535,-0.19014956057071686
1695713525901166800,30.182166748046875,0.4757733643054962,0.466185986995697,-0.1645832359790802
1695713525911196700,30.19219677734375,0.3958786129951477,0.1796300858259201,-0.10612688958644867
1695713525921226200,30.202226318359376,0.3820301592350006,-0.1430116444826126,-0.10186583548784256
1695713525931256000,30.212256103515625,0.3628554344177246,-0.20266640186309814,-0.11358373612165451
1695713525941288700,30.222288818359374,0.32770171761512756,-0.16964323818683624,-0.16351796686649323
1695713525951323100,30.2323232421875,0.31917962431907654,-0.017310533672571182,-0.24234747886657715
1695713525961357600,30.242357666015625,0.314918577671051,0.146606907248497,-0.3776359558105469
1695713525971392300,30.252392333984375,0.3266364634037018,0.31385329365730286,-0.5289034247398376
1695713525981426700,30.2624267578125,0.3692470192909241,0.49707865715026855,-0.662061333656311
1695713525991461000,30.272461181640626,0.4161186218261719,0.6579334735870361,-0.7460840344429016
1695713526001495800,30.282495849609376,0.4395544230937958,0.5993439555168152,-0.7759113907814026
1695713526011530200,30.2925302734375,0.47364285588264465,0.2733732759952545,-0.7609977126121521
1695713526021564700,30.302564697265623,0.54927659034729,-0.11105373501777649,-0.6811029314994812
1695713526031599400,30.312599365234377,0.6078660488128662,-0.3656517565250397,-0.5331644415855408
1695713526041633800,30.3226337890625,0.6270408034324646,-0.3869570195674896,-0.37870121002197266
1695713526051669000,30.3326689453125,0.616388201713562,-0.23142851889133453,-0.28495803475379944
1695713526061719000,30.342718994140625,0.5609944462776184,-0.05033370852470398,-0.27110961079597473
1695713526071768800,30.352768798828127,0.4480765163898468,0.035952646285295486,-0.2966759204864502
1695713526081819000,30.36281884765625,0.3490070104598999,0.16258586943149567,-0.32330751419067383
1695713526091869000,30.372868896484373,0.2893522381782532,0.26698169112205505,-0.33182963728904724
1695713526101918700,30.382918701171874,0.2936132848262787,0.25845959782600403,-0.38722333312034607
1695713526111968800,30.39296875,0.2468748539686203,0.23928484320640564,-0.3712443709373474
1695713526122018800,30.403018798828125,0.17337165772914886,0.2360890507698059,-0.2966759204864502
1695713526132054000,30.413053955078126,0.12117373943328857,0.17749954760074615,-0.21465063095092773
1695713526142103300,30.423103271484376,0.09880319982767105,0.12756532430648804,-0.15286533534526825
1695713526152138500,30.433138427734374,0.07004108279943466,0.018908429890871048,-0.09867004305124283
1695713526162157300,30.4431572265625,0.021038956940174103,-0.11851058155298233,-0.03368896245956421
1695713526172192500,30.453192626953125,-0.05566002428531647,-0.2324937880039215,0.049401599913835526
1695713526182278400,30.4632783203125,-0.10892320424318314,-0.31878015398979187,0.1399490088224411
1695713526192084700,30.473084716796876,-0.1249021589756012,-0.4018706977367401,0.19001640379428864
1695713526202098400,30.483098388671873,-0.13768532872200012,-0.3635212182998657,0.2155827283859253
1695713526212174600,30.493174560546876,-0.12383689731359482,-0.32836753129959106,0.18788588047027588
1695713526222194700,30.503194580078127,-0.13342426717281342,-0.2474074810743332,0.1356879621744156
1695713526232207000,30.51320703125,-0.17390428483486176,-0.12064110487699509,0.08455529808998108
1695713526242226400,30.523226318359374,-0.21118851006031036,-0.016245270147919655,0.04727107286453247
1695713526252305700,30.5333056640625,-0.22184115648269653,0.0018642114009708166,0.021704746410250664
1695713526262331100,30.5433310546875,-0.2420811653137207,-0.05352949723601341,-0.012383690103888512
1695713526272365300,30.553365234375,-0.2707101106643677,-0.11318425834178925,-0.02197106182575226
1695713526282391600,30.5633916015625,-0.3016027808189392,-0.19627483189105988,-0.0006657897611148655
1695713526292427000,30.573427001953124,-0.3271690905094147,-0.25806012749671936,0.0270310640335083
1695713526302454300,30.583454345703124,-0.3314301371574402,-0.34328120946884155,0.016378428786993027
1695713526312477000,30.593476806640624,-0.3527354300022125,-0.3560643792152405,-0.003861580742523074
1695713526322503400,30.60350341796875,-0.37936702370643616,-0.3262369930744171,-0.04966791719198227
1695713526332560100,30.61356005859375,-0.3729754388332367,-0.34860754013061523,-0.10506162792444229
1695713526342589700,30.623589599609375,-0.3687143921852112,-0.3976096510887146,-0.14221268892288208
1695713526352629000,30.63362890625,-0.40386807918548584,-0.3219759464263916,-0.1454084813594818
1695713526362659800,30.643659912109374,-0.41665124893188477,-0.2985401451587677,-0.14327795803546906
1695713526372700700,30.65370068359375,-0.41771650314331055,-0.22610220313072205,-0.13475584983825684
1695713526382732500,30.663732666015626,-0.4209122955799103,-0.23568958044052124,-0.1592569202184677
1695713526392764400,30.673764404296875,-0.47950178384780884,-0.24953800439834595,-0.16245271265506744
1695713526402796300,30.68379638671875,-0.5242428779602051,-0.24101589620113373,-0.15393058955669403
1695713526412805400,30.693805419921876,-0.5647228956222534,-0.24101589620113373,-0.1645832359790802
1695713526422834700,30.703834716796877,-0.5924197435379028,-0.293213814496994,-0.20932430028915405
1695713526432895200,30.713895263671876,-0.6978808641433716,-0.36671701073646545,-0.22317273914813995
1695713526442927900,30.723927978515626,-0.755405068397522,-0.44647863507270813,-0.22849905490875244
1695713526452924400,30.73392431640625,-0.7681882381439209,-0.5114597082138062,-0.23169484734535217
1695713526462953500,30.743953369140623,-0.7458177208900452,-0.5189165472984314,-0.24234747886657715
1695713526472991200,30.7539912109375,-0.7596661448478699,-0.6158555150032043,-0.24341274797916412
1695713526483021000,30.76402099609375,-0.8532761931419373,-0.6850976943969727,-0.17310534417629242
1695713526493053700,30.7740537109375,-0.9470193982124329,-0.7735145688056946,-0.10186583548784256
1695713526503084000,30.784083984375,-1.0205225944519043,-0.8438219428062439,-0.06458161026239395
1695713526513151200,30.794151123046873,-1.0876342058181763,-0.8150598406791687,-0.04114580899477005
1695713526523185200,30.80418505859375,-1.1121352910995483,-0.8033419251441956,-0.0858868807554245
1695713526533205200,30.814205322265625,-1.1025478839874268,-0.7735145688056946,-0.18162745237350464
1695713526543237600,30.824237548828126,-1.1025478839874268,-0.7564703226089478,-0.287088543176651
1695713526553268700,30.834268798828123,-1.118526816368103,-0.7703187465667725,-0.3243727684020996
1695713526563301000,30.844301025390624,-1.1078741550445557,-0.8246471881866455,-0.30732855200767517
1695713526573311200,30.854311279296876,-1.1046783924102783,-0.8065377473831177,-0.1837579756975174
1695713526583341300,30.86434130859375,-1.0695246458053589,-0.7085334658622742,-0.047537390142679214
1695713526593398300,30.874398193359376,-0.9811078310012817,-0.633965015411377,-0.051798444241285324
1695713526603431200,30.88443115234375,-0.8990825414657593,-0.7532745599746704,-0.08162582665681839
1695713526613459200,30.894459228515625,-0.8852340579032898,-0.8725841045379639,-0.047537390142679214
1695713526623491600,30.90449169921875,-0.9065393805503845,-0.9418262243270874,0.021704746410250664
1695713526633530400,30.9145302734375,-0.9289098978042603,-0.9354346394538879,0.04301001876592636
1695713526643563300,30.924563232421875,-0.9395625591278076,-0.9555414915084839,-0.0006657897611148655
1695713526653593900,30.93459375,-0.9086698889732361,-0.8715187907218933,-0.02197106182575226
1695713526663626500,30.94462646484375,-0.8958867192268372,-0.6787061095237732,0.020639482885599136
1695713526673651200,30.954651123046876,-0.8532761931419373,-0.5061333775520325,0.08988162130117416
1695713526683682800,30.964682861328125,-0.8096003532409668,-0.3922833502292633,0.1964079886674881
1695713526693718300,30.97471826171875,-0.7724493145942688,-0.3890875577926636,0.3082606792449951
1695713526703750400,30.98475048828125,-0.7404913902282715,-0.42197754979133606,0.4125233590602875
1695713526713783600,30.994783447265625,-0.7000113725662231,-0.4539354741573334,0.47537389397621155
1695713526723815700,31.004815673828126,-0.6510092616081238,-0.49228495359420776,0.47430863976478577
1695713526733854500,31.0148544921875,-0.6190513372421265,-0.46884915232658386,0.42850229144096375
1695713526743887600,31.0248876953125,-0.6030724048614502,-0.44967442750930786,0.3380880355834961
1695713526753909200,31.0349091796875,-0.6073334217071533,-0.508263885974884,0.24114905297756195
1695713526763941000,31.044941162109374,-0.5998765826225281,-0.5306344628334045,0.17510271072387695
1695713526773975800,31.054975830078124,-0.575375497341156,-0.5721797347068787,0.11225215345621109
1695713526784152600,31.065152587890626,-0.5295692086219788,-0.5838976502418518,0.08029424399137497
1695713526794184400,31.075184326171875,-0.480567067861557,-0.6083986759185791,0.03874896466732025
1695713526804210400,31.08521044921875,-0.43689125776290894,-0.6360955238342285,-0.0294279083609581
1695713526814242600,31.09524267578125,-0.41665124893188477,-0.7671229839324951,-0.08482161909341812
1695713526824301600,31.105301513671876,-0.44647863507270813,-0.885367214679718,-0.09440898895263672
1695713526834336500,31.11533642578125,-0.49335023760795593,-0.8896282911300659,-0.11251847445964813
1695713526844371500,31.125371337890623,-0.5508744716644287,-0.8267777562141418,-0.14966954290866852
1695713526854233900,31.13523388671875,-0.5934849977493286,-0.7298387289047241,-0.19973693788051605
1695713526864255200,31.145255126953124,-0.6286386847496033,-0.5689839720726013,-0.2551306486129761
1695713526874291000,31.155291015625,-0.6616618633270264,-0.3880222737789154,-0.2998717129230499
1695713526884313600,31.165313720703125,-0.6989461183547974,-0.23036326467990875,-0.3051980435848236
1695713526894361600,31.175361572265626,-0.7372955679893494,-0.14514216780662537,-0.28921908140182495
1695713526904386800,31.18538671875,-0.7532745599746704,-0.1249021589756012,-0.2071937769651413
1695713526914420000,31.195419921875,-0.7756450772285461,-0.15153375267982483,-0.10825742036104202
1695713526924446000,31.205446044921874,-0.779906153678894,-0.1771000772714615,-0.04221107065677643
1695713526934503400,31.21550341796875,-0.7586008906364441,-0.13129374384880066,-0.005992108024656773
1695713526944532700,31.22553271484375,-0.7319692969322205,-0.06631266325712204,-0.02516685426235199
1695713526954557000,31.235556884765625,-0.7021418809890747,-0.004527370445430279,-0.07310371845960617
1695713526964585700,31.245585693359374,-0.6776408553123474,0.029561065137386322,-0.1368863731622696
1695713526974616000,31.255615966796874,-0.6328997611999512,0.002929474925622344,-0.19228008389472961
1695713526984644900,31.265644775390626,-0.5551354885101318,0.021038956940174103,-0.22210747003555298
1695713526994685700,31.275685791015626,-0.4581965208053589,0.08282424509525299,-0.23702116310596466
1695713527004715500,31.285715576171874,-0.38043227791786194,0.12223900109529495,-0.26684853434562683
1695713527014746600,31.29574658203125,-0.3154512047767639,0.1657816469669342,-0.2348906397819519
1695713527024776700,31.305776611328124,-0.28988486528396606,0.1806953400373459,-0.20399798452854156
1695713527034823400,31.315823486328124,-0.26338642835617065,0.1849564015865326,-0.18908429145812988
1695713527044855300,31.325855224609374,-0.23675484955310822,0.1806953400373459,-0.2167811542749405
1695713527054877400,31.33587744140625,-0.23036326467990875,0.1380847990512848,-0.2956106662750244
1695713527064908500,31.345908447265625,-0.24634221196174622,0.11371689289808273,-0.3989412188529968
1695713527074936300,31.355936279296873,-0.25060325860977173,0.15299849212169647,-0.47670549154281616
1695713527084967000,31.365966796875,-0.23568958044052124,0.23289325833320618,-0.5480781197547913
1695713527095000800,31.376000732421875,-0.14620743691921234,0.3596596419811249,-0.5289034247398376
1695713527105031700,31.38603173828125,-0.06205160543322563,0.4704470634460449,-0.47670549154281616
1695713527115069000,31.39606884765625,0.028495801612734795,0.46938177943229675,-0.4191812574863434
1695713527125100300,31.406100341796876,0.05725792050361633,0.4395544230937958,-0.3201117217540741
1695713527135142700,31.416142578125,0.06578002870082855,0.37989965081214905,-0.24660852551460266
1695713527145175300,31.42617529296875,0.10732531547546387,0.2648511826992035,-0.15180006623268127
1695713527155198000,31.436197998046875,0.10732531547546387,0.1009337306022644,-0.10186583548784256
1695713527165229600,31.4462294921875,0.09347688406705856,-0.03755054250359535,-0.05712476372718811
1695713527175248600,31.45624853515625,0.04340949282050133,-0.1579253375530243,-0.16777902841567993
1695713527185279000,31.466279052734375,0.06578002870082855,-0.2239716798067093,-0.23595589399337769
1695713527195328000,31.476327880859376,0.10306425392627716,-0.2857569754123688,-0.26152223348617554
1695713527205360000,31.486360107421874,0.11584742367267609,-0.25806012749671936,-0.28069695830345154
