time,seconds_elapsed,z,y,x
1695712492027172400,0.18417236328125,1.4569091796875,-0.368499755859375,-2.030487060546875
1695712492036724500,0.193724365234375,1.561431884765625,-0.375518798828125,-1.756439208984375
1695712492046276400,0.2032763671875,1.54998779296875,-0.147705078125,-1.394500732421875
1695712492055828500,0.212828369140625,1.4215087890625,0.17059326171875,-1.013031005859375
1695712492065380400,0.22238037109375,1.230010986328125,0.322723388671875,-0.731048583984375
1695712492074901800,0.23190185546875,1.019439697265625,0.04791259765625,-0.632171630859375
1695712492084454000,0.241453857421875,0.80810546875,-0.51666259765625,-0.738983154296875
1695712492094005800,0.251005859375,0.613555908203125,-0.92498779296875,-0.948028564453125
1695712492103558000,0.260557861328125,0.500946044921875,-1.036834716796875,-1.20849609375
1695712492113079300,0.270079345703125,0.567474365234375,-1.025543212890625,-1.451873779296875
1695712492122631400,0.27963134765625,0.69427490234375,-1.047515869140625,-1.6485595703125
1695712492132183300,0.289183349609375,0.78704833984375,-1.178741455078125,-1.788787841796875
1695712492141735400,0.2987353515625,0.7464599609375,-1.473541259765625,-1.85760498046875
1695712492151256800,0.3082568359375,0.458984375,-1.70440673828125,-1.8499755859375
1695712492160809000,0.31780908203125,0.09918212890625,-1.754302978515625,-1.62841796875
1695712492170360800,0.32736083984375,-0.208587646484375,-1.865081787109375,-1.2384033203125
1695712492179913000,0.336912841796875,-0.413970947265625,-1.841278076171875,-0.666046142578125
1695712492189464800,0.34646484375,-0.477142333984375,-1.823883056640625,0.088653564453125
1695712492198986200,0.355986328125,-0.443878173828125,-1.781768798828125,0.96435546875
1695712492208538400,0.365538330078125,-0.413970947265625,-1.775665283203125,1.826324462890625
1695712492218090200,0.37509033203125,-0.397491455078125,-1.9610595703125,2.557525634765625
1695712492227642400,0.384642333984375,-0.34637451171875,-2.2918701171875,3.0914306640625
1695712492237163800,0.394163818359375,-0.2728271484375,-2.502593994140625,3.39080810546875
1695712492246716000,0.4037158203125,-0.195159912109375,-2.508087158203125,3.43109130859375
1695712492256267800,0.413267822265625,-0.149993896484375,-2.7264404296875,3.194732666015625
1695712492265820000,0.42281982421875,-0.163726806640625,-3.1146240234375,2.7313232421875
1695712492275341300,0.43234130859375,-0.218353271484375,-3.47198486328125,2.113189697265625
1695712492284893400,0.4418935546875,-0.2728271484375,-3.692169189453125,1.420135498046875
1695712492294445300,0.4514453125,-0.263671875,-3.53973388671875,0.774688720703125
1695712492303997400,0.46099755859375,-0.183563232421875,-2.902374267578125,0.25390625
1695712492313518800,0.470518798828125,0.09490966796875,-1.902618408203125,-0.191650390625
1695712492323101400,0.480101318359375,1.005401611328125,-0.65673828125,-0.690765380859375
1695712492332653300,0.4896533203125,2.274017333984375,0.17578125,-1.2335205078125
1695712492342205400,0.499205322265625,2.8460693359375,0.5548095703125,-1.718902587890625
1695712492351757300,0.50875732421875,2.788848876953125,0.644073486328125,-2.093048095703125
1695712492361278700,0.51827880859375,2.59033203125,0.48980712890625,-2.26959228515625
1695712492370830800,0.527830810546875,2.397003173828125,0.1873779296875,-2.239990234375
1695712492380382700,0.5373828125,2.2747802734375,-0.087738037109375,-2.024383544921875
1695712492389934800,0.546934814453125,2.25250244140625,-0.29388427734375,-1.685943603515625
1695712492399456300,0.556456298828125,2.255859375,-0.365753173828125,-1.309661865234375
1695712492409008400,0.56600830078125,2.138671875,-0.374908447265625,-0.973663330078125
1695712492418560300,0.575560302734375,1.90704345703125,-0.382843017578125,-0.765838623046875
1695712492428112400,0.5851123046875,1.700592041015625,-0.57281494140625,-0.702667236328125
1695712492437633800,0.5946337890625,1.628875732421875,-0.800323486328125,-0.657196044921875
1695712492447186000,0.60418603515625,1.674346923828125,-1.01531982421875,-0.5322265625
1695712492456737800,0.61373779296875,1.688995361328125,-1.181793212890625,-0.311126708984375
1695712492466290000,0.6232900390625,1.52801513671875,-1.20635986328125,-0.016632080078125
1695712492475811300,0.632811279296875,1.218719482421875,-1.22772216796875,0.2801513671875
1695712492485363200,0.64236328125,0.955657958984375,-1.424102783203125,0.53863525390625
1695712492494915300,0.651915283203125,0.859832763671875,-1.697998046875,0.759735107421875
1695712492504467200,0.66146728515625,0.879669189453125,-1.804656982421875,0.93841552734375
1695712492513988900,0.67098876953125,0.919342041015625,-1.64703369140625,1.053619384765625
1695712492523540700,0.680540771484375,0.942840576171875,-1.2615966796875,1.082611083984375
1695712492533092900,0.6900927734375,1.003265380859375,-0.844573974609375,1.00372314453125
1695712492542644700,0.699644775390625,1.13311767578125,-0.48980712890625,0.83770751953125
1695712492552166100,0.709166259765625,1.295318603515625,-0.252685546875,0.63232421875
1695712492561718300,0.71871826171875,1.367340087890625,-0.2447509765625,0.432281494140625
1695712492571270100,0.728270263671875,1.338348388671875,-0.406951904296875,0.29144287109375
1695712492580822300,0.737822265625,1.253814697265625,-0.61126708984375,0.26947021484375
1695712492590374400,0.74737451171875,1.201019287109375,-0.822601318359375,0.397491455078125
1695712492599895800,0.756895751953125,1.251068115234375,-0.98663330078125,0.680694580078125
1695712492609478400,0.766478515625,1.345062255859375,-1.01470947265625,1.089630126953125
1695712492619030300,0.7760302734375,1.42364501953125,-0.99884033203125,1.5594482421875
1695712492628582400,0.78558251953125,1.44317626953125,-0.9869384765625,2.00408935546875
1695712492638103800,0.795103759765625,1.42242431640625,-1.075897216796875,2.3565673828125
1695712492647655700,0.80465576171875,1.3824462890625,-1.3494873046875,2.571258544921875
1695712492657207800,0.814207763671875,1.267547607421875,-1.61956787109375,2.621612548828125
1695712492666759700,0.823759765625,1.1480712890625,-1.909637451171875,2.575836181640625
1695712492676281300,0.83328125,1.023406982421875,-2.143707275390625,2.572174072265625
1695712492685833200,0.842833251953125,0.871734619140625,-2.114410400390625,2.71636962890625
1695712492695385300,0.85238525390625,0.68328857421875,-1.797332763671875,2.977447509765625
1695712492704937200,0.861937255859375,0.42327880859375,-1.3446044921875,3.247222900390625
1695712492714458600,0.871458740234375,0.153350830078125,-0.872802734375,3.40667724609375
1695712492724010800,0.8810107421875,-0.01861572265625,-0.351715087890625,3.38287353515625
1695712492733562600,0.890562744140625,-0.02410888671875,-0.090179443359375,3.0126953125
1695712492743114800,0.90011474609375,0.106201171875,-0.1678466796875,2.141876220703125
1695712492752667000,0.9096669921875,0.233917236328125,0.06378173828125,1.361083984375
1695712492762188300,0.919188232421875,0.31982421875,0.4266357421875,0.9149169921875
1695712492771740200,0.928740234375,0.44403076171875,0.52459716796875,0.679473876953125
1695712492781292300,0.938292236328125,0.572052001953125,0.4864501953125,0.59478759765625
1695712492790844200,0.94784423828125,0.70343017578125,0.428466796875,0.635986328125
1695712492800365800,0.95736572265625,0.856170654296875,0.328216552734375,0.760650634765625
1695712492809917700,0.966917724609375,1.025390625,0.238800048828125,0.9576416015625
1695712492819469800,0.9764697265625,1.213226318359375,0.1593017578125,1.20758056640625
1695712492829021700,0.986021728515625,1.325225830078125,0.062255859375,1.449737548828125
1695712492838543000,0.995543212890625,1.250457763671875,-0.135498046875,1.6204833984375
1695712492848095200,1.00509521484375,1.09832763671875,-0.286865234375,1.67266845703125
1695712492857647000,1.014647216796875,1.024627685546875,-0.349578857421875,1.580810546875
1695712492867199200,1.02419921875,1.03240966796875,-0.324859619140625,1.384124755859375
1695712492876720600,1.033720703125,1.20208740234375,-0.2728271484375,1.153106689453125
1695712492886272800,1.043272705078125,1.4886474609375,-0.23040771484375,0.9466552734375
1695712492895855000,1.052855224609375,1.80328369140625,-0.352325439453125,0.755462646484375
1695712492905407200,1.0624072265625,2.081146240234375,-0.685577392578125,0.4949951171875
1695712492914928600,1.0719287109375,2.087249755859375,-1.074066162109375,0.19805908203125
1695712492924480800,1.081480712890625,1.8341064453125,-1.421356201171875,0.018768310546875
1695712492934032600,1.09103271484375,1.47003173828125,-1.820220947265625,-0.025482177734375
1695712492943584800,1.100584716796875,1.06231689453125,-2.235870361328125,-0.019989013671875
1695712492953136600,1.11013671875,0.81512451171875,-2.494354248046875,-0.05096435546875
1695712492962658300,1.119658203125,0.615692138671875,-2.31353759765625,-0.14007568359375
1695712492972210200,1.129210205078125,0.253143310546875,-2.06390380859375,-0.261077880859375
1695712492981762300,1.13876220703125,-0.068511962890625,-1.97418212890625,-0.327606201171875
1695712492991309300,1.148309326171875,-0.035400390625,-2.0489501953125,-0.279693603515625
1695712493000830700,1.157830810546875,0.35491943359375,-1.891021728515625,-0.13397216796875
1695712493010382800,1.1673828125,0.73028564453125,-1.71600341796875,0.047454833984375
1695712493019934700,1.176934814453125,1.190185546875,-1.3751220703125,0.16754150390625
1695712493029486800,1.18648681640625,1.500244140625,-1.3824462890625,0.084075927734375
1695712493039008300,1.19600830078125,1.48162841796875,-1.811370849609375,-0.179443359375
1695712493048560000,1.20556005859375,1.263885498046875,-1.914215087890625,-0.283050537109375
1695712493058112300,1.2151123046875,0.848846435546875,-1.72119140625,-0.1751708984375
1695712493067664100,1.2246640625,0.485992431640625,-1.058502197265625,0.092315673828125
1695712493077185800,1.234185791015625,0.288238525390625,-0.49163818359375,0.347442626953125
1695712493086737700,1.243737548828125,0.168914794921875,-0.14434814453125,0.48309326171875
1695712493096289800,1.253289794921875,-0.03173828125,-0.15106201171875,0.366668701171875
1695712493105841700,1.262841552734375,-0.3070068359375,-0.2874755859375,-0.016326904296875
1695712493115363300,1.27236328125,-0.37200927734375,-0.460968017578125,-0.287628173828125
1695712493124915200,1.281915283203125,-0.29876708984375,-0.668182373046875,-0.355987548828125
1695712493134467300,1.29146728515625,-0.199737548828125,-0.850830078125,-0.2313232421875
1695712493144019200,1.301019287109375,-0.0067138671875,-0.96405029296875,0.074005126953125
1695712493153571300,1.3105712890625,0.242767333984375,-0.99395751953125,0.442047119140625
1695712493163092700,1.3200927734375,0.384521484375,-0.89385986328125,0.64910888671875
1695712493172644600,1.32964453125,0.44403076171875,-0.6463623046875,0.64971923828125
1695712493182196700,1.33919677734375,0.479583740234375,-0.379791259765625,0.4864501953125
1695712493191779300,1.348779296875,0.490570068359375,-0.17730712890625,0.24261474609375
1695712493201300700,1.35830078125,0.516204833984375,-0.16632080078125,0.13641357421875
1695712493210852600,1.3678525390625,0.576324462890625,-0.375823974609375,0.233154296875
1695712493220404700,1.37740478515625,0.573577880859375,-0.625,0.383453369140625
1695712493229956600,1.38695654296875,0.486297607421875,-0.807037353515625,0.54046630859375
1695712493239478300,1.396478271484375,0.4071044921875,-0.85693359375,0.704803466796875
1695712493249030100,1.406030029296875,0.39398193359375,-0.783233642578125,0.928955078125
1695712493258582300,1.415582275390625,0.4345703125,-0.6640625,1.2432861328125
1695712493268134100,1.425134033203125,0.481414794921875,-0.50506591796875,1.61865234375
1695712493277655800,1.43465576171875,0.496978759765625,-0.3009033203125,2.04742431640625
1695712493287207700,1.444207763671875,0.503387451171875,-0.079193115234375,2.577362060546875
1695712493296759800,1.453759765625,0.6793212890625,0.1580810546875,3.310699462890625
1695712493306311700,1.463311767578125,1.1553955078125,0.19439697265625,4.005889892578125
1695712493315833000,1.4728330078125,1.8695068359375,0.21331787109375,4.505615234375
1695712493325385200,1.48238525390625,2.665863037109375,0.240325927734375,4.771270751953125
1695712493334937000,1.49193701171875,3.34808349609375,0.294952392578125,4.790496826171875
1695712493344489200,1.5014892578125,3.9227294921875,0.350799560546875,4.60418701171875
1695712493354041000,1.511041015625,4.27581787109375,0.18157958984375,4.294891357421875
1695712493363562800,1.520562744140625,4.40399169921875,-0.17059326171875,3.974151611328125
1695712493373114600,1.530114501953125,4.39239501953125,-0.734100341796875,3.7823486328125
1695712493382666800,1.539666748046875,4.431304931640625,-1.515350341796875,3.77044677734375
1695712493392188200,1.549188232421875,4.471893310546875,-2.2906494140625,3.903045654296875
1695712493401740300,1.558740234375,4.412841796875,-3.0657958984375,4.1522216796875
1695712493411292200,1.568292236328125,4.28924560546875,-3.7908935546875,4.478759765625
1695712493420844300,1.57784423828125,4.33563232421875,-4.030609130859375,4.80255126953125
1695712493430396200,1.587396240234375,4.67437744140625,-3.701019287109375,5.077056884765625
1695712493439917600,1.59691748046875,5.06500244140625,-3.244171142578125,5.224609375
1695712493449469700,1.6064697265625,5.237884521484375,-3.225860595703125,5.006256103515625
1695712493459021600,1.616021484375,4.102630615234375,-5.673828125,2.6318359375
1695712493468573700,1.62557373046875,2.400970458984375,-7.627105712890625,-0.89385986328125
1695712493478125600,1.63512548828125,1.931610107421875,-6.488800048828125,-2.68768310546875
1695712493487677700,1.644677734375,2.25067138671875,-3.88031005859375,-2.71942138671875
1695712493497229600,1.6542294921875,2.53997802734375,-1.045379638671875,-1.303863525390625
1695712493506781700,1.66378173828125,2.5494384765625,0.11810302734375,0.084075927734375
1695712493516303000,1.67330322265625,2.633514404296875,-0.4815673828125,0.579833984375
1695712493525855200,1.682855224609375,2.769927978515625,-1.37298583984375,0.428314208984375
1695712493535407000,1.692406982421875,2.8961181640625,-1.515045166015625,0.23651123046875
1695712493544959200,1.701959228515625,2.92877197265625,-1.043243408203125,0.1727294921875
1695712493554511000,1.711510986328125,2.60772705078125,0.308990478515625,0.88104248046875
1695712493564032800,1.72103271484375,1.890869140625,1.5704345703125,2.34527587890625
1695712493573584600,1.730584716796875,1.599273681640625,0.90423583984375,2.823944091796875
1695712493583136800,1.74013671875,1.677398681640625,-1.539154052734375,1.120452880859375
1695712493592688600,1.749688720703125,1.74713134765625,-2.33917236328125,-0.83648681640625
1695712493602210000,1.7592099609375,1.920013427734375,-1.3232421875,-1.51519775390625
1695712493611762200,1.76876220703125,2.087554931640625,-0.436859130859375,-1.024322509765625
1695712493621314000,1.77831396484375,2.15057373046875,-0.062103271484375,-0.081787109375
1695712493630866200,1.7878662109375,2.1923828125,0.1531982421875,0.5657958984375
1695712493640387600,1.7973876953125,2.48138427734375,0.494384765625,0.52978515625
1695712493649939700,1.806939697265625,3.212890625,0.85479736328125,-0.024871826171875
1695712493659491600,1.81649169921875,4.28314208984375,0.911865234375,-0.695953369140625
1695712493669043700,1.826043701171875,4.99603271484375,0.991668701171875,-1.14654541015625
1695712493678565000,1.835565185546875,4.97528076171875,0.9197998046875,-1.27593994140625
1695712493688117000,1.845116943359375,4.472503662109375,0.1470947265625,-1.19232177734375
1695712493697669000,1.854669189453125,3.893280029296875,-0.90972900390625,-1.070709228515625
1695712493707221000,1.864220947265625,3.6285400390625,-1.513519287109375,-0.8935546875
1695712493716742700,1.87374267578125,3.69354248046875,-1.3592529296875,-0.728607177734375
1695712493726294500,1.88329443359375,3.883514404296875,-0.701141357421875,-0.666046142578125
1695712493735846700,1.8928466796875,3.919677734375,-0.15411376953125,-0.5096435546875
1695712493745398500,1.9023984375,3.603515625,0.1800537109375,-0.12054443359375
1695712493754950700,1.91195068359375,3.2696533203125,0.772705078125,0.088043212890625
1695712493764502500,1.92150244140625,2.8741455078125,1.583251953125,-0.022125244140625
1695712493774054700,1.9310546875,2.5311279296875,1.96441650390625,-0.302886962890625
1695712493783606500,1.9406064453125,2.23846435546875,2.152557373046875,-0.482177734375
1695712493793158700,1.95015869140625,1.78314208984375,2.534027099609375,-0.5487060546875
1695712493802680000,1.95968017578125,1.269989013671875,3.02825927734375,-0.740509033203125
1695712493812232200,1.969232177734375,0.921478271484375,2.60009765625,-0.618743896484375
1695712493821784000,1.9787841796875,0.628814697265625,0.736236572265625,-0.20355224609375
1695712493831336200,1.988336181640625,0.67901611328125,-1.639404296875,0.318450927734375
1695712493840857600,1.997857666015625,1.13433837890625,-2.614593505859375,0.64117431640625
1695712493850409500,2.007409423828125,1.49871826171875,-1.897125244140625,0.708770751953125
1695712493859961600,2.016961669921875,1.568450927734375,-0.399627685546875,0.826263427734375
1695712493869513500,2.026513427734375,1.44317626953125,0.742340087890625,1.00677490234375
1695712493879035100,2.03603515625,1.41021728515625,0.997161865234375,0.98541259765625
1695712493888587000,2.0455869140625,1.50482177734375,0.649261474609375,0.831146240234375
1695712493898139100,2.05513916015625,1.737213134765625,-0.22064208984375,0.764312744140625
1695712493907691000,2.06469091796875,2.075653076171875,-1.136322021484375,0.85601806640625
1695712493917212700,2.074212646484375,2.334136962890625,-1.398162841796875,0.9698486328125
1695712493926764500,2.0837646484375,2.393951416015625,-1.37542724609375,0.99273681640625
1695712493936316700,2.093316650390625,2.26226806640625,-1.385650634765625,0.943603515625
1695712493945868500,2.10286865234375,2.20733642578125,-0.953369140625,0.825653076171875
1695712493955420700,2.112420654296875,2.27294921875,-0.381622314453125,0.714874267578125
1695712493964942000,2.121942138671875,2.382965087890625,-0.53924560546875,0.666961669921875
1695712493974494000,2.131493896484375,2.52288818359375,-1.007080078125,0.695037841796875
1695712493984046000,2.141046142578125,2.671356201171875,-1.2567138671875,0.826568603515625
1695712493993598000,2.150597900390625,2.783050537109375,-1.32568359375,0.94329833984375
1695712494003119600,2.16011962890625,2.816162109375,-1.6351318359375,0.921630859375
1695712494012671500,2.16967138671875,2.88360595703125,-1.251220703125,0.87860107421875
1695712494022223600,2.1792236328125,2.643280029296875,-0.623779296875,0.726470947265625
1695712494031775500,2.188775390625,2.196044921875,-0.782012939453125,0.89385986328125
1695712494041327600,2.19832763671875,1.247100830078125,-2.236175537109375,1.448822021484375
1695712494050879500,2.20787939453125,-0.121612548828125,-3.03680419921875,1.485137939453125
1695712494060431600,2.217431640625,-1.124114990234375,-1.57379150390625,0.91339111328125
1695712494069983500,2.2269833984375,-1.688232421875,-0.103607177734375,0.436248779296875
1695712494079505200,2.236505126953125,-1.633758544921875,-0.205078125,0.095367431640625
1695712494089057000,2.24605712890625,-1.3775634765625,-0.55908203125,1.3140869140625
1695712494098609200,2.255609130859375,-1.278533935546875,-0.98602294921875,2.459564208984375
1695712494108161000,2.2651611328125,-1.33087158203125,-0.64910888671875,2.452239990234375
1695712494117682400,2.274682373046875,-1.40838623046875,0.659332275390625,2.223358154296875
1695712494127234600,2.284234619140625,-1.3714599609375,1.9561767578125,2.31201171875
1695712494136786400,2.293786376953125,-1.402587890625,2.778778076171875,2.35687255859375
1695712494146338600,2.303338623046875,-1.882476806640625,2.27569580078125,1.92108154296875
1695712494155860000,2.31285986328125,-2.55706787109375,0.39520263671875,0.763702392578125
1695712494165412000,2.322412109375,-2.54669189453125,-0.985107421875,-0.292816162109375
1695712494174964000,2.3319638671875,-1.297149658203125,-0.655517578125,-0.629730224609375
1695712494184516000,2.34151611328125,0.03143310546875,0.360870361328125,-0.20965576171875
1695712494194068000,2.35106787109375,0.1031494140625,0.8233642578125,0.012359619140625
1695712494203589600,2.360589599609375,-0.335693359375,0.289154052734375,-0.17913818359375
1695712494213141500,2.3701416015625,-0.151519775390625,-0.2606201171875,-0.50445556640625
1695712494222693600,2.379693603515625,0.11199951171875,-0.365753173828125,-0.79345703125
1695712494232245500,2.38924560546875,0.240325927734375,0.021209716796875,-1.004791259765625
1695712494241767000,2.398766845703125,0.3631591796875,0.391998291015625,-1.146240234375
1695712494251319000,2.408319091796875,0.46417236328125,0.46539306640625,-1.320953369140625
1695712494260871000,2.417870849609375,0.45501708984375,0.45928955078125,-1.62384033203125
1695712494270423000,2.427423095703125,0.32623291015625,0.378265380859375,-2.01202392578125
1695712494279944400,2.4369443359375,0.11444091796875,0.181884765625,-2.406768798828125
1695712494289496600,2.44649658203125,-0.116119384765625,-0.063934326171875,-2.770233154296875
1695712494299048400,2.45604833984375,-0.279541015625,-0.19439697265625,-3.09600830078125
1695712494308600600,2.4656005859375,-0.35369873046875,-0.1812744140625,-3.3856201171875
1695712494318152400,2.47515234375,-0.37933349609375,-0.096282958984375,-3.64166259765625
1695712494327704600,2.48470458984375,-0.428924560546875,-0.063934326171875,-3.8018798828125
1695712494337256400,2.49425634765625,-0.556488037109375,-0.264892578125,-3.71337890625
1695712494346808600,2.50380859375,-0.628662109375,-0.5731201171875,-3.476715087890625
1695712494356360400,2.5133603515625,-0.59967041015625,-0.8795166015625,-3.237457275390625
1695712494365882000,2.522882080078125,-0.6378173828125,-1.123809814453125,-2.9718017578125
1695712494375434000,2.53243408203125,-0.401763916015625,-0.8990478515625,-2.25189208984375
1695712494384986000,2.541986083984375,-0.051422119140625,-0.453338623046875,-1.55670166015625
1695712494394538000,2.5515380859375,0.207977294921875,-0.267333984375,-1.327056884765625
1695712494404059400,2.561059326171875,0.30731201171875,0.167236328125,-1.481170654296875
1695712494413611500,2.570611572265625,0.31494140625,0.739898681640625,-1.699066162109375
1695712494423163400,2.580163330078125,0.35369873046875,1.102447509765625,-1.825408935546875
1695712494432715500,2.589715576171875,0.36590576171875,1.321563720703125,-1.8548583984375
1695712494442237000,2.59923681640625,0.36895751953125,1.361541748046875,-1.810760498046875
1695712494451789000,2.6087890625,0.36529541015625,1.16912841796875,-1.687774658203125
1695712494461341000,2.6183408203125,0.36529541015625,0.86944580078125,-1.49139404296875
1695712494470893000,2.62789306640625,0.3729248046875,0.5633544921875,-1.24542236328125
1695712494480414500,2.63741455078125,0.4046630859375,0.381011962890625,-0.996551513671875
1695712494489966600,2.646966552734375,0.44708251953125,0.338287353515625,-0.79986572265625
1695712494499518500,2.6565185546875,0.48065185546875,0.355987548828125,-0.668792724609375
1695712494509070600,2.666070556640625,0.481414794921875,0.421142578125,-0.5767822265625
1695712494518592000,2.675592041015625,0.4376220703125,0.5084228515625,-0.51544189453125
1695712494528144000,2.685143798828125,0.36956787109375,0.590667724609375,-0.4730224609375
1695712494537696000,2.694696044921875,0.3009033203125,0.643768310546875,-0.42755126953125
1695712494547247900,2.704247802734375,0.236968994140625,0.660247802734375,-0.364227294921875
1695712494556800000,2.713800048828125,0.185394287109375,0.638275146484375,-0.271759033203125
1695712494566321400,2.7233212890625,0.140533447265625,0.584564208984375,-0.13946533203125
1695712494575873500,2.73287353515625,0.0933837890625,0.50079345703125,0.038299560546875
1695712494585425400,2.74242529296875,0.04058837890625,0.40283203125,0.24932861328125
1695712494594977500,2.7519775390625,-0.0152587890625,0.300445556640625,0.474090576171875
1695712494604499000,2.7614990234375,-0.068511962890625,0.2203369140625,0.697174072265625
1695712494614081500,2.77108154296875,-0.117034912109375,0.17242431640625,0.91156005859375
1695712494623633400,2.78063330078125,-0.157623291015625,0.1666259765625,1.113433837890625
1695712494633185500,2.790185546875,-0.187835693359375,0.20599365234375,1.30126953125
1695712494642707000,2.79970703125,-0.205230712890625,0.293426513671875,1.463165283203125
1695712494652259000,2.809259033203125,-0.194549560546875,0.42510986328125,1.58538818359375
1695712494661811000,2.81881103515625,-0.139923095703125,0.598602294921875,1.63970947265625
1695712494671363000,2.828363037109375,-0.046539306640625,0.8172607421875,1.5869140625
1695712494680884500,2.837884521484375,0.06378173828125,1.092376708984375,1.3702392578125
1695712494690436400,2.847436279296875,0.182037353515625,1.326751708984375,0.97991943359375
1695712494699988500,2.856988525390625,0.306549072265625,1.373443603515625,0.436553955078125
1695712494709540400,2.866540283203125,0.4620361328125,1.18988037109375,-0.262603759765625
1695712494719092500,2.876092529296875,0.66314697265625,0.79803466796875,-0.981903076171875
1695712494728614000,2.88561376953125,0.81298828125,0.263824462890625,-1.423492431640625
1695712494738166000,2.895166015625,0.861358642578125,-0.20538330078125,-1.4898681640625
1695712494747718000,2.9047177734375,0.7806396484375,-0.473785400390625,-1.319732666015625
1695712494757270000,2.91427001953125,0.621185302734375,-0.457305908203125,-1.076202392578125
1695712494766791400,2.92379150390625,0.490570068359375,-0.122222900390625,-0.87127685546875
1695712494776343600,2.933343505859375,0.34637451171875,0.298614501953125,-0.673370361328125
1695712494785895400,2.9428955078125,0.174102783203125,0.602874755859375,-0.395355224609375
1695712494795447600,2.952447509765625,-0.02532958984375,0.85174560546875,-0.027008056640625
1695712494804969000,2.961968994140625,-0.3173828125,1.000518798828125,0.392303466796875
1695712494814520800,2.971520751953125,-0.6011962890625,1.000823974609375,0.88897705078125
1695712494824073000,2.981072998046875,-0.6884765625,0.639190673828125,1.324462890625
1695712494833624800,2.990624755859375,-0.444183349609375,-0.23406982421875,1.25396728515625
1695712494843146500,3.000146484375,-0.01312255859375,-0.698394775390625,0.437164306640625
1695712494852698400,3.009698486328125,0.140838623046875,-0.16845703125,-0.265655517578125
1695712494862250500,3.01925048828125,0.131683349609375,0.394134521484375,-0.262298583984375
1695712494871802400,3.02880224609375,0.02197265625,0.096435546875,0.350189208984375
1695712494881323800,3.03832373046875,-0.149383544921875,-0.731964111328125,1.195526123046875
1695712494890876000,3.0478759765625,-0.3125,-1.30767822265625,1.811676025390625
1695712494900458500,3.05745849609375,-0.544891357421875,-1.20391845703125,1.96533203125
1695712494910010400,3.06701025390625,-0.6549072265625,-0.356292724609375,1.7230224609375
1695712494919532000,3.076531982421875,-0.544281005859375,0.709991455078125,1.392974853515625
1695712494929084000,3.086083984375,-0.3363037109375,1.390228271484375,1.28631591796875
1695712494938636000,3.095635986328125,-0.111236572265625,1.418304443359375,1.3287353515625
1695712494948188000,3.10518798828125,0.054931640625,0.79833984375,1.280517578125
1695712494957740000,3.114739990234375,0.193328857421875,0.150146484375,1.125640869140625
1695712494967261400,3.124261474609375,0.361328125,-0.321197509765625,0.99822998046875
1695712494976813300,3.133813232421875,0.46905517578125,-0.700836181640625,1.027679443359375
1695712494986365400,3.143365478515625,0.47760009765625,-0.94451904296875,1.159515380859375
1695712494995917300,3.152917236328125,0.3839111328125,-1.072845458984375,1.26312255859375
1695712495005439000,3.16243896484375,0.233917236328125,-1.089324951171875,1.27349853515625
1695712495014990800,3.171990966796875,0.078125,-1.106719970703125,1.2078857421875
1695712495024543000,3.18154296875,-0.046844482421875,-1.142425537109375,1.109161376953125
1695712495034094800,3.1910947265625,-0.096588134765625,-1.21429443359375,1.032257080078125
1695712495043616300,3.2006162109375,-0.057830810546875,-1.25091552734375,1.024322509765625
1695712495053168400,3.21016845703125,0.01068115234375,-1.186676025390625,1.063995361328125
1695712495062720500,3.219720458984375,0.0494384765625,-1.015625,1.088409423828125
1695712495072272400,3.2292724609375,0.05035400390625,-0.784759521484375,1.077728271484375
1695712495081793800,3.238793701171875,0.030517578125,-0.55419921875,1.056976318359375
1695712495091346000,3.248345947265625,-0.00457763671875,-0.362701416015625,1.069793701171875
1695712495100897800,3.257897705078125,-0.066375732421875,-0.2935791015625,1.065521240234375
1695712495110450000,3.267449951171875,-0.117034912109375,-0.25238037109375,1.043548583984375
1695712495119971300,3.276971435546875,-0.141754150390625,-0.24139404296875,1.025543212890625
1695712495129523500,3.2865234375,-0.139923095703125,-0.28076171875,1.0162353515625
1695712495139075300,3.296075439453125,-0.137176513671875,-0.378570556640625,1.01409912109375
1695712495148627500,3.30562744140625,-0.160064697265625,-0.5291748046875,0.9808349609375
1695712495158179300,3.315179443359375,-0.196990966796875,-0.6292724609375,0.9246826171875
1695712495167700700,3.32470068359375,-0.199127197265625,-0.63201904296875,0.9539794921875
1695712495177252900,3.3342529296875,-0.194244384765625,-0.60577392578125,0.9954833984375
1695712495186804700,3.3438046875,-0.193939208984375,-0.5621337890625,1.01104736328125
1695712495196387300,3.35338720703125,-0.215301513671875,-0.582275390625,1.024627685546875
1695712495205908700,3.36290869140625,-0.26458740234375,-0.52825927734375,1.028900146484375
1695712495215460900,3.3724609375,-0.322265625,-0.402984619140625,1.022186279296875
1695712495225013000,3.382012939453125,-0.3570556640625,-0.348968505859375,0.99700927734375
1695712495234564900,3.39156494140625,-0.36712646484375,-0.346527099609375,0.95794677734375
1695712495244086300,3.401086181640625,-0.3656005859375,-0.355072021484375,0.9100341796875
1695712495253638400,3.410638427734375,-0.362548828125,-0.366668701171875,0.875244140625
1695712495263190300,3.420190185546875,-0.37078857421875,-0.392913818359375,0.832061767578125
1695712495272742400,3.429742431640625,-0.3900146484375,-0.401153564453125,0.780181884765625
1695712495282263800,3.439263916015625,-0.413055419921875,-0.374603271484375,0.720672607421875
1695712495291816000,3.44881591796875,-0.422210693359375,-0.344390869140625,0.63873291015625
1695712495301367800,3.458367919921875,-0.416107177734375,-0.324554443359375,0.5413818359375
1695712495310920000,3.467919921875,-0.39642333984375,-0.339813232421875,0.449371337890625
1695712495320471800,3.477471923828125,-0.3643798828125,-0.371856689453125,0.367279052734375
1695712495329993200,3.4869931640625,-0.32989501953125,-0.410614013671875,0.2850341796875
1695712495339545300,3.49654541015625,-0.29388427734375,-0.443267822265625,0.189208984375
1695712495349097200,3.50609716796875,-0.257568359375,-0.460052490234375,0.081329345703125
1695712495358649300,3.5156494140625,-0.23406982421875,-0.440826416015625,-0.022125244140625
1695712495368170800,3.525170654296875,-0.24810791015625,-0.374603271484375,-0.0994873046875
1695712495377723000,3.534722900390625,-0.31219482421875,-0.306854248046875,-0.16998291015625
1695712495387274800,3.544274658203125,-0.39154052734375,-0.26702880859375,-0.270233154296875
1695712495396827000,3.553826904296875,-0.409088134765625,-0.24627685546875,-0.411376953125
1695712495406348300,3.563348388671875,-0.316162109375,-0.23040771484375,-0.598297119140625
1695712495415900400,3.572900390625,-0.166778564453125,-0.15411376953125,-0.81390380859375
1695712495425452300,3.582452392578125,-0.0347900390625,0.037841796875,-1.064910888671875
1695712495435004400,3.59200439453125,0.0994873046875,0.304718017578125,-1.350860595703125
1695712495444525800,3.60152587890625,0.271148681640625,0.5267333984375,-1.664581298828125
1695712495454077700,3.61107763671875,0.3936767578125,0.629425048828125,-1.98272705078125
1695712495463629800,3.6206298828125,0.40679931640625,0.606536865234375,-2.32208251953125
1695712495473181700,3.630181640625,0.3515625,0.49530029296875,-2.669677734375
1695712495482764300,3.639764404296875,0.284881591796875,0.391998291015625,-2.958984375
1695712495492285700,3.64928564453125,0.226287841796875,0.252838134765625,-3.123931884765625
1695712495501837800,3.658837890625,0.164947509765625,0.0897216796875,-3.137359619140625
1695712495511389700,3.6683896484375,0.101318359375,0.078125,-3.03619384765625
1695712495520941800,3.67794189453125,0.048828125,0.235443115234375,-2.834930419921875
1695712495530463200,3.687463134765625,0.08819580078125,0.43365478515625,-2.529449462890625
1695712495540015400,3.697015380859375,0.159454345703125,0.272674560546875,-2.3077392578125
1695712495549567200,3.706567138671875,0.190582275390625,-0.27496337890625,-2.23968505859375
1695712495559119400,3.716119384765625,0.171356201171875,-0.829620361328125,-2.21710205078125
1695712495568640800,3.725640869140625,0.1116943359375,-1.108245849609375,-2.166595458984375
1695712495578193000,3.73519287109375,0.00396728515625,-1.052703857421875,-2.091827392578125
1695712495587744800,3.744744873046875,-0.125885009765625,-0.65338134765625,-2.0025634765625
1695712495597297000,3.754296875,-0.171051025390625,0.03326416015625,-1.93084716796875
1695712495606818300,3.763818359375,-0.092620849609375,0.7720947265625,-1.91375732421875
1695712495616370200,3.7733701171875,0.047607421875,1.17919921875,-1.96075439453125
1695712495625922300,3.78292236328125,0.180816650390625,1.056365966796875,-2.01385498046875
1695712495635474200,3.79247412109375,0.234222412109375,0.753021240234375,-1.97509765625
1695712495644995800,3.801995849609375,0.276947021484375,0.555419921875,-1.800384521484375
1695712495654547700,3.811547607421875,0.33538818359375,0.45623779296875,-1.54998779296875
1695712495664099800,3.821099853515625,0.38055419921875,0.42816162109375,-1.313323974609375
1695712495673651700,3.830651611328125,0.42755126953125,0.44891357421875,-1.114349365234375
1695712495683173400,3.84017333984375,0.4669189453125,0.52001953125,-0.945587158203125
1695712495692725200,3.849725341796875,0.487213134765625,0.607452392578125,-0.80047607421875
1695712495702277400,3.85927734375,0.477752685546875,0.671234130859375,-0.669403076171875
1695712495711829200,3.868829345703125,0.43914794921875,0.721588134765625,-0.5523681640625
1695712495721381400,3.87838134765625,0.3887939453125,0.7830810546875,-0.45135498046875
1695712495730902800,3.88790283203125,0.34027099609375,0.82305908203125,-0.350799560546875
1695712495740454700,3.89745458984375,0.287628173828125,0.81695556640625,-0.230255126953125
1695712495750006800,3.9070068359375,0.230255126953125,0.76385498046875,-0.0726318359375
1695712495759558700,3.91655859375,0.169525146484375,0.671844482421875,0.13916015625
1695712495769110800,3.92611083984375,0.10772705078125,0.54351806640625,0.409393310546875
1695712495778662700,3.93566259765625,0.06103515625,0.435791015625,0.720367431640625
1695712495788214800,3.94521484375,0.037841796875,0.362091064453125,1.047821044921875
1695712495797766700,3.9547666015625,0.0262451171875,0.321197509765625,1.381988525390625
1695712495807288300,3.964288330078125,0.03204345703125,0.340423583984375,1.70135498046875
1695712495816840200,3.973840087890625,0.067138671875,0.45196533203125,1.96624755859375
1695712495826392300,3.983392333984375,0.126495361328125,0.634918212890625,2.119598388671875
1695712495835944200,3.992944091796875,0.203094482421875,0.8575439453125,2.09075927734375
1695712495845465900,4.0024658203125,0.291900634765625,1.060028076171875,1.830291748046875
1695712495855017700,4.012017822265625,0.3729248046875,1.187744140625,1.3250732421875
1695712495864569900,4.02156982421875,0.46051025390625,1.1907958984375,0.52032470703125
1695712495874121700,4.031121826171875,0.535736083984375,1.18988037109375,-0.640411376953125
1695712495883673900,4.040673828125,0.636749267578125,1.13677978515625,-1.743621826171875
1695712495893195300,4.0501953125,0.8245849609375,0.433349609375,-2.120208740234375
1695712495902747100,4.0597470703125,0.956268310546875,-0.692901611328125,-1.824798583984375
1695712495912299300,4.06929931640625,0.944976806640625,-1.268310546875,-1.376190185546875
1695712495921851100,4.07885107421875,0.79803466796875,-1.113739013671875,-1.023712158203125
1695712495931372800,4.088372802734375,0.457763671875,-0.59600830078125,-0.692291259765625
1695712495940924700,4.097924560546875,0.0872802734375,-0.022735595703125,-0.376739501953125
1695712495950476800,4.107476806640625,-0.162506103515625,0.4742431640625,-0.07781982421875
1695712495960028700,4.117028564453125,-0.272216796875,0.83648681640625,0.255126953125
1695712495969550300,4.12655029296875,-0.414581298828125,1.107025146484375,0.6256103515625
1695712495979102200,4.136102294921875,-0.66864013671875,1.429290771484375,1.106719970703125
1695712495988654300,4.145654296875,-0.950927734375,1.56402587890625,1.93695068359375
1695712495998206200,4.155206298828125,-0.9857177734375,0.599517822265625,2.72674560546875
1695712496007727600,4.1647275390625,-0.416717529296875,-1.66046142578125,2.138214111328125
1695712496017279700,4.17427978515625,0.269622802734375,-2.482147216796875,0.078887939453125
1695712496026831600,4.18383154296875,0.66802978515625,-0.86761474609375,-1.1761474609375
1695712496036383700,4.1933837890625,0.932159423828125,0.2032470703125,-0.642852783203125
1695712496045935600,4.202935546875,0.76690673828125,-0.429840087890625,0.887451171875
1695712496055487700,4.21248779296875,0.258636474609375,-1.432952880859375,1.816253662109375
1695712496065039600,4.22203955078125,-0.26885986328125,-1.734619140625,1.885833740234375
1695712496074591700,4.231591796875,-0.58868408203125,-1.056365966796875,1.478424072265625
1695712496084143600,4.2411435546875,-0.7080078125,0.604400634765625,1.039276123046875
1695712496093665300,4.250665283203125,-0.761566162109375,1.6522216796875,1.141204833984375
1695712496103217200,4.260217041015625,-0.821075439453125,1.310882568359375,1.68060302734375
1695712496112769300,4.269769287109375,-0.72998046875,0.2069091796875,2.0379638671875
1695712496122321200,4.279321044921875,-0.2850341796875,-0.96527099609375,1.93878173828125
1695712496131842800,4.2888427734375,0.3607177734375,-1.60614013671875,1.5643310546875
1695712496141394700,4.298394775390625,0.77484130859375,-1.491241455078125,1.241455078125
1695712496150946800,4.30794677734375,0.857696533203125,-0.892333984375,1.163177490234375
1695712496160498700,4.317498779296875,0.72784423828125,-0.24658203125,1.3336181640625
1695712496170020000,4.32702001953125,0.4803466796875,-0.021820068359375,1.515655517578125
1695712496179572200,4.336572265625,0.171661376953125,-0.25390625,1.58843994140625
1695712496189124000,4.3461240234375,-0.118865966796875,-0.63934326171875,1.537017822265625
1695712496198676200,4.35567626953125,-0.3173828125,-0.95947265625,1.419219970703125
1695712496208197600,4.36519775390625,-0.38909912109375,-1.032562255859375,1.30523681640625
1695712496217749800,4.374749755859375,-0.3167724609375,-0.758514404296875,1.23779296875
1695712496227301600,4.384301513671875,-0.161895751953125,-0.374298095703125,1.2078857421875
1695712496236853800,4.393853759765625,-0.055389404296875,-0.1983642578125,1.170806884765625
1695712496246375200,4.403375244140625,-0.053558349609375,-0.20111083984375,1.115570068359375
1695712496255927300,4.41292724609375,-0.110321044921875,-0.27069091796875,1.066741943359375
1695712496265479200,4.422479248046875,-0.171966552734375,-0.350799560546875,1.025543212890625
1695712496275031300,4.43203125,-0.211334228515625,-0.402984619140625,0.98968505859375
1695712496284583200,4.441583251953125,-0.224761962890625,-0.378875732421875,0.96343994140625
1695712496294104600,4.4511044921875,-0.214385986328125,-0.286865234375,0.9564208984375
1695712496303656700,4.46065673828125,-0.196685791015625,-0.18280029296875,0.95550537109375
1695712496313208600,4.47020849609375,-0.198822021484375,-0.106964111328125,0.9527587890625
1695712496322760700,4.4797607421875,-0.22735595703125,-0.095672607421875,0.95062255859375
1695712496332312600,4.4893125,-0.2734375,-0.13824462890625,0.9576416015625
1695712496341864700,4.49886474609375,-0.32867431640625,-0.18096923828125,0.97991943359375
1695712496351416600,4.50841650390625,-0.3765869140625,-0.19256591796875,1.01715087890625
1695712496360968700,4.51796875,-0.418548583984375,-0.181884765625,1.065826416015625
1695712496370490000,4.527489990234375,-0.450897216796875,-0.16754150390625,1.122589111328125
1695712496380042200,4.537042236328125,-0.480804443359375,-0.17974853515625,1.154632568359375
1695712496389594000,4.546593994140625,-0.505218505859375,-0.18646240234375,1.156158447265625
1695712496399146200,4.556146240234375,-0.522613525390625,-0.16632080078125,1.128387451171875
1695712496408667600,4.565667724609375,-0.537567138671875,-0.20233154296875,1.033782958984375
1695712496418219800,4.5752197265625,-0.540618896484375,-0.2825927734375,0.89599609375
1695712496427771600,4.584771728515625,-0.521392822265625,-0.377655029296875,0.753326416015625
1695712496437323800,4.59432373046875,-0.467681884765625,-0.435333251953125,0.62652587890625
1695712496446845200,4.60384521484375,-0.39825439453125,-0.395050048828125,0.52978515625
1695712496456397000,4.61339697265625,-0.341796875,-0.28411865234375,0.442047119140625
1695712496465949200,4.62294921875,-0.32440185546875,-0.2130126953125,0.337066650390625
1695712496475501000,4.6325009765625,-0.34942626953125,-0.191650390625,0.223388671875
1695712496485053200,4.64205322265625,-0.404052734375,-0.17242431640625,0.118255615234375
1695712496494574600,4.65157470703125,-0.453338623046875,-0.13641357421875,0.029754638671875
1695712496504126700,4.661126708984375,-0.450897216796875,-0.120086669921875,-0.0518798828125
1695712496513678600,4.6706787109375,-0.39703369140625,-0.18951416015625,-0.14892578125
1695712496523230700,4.680230712890625,-0.32440185546875,-0.334930419921875,-0.282440185546875
1695712496532752100,4.689752197265625,-0.219268798828125,-0.484466552734375,-0.46966552734375
1695712496542304000,4.699303955078125,-0.059967041015625,-0.538330078125,-0.699920654296875
1695712496551856000,4.708856201171875,0.09521484375,-0.403594970703125,-0.962066650390625
1695712496561408300,4.718408203125,0.183868408203125,-0.092315673828125,-1.25274658203125
1695712496570929700,4.7279296875,0.263214111328125,0.276031494140625,-1.558837890625
1695712496580481500,4.7374814453125,0.3631591796875,0.580291748046875,-1.88446044921875
1695712496590033700,4.74703369140625,0.41229248046875,0.711212158203125,-2.222900390625
1695712496599585500,4.75658544921875,0.40130615234375,0.698089599609375,-2.536773681640625
1695712496609107200,4.766107177734375,0.3692626953125,0.5615234375,-2.838897705078125
1695712496618689500,4.775689453125,0.34454345703125,0.292816162109375,-3.141021728515625
1695712496628241700,4.78524169921875,0.32470703125,-0.030364990234375,-3.34686279296875
1695712496637793500,4.79479345703125,0.256805419921875,-0.234375,-3.359375
1695712496647345700,4.804345703125,0.154266357421875,-0.309295654296875,-3.202667236328125
1695712496656867000,4.8138671875,0.0909423828125,-0.366973876953125,-2.94403076171875
1695712496666419200,4.823419189453125,0.124053955078125,-0.64727783203125,-2.63336181640625
1695712496675971000,4.83297119140625,0.206756591796875,-1.28997802734375,-2.401580810546875
1695712496685523200,4.842523193359375,0.239715576171875,-1.9927978515625,-2.27386474609375
1695712496695044600,4.852044677734375,0.224151611328125,-2.4346923828125,-2.176971435546875
1695712496704596500,4.861596435546875,0.170745849609375,-2.39959716796875,-2.074127197265625
1695712496714148600,4.871148681640625,0.10101318359375,-1.607666015625,-1.8914794921875
1695712496723700700,4.88070068359375,0.0836181640625,-0.389251708984375,-1.781158447265625
1695712496733222100,4.89022216796875,0.177459716796875,0.747222900390625,-1.86370849609375
1695712496742774000,4.89977392578125,0.289764404296875,1.54876708984375,-2.021942138671875
1695712496752326100,4.909326171875,0.271148681640625,1.23199462890625,-1.799163818359375
1695712496761878000,4.9188779296875,0.190582275390625,0.13916015625,-1.17462158203125
1695712496771399700,4.928399658203125,0.33905029296875,1.28692626953125,-2.098541259765625
1695712496780951600,4.93795166015625,0.325927734375,1.421966552734375,-2.28363037109375
1695712496790503700,4.947503662109375,0.265655517578125,0.911865234375,-1.90948486328125
1695712496800055600,4.9570556640625,0.292510986328125,0.653533935546875,-1.478424072265625
1695712496809577000,4.966576904296875,0.357666015625,1.047515869140625,-1.338653564453125
1695712496819129000,4.976129150390625,0.42694091796875,1.071014404296875,-1.112213134765625
1695712496828681000,4.985680908203125,0.497894287109375,0.999603271484375,-0.8758544921875
1695712496838233000,4.995233154296875,0.534515380859375,0.93841552734375,-0.675811767578125
1695712496847785000,5.004784912109375,0.509185791015625,0.9088134765625,-0.54229736328125
1695712496857306600,5.014306640625,0.45867919921875,0.9307861328125,-0.450439453125
1695712496866858500,5.0238583984375,0.4107666015625,0.936431884765625,-0.347442626953125
1695712496876410600,5.03341064453125,0.36712646484375,0.87158203125,-0.184326171875
1695712496885962500,5.04296240234375,0.31036376953125,0.750579833984375,0.042877197265625
1695712496895484200,5.052484130859375,0.244903564453125,0.594940185546875,0.318756103515625
1695712496905066500,5.06206640625,0.186920166015625,0.44677734375,0.628662109375
1695712496914618600,5.07161865234375,0.151214599609375,0.340118408203125,0.95611572265625
1695712496924170500,5.08117041015625,0.122528076171875,0.287322998046875,1.280517578125
1695712496933692200,5.090692138671875,0.09246826171875,0.298004150390625,1.5850830078125
1695712496943244000,5.100244140625,0.068359375,0.357513427734375,1.861724853515625
1695712496952796200,5.109796142578125,0.06805419921875,0.47088623046875,2.0953369140625
1695712496962348000,5.11934814453125,0.101318359375,0.647430419921875,2.227325439453125
1695712496971869400,5.128869384765625,0.156097412109375,0.8575439453125,2.176055908203125
1695712496981421600,5.138421630859375,0.226287841796875,1.039276123046875,1.882476806640625
1695712496990973400,5.147973388671875,0.311279296875,1.111907958984375,1.33941650390625
1695712497000525600,5.157525634765625,0.40679931640625,1.015777587890625,0.496826171875
1695712497010047000,5.167046875,0.497283935546875,0.84930419921875,-0.637969970703125
1695712497019599000,5.17659912109375,0.596466064453125,0.667572021484375,-1.670684814453125
1695712497029151000,5.18615087890625,0.76568603515625,0.06561279296875,-2.024078369140625
1695712497038703000,5.195703125,0.913848876953125,-0.781097412109375,-1.748809814453125
1695712497048255000,5.2052548828125,0.997161865234375,-1.063079833984375,-1.396026611328125
1695712497057776600,5.214776611328125,0.912017822265625,-0.731353759765625,-1.14593505859375
1695712497067328500,5.22432861328125,0.574493408203125,-0.18707275390625,-0.8953857421875
1695712497076880600,5.233880615234375,0.240020751953125,0.292510986328125,-0.606536865234375
1695712497086432500,5.2434326171875,0.05615234375,0.90118408203125,-0.262908935546875
1695712497095954000,5.252953857421875,-0.147857666015625,1.57867431640625,0.2197265625
1695712497105506000,5.262506103515625,-0.505828857421875,1.97021484375,0.85662841796875
1695712497115058000,5.272057861328125,-0.900115966796875,1.63330078125,1.813812255859375
1695712497124610000,5.281610107421875,-1.02447509765625,0.21240234375,2.587738037109375
1695712497134131500,5.29113134765625,-0.568695068359375,-2.052001953125,1.784820556640625
1695712497143683600,5.30068359375,0,-2.3516845703125,-0.41015625
1695712497153235500,5.3102353515625,0.44189453125,-0.51666259765625,-1.495361328125
1695712497162787600,5.31978759765625,0.7281494140625,0.399017333984375,-0.46905517578125
1695712497172309000,5.32930908203125,0.609283447265625,-0.296630859375,1.22772216796875
1695712497181861000,5.338861083984375,0.148773193359375,-0.804901123046875,2.06756591796875
1695712497191443500,5.348443359375,-0.29144287109375,-0.688018798828125,1.9659423828125
1695712497200995600,5.35799560546875,-0.58563232421875,-0.098419189453125,1.408538818359375
1695712497210517000,5.36751708984375,-0.679931640625,0.11322021484375,1.36932373046875
1695712497220069000,5.377069091796875,-0.64727783203125,-0.14892578125,1.828155517578125
1695712497229621000,5.38662109375,-0.513763427734375,-0.677337646484375,2.29248046875
1695712497239173000,5.396173095703125,-0.2874755859375,-1.385498046875,2.42767333984375
1695712497248725000,5.40572509765625,0.0567626953125,-1.750946044921875,2.09564208984375
1695712497258246400,5.415246337890625,0.35369873046875,-1.591796875,1.544647216796875
1695712497267798500,5.424798583984375,0.4180908203125,-1.22528076171875,1.30462646484375
1695712497277350400,5.434350341796875,0.32501220703125,-0.9039306640625,1.479034423828125
1695712497286902500,5.443902587890625,0.159454345703125,-0.785369873046875,1.787567138671875
1695712497296424000,5.453423828125,0.00396728515625,-0.909423828125,2.022705078125
1695712497305976000,5.46297607421875,-0.130462646484375,-1.168060302734375,2.124481201171875
1695712497315528000,5.47252783203125,-0.25177001953125,-1.331787109375,2.064208984375
1695712497325080000,5.482080078125,-0.32501220703125,-1.260986328125,1.869354248046875
1695712497334601500,5.4916015625,-0.299072265625,-0.96710205078125,1.640625
1695712497344153600,5.501153564453125,-0.221405029296875,-0.6390380859375,1.451873779296875
1695712497353705500,5.51070556640625,-0.146942138671875,-0.373382568359375,1.394500732421875
1695712497363257600,5.520257568359375,-0.115509033203125,-0.355987548828125,1.411285400390625
1695712497372779000,5.529779052734375,-0.152740478515625,-0.5743408203125,1.414642333984375
1695712497382331000,5.539330810546875,-0.22796630859375,-0.809478759765625,1.3446044921875
1695712497391883000,5.548883056640625,-0.283203125,-0.90057373046875,1.2615966796875
1695712497401435000,5.558434814453125,-0.30548095703125,-0.839996337890625,1.20269775390625
1695712497410987000,5.567987060546875,-0.3076171875,-0.685882568359375,1.168060302734375
1695712497420508400,5.57750830078125,-0.3143310546875,-0.5010986328125,1.129913330078125
1695712497430060500,5.587060546875,-0.34027099609375,-0.362701416015625,1.088714599609375
1695712497439612400,5.5966123046875,-0.38299560546875,-0.349578857421875,1.045379638671875
1695712497449164500,5.60616455078125,-0.410308837890625,-0.377349853515625,1.051483154296875
1695712497458686000,5.61568603515625,-0.429840087890625,-0.414276123046875,1.087493896484375
1695712497468238000,5.625238037109375,-0.439605712890625,-0.409088134765625,1.122589111328125
1695712497477820400,5.6348203125,-0.444488525390625,-0.356903076171875,1.143646240234375
1695712497487372500,5.64437255859375,-0.456085205078125,-0.314483642578125,1.144256591796875
1695712497496894000,5.65389404296875,-0.472564697265625,-0.28961181640625,1.130523681640625
1695712497506446000,5.663446044921875,-0.510406494140625,-0.23529052734375,1.085357666015625
1695712497515998000,5.672998046875,-0.564117431640625,-0.159912109375,0.994873046875
1695712497525550000,5.682550048828125,-0.6158447265625,-0.114288330078125,0.86456298828125
1695712497535071500,5.692071533203125,-0.66253662109375,-0.14984130859375,0.720367431640625
1695712497544623400,5.701623291015625,-0.67779541015625,-0.28228759765625,0.5877685546875
1695712497554175500,5.711175537109375,-0.625,-0.410919189453125,0.470123291015625
1695712497563727400,5.720727294921875,-0.525360107421875,-0.383148193359375,0.357818603515625
1695712497573249000,5.7302490234375,-0.440826416015625,-0.21331787109375,0.2490234375
1695712497582801000,5.73980078125,-0.414581298828125,-0.044403076171875,0.13214111328125
1695712497592353000,5.74935302734375,-0.444488525390625,0.04547119140625,0.011749267578125
1695712497601905000,5.75890478515625,-0.507354736328125,0.025177001953125,-0.06927490234375
1695712497611457000,5.76845703125,-0.537872314453125,-0.111541748046875,-0.08575439453125
1695712497620978400,5.777978515625,-0.576019287109375,-0.19378662109375,-0.1885986328125
1695712497630530600,5.787530517578125,-0.63934326171875,-0.24505615234375,-0.402984619140625
1695712497640082400,5.79708251953125,-0.568084716796875,-0.25115966796875,-0.599517822265625
1695712497649634600,5.806634521484375,-0.294189453125,-0.21240234375,-0.746002197265625
1695712497659156000,5.816156005859375,0.0311279296875,-0.067291259765625,-0.91339111328125
1695712497668707800,5.825707763671875,0.207672119140625,0.221710205078125,-1.19415283203125
1695712497678260000,5.835260009765625,0.270843505859375,0.597686767578125,-1.56280517578125
1695712497687811800,5.844811767578125,0.3704833984375,0.92132568359375,-1.93115234375
1695712497697333500,5.85433349609375,0.489959716796875,1.069183349609375,-2.23968505859375
1695712497706885400,5.863885498046875,0.521697998046875,1.055450439453125,-2.494354248046875
1695712497716437500,5.8734375,0.477447509765625,0.88104248046875,-2.754669189453125
1695712497725989400,5.8829892578125,0.44677734375,0.49896240234375,-3.02642822265625
1695712497735511000,5.892510986328125,0.4595947265625,0.006866455078125,-3.217010498046875
1695712497745063000,5.90206298828125,0.43670654296875,-0.362091064453125,-3.227386474609375
1695712497754615000,5.911614990234375,0.32562255859375,-0.411529541015625,-3.08197021484375
1695712497764197400,5.921197265625,0.169219970703125,-0.127410888671875,-2.895660400390625
1695712497773749500,5.93074951171875,0.08392333984375,0.14190673828125,-2.747039794921875
1695712497783271000,5.94027099609375,0.137786865234375,-0.030059814453125,-2.65167236328125
1695712497792823000,5.949822998046875,0.229644775390625,-0.60760498046875,-2.555389404296875
1695712497802375000,5.959375,0.231781005859375,-1.178436279296875,-2.412567138671875
1695712497811927000,5.968927001953125,0.155792236328125,-1.432952880859375,-2.259521484375
1695712497821448400,5.978448486328125,0.0994873046875,-1.2744140625,-2.142486572265625
1695712497831000300,5.988000244140625,0.10772705078125,-0.725860595703125,-2.065887451171875
1695712497840552400,5.997552490234375,0.177154541015625,0.09246826171875,-1.99432373046875
1695712497850104300,6.007104248046875,0.306396484375,0.941162109375,-1.94671630859375
1695712497859626000,6.0166259765625,0.360107421875,1.50543212890625,-1.97357177734375
1695712497869177900,6.026177734375,0.35003662109375,1.61102294921875,-2.028961181640625
1695712497878730000,6.03572998046875,0.36651611328125,1.380767822265625,-2.041473388671875
1695712497888281900,6.04528173828125,0.39947509765625,1.020355224609375,-1.951904296875
1695712497897803500,6.054803466796875,0.43548583984375,0.739593505859375,-1.768035888671875
1695712497907355400,6.06435546875,0.493316650390625,0.644378662109375,-1.53717041015625
1695712497916907500,6.073907470703125,0.586090087890625,0.694732666015625,-1.2969970703125
1695712497926459400,6.08345947265625,0.703125,0.78399658203125,-1.076812744140625
1695712497935980800,6.092980712890625,0.7916259765625,0.84930419921875,-0.892333984375
1695712497945533000,6.102532958984375,0.83038330078125,0.90240478515625,-0.736846923828125
1695712497955084800,6.112084716796875,0.79071044921875,0.955963134765625,-0.603179931640625
1695712497964637000,6.121636962890625,0.68939208984375,1.025238037109375,-0.4986572265625
1695712497974158300,6.131158447265625,0.578765869140625,1.077423095703125,-0.4046630859375
1695712497983710500,6.14071044921875,0.474853515625,1.048126220703125,-0.285186767578125
1695712497993262300,6.150262451171875,0.37445068359375,0.941009521484375,-0.10162353515625
1695712498002814500,6.159814453125,0.287017822265625,0.784912109375,0.15106201171875
1695712498012366300,6.169366455078125,0.223846435546875,0.642852783203125,0.449371337890625
1695712498021887700,6.1788876953125,0.177764892578125,0.55267333984375,0.764617919921875
1695712498031440000,6.18843994140625,0.142669677734375,0.52337646484375,1.068267822265625
1695712498040991700,6.19799169921875,0.1153564453125,0.54046630859375,1.3525390625
1695712498050574300,6.20757421875,0.10467529296875,0.605621337890625,1.6162109375
1695712498060096000,6.217095947265625,0.123291015625,0.742645263671875,1.845550537109375
1695712498069648000,6.22664794921875,0.146942138671875,0.941162109375,1.9915771484375
1695712498079200000,6.236199951171875,0.149993896484375,1.15386962890625,1.98150634765625
1695712498088751900,6.245751953125,0.174407958984375,1.296539306640625,1.755218505859375
1695712498098273300,6.255273193359375,0.226287841796875,1.29364013671875,1.24420166015625
1695712498107825400,6.264825439453125,0.292205810546875,1.175537109375,0.375518798828125
1695712498117377300,6.274377197265625,0.325927734375,1.092071533203125,-0.82183837890625
1695712498126929400,6.283929443359375,0.3448486328125,0.86151123046875,-1.8511962890625
1695712498136450800,6.293450927734375,0.45562744140625,-0.16693115234375,-1.9921875
1695712498146003000,6.3030029296875,0.604705810546875,-1.464080810546875,-1.484375
1695712498155554800,6.312554931640625,0.6610107421875,-1.825714111328125,-1.054534912109375
1695712498165107000,6.32210693359375,0.44769287109375,-1.2646484375,-0.86822509765625
1695712498174658800,6.331658935546875,0.10467529296875,-0.405731201171875,-0.735015869140625
1695712498184180200,6.34118017578125,-0.086517333984375,0.45379638671875,-0.52581787109375
1695712498193732400,6.350732421875,-0.153045654296875,1.265869140625,-0.12542724609375
1695712498203284200,6.3602841796875,-0.3594970703125,1.96868896484375,0.419769287109375
1695712498212836400,6.36983642578125,-0.64697265625,2.23419189453125,1.131439208984375
1695712498222357800,6.379357666015625,-0.803070068359375,0.942840576171875,1.852874755859375
1695712498231910000,6.388909912109375,-0.550994873046875,-1.774444580078125,1.64825439453125
1695712498241461800,6.398461669921875,-0.131988525390625,-2.888336181640625,0.250244140625
1695712498251014000,6.408013916015625,0.271453857421875,-0.667877197265625,-0.741119384765625
1695712498260535300,6.417535400390625,0.636138916015625,0.287628173828125,-0.014495849609375
1695712498270087400,6.42708740234375,0.604400634765625,-0.374298095703125,1.2158203125
1695712498279639300,6.436639404296875,0.303955078125,-0.029754638671875,1.702880859375
1695712498289191400,6.44619140625,-0.068206787109375,0.655975341796875,1.324462890625
1695712498298712800,6.455712890625,-0.434722900390625,0.750274658203125,0.91461181640625
1695712498308264700,6.4652646484375,-0.65216064453125,0.078125,1.224365234375
1695712498317816800,6.47481689453125,-0.6304931640625,-0.60546875,1.97509765625
1695712498327368700,6.48436865234375,-0.447235107421875,-1.040191650390625,2.516632080078125
1695712498336920800,6.4939208984375,-0.190887451171875,-1.3519287109375,2.432861328125
1695712498346472700,6.50347265625,0.09857177734375,-1.535186767578125,1.879119873046875
1695712498356024800,6.51302490234375,0.284271240234375,-1.405487060546875,1.454315185546875
1695712498365576700,6.52257666015625,0.33203125,-0.97900390625,1.403045654296875
1695712498375128800,6.53212890625,0.268096923828125,-0.6256103515625,1.57623291015625
1695712498384650200,6.541650146484375,0.193023681640625,-0.55145263671875,1.815032958984375
1695712498394202400,6.551202392578125,0.133819580078125,-0.654296875,1.99737548828125
1695712498403754200,6.560754150390625,0.04486083984375,-0.760650634765625,2.05413818359375
1695712498413306400,6.570306396484375,-0.062713623046875,-0.760345458984375,1.978759765625
1695712498422827800,6.579827880859375,-0.140228271484375,-0.61431884765625,1.808013916015625
1695712498432380000,6.5893798828125,-0.158538818359375,-0.335845947265625,1.6131591796875
1695712498441931800,6.598931884765625,-0.153656005859375,-0.146484375,1.450347900390625
1695712498451484000,6.60848388671875,-0.142364501953125,-0.007781982421875,1.392059326171875
1695712498461005300,6.61800537109375,-0.174713134765625,-0.003204345703125,1.383514404296875
1695712498470557200,6.62755712890625,-0.2325439453125,-0.1544189453125,1.36688232421875
1695712498480109300,6.637109375,-0.26702880859375,-0.390167236328125,1.34918212890625
1695712498489661200,6.6466611328125,-0.28594970703125,-0.5853271484375,1.31988525390625
1695712498499182800,6.656182861328125,-0.29388427734375,-0.64300537109375,1.282958984375
1695712498508734700,6.665734619140625,-0.28411865234375,-0.5633544921875,1.25244140625
1695712498518286800,6.675286865234375,-0.25146484375,-0.415802001953125,1.2420654296875
1695712498527838700,6.684838623046875,-0.212860107421875,-0.257568359375,1.2469482421875
1695712498537360400,6.6943603515625,-0.208587646484375,-0.13092041015625,1.27166748046875
1695712498546912300,6.703912353515625,-0.2618408203125,-0.063629150390625,1.27471923828125
1695712498556464400,6.71346435546875,-0.34271240234375,-0.007171630859375,1.24908447265625
1695712498566016300,6.723016357421875,-0.437164306640625,0.03997802734375,1.2249755859375
1695712498575568400,6.732568359375,-0.522308349609375,0.09979248046875,1.224365234375
1695712498585089800,6.74208984375,-0.577239990234375,0.1165771484375,1.212158203125
1695712498594641700,6.7516416015625,-0.59844970703125,0.04150390625,1.169586181640625
1695712498604193800,6.76119384765625,-0.580596923828125,-0.062408447265625,1.079559326171875
1695712498613745700,6.77074560546875,-0.525054931640625,-0.12786865234375,0.9344482421875
1695712498623297800,6.7802978515625,-0.439910888671875,-0.179443359375,0.755767822265625
1695712498632849700,6.789849609375,-0.345458984375,-0.21453857421875,0.604248046875
1695712498642401800,6.79940185546875,-0.2691650390625,-0.19195556640625,0.52520751953125
1695712498651953700,6.80895361328125,-0.22552490234375,-0.14678955078125,0.47943115234375
1695712498661475300,6.818475341796875,-0.23590087890625,-0.13397216796875,0.411834716796875
1695712498671027200,6.828027099609375,-0.29296875,-0.15106201171875,0.326690673828125
1695712498680579300,6.837579345703125,-0.3717041015625,-0.17974853515625,0.2532958984375
1695712498690131200,6.847131103515625,-0.432586669921875,-0.208740234375,0.20172119140625
1695712498699652900,6.85665283203125,-0.437164306640625,-0.27801513671875,0.1605224609375
1695712498709204700,6.866204833984375,-0.39215087890625,-0.427093505859375,0.102081298828125
1695712498718756900,6.8757568359375,-0.33447265625,-0.59295654296875,0.005950927734375
1695712498728308700,6.885308837890625,-0.272216796875,-0.63873291015625,-0.12847900390625
1695712498737830100,6.894830078125,-0.181427001953125,-0.491943359375,-0.321502685546875
1695712498747382300,6.90438232421875,-0.050506591796875,-0.198974609375,-0.5609130859375
1695712498756934100,6.91393408203125,0.093994140625,0.12054443359375,-0.80596923828125
1695712498766486300,6.923486328125,0.227508544921875,0.4058837890625,-1.048431396484375
1695712498776038100,6.9330380859375,0.37445068359375,0.706634521484375,-1.30218505859375
1695712498785559800,6.942559814453125,0.534820556640625,0.936431884765625,-1.5667724609375
1695712498795111700,6.952111572265625,0.611724853515625,0.941009521484375,-1.85943603515625
1695712498804663800,6.961663818359375,0.586700439453125,0.8294677734375,-2.25311279296875
1695712498814215700,6.971215576171875,0.48187255859375,0.589141845703125,-2.817840576171875
1695712498823737300,6.9807373046875,0.30303955078125,0.09033203125,-3.36273193359375
1695712498833289200,6.990289306640625,0.201873779296875,-0.5169677734375,-3.612823486328125
1695712498842841300,6.99984130859375,0.218048095703125,-0.938720703125,-3.548126220703125
1695712498852393200,7.009393310546875,0.265350341796875,-1.029052734375,-3.28338623046875
1695712498861914600,7.01891455078125,0.282745361328125,-0.85174560546875,-2.9962158203125
1695712498871466800,7.028466796875,0.238189697265625,-0.702056884765625,-2.786102294921875
1695712498881018600,7.0380185546875,0.167388916015625,-0.94573974609375,-2.68218994140625
1695712498890570800,7.04757080078125,0.10162353515625,-1.511077880859375,-2.64801025390625
1695712498900092200,7.057092041015625,0.0054931640625,-2.06298828125,-2.58209228515625
1695712498909674800,7.0666748046875,-0.124664306640625,-2.318115234375,-2.457122802734375
1695712498919226600,7.0762265625,-0.189361572265625,-2.06787109375,-2.2357177734375
1695712498928778800,7.08577880859375,-0.185089111328125,-1.094207763671875,-1.9287109375
1695712498938330600,7.09533056640625,-0.015869140625,0.222930908203125,-1.804351806640625
1695712498947852300,7.104852294921875,0.253448486328125,1.112213134765625,-1.98577880859375
1695712498957404200,7.114404052734375,0.3936767578125,1.2164306640625,-2.33551025390625
1695712498966956300,7.123956298828125,0.40130615234375,0.82794189453125,-2.55859375
1695712498976508200,7.133508056640625,0.406494140625,0.399322509765625,-2.521209716796875
1695712498986029800,7.14302978515625,0.4449462890625,0.1885986328125,-2.26776123046875
1695712498995581700,7.152581787109375,0.510101318359375,0.242767333984375,-1.907958984375
1695712499005133800,7.1621337890625,0.575103759765625,0.43853759765625,-1.55853271484375
1695712499014685700,7.171685791015625,0.636138916015625,0.630340576171875,-1.275634765625
1695712499024207000,7.18120703125,0.68328857421875,0.8056640625,-1.060943603515625
1695712499033759200,7.19075927734375,0.68328857421875,1.002044677734375,-0.8917236328125
1695712499043311000,7.20031103515625,0.642242431640625,1.2152099609375,-0.732879638671875
1695712499052863200,7.20986328125,0.584259033203125,1.367645263671875,-0.55908203125
1695712499062384600,7.219384521484375,0.532684326171875,1.410064697265625,-0.382537841796875
1695712499071936800,7.228936767578125,0.484161376953125,1.366119384765625,-0.22308349609375
1695712499081488600,7.238488525390625,0.42236328125,1.29364013671875,-0.0604248046875
1695712499091040800,7.248040771484375,0.3594970703125,1.226806640625,0.14373779296875
1695712499100562200,7.257562255859375,0.29998779296875,1.15478515625,0.405120849609375
1695712499110114300,7.2671142578125,0.238800048828125,1.042022705078125,0.720672607421875
1695712499119666200,7.276666259765625,0.182647705078125,0.92681884765625,1.075286865234375
1695712499129218300,7.28621826171875,0.152130126953125,0.86181640625,1.434478759765625
1695712499138739700,7.29573974609375,0.138397216796875,0.85784912109375,1.772918701171875
1695712499148291600,7.30529150390625,0.155792236328125,0.952911376953125,2.0635986328125
1695712499157843700,7.31484375,0.211944580078125,1.19293212890625,2.251434326171875
1695712499167395600,7.3243955078125,0.269317626953125,1.5521240234375,2.241973876953125
1695712499176947700,7.33394775390625,0.31005859375,1.94732666015625,1.908416748046875
1695712499186469000,7.34346923828125,0.39886474609375,2.1942138671875,1.214599609375
1695712499196051700,7.3530517578125,0.536041259765625,2.050628662109375,0.1788330078125
1695712499205603600,7.362603515625,0.534515380859375,1.701202392578125,-0.988616943359375
1695712499215155700,7.37215576171875,0.302276611328125,1.313323974609375,-1.89971923828125
1695712499224677000,7.381677001953125,0.09796142578125,0.705413818359375,-2.2802734375
1695712499234229200,7.391229248046875,0.179901123046875,-0.208740234375,-2.0062255859375
1695712499243781000,7.400781005859375,0.507049560546875,-0.645751953125,-1.60888671875
1695712499253333200,7.410333251953125,0.585784912109375,-0.56610107421875,-1.315460205078125
1695712499262854700,7.419854736328125,0.290374755859375,-0.238037109375,-1.13311767578125
1695712499272406800,7.42940673828125,-0.00244140625,0.272979736328125,-0.959625244140625
1695712499281958700,7.438958740234375,-0.35888671875,1.1138916015625,-0.647430419921875
1695712499291510800,7.4485107421875,-0.823211669921875,1.8890380859375,-0.20294189453125
1695712499301062700,7.458062744140625,-1.04949951171875,1.720428466796875,0.296478271484375
1695712499310584000,7.467583984375,-0.785064697265625,0.14251708984375,0.781402587890625
1695712499320136200,7.47713623046875,-0.34149169921875,-1.146392822265625,0.909423828125
1695712499329688000,7.48668798828125,-0.048980712890625,-0.59844970703125,0.51666259765625
1695712499339240200,7.496240234375,0.131378173828125,-0.368194580078125,0.5572509765625
1695712499348761600,7.50576171875,0.160675048828125,-1.056365966796875,1.3604736328125
1695712499358313700,7.515313720703125,0.0494384765625,-1.2127685546875,1.96380615234375
1695712499367865600,7.524865478515625,-0.191497802734375,-0.66497802734375,2.05780029296875
1695712499377417700,7.534417724609375,-0.33447265625,-0.095977783203125,2.0526123046875
1695712499386939100,7.543939208984375,-0.26947021484375,0.1080322265625,2.178192138671875
1695712499396491300,7.5534912109375,-0.052337646484375,0.1031494140625,2.32940673828125
1695712499406043100,7.563043212890625,0.154266357421875,-0.102691650390625,2.33978271484375
1695712499415595300,7.57259521484375,0.188446044921875,-0.315093994140625,2.166900634765625
1695712499425116700,7.58211669921875,0.121917724609375,-0.367279052734375,1.862030029296875
1695712499434668500,7.59166845703125,0.0616455078125,-0.323944091796875,1.544036865234375
1695712499444220700,7.601220703125,0.04058837890625,-0.30792236328125,1.37054443359375
1695712499453772500,7.6107724609375,0.07598876953125,-0.367889404296875,1.363525390625
1695712499463294200,7.620294189453125,0.11199951171875,-0.452117919921875,1.484527587890625
1695712499472846000,7.62984619140625,0.1031494140625,-0.548095703125,1.7041015625
1695712499482428700,7.6394287109375,0.050048828125,-0.634765625,1.95587158203125
1695712499491980500,7.64898046875,-0.02838134765625,-0.737762451171875,2.101593017578125
1695712499501532700,7.65853271484375,-0.084381103515625,-0.802764892578125,2.07733154296875
1695712499511054000,7.66805419921875,-0.088958740234375,-0.749053955078125,1.897430419921875
1695712499520606200,7.677606201171875,-0.047149658203125,-0.55694580078125,1.67266845703125
1695712499530158000,7.687157958984375,0.02044677734375,-0.267333984375,1.493072509765625
1695712499539710200,7.696710205078125,0.06011962890625,-0.000762939453125,1.404571533203125
1695712499549231600,7.706231689453125,0.05706787109375,0.1708984375,1.393585205078125
1695712499558783700,7.71578369140625,0.00762939453125,0.167236328125,1.404571533203125
1695712499568335600,7.725335693359375,-0.070648193359375,0.03753662109375,1.405487060546875
1695712499577887700,7.7348876953125,-0.118865966796875,-0.140380859375,1.404266357421875
1695712499587409200,7.7444091796875,-0.146331787109375,-0.304718017578125,1.385650634765625
1695712499596961000,7.7539609375,-0.172576904296875,-0.383148193359375,1.34429931640625
1695712499606513200,7.76351318359375,-0.212249755859375,-0.361480712890625,1.2933349609375
1695712499616065000,7.77306494140625,-0.2520751953125,-0.26824951171875,1.2646484375
1695712499625586700,7.782586669921875,-0.28350830078125,-0.17547607421875,1.282958984375
1695712499635138600,7.792138671875,-0.3131103515625,-0.126495361328125,1.3323974609375
1695712499644690700,7.801690673828125,-0.35247802734375,-0.087738037109375,1.381378173828125
1695712499654242600,7.81124267578125,-0.405426025390625,-0.036163330078125,1.411590576171875
1695712499663764000,7.820763916015625,-0.467987060546875,-0.004119873046875,1.419525146484375
1695712499673316000,7.830316162109375,-0.519866943359375,-0.036773681640625,1.409454345703125
1695712499682868000,7.839867919921875,-0.557403564453125,-0.14312744140625,1.382904052734375
1695712499692420000,7.849420166015625,-0.58807373046875,-0.27496337890625,1.31378173828125
1695712499701972000,7.858971923828125,-0.58807373046875,-0.347442626953125,1.2158203125
1695712499711493600,7.86849365234375,-0.554962158203125,-0.353240966796875,1.074066162109375
1695712499721045500,7.87804541015625,-0.494842529296875,-0.349884033203125,0.8856201171875
1695712499730597600,7.88759765625,-0.414886474609375,-0.386199951171875,0.674896240234375
1695712499740149500,7.8971494140625,-0.3125,-0.413970947265625,0.4913330078125
1695712499749671200,7.906671142578125,-0.24993896484375,-0.353546142578125,0.365142822265625
1695712499759223000,7.91622314453125,-0.27801513671875,-0.24658203125,0.23529052734375
1695712499768805600,7.9258056640625,-0.3607177734375,-0.24383544921875,0.058441162109375
1695712499778357500,7.935357421875,-0.446014404296875,-0.358428955078125,-0.11871337890625
1695712499787879200,7.944879150390625,-0.467376708984375,-0.423126220703125,-0.259857177734375
1695712499797431000,7.95443115234375,-0.380859375,-0.322418212890625,-0.364837646484375
1695712499806983200,7.963983154296875,-0.22613525390625,-0.107269287109375,-0.48065185546875
1695712499816535000,7.97353515625,-0.040435791015625,0.06591796875,-0.656280517578125
1695712499826056400,7.983056396484375,0.140228271484375,0.12603759765625,-0.91552734375
1695712499835608600,7.992608642578125,0.261077880859375,0.1513671875,-1.23382568359375
1695712499845160400,8.002160400390625,0.2978515625,0.295257568359375,-1.5887451171875
1695712499854712600,8.011712646484375,0.340576171875,0.55633544921875,-1.94488525390625
1695712499864234000,8.02123388671875,0.4315185546875,0.693511962890625,-2.29217529296875
1695712499873786000,8.0307861328125,0.42755126953125,0.618438720703125,-2.69561767578125
1695712499883338000,8.040337890625,0.333251953125,0.344390869140625,-3.108367919921875
1695712499892890000,8.04989013671875,0.33538818359375,-0.113067626953125,-3.404541015625
1695712499902442000,8.05944189453125,0.41961669921875,-0.56854248046875,-3.463592529296875
1695712499911963600,8.068963623046875,0.47149658203125,-0.826568603515625,-3.30322265625
1695712499921515500,8.078515625,0.42633056640625,-0.775299072265625,-3.0670166015625
1695712499931067600,8.088067626953125,0.308837890625,-0.499267578125,-2.894439697265625
1695712499940619500,8.09761962890625,0.189361572265625,-0.358428955078125,-2.823638916015625
1695712499950141000,8.107140869140625,0.11199951171875,-0.61187744140625,-2.820892333984375
1695712499959693000,8.116693115234375,0.04364013671875,-1.096038818359375,-2.770843505859375
1695712499969245000,8.126244873046875,-0.046539306640625,-1.56829833984375,-2.61138916015625
1695712499978797000,8.135797119140625,-0.089263916015625,-1.68487548828125,-2.320556640625
1695712499988318500,8.145318359375,-0.02044677734375,-1.126251220703125,-1.8701171875
1695712499997870600,8.15487060546875,0.163726806640625,-0.2825927734375,-1.5740966796875
1695712500007422500,8.16442236328125,0.4583740234375,0.5059814453125,-1.58843994140625
1695712500016974600,8.173974609375,0.574493408203125,0.949249267578125,-1.9244384765625
1695712500026496000,8.18349609375,0.47882080078125,0.968780517578125,-2.3162841796875
1695712500036048100,8.193048095703125,0.390625,0.88409423828125,-2.528533935546875
1695712500045600000,8.20260009765625,0.364990234375,0.83251953125,-2.534332275390625
1695712500055182600,8.2121826171875,0.3692626953125,0.8367919921875,-2.384185791015625
1695712500064734500,8.221734375,0.38482666015625,0.946197509765625,-2.134246826171875
1695712500074256100,8.231256103515625,0.40679931640625,1.035919189453125,-1.844024658203125
1695712500083808000,8.24080810546875,0.43487548828125,1.082916259765625,-1.55792236328125
1695712500093360000,8.250360107421875,0.46478271484375,1.098480224609375,-1.30828857421875
1695712500102912000,8.259912109375,0.482635498046875,1.103973388671875,-1.092071533203125
1695712500112433400,8.269433349609375,0.478973388671875,1.15478515625,-0.9149169921875
1695712500121985500,8.278985595703125,0.45654296875,1.1773681640625,-0.77423095703125
1695712500131537400,8.288537353515625,0.416259765625,1.15966796875,-0.650482177734375
1695712500141089500,8.298089599609375,0.3765869140625,1.107940673828125,-0.52520751953125
1695712500150611000,8.30761083984375,0.3472900390625,1.025848388671875,-0.355682373046875
1695712500160163000,8.3171630859375,0.32745361328125,0.92987060546875,-0.1129150390625
1695712500169715000,8.32671484375,0.3118896484375,0.8245849609375,0.20538330078125
1695712500179267000,8.33626708984375,0.3106689453125,0.733795166015625,0.57403564453125
1695712500188788500,8.34578857421875,0.32745361328125,0.679168701171875,0.958251953125
1695712500198340600,8.355340576171875,0.35186767578125,0.655975341796875,1.336669921875
1695712500207892500,8.364892578125,0.38299560546875,0.670318603515625,1.70318603515625
1695712500217444600,8.374444580078125,0.4498291015625,0.78155517578125,2.0281982421875
1695712500226966000,8.383966064453125,0.527801513671875,0.984649658203125,2.258758544921875
1695712500236518000,8.393517822265625,0.575714111328125,1.20941162109375,2.30712890625
1695712500246070000,8.403070068359375,0.594940185546875,1.341094970703125,2.04559326171875
1695712500255622000,8.412621826171875,0.606231689453125,1.1676025390625,1.434783935546875
1695712500265174000,8.422174072265625,0.585479736328125,0.80474853515625,0.51727294921875
1695712500274695400,8.4316953125,0.44281005859375,0.683746337890625,-0.640106201171875
1695712500284247600,8.44124755859375,0.287628173828125,0.76629638671875,-1.789703369140625
1695712500293799400,8.45079931640625,0.42144775390625,0.253143310546875,-2.170562744140625
1695712500303351600,8.4603515625,0.76202392578125,-0.64208984375,-1.836700439453125
1695712500312873000,8.469873046875,0.902862548828125,-0.8819580078125,-1.373443603515625
1695712500322425000,8.479425048828125,0.6671142578125,-0.391387939453125,-1.008758544921875
1695712500331977000,8.48897705078125,0.269927978515625,0.264739990234375,-0.685272216796875
1695712500341559600,8.4985595703125,0.0701904296875,0.8203125,-0.359954833984375
1695712500351081000,8.5080810546875,0.10498046875,1.48895263671875,0.012969970703125
1695712500360633000,8.517633056640625,0.03173828125,2.407684326171875,0.427703857421875
1695712500370185000,8.52718505859375,-0.157012939453125,3.091888427734375,1.074066162109375
1695712500379737000,8.536737060546875,-0.2825927734375,1.648406982421875,1.892547607421875
1695712500389258500,8.546258544921875,-0.00091552734375,-2.155609130859375,1.895294189453125
1695712500398810400,8.555810302734375,0.33660888671875,-3.702239990234375,0.673065185546875
1695712500408362500,8.565362548828125,0.67535400390625,-1.197357177734375,-0.635223388671875
1695712500417914400,8.574914306640625,0.984954833984375,0.229949951171875,-0.17242431640625
1695712500427466500,8.584466552734375,0.854949951171875,-0.14862060546875,0.87005615234375
1695712500436988000,8.59398779296875,0.41229248046875,0.265350341796875,1.57958984375
1695712500446540000,8.6035400390625,-0.088043212890625,1.317291259765625,1.444549560546875
1695712500456092000,8.613091796875,-0.543365478515625,1.84539794921875,0.9100341796875
1695712500465644000,8.62264404296875,-0.928497314453125,0.79315185546875,1.2066650390625
1695712500475165400,8.63216552734375,-0.98052978515625,-0.54412841796875,2.182464599609375
1695712500484717600,8.641717529296875,-0.65887451171875,-1.522979736328125,3.01605224609375
1695712500494269400,8.65126953125,-0.23284912109375,-2.1026611328125,3.13385009765625
1695712500503821600,8.660821533203125,0.07598876953125,-2.183380126953125,2.43408203125
1695712500513343000,8.670343017578125,0.175323486328125,-1.578369140625,1.479644775390625
1695712500522894800,8.679894775390625,0.215301513671875,-0.52978515625,0.98175048828125
1695712500532447000,8.689447021484375,0.3155517578125,0.315704345703125,0.98907470703125
1695712500541998800,8.698998779296875,0.289764404296875,0.57373046875,1.3189697265625
1695712500551520500,8.7085205078125,0.160675048828125,0.346221923828125,1.740875244140625
1695712500561072400,8.718072265625,0.05615234375,-0.095062255859375,2.05841064453125
1695712500570624500,8.72762451171875,0.009765625,-0.4901123046875,2.129669189453125
1695712500580176400,8.73717626953125,0.02960205078125,-0.62835693359375,1.97540283203125
1695712500589698000,8.746697998046875,0.125274658203125,-0.423736572265625,1.749420166015625
1695712500599250000,8.75625,0.229034423828125,-0.091400146484375,1.59942626953125
1695712500608802000,8.765802001953125,0.275421142578125,0.0811767578125,1.555328369140625
1695712500618354000,8.77535400390625,0.222015380859375,0.12298583984375,1.56402587890625
1695712500627936500,8.7849365234375,0.08758544921875,0.1007080078125,1.539459228515625
1695712500637458000,8.7944580078125,-0.02532958984375,-0.038604736328125,1.464385986328125
1695712500647010000,8.804010009765625,-0.121612548828125,-0.29998779296875,1.37603759765625
1695712500656562000,8.81356201171875,-0.192108154296875,-0.49285888671875,1.29608154296875
1695712500666114000,8.823114013671875,-0.22857666015625,-0.545654296875,1.2408447265625
1695712500675635500,8.832635498046875,-0.2435302734375,-0.5133056640625,1.21795654296875
1695712500685187300,8.842187255859375,-0.264892578125,-0.417633056640625,1.20941162109375
1695712500694739500,8.851739501953125,-0.3009033203125,-0.306854248046875,1.20330810546875
1695712500704291300,8.861291259765625,-0.3619384765625,-0.2093505859375,1.20208740234375
1695712500713813000,8.87081298828125,-0.422821044921875,-0.130462646484375,1.20330810546875
1695712500723364900,8.88036474609375,-0.475006103515625,-0.099945068359375,1.214599609375
1695712500732917000,8.8899169921875,-0.515594482421875,-0.115203857421875,1.24298095703125
1695712500742468900,8.89946875,-0.536956787109375,-0.18035888671875,1.2799072265625
1695712500751990500,8.908990478515625,-0.524444580078125,-0.321502685546875,1.2823486328125
1695712500761542400,8.91854248046875,-0.485382080078125,-0.474700927734375,1.22955322265625
1695712500771094500,8.928094482421875,-0.442657470703125,-0.55267333984375,1.107330322265625
1695712500780646400,8.937646484375,-0.406341552734375,-0.51300048828125,0.94268798828125
1695712500790167800,8.947167724609375,-0.3851318359375,-0.412445068359375,0.773468017578125
1695712500799720000,8.956719970703125,-0.364990234375,-0.307464599609375,0.6256103515625
1695712500809271800,8.966271728515625,-0.3466796875,-0.20843505859375,0.4998779296875
1695712500818824000,8.975823974609375,-0.35430908203125,-0.15777587890625,0.388641357421875
1695712500828375800,8.985375732421875,-0.39825439453125,-0.20965576171875,0.28778076171875
1695712500837897500,8.9948974609375,-0.435028076171875,-0.310516357421875,0.2044677734375
1695712500847449300,9.004449462890625,-0.4071044921875,-0.335540771484375,0.14678955078125
1695712500857001500,9.01400146484375,-0.29754638671875,-0.298614501953125,0.104217529296875
1695712500866553300,9.02355322265625,-0.185089111328125,-0.28167724609375,0.015411376953125
1695712500876074800,9.03307470703125,-0.124053955078125,-0.320587158203125,-0.15960693359375
1695712500885627000,9.042626953125,-0.087432861328125,-0.380401611328125,-0.4119873046875
1695712500895179000,9.052178955078125,0.0067138671875,-0.382537841796875,-0.684356689453125
1695712500904731000,9.06173095703125,0.137481689453125,-0.19989013671875,-0.968170166015625
1695712500914283000,9.071282958984375,0.236358642578125,0.13031005859375,-1.2823486328125
1695712500923835000,9.0808349609375,0.3363037109375,0.487060546875,-1.595458984375
1695712500933387000,9.090386962890625,0.46600341796875,0.682220458984375,-1.8890380859375
1695712500942939000,9.09993896484375,0.580291748046875,0.653533935546875,-2.171173095703125
1695712500952460300,9.109460205078125,0.614166259765625,0.4833984375,-2.502288818359375
1695712500962012400,9.119012451171875,0.558013916015625,0.137939453125,-2.922821044921875
1695712500971564300,9.128564208984375,0.46600341796875,-0.339508056640625,-3.28094482421875
1695712500981116400,9.138116455078125,0.37384033203125,-0.721893310546875,-3.406982421875
1695712500990668300,9.147668212890625,0.283050537109375,-0.841827392578125,-3.3074951171875
1695712501000190000,9.15718994140625,0.182037353515625,-0.65185546875,-3.130645751953125
1695712501009741800,9.166741943359375,0.0823974609375,-0.397796630859375,-3.0078125
1695712501019294000,9.1762939453125,-0.04486083984375,-0.456695556640625,-2.9541015625
1695712501028845800,9.185845703125,-0.173187255859375,-1.0009765625,-2.876129150390625
1695712501038367200,9.1953671875,-0.25360107421875,-1.72821044921875,-2.7178955078125
1695712501047919400,9.20491943359375,-0.264892578125,-2.253570556640625,-2.475128173828125
1695712501057471500,9.214471435546875,-0.181121826171875,-2.28973388671875,-2.146453857421875
1695712501067023400,9.2240234375,-0.01373291015625,-1.7364501953125,-1.797332763671875
1695712501076544800,9.233544677734375,0.130462646484375,-0.90118408203125,-1.64886474609375
1695712501086097000,9.243096923828125,0.272979736328125,0.222930908203125,-1.716766357421875
1695712501095648800,9.252648681640625,0.3619384765625,1.013946533203125,-1.9970703125
1695712501105201000,9.262200927734375,0.290679931640625,1.057281494140625,-2.381439208984375
1695712501114722300,9.271722412109375,0.187225341796875,0.686187744140625,-2.60345458984375
1695712501124274400,9.2812744140625,0.165863037109375,0.411376953125,-2.5579833984375
1695712501133826300,9.290826416015625,0.204010009765625,0.344390869140625,-2.301025390625
1695712501143378400,9.30037841796875,0.237274169921875,0.439453125,-1.9561767578125
1695712501152899800,9.30989990234375,0.258331298828125,0.602264404296875,-1.60614013671875
1695712501162451700,9.31945166015625,0.286102294921875,0.722808837890625,-1.308746337890625
1695712501172003800,9.32900390625,0.33477783203125,0.77484130859375,-1.087188720703125
1695712501181555700,9.3385556640625,0.38421630859375,0.8111572265625,-0.916748046875
1695712501191107800,9.34810791015625,0.419921875,0.85968017578125,-0.753021240234375
1695712501200659700,9.35765966796875,0.43426513671875,0.9014892578125,-0.5731201171875
1695712501210211800,9.3672119140625,0.44219970703125,0.9039306640625,-0.389556884765625
1695712501219764000,9.376763916015625,0.44281005859375,0.86212158203125,-0.196533203125
1695712501229315800,9.38631591796875,0.428466796875,0.80169677734375,0.011749267578125
1695712501238837200,9.395837158203125,0.39825439453125,0.729827880859375,0.2392578125
1695712501248389400,9.405389404296875,0.3619384765625,0.648040771484375,0.50048828125
1695712501257941200,9.414941162109375,0.3216552734375,0.5731201171875,0.807037353515625
1695712501267493400,9.424493408203125,0.288543701171875,0.50872802734375,1.155853271484375
1695712501277014800,9.434014892578125,0.275726318359375,0.46966552734375,1.518096923828125
1695712501286567000,9.44356689453125,0.283050537109375,0.4656982421875,1.854095458984375
1695712501296118800,9.453118896484375,0.325927734375,0.54595947265625,2.122039794921875
1695712501305671000,9.4626708984375,0.399169921875,0.731048583984375,2.2796630859375
1695712501315192300,9.4721923828125,0.500335693359375,0.989837646484375,2.240753173828125
1695712501324744200,9.481744140625,0.626068115234375,1.263427734375,1.834259033203125
1695712501334296300,9.49129638671875,0.71929931640625,1.296234130859375,1.00128173828125
1695712501343848200,9.50084814453125,0.67657470703125,1.21368408203125,-0.067138671875
1695712501353369900,9.510369873046875,0.4412841796875,1.044464111328125,-1.2091064453125
1695712501362921700,9.519921630859375,0.242156982421875,0.598297119140625,-2.0166015625
1695712501372473900,9.529473876953125,0.386962890625,-0.25238037109375,-2.140350341796875
1695712501382025700,9.539025634765625,0.68450927734375,-0.90728759765625,-1.833648681640625
1695712501391577900,9.548577880859375,0.7550048828125,-0.796051025390625,-1.512451171875
1695712501401099300,9.558099365234375,0.490875244140625,-0.172119140625,-1.231689453125
1695712501410651400,9.5676513671875,0.173187255859375,0.43548583984375,-0.951690673828125
1695712501420203300,9.577203369140625,0.0732421875,0.86822509765625,-0.619049072265625
1695712501429755400,9.58675537109375,0.130157470703125,1.355743408203125,-0.2001953125
1695712501439276800,9.59627685546875,0.02655029296875,2.042388916015625,0.336456298828125
1695712501448828700,9.60582861328125,-0.199737548828125,2.468109130859375,1.22711181640625
1695712501458380800,9.615380859375,-0.396728515625,0.970001220703125,2.248077392578125
1695712501467932700,9.6249326171875,-0.186920166015625,-2.165985107421875,1.778411865234375
1695712501477454300,9.634454345703125,0.0299072265625,-2.43896484375,0.28411865234375
1695712501487036700,9.64403662109375,0.290985107421875,0.0677490234375,-1.080474853515625
1695712501496588800,9.6535888671875,0.564727783203125,1.011199951171875,-0.52886962890625
1695712501506140700,9.663140625,0.66436767578125,-0.1324462890625,1.038665771484375
1695712501515662300,9.672662353515625,0.42510986328125,-0.416107177734375,1.838226318359375
1695712501525214200,9.682214111328125,0.015869140625,0.260772705078125,1.812286376953125
1695712501534766300,9.691766357421875,-0.421905517578125,0.87646484375,1.386260986328125
1695712501544318200,9.701318115234375,-0.67047119140625,0.83892822265625,1.2725830078125
1695712501553870300,9.710870361328125,-0.6103515625,0.1904296875,1.5838623046875
1695712501563391700,9.720391845703125,-0.37689208984375,-0.61553955078125,2.118988037109375
1695712501572944000,9.72994384765625,-0.082550048828125,-1.2506103515625,2.431640625
1695712501582495700,9.739495849609375,0.207366943359375,-1.67022705078125,2.238922119140625
1695712501592047900,9.7490478515625,0.4248046875,-1.72515869140625,1.865386962890625
1695712501601569300,9.7585693359375,0.527496337890625,-1.458282470703125,1.67572021484375
1695712501611121200,9.76812109375,0.515594482421875,-1.037445068359375,1.67755126953125
1695712501620673300,9.77767333984375,0.38726806640625,-0.64697265625,1.783294677734375
1695712501630225200,9.78722509765625,0.200042724609375,-0.422515869140625,1.920166015625
1695712501639746800,9.796746826171875,-0.00732421875,-0.451507568359375,2.00592041015625
1695712501649298700,9.806298583984375,-0.165252685546875,-0.703582763671875,1.98486328125
1695712501658850800,9.815850830078125,-0.209503173828125,-0.98602294921875,1.870574951171875
1695712501668402700,9.825402587890625,-0.142059326171875,-0.9991455078125,1.7242431640625
1695712501677924400,9.83492431640625,-0.02685546875,-0.666961669921875,1.6156005859375
1695712501687476200,9.844476318359375,0.0738525390625,-0.269775390625,1.55303955078125
1695712501697028400,9.8540283203125,0.1153564453125,-0.034027099609375,1.541595458984375
1695712501706580200,9.863580322265625,0.0579833984375,0.034942626953125,1.526031494140625
1695712501716101600,9.8731015625,-0.050506591796875,-0.092926025390625,1.474761962890625
1695712501725653800,9.88265380859375,-0.133819580078125,-0.323333740234375,1.420135498046875
1695712501735205600,9.89220556640625,-0.183868408203125,-0.55267333984375,1.385345458984375
1695712501744757800,9.9017578125,-0.23468017578125,-0.717620849609375,1.3470458984375
1695712501754309600,9.9113095703125,-0.24627685546875,-0.757293701171875,1.3446044921875
1695712501763831300,9.920831298828125,-0.228271484375,-0.711517333984375,1.390228271484375
1695712501773413600,9.93041357421875,-0.23345947265625,-0.6231689453125,1.430816650390625
1695712501782965800,9.9399658203125,-0.2734375,-0.53497314453125,1.442718505859375
1695712501792517600,9.949517578125,-0.33660888671875,-0.458221435546875,1.442413330078125
1695712501802039300,9.959039306640625,-0.404052734375,-0.380706787109375,1.442108154296875
1695712501811591200,9.968591064453125,-0.452728271484375,-0.312957763671875,1.451263427734375
1695712501821143300,9.978143310546875,-0.477447509765625,-0.304412841796875,1.465606689453125
1695712501830695200,9.987695068359375,-0.490875244140625,-0.423126220703125,1.438751220703125
1695712501840216800,9.997216796875,-0.460968017578125,-0.5230712890625,1.370849609375
1695712501849768700,10.006768798828125,-0.412445068359375,-0.51361083984375,1.25213623046875
1695712501859320800,10.01632080078125,-0.37322998046875,-0.400543212890625,1.046905517578125
1695712501868872700,10.025872802734375,-0.35308837890625,-0.22857666015625,0.801239013671875
1695712501878394000,10.03539404296875,-0.35400390625,-0.1239013671875,0.604248046875
1695712501887946200,10.0449462890625,-0.364990234375,-0.113067626953125,0.461273193359375
1695712501897498000,10.054498046875,-0.37567138671875,-0.15228271484375,0.328216552734375
1695712501907050200,10.06405029296875,-0.39154052734375,-0.2618408203125,0.19805908203125
1695712501916602000,10.07360205078125,-0.39642333984375,-0.364227294921875,0.090179443359375
1695712501926123800,10.083123779296875,-0.38116455078125,-0.369415283203125,0.023651123046875
1695712501935675600,10.092675537109375,-0.360107421875,-0.348968505859375,-0.020294189453125
1695712501945227800,10.102227783203125,-0.32257080078125,-0.362091064453125,-0.113525390625
1695712501954779600,10.111779541015625,-0.291748046875,-0.394439697265625,-0.297393798828125
1695712501964301300,10.12130126953125,-0.2630615234375,-0.418243408203125,-0.543212890625
1695712501973853200,10.130853271484375,-0.185699462890625,-0.411224365234375,-0.819091796875
1695712501983405300,10.1404052734375,-0.058135986328125,-0.312652587890625,-1.12091064453125
1695712501992957200,10.149957275390625,0.06500244140625,-0.085906982421875,-1.440277099609375
1695712502002478600,10.159478515625,0.180206298828125,0.277557373046875,-1.747283935546875
1695712502012030700,10.16903076171875,0.31005859375,0.659027099609375,-2.053375244140625
1695712502021582600,10.17858251953125,0.45074462890625,0.79559326171875,-2.37396240234375
1695712502031134700,10.188134765625,0.543975830078125,0.597076416015625,-2.7239990234375
1695712502040656100,10.19765625,0.499725341796875,0.18768310546875,-3.10516357421875
1695712502050208300,10.207208251953125,0.4071044921875,-0.359649658203125,-3.4112548828125
1695712502059790600,10.21679052734375,0.362548828125,-0.793914794921875,-3.502655029296875
1695712502069342700,10.2263427734375,0.30242919921875,-0.8782958984375,-3.4149169921875
1695712502078864100,10.235864013671875,0.160369873046875,-0.62774658203125,-3.28521728515625
1695712502088416300,10.245416259765625,-0.034942626953125,-0.26153564453125,-3.182525634765625
1695712502097968000,10.254968017578125,-0.190277099609375,-0.23529052734375,-3.08563232421875
1695712502107520300,10.264520263671875,-0.25177001953125,-0.5841064453125,-2.912750244140625
1695712502117072100,10.274072021484375,-0.27313232421875,-1.076202392578125,-2.68096923828125
1695712502126593800,10.28359375,-0.2410888671875,-1.502532958984375,-2.415313720703125
1695712502136145700,10.293145751953125,-0.174407958984375,-1.605224609375,-2.111663818359375
1695712502145697800,10.30269775390625,-0.070648193359375,-1.175384521484375,-1.85791015625
1695712502155249700,10.312249755859375,0.124969482421875,-0.28350830078125,-1.736907958984375
1695712502164771000,10.32177099609375,0.3485107421875,0.641021728515625,-1.834259033203125
1695712502174323200,10.3313232421875,0.41717529296875,1.062164306640625,-2.133941650390625
1695712502183875000,10.340875,0.34698486328125,1.094512939453125,-2.371826171875
1695712502193427200,10.35042724609375,0.300140380859375,0.889892578125,-2.440032958984375
1695712502202948600,10.359948486328125,0.290069580078125,0.736846923828125,-2.3193359375
1695712502212500700,10.369500732421875,0.271759033203125,0.713043212890625,-2.100067138671875
1695712502222052600,10.379052490234375,0.256805419921875,0.746917724609375,-1.822357177734375
1695712502231604700,10.388604736328125,0.262908935546875,0.78857421875,-1.54754638671875
1695712502241126100,10.398126220703125,0.289154052734375,0.83038330078125,-1.308135986328125
1695712502250678300,10.40767822265625,0.3125,0.89111328125,-1.092376708984375
1695712502260230100,10.417230224609375,0.31402587890625,0.91796875,-0.89569091796875
1695712502269782300,10.4267822265625,0.301971435546875,0.91461181640625,-0.710296630859375
1695712502279334100,10.436334228515625,0.283050537109375,0.90728759765625,-0.52398681640625
1695712502288855600,10.44585546875,0.265960693359375,0.85601806640625,-0.338592529296875
1695712502298407700,10.45540771484375,0.240936279296875,0.79010009765625,-0.142822265625
1695712502307959600,10.46495947265625,0.208892822265625,0.741119384765625,0.084075927734375
1695712502317511700,10.47451171875,0.179595947265625,0.696868896484375,0.354461669921875
1695712502327033000,10.484033203125,0.165557861328125,0.634002685546875,0.670928955078125
1695712502336615700,10.49361572265625,0.180816650390625,0.594024658203125,1.029510498046875
1695712502346167600,10.50316748046875,0.210723876953125,0.579986572265625,1.392059326171875
1695712502355719700,10.5127197265625,0.252532958984375,0.592193603515625,1.72821044921875
1695712502365241000,10.522240966796875,0.32135009765625,0.662689208984375,2.01324462890625
1695712502374793200,10.531793212890625,0.42327880859375,0.81268310546875,2.222442626953125
1695712502384345000,10.541344970703125,0.536346435546875,1.029205322265625,2.3211669921875
1695712502393897200,10.550897216796875,0.630340576171875,1.327362060546875,2.207794189453125
1695712502403418600,10.560418701171875,0.7049560546875,1.57745361328125,1.760711669921875
1695712502412970800,10.569970703125,0.7373046875,1.48162841796875,0.8868408203125
1695712502422522600,10.579522705078125,0.630950927734375,1.27410888671875,-0.293426513671875
1695712502432074800,10.58907470703125,0.3790283203125,1.080474853515625,-1.453704833984375
1695712502441596200,10.59859619140625,0.236358642578125,0.684661865234375,-2.156829833984375
1695712502451148000,10.60814794921875,0.3497314453125,-0.2288818359375,-2.156219482421875
1695712502460700200,10.6177001953125,0.565643310546875,-0.919189453125,-1.794281005859375
1695712502470252000,10.627251953125,0.582122802734375,-0.87371826171875,-1.429901123046875
1695712502479773700,10.636773681640625,0.296173095703125,-0.439605712890625,-1.080780029296875
1695712502489325600,10.64632568359375,-0.0201416015625,-0.016021728515625,-0.762176513671875
1695712502498877700,10.655877685546875,-0.067291259765625,0.5413818359375,-0.43121337890625
1695712502508429600,10.6654296875,-0.074615478515625,1.475830078125,-0.014495849609375
1695712502517981700,10.674981689453125,-0.302734375,2.470550537109375,0.48065185546875
1695712502527503000,10.684503173828125,-0.60211181640625,2.751007080078125,1.2506103515625
1695712502537055000,10.694054931640625,-0.6671142578125,1.187744140625,1.894378662109375
1695712502546607000,10.703607177734375,-0.185699462890625,-1.619873046875,1.149749755859375
1695712502556159200,10.7131591796875,0.194244384765625,-2.03125,-0.21697998046875
1695712502565680600,10.7226806640625,0.532684326171875,-0.54107666015625,-1.039581298828125
1695712502575232500,10.732232421875,0.836181640625,0.330657958984375,-0.17822265625
1695712502584784600,10.74178466796875,0.867767333984375,-0.28900146484375,1.475677490234375
1695712502594336500,10.75133642578125,0.4736328125,-0.55450439453125,2.30133056640625
1695712502603858200,10.760858154296875,-0.00640869140625,-0.1519775390625,2.169952392578125
1695712502613410000,10.77041015625,-0.412750244140625,0.54534912109375,1.6357421875
1695712502622992600,10.77999267578125,-0.502166748046875,0.77484130859375,1.57623291015625
1695712502632544500,10.78954443359375,-0.31280517578125,0.373077392578125,1.801910400390625
1695712502642066200,10.799066162109375,-0.082550048828125,-0.381317138671875,2.128448486328125
1695712502651618000,10.8086181640625,0.079345703125,-0.919189453125,2.29278564453125
1695712502661170200,10.818170166015625,0.276947021484375,-0.968017578125,2.02239990234375
1695712502670722000,10.82772216796875,0.44677734375,-0.6591796875,1.514434814453125
1695712502680274200,10.837274169921875,0.502166748046875,-0.422821044921875,1.2677001953125
1695712502689795600,10.846795654296875,0.47637939453125,-0.336456298828125,1.34765625
1695712502699347500,10.856347412109375,0.37933349609375,-0.24566650390625,1.57684326171875
1695712502708899600,10.865899658203125,0.222320556640625,-0.216064453125,1.833953857421875
1695712502718451700,10.87545166015625,0.04364013671875,-0.29937744140625,2.0208740234375
1695712502727973000,10.88497314453125,-0.089874267578125,-0.53009033203125,2.0916748046875
1695712502737525000,10.89452490234375,-0.118865966796875,-0.770111083984375,2.032470703125
1695712502747077000,10.9040771484375,-0.03753662109375,-0.805816650390625,1.897125244140625
1695712502756629000,10.91362890625,0.09613037109375,-0.56396484375,1.761322021484375
1695712502766150700,10.923150634765625,0.228729248046875,-0.17669677734375,1.6802978515625
1695712502775702500,10.93270263671875,0.277862548828125,0.04180908203125,1.6339111328125
1695712502785254700,10.942254638671875,0.255889892578125,0.038604736328125,1.61285400390625
1695712502794806500,10.951806640625,0.176849365234375,-0.108795166015625,1.588134765625
1695712502804328000,10.961327880859375,0.06927490234375,-0.355072021484375,1.529388427734375
1695712502813880000,10.970880126953125,-0.02288818359375,-0.57952880859375,1.464080810546875
1695712502823432000,10.980431884765625,-0.088043212890625,-0.670318603515625,1.414031982421875
1695712502832984000,10.989984130859375,-0.149078369140625,-0.5865478515625,1.381378173828125
1695712502842505500,10.99950537109375,-0.208892822265625,-0.404205322265625,1.34796142578125
1695712502852057600,11.0090576171875,-0.26702880859375,-0.26092529296875,1.3238525390625
1695712502861609500,11.018609375,-0.31829833984375,-0.2008056640625,1.31591796875
1695712502871161600,11.02816162109375,-0.3521728515625,-0.1959228515625,1.3232421875
1695712502880713500,11.03771337890625,-0.3753662109375,-0.2166748046875,1.3531494140625
1695712502890235100,11.047235107421875,-0.398712158203125,-0.2734375,1.378936767578125
1695712502899787000,11.056787109375,-0.416412353515625,-0.381317138671875,1.381988525390625
1695712502909339100,11.066339111328125,-0.430755615234375,-0.5084228515625,1.36077880859375
1695712502918921500,11.07592138671875,-0.436859130859375,-0.5987548828125,1.28570556640625
1695712502928443100,11.085443115234375,-0.438995361328125,-0.5889892578125,1.164398193359375
1695712502937995000,11.0949951171875,-0.444793701171875,-0.475006103515625,1.00860595703125
1695712502947547100,11.104547119140625,-0.430755615234375,-0.349578857421875,0.836639404296875
1695712502957099000,11.11409912109375,-0.39642333984375,-0.30120849609375,0.672149658203125
1695712502966620400,11.123620361328125,-0.3497314453125,-0.3106689453125,0.53802490234375
1695712502976172500,11.133172607421875,-0.3143310546875,-0.303497314453125,0.427093505859375
1695712502985724400,11.142724365234375,-0.30670166015625,-0.321197509765625,0.315399169921875
1695712502995285200,11.15228515625,-0.31829833984375,-0.424652099609375,0.20111083984375
1695712503004806700,11.161806640625,-0.325927734375,-0.54718017578125,0.103912353515625
1695712503014358800,11.17135888671875,-0.30517578125,-0.611572265625,0.023651123046875
1695712503023910700,11.18091064453125,-0.26458740234375,-0.606689453125,-0.07354736328125
1695712503033462800,11.190462890625,-0.23712158203125,-0.535888671875,-0.228118896484375
1695712503043014700,11.2000146484375,-0.23101806640625,-0.417022705078125,-0.45135498046875
1695712503052536300,11.209536376953125,-0.185394287109375,-0.336456298828125,-0.717315673828125
1695712503062088200,11.219088134765625,-0.061187744140625,-0.26153564453125,-0.976104736328125
1695712503071640300,11.228640380859375,0.06072998046875,-0.109710693359375,-1.25
1695712503081192200,11.238192138671875,0.163116455078125,0.15655517578125,-1.55975341796875
1695712503090713600,11.247713623046875,0.32318115234375,0.47271728515625,-1.87286376953125
1695712503100265700,11.257265625,0.496978759765625,0.655364990234375,-2.173614501953125
1695712503109817900,11.26681787109375,0.572662353515625,0.688629150390625,-2.502899169921875
1695712503119369700,11.27636962890625,0.552520751953125,0.51544189453125,-2.918853759765625
1695712503128891100,11.28589111328125,0.532989501953125,0.0506591796875,-3.31695556640625
1695712503138443300,11.295443359375,0.541839599609375,-0.49591064453125,-3.488616943359375
1695712503147995100,11.3049951171875,0.497283935546875,-0.792083740234375,-3.41888427734375
1695712503157547300,11.31454736328125,0.379638671875,-0.725860595703125,-3.246917724609375
1695712503167068700,11.324068603515625,0.214996337890625,-0.435333251953125,-3.099517822265625
1695712503176620800,11.333620849609375,0.03082275390625,-0.257568359375,-3.01025390625
1695712503186172700,11.343172607421875,-0.128936767578125,-0.438995361328125,-2.9364013671875
1695712503195724800,11.352724853515625,-0.22979736328125,-0.85113525390625,-2.813873291015625
1695712503205276700,11.362276611328125,-0.27923583984375,-1.31103515625,-2.6416015625
1695712503214828800,11.371828857421875,-0.24261474609375,-1.548614501953125,-2.381744384765625
1695712503224380700,11.381380615234375,-0.086517333984375,-1.432037353515625,-2.057342529296875
1695712503233932800,11.390932861328125,0.1177978515625,-0.8843994140625,-1.797027587890625
1695712503243484700,11.400484619140625,0.276947021484375,-0.039215087890625,-1.745147705078125
1695712503253006000,11.410006103515625,0.34454345703125,0.79681396484375,-1.9061279296875
1695712503262558200,11.41955810546875,0.284881591796875,1.035919189453125,-2.24151611328125
1695712503272110300,11.4291103515625,0.220184326171875,0.782470703125,-2.500152587890625
1695712503281662200,11.438662109375,0.234222412109375,0.45623779296875,-2.520904541015625
1695712503291183600,11.44818359375,0.287322998046875,0.329437255859375,-2.3358154296875
1695712503300735700,11.45773583984375,0.32012939453125,0.4644775390625,-2.058868408203125
1695712503310287600,11.46728759765625,0.34881591796875,0.626068115234375,-1.776885986328125
1695712503319839700,11.47683984375,0.3887939453125,0.744781494140625,-1.53076171875
1695712503329361200,11.486361083984375,0.42938232421875,0.859375,-1.327972412109375
1695712503338913300,11.495913330078125,0.45867919921875,0.960235595703125,-1.16302490234375
1695712503348465200,11.505465087890625,0.47515869140625,1.007843017578125,-1.017608642578125
1695712503358017300,11.515017333984375,0.47027587890625,1.063995361328125,-0.84808349609375
1695712503367538700,11.52453857421875,0.44525146484375,1.1199951171875,-0.656280517578125
1695712503377090600,11.534090576171875,0.40924072265625,1.101837158203125,-0.4595947265625
1695712503386642700,11.543642578125,0.3643798828125,1.047515869140625,-0.252838134765625
1695712503396194600,11.553194580078125,0.311279296875,0.992584228515625,-0.014495849609375
1695712503405746700,11.56274658203125,0.257720947265625,0.91094970703125,0.272216796875
1695712503415268000,11.57226806640625,0.222625732421875,0.80047607421875,0.6024169921875
1695712503424820200,11.5818203125,0.221405029296875,0.716705322265625,0.96221923828125
1695712503434372000,11.5913720703125,0.243072509765625,0.685577392578125,1.3299560546875
1695712503443924200,11.60092431640625,0.284271240234375,0.721282958984375,1.68548583984375
1695712503453445600,11.610445556640625,0.34759521484375,0.82763671875,1.995849609375
1695712503462997800,11.619997802734375,0.4248046875,0.975189208984375,2.220916748046875
1695712503472549600,11.629549560546875,0.46966552734375,1.1346435546875,2.28759765625
1695712503482101800,11.639101806640625,0.512237548828125,1.27227783203125,2.0574951171875
1695712503491653600,11.648653564453125,0.598907470703125,1.2176513671875,1.457366943359375
1695712503501205800,11.658205810546875,0.67596435546875,0.988616943359375,0.5572509765625
1695712503510757600,11.667757568359375,0.561676025390625,0.9130859375,-0.51727294921875
1695712503520309800,11.677309814453125,0.273284912109375,0.87127685546875,-1.6192626953125
1695712503529831200,11.6868310546875,0.175323486328125,0.345001220703125,-2.147369384765625
1695712503539383000,11.696383056640625,0.40313720703125,-0.751495361328125,-1.8975830078125
1695712503548935200,11.70593505859375,0.628814697265625,-1.32049560546875,-1.374053955078125
1695712503558487000,11.715487060546875,0.553131103515625,-1.00341796875,-0.967864990234375
1695712503568008700,11.7250087890625,0.223236083984375,-0.24749755859375,-0.727691650390625
1695712503577560600,11.734560546875,-0.028076171875,0.4632568359375,-0.57861328125
1695712503587112700,11.74411279296875,-0.052642822265625,1.2274169921875,-0.326995849609375
1695712503596664600,11.75366455078125,-0.156097412109375,2.103424072265625,0.059661865234375
1695712503606216700,11.763216796875,-0.34149169921875,2.6751708984375,0.606689453125
1695712503615738000,11.772738037109375,-0.449981689453125,1.367034912109375,1.34735107421875
1695712503625290200,11.782290283203125,-0.28900146484375,-1.747283935546875,1.58538818359375
1695712503634842000,11.791842041015625,-0.055999755859375,-2.75634765625,0.805206298828125
1695712503644394200,11.801394287109375,0.191802978515625,-0.51849365234375,-0.45379638671875
1695712503653915600,11.81091552734375,0.638580322265625,-0.337677001953125,-0.005645751953125
1695712503663467500,11.820467529296875,0.879058837890625,-1.130828857421875,1.35498046875
1695712503673019600,11.83001953125,0.72601318359375,-0.59906005859375,1.96685791015625
1695712503682571500,11.839571533203125,0.301971435546875,0.47515869140625,1.70745849609375
1695712503692093200,11.84909326171875,-0.145721435546875,0.8551025390625,1.285400390625
1695712503701645000,11.85864501953125,-0.447235107421875,0.205078125,1.541900634765625
1695712503711197200,11.868197265625,-0.434417724609375,-0.65460205078125,2.274169921875
1695712503720749000,11.8777490234375,-0.194244384765625,-1.2982177734375,2.80303955078125
1695712503730270700,11.887270751953125,0.079345703125,-1.6986083984375,2.80242919921875
1695712503739822600,11.896822509765625,0.261993408203125,-1.72760009765625,2.27996826171875
1695712503749374700,11.906374755859375,0.33599853515625,-1.35101318359375,1.6278076171875
1695712503758926600,11.915926513671875,0.316162109375,-0.808258056640625,1.26434326171875
1695712503768478700,11.925478759765625,0.277862548828125,-0.360260009765625,1.23626708984375
1695712503778030600,11.935030517578125,0.211029052734375,-0.16143798828125,1.436309814453125
1695712503787582700,11.944582763671875,0.09613037109375,-0.2325439453125,1.72943115234375
1695712503797134600,11.954134521484375,-0.047760009765625,-0.49591064453125,1.97052001953125
1695712503806686700,11.963686767578125,-0.169830322265625,-0.803070068359375,2.052001953125
1695712503816208100,11.9732080078125,-0.23101806640625,-1.115264892578125,1.97509765625
1695712503825760000,11.982760009765625,-0.190277099609375,-1.2408447265625,1.812591552734375
1695712503835312000,11.99231201171875,-0.043487548828125,-1.079254150390625,1.6448974609375
1695712503844864000,12.001864013671875,0.11505126953125,-0.774383544921875,1.539764404296875
1695712503854385700,12.0113857421875,0.193023681640625,-0.479278564453125,1.491851806640625
1695712503863937500,12.0209375,0.186920166015625,-0.325164794921875,1.465301513671875
1695712503873489700,12.03048974609375,0.148773193359375,-0.28594970703125,1.443939208984375
1695712503883041500,12.04004150390625,0.07293701171875,-0.372772216796875,1.401519775390625
1695712503892563200,12.049563232421875,-0.0274658203125,-0.54351806640625,1.31622314453125
1695712503902115000,12.059114990234375,-0.106353759765625,-0.64239501953125,1.23565673828125
1695712503911667200,12.068667236328125,-0.158538818359375,-0.589599609375,1.21124267578125
1695712503921219000,12.078218994140625,-0.198822021484375,-0.471954345703125,1.2310791015625
1695712503930740500,12.087740478515625,-0.2276611328125,-0.402069091796875,1.2652587890625
1695712503940292600,12.097292724609375,-0.23834228515625,-0.393218994140625,1.2994384765625
1695712503949844500,12.106844482421875,-0.25177001953125,-0.407257080078125,1.3458251953125
1695712503959396600,12.116396728515625,-0.27313232421875,-0.402374267578125,1.400299072265625
1695712503968918000,12.12591796875,-0.29876708984375,-0.380401611328125,1.440277099609375
1695712503978470100,12.13547021484375,-0.32684326171875,-0.360870361328125,1.461639404296875
1695712503988022000,12.14502197265625,-0.3570556640625,-0.347137451171875,1.475372314453125
1695712503997574100,12.15457421875,-0.39093017578125,-0.30059814453125,1.490936279296875
1695712504007095600,12.164095458984375,-0.422515869140625,-0.26824951171875,1.466522216796875
1695712504016647700,12.173647705078125,-0.441741943359375,-0.28045654296875,1.402740478515625
1695712504026199600,12.183199462890625,-0.439910888671875,-0.359039306640625,1.2738037109375
1695712504035751700,12.192751708984375,-0.420684814453125,-0.478668212890625,1.069488525390625
1695712504045303600,12.202303466796875,-0.38909912109375,-0.57403564453125,0.831451416015625
1695712504054855700,12.211855712890625,-0.3533935546875,-0.58074951171875,0.6298828125
1695712504064407600,12.221407470703125,-0.33111572265625,-0.52154541015625,0.48583984375
1695712504073959700,12.230959716796875,-0.32806396484375,-0.516357421875,0.373382568359375
1695712504083511600,12.240511474609375,-0.3302001953125,-0.676116943359375,0.2642822265625
1695712504093033000,12.250032958984375,-0.32806396484375,-0.908203125,0.1593017578125
1695712504102585000,12.259585205078125,-0.3143310546875,-1.054534912109375,0.048370361328125
1695712504112137000,12.269136962890625,-0.27740478515625,-1.056060791015625,-0.0860595703125
1695712504121689000,12.278689208984375,-0.210723876953125,-0.93048095703125,-0.264739990234375
1695712504131210500,12.28821044921875,-0.087127685546875,-0.729217529296875,-0.477294921875
1695712504140762600,12.2977626953125,0.087890625,-0.5633544921875,-0.677947998046875
1695712504150314500,12.307314453125,0.234832763671875,-0.458526611328125,-0.89996337890625
1695712504159866600,12.31686669921875,0.3094482421875,-0.29693603515625,-1.1834716796875
1695712504169418500,12.32641845703125,0.3887939453125,-0.016937255859375,-1.5179443359375
1695712504178940200,12.335940185546875,0.510711669921875,0.251312255859375,-1.844024658203125
1695712504188492000,12.345491943359375,0.619354248046875,0.349578857421875,-2.106781005859375
1695712504198044200,12.355044189453125,0.634002685546875,0.373687744140625,-2.407073974609375
1695712504207596000,12.364595947265625,0.537872314453125,0.281219482421875,-2.849884033203125
1695712504217117400,12.374117431640625,0.41290283203125,-0.099639892578125,-3.31146240234375
1695712504226669600,12.383669677734375,0.32958984375,-0.57464599609375,-3.562774658203125
1695712504236221400,12.393221435546875,0.240020751953125,-0.805206298828125,-3.544769287109375
1695712504245773600,12.402773681640625,0.120849609375,-0.683441162109375,-3.36578369140625
1695712504255295000,12.412294921875,0.00762939453125,-0.370025634765625,-3.128814697265625
1695712504264847000,12.42184716796875,-0.097503662109375,-0.26397705078125,-2.882537841796875
1695712504274399000,12.43139892578125,-0.172576904296875,-0.423736572265625,-2.64923095703125
1695712504283951000,12.440951171875,-0.2392578125,-0.739593505859375,-2.484283447265625
1695712504293472500,12.450472412109375,-0.32501220703125,-1.090850830078125,-2.401885986328125
1695712504303024600,12.460024658203125,-0.3753662109375,-1.162567138671875,-2.28363037109375
1695712504312576500,12.469576416015625,-0.30609130859375,-0.711517333984375,-2.104339599609375
1695712504322128600,12.479128662109375,-0.086822509765625,0.228424072265625,-1.9024658203125
1695712504331650000,12.488650146484375,0.09063720703125,1.032562255859375,-1.96197509765625
1695712504341232600,12.498232666015625,0.08514404296875,1.314544677734375,-2.24456787109375
1695712504350784500,12.507784423828125,0.029296875,1.015472412109375,-2.501678466796875
1695712504360336600,12.517336669921875,0.04486083984375,0.651092529296875,-2.56805419921875
1695712504369888500,12.526888427734375,0.11749267578125,0.4144287109375,-2.424468994140625
1695712504379410000,12.536409912109375,0.193023681640625,0.343780517578125,-2.171478271484375
1695712504388962000,12.545962158203125,0.265655517578125,0.489501953125,-1.87774658203125
1695712504398514000,12.555513916015625,0.32806396484375,0.731353759765625,-1.624755859375
1695712504408066000,12.565066162109375,0.3863525390625,0.872802734375,-1.437530517578125
1695712504417587500,12.57458740234375,0.43609619140625,0.948028564453125,-1.27838134765625
1695712504427139600,12.5841396484375,0.479583740234375,1.003265380859375,-1.1236572265625
1695712504436691500,12.59369140625,0.501556396484375,1.037139892578125,-0.952911376953125
1695712504446243600,12.60324365234375,0.501251220703125,1.040802001953125,-0.760955810546875
1695712504455765000,12.612764892578125,0.4656982421875,1.040191650390625,-0.56427001953125
1695712504465317000,12.622317138671875,0.40435791015625,0.998382568359375,-0.369415283203125
1695712504474869000,12.631868896484375,0.338134765625,0.914306640625,-0.16571044921875
1695712504484421000,12.641421142578125,0.278472900390625,0.81634521484375,0.079193115234375
1695712504493942500,12.650942626953125,0.230865478515625,0.713348388671875,0.374298095703125
1695712504503494400,12.660494384765625,0.206756591796875,0.632171630859375,0.714569091796875
1695712504513046500,12.670046630859375,0.210113525390625,0.617523193359375,1.067962646484375
1695712504522598400,12.679598388671875,0.230255126953125,0.675811767578125,1.405792236328125
1695712504532150500,12.689150634765625,0.270843505859375,0.80413818359375,1.70989990234375
1695712504541672000,12.698671875,0.34271240234375,0.986175537109375,1.94793701171875
1695712504551224000,12.70822412109375,0.42510986328125,1.19171142578125,2.0721435546875
1695712504560776000,12.71777587890625,0.480499267578125,1.380767822265625,1.97265625
1695712504570328000,12.727328125,0.528717041015625,1.437835693359375,1.5704345703125
1695712504579849500,12.736849365234375,0.583648681640625,1.285400390625,0.94390869140625
1695712504589401300,12.7464013671875,0.553436279296875,1.212158203125,0.172119140625
1695712504598953500,12.755953369140625,0.34271240234375,1.16973876953125,-0.88714599609375
1695712504608505300,12.76550537109375,0.07171630859375,0.966644287109375,-1.840972900390625
1695712504618027000,12.775027099609375,0.118865966796875,0.14251708984375,-2.098846435546875
1695712504627609600,12.784609619140625,0.42816162109375,-0.90301513671875,-1.721343994140625
1695712504637161500,12.794161376953125,0.619659423828125,-1.2249755859375,-1.231689453125
1695712504646713600,12.803713623046875,0.4833984375,-0.843353271484375,-0.86883544921875
1695712504656235000,12.813235107421875,0.197601318359375,-0.208740234375,-0.627593994140625
1695712504665787000,12.822786865234375,0.069580078125,0.47882080078125,-0.404052734375
1695712504675339000,12.832339111328125,0.0518798828125,1.304473876953125,-0.04364013671875
1695712504684891000,12.841890869140625,-0.095367431640625,2.078704833984375,0.427093505859375
1695712504694412500,12.85141259765625,-0.31463623046875,2.29705810546875,1.153411865234375
1695712504703964400,12.86096435546875,-0.489959716796875,1.011199951171875,1.978759765625
1695712504713516500,12.8705166015625,-0.26763916015625,-1.778106689453125,1.6748046875
1695712504723068400,12.880068359375,-0.00244140625,-2.7398681640625,0.2764892578125
1695712504732620500,12.88962060546875,0.262298583984375,-0.88714599609375,-0.909423828125
1695712504742142000,12.899141845703125,0.659332275390625,0.298614501953125,-0.393218994140625
1695712504751693800,12.90869384765625,0.80352783203125,-0.360870361328125,1.160430908203125
1695712504761246000,12.918245849609375,0.568389892578125,-0.62713623046875,2.04437255859375
1695712504770798000,12.927798095703125,0.174407958984375,-0.18890380859375,2.030029296875
1695712504780319500,12.937319580078125,-0.25115966796875,0.316925048828125,1.59149169921875
1695712504789871400,12.946871337890625,-0.461883544921875,0.296783447265625,1.60675048828125
1695712504799423500,12.956423583984375,-0.35797119140625,-0.1275634765625,1.96044921875
1695712504808975400,12.965975341796875,-0.104827880859375,-0.698394775390625,2.37640380859375
