time,seconds_elapsed,z,y,x
1695713036789077000,0.246076904296875,-5.803419589996338,4.347339630126953,-3.41178297996521
1695713036808181000,0.265180908203125,-7.926357269287109,7.361640930175781,-5.5641255378723145
1695713036827254500,0.284254638671875,-9.368202209472656,8.775800704956055,-5.758862495422363
1695713036846389000,0.303388916015625,-12.273399353027344,8.865862846374512,-5.651628494262695
1695713036865462500,0.322462646484375,-10.877628326416016,8.981168746948242,-4.253093719482422
1695713036884566500,0.34156640625,-7.7388715744018555,6.8907012939453125,-5.19289493560791
1695713036903639800,0.360639892578125,-5.903053283691406,6.609356880187988,-4.319121837615967
1695713036922743800,0.379743896484375,-5.52100944519043,6.301107406616211,-4.2234578132629395
1695713036941847800,0.398847900390625,-4.3289666175842285,7.925215721130371,-4.284359455108643
1695713036960921300,0.41792138671875,-3.5006814002990723,8.462389945983887,-4.412915229797363
1695713036980025300,0.437025390625,-4.817284107208252,6.881561279296875,-3.471912384033203
1695713036999099000,0.456098876953125,-3.8119497299194336,7.537666320800781,-3.1955971717834473
1695713037018203000,0.475202880859375,-2.1245784759521484,8.512349128723145,-2.8141069412231445
1695713037037276400,0.4942763671875,-2.0704798698425293,7.047125816345215,-3.0637547969818115
1695713037056380400,0.51338037109375,-5.098135948181152,7.5262346267700195,-2.171454906463623
1695713037075454000,0.532453857421875,-6.074296474456787,8.856232643127441,-3.26401948928833
1695713037094558000,0.551557861328125,-4.297542572021484,7.384371757507324,-3.720153331756592
1695713037113662000,0.570661865234375,-3.972423553466797,6.729252815246582,-2.4384889602661133
1695713037132766000,0.589765869140625,-3.9107136726379395,8.548270225524902,-2.9736716747283936
1695713037151870000,0.608869873046875,-3.1033143997192383,9.271625518798828,-2.3183164596557617
1695713037170943500,0.627943603515625,-2.119112968444824,10.637166976928711,-2.226926326751709
1695713037190047500,0.647047607421875,-3.9493722915649414,8.004894256591797,-2.000986099243164
1695713037209120800,0.666120849609375,-4.853982448577881,6.327555179595947,-1.8479719161987305
1695713037228224800,0.685224853515625,-4.334628105163574,9.107741355895996,-1.736734390258789
1695713037247298300,0.70429833984375,-3.994723320007324,8.894890785217285,-1.980701208114624
1695713037266402300,0.72340234375,-2.71502685546875,8.490968704223633,-1.2203984260559082
1695713037285475800,0.742475830078125,-1.1272611618041992,9.235929489135742,-0.48832035064697266
1695713037304579800,0.761579833984375,-0.8252110481262207,10.32343578338623,-0.28881359100341797
1695713037323683800,0.780683837890625,-0.16198301315307617,10.639261245727539,0.07337760925292969
1695713037342757400,0.79975732421875,-0.6146936416625977,9.7428617477417,-0.05050945281982422
1695713037361861400,0.818861328125,-2.3597092628479004,8.691497802734375,-0.3163008689880371
1695713037380935000,0.837934814453125,-2.5479769706726074,8.163702011108398,0.8601469993591309
1695713037400039000,0.857038818359375,-3.77398681640625,10.945419311523438,0.8757081031799316
1695713037419143000,0.876142822265625,-7.201585292816162,11.205123901367188,-1.5841188430786133
1695713037438247000,0.895246826171875,-10.48801040649414,9.732017517089844,-3.9110116958618164
1695713037457320400,0.914320556640625,-11.049549102783203,8.206938743591309,-5.379327774047852
1695713037476424400,0.933424560546875,-9.76841926574707,7.135120391845703,-5.474051475524902
1695713037495528400,0.952528564453125,-9.263660430908203,6.897158622741699,-5.084993362426758
1695713037514601700,0.971601806640625,-8.604484558105469,5.679760932922363,-4.400016784667969
1695713037533705700,0.990705810546875,-4.501182556152344,1.9024754762649536,-1.573495864868164
1695713037552779300,1.009779296875,0.8752803802490234,0.09917479753494263,-2.3654794692993164
1695713037571883300,1.02888330078125,-2.7955470085144043,1.5587676763534546,-5.642564296722412
1695713037590956800,1.047956787109375,-13.188192367553711,6.3580098152160645,-5.063230991363525
1695713037610060800,1.067060791015625,-4.281277656555176,4.644447326660156,-1.4376459121704102
1695713037629134300,1.08613427734375,-9.167426109313965,3.452915668487549,-7.065335273742676
1695713037648238300,1.10523828125,-9.648103713989258,0.04904294013977051,-4.617311477661133
1695713037667342300,1.12434228515625,-8.931737899780273,0.2781848907470703,-2.429375648498535
1695713037686416000,1.143415771484375,-8.09876823425293,-0.017008066177368164,-1.6505532264709473
1695713037705550300,1.16255029296875,-7.487639427185059,1.519066572189331,-1.9004936218261719
1695713037724624000,1.181623779296875,-8.7399320602417,3.1226449012756348,-1.9709105491638184
1695713037743727900,1.200727783203125,-7.367034912109375,1.8100800514221191,0.04767274856567383
1695713037762813700,1.219813720703125,-7.9766926765441895,2.1061761379241943,0.030605792999267578
1695713037781917700,1.238917724609375,-8.236736297607422,2.451676368713379,-0.1152796745300293
1695713037800991200,1.2579912109375,-6.941155433654785,0.9699068069458008,2.143171787261963
1695713037820095200,1.27709521484375,-7.742105484008789,0.705899715423584,2.3444831371307373
1695713037839199200,1.29619921875,-10.770702362060547,1.4841322898864746,0.842365026473999
1695713037858272800,1.315272705078125,-12.481841087341309,4.737856864929199,0.7131383419036865
1695713037877376800,1.334376708984375,-3.7063980102539062,11.144126892089844,-0.8141934871673584
1695713037896450300,1.3534501953125,-8.591032981872559,10.069015502929688,-1.168166160583496
1695713037915554300,1.37255419921875,-6.8492631912231445,4.522477626800537,-0.7819352149963379
1695713037934780200,1.3917802734375,-7.142928123474121,4.390529632568359,-0.09212875366210938
1695713037954006300,1.41100634765625,-8.080927848815918,3.8274760246276855,-1.2153069972991943
1695713037973232400,1.430232421875,-9.14749526977539,4.178650379180908,-0.4927341938018799
1695713037992153300,1.4491533203125,-10.242246627807617,4.475583076477051,1.1417746543884277
1695713038010982700,1.467982666015625,-10.240684509277344,4.169067859649658,1.0452899932861328
1695713038030117000,1.4871171875,-6.750830173492432,5.825138568878174,-1.2377510070800781
1695713038049221000,1.50622119140625,-7.234957218170166,6.897825241088867,-2.15554141998291
1695713038068294700,1.525294677734375,-8.62466049194336,5.172532081604004,-0.18506860733032227
1695713038087398700,1.544398681640625,-6.289308071136475,4.419837474822998,-0.18439102172851562
1695713038106472200,1.56347216796875,-7.0375189781188965,4.444291114807129,-0.9817428588867188
1695713038125576200,1.582576171875,-7.780601978302002,4.435086727142334,-1.357907772064209
1695713038144649700,1.601649658203125,-7.814927101135254,4.117403984069824,-0.4753870964050293
1695713038163784200,1.6207841796875,-7.782279014587402,2.7994766235351562,0.22404193878173828
1695713038182857700,1.639857666015625,-7.591838836669922,1.3485097885131836,1.1470463275909424
1695713038201931300,1.65893115234375,-8.034637451171875,2.401437759399414,0.9992296695709229
1695713038221035300,1.67803515625,-8.540728569030762,3.8358516693115234,0.9558947086334229
1695713038240108500,1.697108642578125,-9.131381034851074,1.6085777282714844,3.207353353500366
1695713038259212500,1.716212646484375,-8.561923027038574,-1.895792007446289,4.873979568481445
1695713038278316500,1.735316650390625,-6.450716495513916,-5.130319595336914,4.934303283691406
1695713038297420500,1.754420654296875,-6.062282085418701,-5.535000801086426,3.647477865219116
1695713038316494000,1.773494140625,-9.895991325378418,-3.9760990142822266,3.415931463241577
1695713038335598000,1.79259814453125,-8.627579689025879,1.8794984817504883,2.5583653450012207
1695713038354671600,1.811671630859375,-0.5358238220214844,6.138057708740234,-0.5039591789245605
1695713038373775600,1.830775634765625,-12.5191650390625,6.453578472137451,-3.576812267303467
1695713038392879600,1.849879638671875,-11.219100952148438,6.412269592285156,-0.11124372482299805
1695713038411953200,1.868953125,-2.7076516151428223,6.223807334899902,4.633736610412598
1695713038431057200,1.88805712890625,-10.195401191711426,4.06683349609375,8.335277557373047
1695713038450130700,1.907130615234375,-12.222282409667969,16.386587142944336,2.4055733680725098
1695713038469234700,1.926234619140625,-5.038297653198242,20.668359756469727,0.03823554515838623
1695713038488308200,1.94530810546875,-6.010622024536133,5.43292236328125,3.6242246627807617
1695713038507412200,1.964412109375,-9.504693984985352,1.701064109802246,3.8868889808654785
1695713038526485500,1.983485595703125,-8.692158699035645,2.2572431564331055,3.0056161880493164
1695713038545589500,2.002589599609375,-7.642131328582764,0.27225208282470703,3.3925907611846924
1695713038564724200,2.02172412109375,-7.78993558883667,-6.091677188873291,4.4972052574157715
1695713038583797500,2.040797607421875,-8.282576560974121,-6.8076043128967285,6.431271076202393
1695713038602901500,2.059901611328125,-8.625039100646973,5.066616535186768,4.656704902648926
1695713038621975000,2.07897509765625,-8.89949893951416,11.39340591430664,1.3920867443084717
1695713038641079000,2.0980791015625,-7.216956615447998,10.474288940429688,1.343353509902954
1695713038660152600,2.117152587890625,-4.306766986846924,8.215063095092773,2.209341049194336
1695713038679256600,2.136256591796875,-9.01284408569336,4.165329456329346,0.15855515003204346
1695713038698330000,2.155330078125,-9.313728332519531,3.1209588050842285,2.0627012252807617
1695713038717434000,2.17443408203125,-8.246444702148438,3.1942086219787598,3.2633652687072754
1695713038736538000,2.1935380859375,-9.028854370117188,3.194944381713867,2.433013916015625
1695713038755611600,2.212611572265625,-9.416272163391113,1.4159941673278809,2.33723783493042
1695713038774715600,2.231715576171875,-7.866520881652832,1.1231894493103027,3.224308967590332
1695713038793789200,2.2507890625,-6.877507209777832,1.8665518760681152,3.476029634475708
1695713038812893200,2.26989306640625,-8.091745376586914,2.8857927322387695,3.405917167663574
1695713038831966500,2.288966552734375,-8.478690147399902,3.4965085983276367,3.5660412311553955
1695713038851101200,2.30810107421875,-8.678801536560059,4.406433582305908,3.327579975128174
1695713038870174500,2.327174560546875,-9.125800132751465,4.164317607879639,2.7812929153442383
1695713038889278500,2.346278564453125,-7.848338603973389,2.1602630615234375,3.097078323364258
1695713038908382500,2.365382568359375,-7.909908771514893,2.477181911468506,3.705151081085205
1695713038927456000,2.3844560546875,-9.16573715209961,3.233814239501953,3.082667350769043
1695713038946560000,2.40356005859375,-11.424412727355957,2.199460029602051,2.5084166526794434
1695713038965633500,2.422633544921875,-6.361437797546387,2.8018879890441895,1.0771081447601318
1695713038984737500,2.441737548828125,-4.98634147644043,2.844156265258789,1.149038553237915
1695713039003811000,2.46081103515625,-6.1410722732543945,1.7445096969604492,3.3282663822174072
1695713039022915000,2.4799150390625,-7.551353931427002,2.764080047607422,3.0273125171661377
1695713039041988600,2.498988525390625,-8.462841033935547,3.1849093437194824,2.8563647270202637
1695713039061092600,2.518092529296875,-8.64262866973877,2.874988079071045,2.897474765777588
1695713039080196600,2.537196533203125,-7.736975193023682,2.7908716201782227,2.8382742404937744
1695713039099270100,2.556270263671875,-7.69022798538208,2.674750804901123,2.7269949913024902
1695713039118374100,2.5753740234375,-7.769579887390137,2.790802478790283,2.566558361053467
1695713039137478100,2.59447802734375,-8.010440826416016,2.863980293273926,2.494872808456421
1695713039156582100,2.61358203125,-8.070091247558594,2.839953899383545,2.52284574508667
1695713039175655400,2.632655517578125,-7.958268642425537,2.750699043273926,2.534480333328247
1695713039194759400,2.651759521484375,-7.773741722106934,2.79439640045166,2.4661965370178223
1695713039213833000,2.6708330078125,-7.903359889984131,2.990994930267334,2.308730125427246
1695713039232937000,2.68993701171875,-8.036140441894531,3.1384878158569336,2.220479965209961
1695713039252041000,2.709041015625,-7.993276596069336,2.9888434410095215,2.2343175411224365
1695713039271114500,2.728114501953125,-7.735603332519531,2.7516183853149414,2.2334535121917725
1695713039290218500,2.747218505859375,-7.7447919845581055,2.7477407455444336,2.1683545112609863
1695713039309292000,2.7662919921875,-7.866311550140381,3.0225467681884766,2.217073917388916
1695713039328396000,2.78539599609375,-7.88070011138916,3.0724472999572754,2.2571768760681152
1695713039347469600,2.804469482421875,-7.852291584014893,2.8641061782836914,2.18476939201355
1695713039366573600,2.823573486328125,-7.842289447784424,2.6729888916015625,2.031912088394165
1695713039385647000,2.842647216796875,-7.819495677947998,2.6825170516967773,1.979931354522705
1695713039404751000,2.861751220703125,-7.782558917999268,2.8828048706054688,2.0255236625671387
1695713039423885600,2.880885498046875,-7.832475185394287,2.985586166381836,2.1160788536071777
1695713039442959000,2.899958984375,-8.0083646774292,2.968075752258301,2.0983481407165527
1695713039462063000,2.91906298828125,-8.037088394165039,2.93589448928833,2.0543713569641113
1695713039481136400,2.938136474609375,-7.818843841552734,2.944063186645508,2.1236138343811035
1695713039500240400,2.957240478515625,-7.750800609588623,2.8145785331726074,2.135374069213867
1695713039519314000,2.97631396484375,-7.999641418457031,2.4809470176696777,2.0428555011749268
1695713039538418000,2.99541796875,-8.371627807617188,2.060417652130127,1.992952585220337
1695713039557491500,3.014491455078125,-8.59953498840332,1.8436460494995117,2.1282846927642822
1695713039576595500,3.033595458984375,-8.480846405029297,2.0392322540283203,2.360337734222412
1695713039595699500,3.052699462890625,-8.398323059082031,2.305675506591797,2.1516273021698
1695713039614773000,3.07177294921875,-8.17984676361084,2.0521764755249023,1.7712986469268799
1695713039633877000,3.090876953125,-7.953572750091553,1.46696138381958,1.7551054954528809
1695713039652950500,3.109950439453125,-7.6412272453308105,1.2837343215942383,2.0594608783721924
1695713039672054500,3.129054443359375,-7.672232151031494,1.556783676147461,2.477810859680176
1695713039691128000,3.148128173828125,-7.529601097106934,2.2935705184936523,2.910362482070923
1695713039710262500,3.167262451171875,-7.184174537658691,2.7733936309814453,3.259599447250366
1695713039729336000,3.186336181640625,-7.7561445236206055,2.430978775024414,3.320981025695801
1695713039748440000,3.205440185546875,-8.388431549072266,2.0136899948120117,3.0345866680145264
1695713039767513300,3.224513427734375,-7.984269142150879,2.137241840362549,2.5581204891204834
1695713039786617300,3.243617431640625,-7.409698963165283,2.6293134689331055,2.1821630001068115
1695713039805721300,3.262721435546875,-7.1221184730529785,2.7771964073181152,2.039376974105835
1695713039824795000,3.281794921875,-6.928773403167725,2.64981746673584,2.144632339477539
1695713039843899000,3.30089892578125,-7.068282604217529,2.4609627723693848,2.297734022140503
1695713039863003000,3.3200029296875,-7.135305404663086,2.379868507385254,2.3311779499053955
1695713039882076400,3.339076416015625,-6.979759216308594,2.29203462600708,2.524690866470337
1695713039901150000,3.35814990234375,-6.884267807006836,2.135991096496582,2.8186285495758057
1695713039920254000,3.37725390625,-6.845953941345215,2.001657009124756,3.0140624046325684
1695713039939327500,3.396327392578125,-6.7035346031188965,2.041118621826172,3.0723702907562256
1695713039958431500,3.415431396484375,-6.498916149139404,2.1567015647888184,3.1712775230407715
1695713039977535500,3.434535400390625,-6.4054484367370605,2.089022636413574,3.241887331008911
1695713039996639500,3.453639404296875,-6.262852191925049,2.00828218460083,3.4192609786987305
1695713040015743500,3.472743408203125,-6.006025314331055,2.158989906311035,3.629239320755005
1695713040034817000,3.491817138671875,-5.750552654266357,2.2355833053588867,3.777374267578125
1695713040053921000,3.510921142578125,-5.365209102630615,2.290891170501709,3.8553004264831543
1695713040072994300,3.529994384765625,-5.41205358505249,2.1972885131835938,3.759944200515747
1695713040092098300,3.549098388671875,-6.150832176208496,2.4784178733825684,3.9947757720947266
1695713040111171800,3.568171875,-7.167147159576416,3.598963737487793,4.83922004699707
1695713040130275800,3.58727587890625,-7.893512725830078,4.248624324798584,5.479170322418213
1695713040149379800,3.6063798828125,-7.7013983726501465,4.825339317321777,4.840993881225586
1695713040168453400,3.625453369140625,-6.865055561065674,5.432398796081543,2.3208515644073486
1695713040187557400,3.644557373046875,-6.917750835418701,3.8227386474609375,0.17322039604187012
1695713040206631000,3.663630859375,-7.13124942779541,3.236363410949707,-0.2990034818649292
1695713040225735000,3.68273486328125,-7.054471969604492,3.324021339416504,0.6239931583404541
1695713040244808400,3.701808349609375,-6.722597122192383,4.493346691131592,1.5074604749679565
1695713040263912400,3.720912353515625,-6.158723831176758,5.947999954223633,1.841688632965088
1695713040283016400,3.740016357421875,-6.268791198730469,6.264937400817871,1.6099390983581543
1695713040302120400,3.759120361328125,-8.074427604675293,6.501015663146973,0.691187858581543
1695713040321224400,3.778224365234375,-9.454286575317383,6.912140369415283,0.28888261318206787
1695713040340298000,3.797298095703125,-9.523266792297363,6.375987529754639,1.8158462047576904
1695713040359402000,3.816402099609375,-8.265433311462402,4.6018195152282715,3.0474274158477783
1695713040378475300,3.835475341796875,-7.39532470703125,3.8769516944885254,2.564742088317871
1695713040397579300,3.854579345703125,-7.0555620193481445,4.048408031463623,2.1609561443328857
1695713040416652800,3.87365283203125,-6.891426086425781,4.530548095703125,1.7288861274719238
1695713040435756800,3.8927568359375,-6.957517623901367,4.38300895690918,1.725435495376587
1695713040454830300,3.911830322265625,-6.588157653808594,3.8924639225006104,1.882225513458252
1695713040473934300,3.930934326171875,-6.341418266296387,2.6975488662719727,2.3260271549224854
1695713040493038300,3.950038330078125,-5.754807472229004,1.762402057647705,2.6516783237457275
1695713040512111900,3.96911181640625,-5.462126731872559,1.5386486053466797,2.801403760910034
1695713040531216000,3.9882158203125,-5.250865936279297,1.4502952098846436,2.944255828857422
1695713040550289400,4.007289306640625,-4.784267425537109,1.4125018119812012,3.1904711723327637
1695713040569424000,4.026423828125,-4.370078086853027,1.5471820831298828,3.460672616958618
1695713040588497400,4.045497314453125,-4.035106658935547,1.7419962882995605,3.7365331649780273
1695713040607601400,4.064601318359375,-3.6388397216796875,2.7965612411499023,4.1617255210876465
1695713040626674700,4.0836748046875,-2.0137767791748047,5.333733081817627,4.886301040649414
1695713040645779000,4.102779052734375,0.2124614715576172,8.333606719970703,6.492409706115723
1695713040664883000,4.121883056640625,0.4740009307861328,10.780595779418945,7.948593616485596
1695713040683956200,4.140956298828125,1.732370376586914,10.128557205200195,5.588261604309082
1695713040703060200,4.160060302734375,-0.20533084869384766,6.147383213043213,1.358139991760254
1695713040722133800,4.1791337890625,-3.307676315307617,1.3934383392333984,-1.1081604957580566
1695713040741237800,4.19823779296875,-2.628774642944336,2.4957079887390137,-1.350966453552246
1695713040760311300,4.217311279296875,-1.2442731857299805,9.149328231811523,1.1983330249786377
1695713040779415300,4.236415283203125,-8.226274490356445,14.59704303741455,2.40293288230896
1695713040798488800,4.25548876953125,-11.106431007385254,8.23866081237793,4.371253967285156
1695713040817592800,4.2745927734375,-3.6797494888305664,-0.5852279663085938,5.976537704467773
1695713040836696800,4.29369677734375,-12.218286514282227,-3.084712505340576,5.280007839202881
1695713040855800800,4.31280078125,-12.44170093536377,3.259955883026123,2.674074172973633
1695713040874904800,4.33190478515625,-7.030423164367676,10.523621559143066,5.106698989868164
1695713040893978400,4.350978271484375,-6.522621154785156,8.898775100708008,6.104104042053223
1695713040913082400,4.370082275390625,-7.687217712402344,2.4386744499206543,3.2971079349517822
1695713040932155600,4.38915576171875,-7.560184955596924,0.14651775360107422,0.5820136070251465
1695713040951259600,4.408259765625,-6.851510524749756,1.564971923828125,1.000042200088501
1695713040970333200,4.427333251953125,-7.454738616943359,3.3597474098205566,3.600893974304199
1695713040989437200,4.446437255859375,-8.50625991821289,3.661240577697754,4.649242877960205
1695713041008510700,4.4655107421875,-8.034523010253906,1.746323585510254,4.235432147979736
1695713041027614700,4.48461474609375,-7.478169918060303,0.7210149765014648,3.1529555320739746
1695713041046718700,4.50371875,-6.464446067810059,1.7223315238952637,2.2177014350891113
1695713041065792300,4.522792236328125,-7.046686172485352,2.3430495262145996,2.0344133377075195
1695713041084896300,4.541896240234375,-6.8195343017578125,1.2385563850402832,2.2446465492248535
1695713041103969800,4.5609697265625,-5.689141750335693,1.0074210166931152,2.9021530151367188
1695713041123073800,4.58007373046875,-5.065081596374512,2.2345166206359863,3.583310842514038
1695713041142177800,4.599177734375,-5.762302875518799,2.5680742263793945,3.351548671722412
1695713041161281800,4.61828173828125,-6.476528167724609,2.3414525985717773,2.368330717086792
1695713041180355300,4.637355224609375,-4.584103107452393,2.6487836837768555,2.1568660736083984
1695713041199459300,4.656459228515625,-4.782382488250732,3.2570109367370605,2.5628435611724854
1695713041218563300,4.675563232421875,-6.076770782470703,3.593801975250244,3.2113285064697266
1695713041237636600,4.69463671875,-5.935360431671143,3.37994384765625,3.7891342639923096
1695713041256740600,4.71374072265625,-4.524525165557861,4.044655799865723,3.188488006591797
1695713041275814100,4.732814208984375,-2.925506591796875,4.5554633140563965,2.795823097229004
1695713041294918100,4.751918212890625,-5.131791591644287,5.160042762756348,4.12290096282959
1695713041313991700,4.77099169921875,-8.058323860168457,6.5223588943481445,5.40382194519043
1695713041333095700,4.790095703125,-8.827722549438477,5.524780750274658,6.165782451629639
1695713041352169200,4.809169189453125,-9.412347793579102,4.580344200134277,4.4304914474487305
1695713041371273200,4.828273193359375,-8.828421592712402,4.672506809234619,1.3178248405456543
1695713041390377200,4.847377197265625,-7.902746677398682,5.5074334144592285,-0.8032785654067993
1695713041409481200,4.866481201171875,-6.64870023727417,6.392153263092041,-1.120129108428955
1695713041428585200,4.885585205078125,-3.716189384460449,7.398430347442627,-0.39548516273498535
1695713041447658800,4.90465869140625,-3.826171875,7.695898532867432,0.5566010475158691
1695713041466762800,4.9237626953125,-8.024889945983887,8.110122680664062,0.6136648654937744
1695713041485836300,4.942836181640625,-12.878662109375,8.257890701293945,-0.19524669647216797
1695713041504940300,4.961940185546875,-12.29697322845459,5.640687942504883,0.44486546516418457
1695713041524013600,4.981013671875,-9.420143127441406,2.5777487754821777,2.8287947177886963
1695713041543117600,5.00011767578125,-7.659214973449707,1.6013760566711426,3.251339912414551
1695713041562221600,5.0192216796875,-6.605128288269043,1.0135133266448975,2.850659132003784
1695713041581295000,5.038295166015625,-5.789272308349609,1.3661513328552246,1.812375545501709
1695713041600399000,5.057399169921875,-5.699192047119141,2.6218698024749756,1.1063995361328125
1695713041619472600,5.07647265625,-7.76030158996582,3.045532703399658,1.6282029151916504
1695713041638576600,5.09557666015625,-8.107699394226074,2.504699945449829,2.213240623474121
1695713041657650200,5.114650146484375,-6.615246772766113,1.3279697895050049,2.5770249366760254
1695713041676754200,5.133754150390625,-4.709020614624023,0.5834627151489258,2.704131603240967
1695713041695858200,5.152858154296875,-3.1463146209716797,0.6461083889007568,2.8619842529296875
1695713041714962200,5.171962158203125,-2.3981447219848633,1.6640634536743164,3.3459877967834473
1695713041734096600,5.1910966796875,-0.7875261306762695,4.053215026855469,3.7091474533081055
1695713041753139700,5.2101396484375,0.6552081108093262,7.828884124755859,3.3027992248535156
1695713041772243700,5.22924365234375,0.8047881126403809,11.651762008666992,3.5497498512268066
1695713041791317200,5.248317138671875,3.1182308197021484,11.46400260925293,3.9696807861328125
1695713041810421200,5.267421142578125,-0.22370290756225586,4.789193630218506,3.8104124069213867
1695713041829494500,5.28649462890625,-3.569509983062744,-0.4411349296569824,2.076974868774414
1695713041848598500,5.3055986328125,-2.458942413330078,3.8817849159240723,1.6602835655212402
1695713041867672000,5.324672119140625,1.0102405548095703,15.135299682617188,2.436173915863037
1695713041886776000,5.343776123046875,-16.537948608398438,18.8188533782959,-1.589498519897461
1695713041905880000,5.362880126953125,-10.97549057006836,4.795058727264404,0.7423844337463379
1695713041924953600,5.38195361328125,-7.940747261047363,-5.783387184143066,3.741837739944458
1695713041944057600,5.4010576171875,-3.2587404251098633,-3.9195361137390137,4.119507789611816
1695713041963131100,5.420131103515625,-6.999379634857178,6.764488220214844,6.322607040405273
1695713041982235100,5.439235107421875,-11.836137771606445,11.540525436401367,5.924751281738281
1695713042001339100,5.458339111328125,-10.978227615356445,8.090301513671875,3.6127097606658936
1695713042020443100,5.477443115234375,-7.60020637512207,1.654317855834961,0.9974372386932373
1695713042039516700,5.4965166015625,-6.552455425262451,-0.5486159324645996,-0.08570742607116699
1695713042058620700,5.51562060546875,-6.834418296813965,1.1856331825256348,0.5634722709655762
1695713042077724700,5.534724609375,-6.340065956115723,2.5723114013671875,2.927076816558838
1695713042096798200,5.553798095703125,-6.595551490783691,2.8092432022094727,4.281650543212891
1695713042115902200,5.572902099609375,-7.246375560760498,1.725642204284668,3.3168208599090576
1695713042134975500,5.5919755859375,-7.832921028137207,1.1032099723815918,2.1031405925750732
1695713042154079500,5.61107958984375,-7.20913028717041,0.6600642204284668,2.1670444011688232
1695713042173153000,5.630153076171875,-5.962475776672363,0.7498311996459961,2.5465662479400635
1695713042192257000,5.649257080078125,-5.353518009185791,1.5183138847351074,3.055022716522217
1695713042211330600,5.66833056640625,-4.82039213180542,2.0357980728149414,3.5047760009765625
1695713042230434600,5.6874345703125,-4.7170281410217285,2.2690725326538086,2.8951680660247803
1695713042249538600,5.70653857421875,-4.736917972564697,2.147006034851074,2.179551839828491
1695713042268642600,5.725642578125,-4.10067081451416,2.2017970085144043,2.303637742996216
1695713042287746600,5.74474658203125,-4.341302871704102,2.668344497680664,2.929429531097412
1695713042306820000,5.763820068359375,-5.031114101409912,3.091549873352051,4.012437343597412
1695713042325924000,5.782924072265625,-5.706441879272461,3.0857763290405273,5.0006303787231445
1695713042344997600,5.80199755859375,-3.905172824859619,3.9647207260131836,3.9001758098602295
1695713042364101600,5.8211015625,-1.9995126724243164,4.72121524810791,2.645474433898926
1695713042383175200,5.840175048828125,-5.526733875274658,4.993277072906494,2.163663148880005
1695713042402279200,5.859279052734375,-9.358860969543457,5.4411773681640625,2.123953342437744
1695713042421352400,5.8783525390625,-10.094322204589844,5.377580642700195,2.217024803161621
1695713042440456400,5.89745654296875,-9.115653991699219,5.6319580078125,1.0331907272338867
1695713042459560400,5.916560546875,-7.6793928146362305,5.8359456062316895,-2.284047842025757
1695713042478634000,5.935634033203125,-7.796401500701904,6.541726112365723,-3.560757637023926
1695713042497768400,5.9547685546875,-5.537563323974609,8.74344253540039,-2.888627529144287
1695713042516811500,5.9738115234375,-1.623054027557373,8.901510238647461,-1.5193462371826172
1695713042535915500,5.99291552734375,-3.957645893096924,7.3816609382629395,-0.6935482025146484
1695713042555019500,6.01201953125,-11.442852020263672,6.703823089599609,-0.8378591537475586
1695713042574123500,6.03112353515625,-14.362762451171875,6.0665059089660645,-0.5400722026824951
1695713042593197000,6.050197021484375,-10.917468070983887,2.571310520172119,2.2674429416656494
1695713042612301000,6.069301025390625,-8.130658149719238,1.3695263862609863,2.3631484508514404
1695713042631374600,6.08837451171875,-7.594792366027832,1.1951172351837158,1.435685634613037
1695713042650478600,6.107478515625,-7.682437896728516,0.7128851413726807,0.991680383682251
1695713042669582600,6.12658251953125,-7.528733253479004,0.588451623916626,0.6776049137115479
1695713042688656100,6.14565625,-7.560955047607422,0.7510902881622314,0.47755885124206543
1695713042707760000,6.164760009765625,-7.9211931228637695,0.3945631980895996,0.7646527290344238
1695713042726833400,6.18383349609375,-7.213347434997559,-0.3565802574157715,1.401170253753662
1695713042745937400,6.2029375,-5.45734977722168,-0.6025533676147461,1.8586649894714355
1695713042765011000,6.222010986328125,-4.24368953704834,0.3894786834716797,2.1010208129882812
1695713042784115000,6.241114990234375,-3.122675895690918,2.1416893005371094,3.0155322551727295
1695713042803219000,6.260218994140625,0.36118316650390625,6.454427719116211,3.8162245750427246
1695713042822292500,6.27929248046875,3.587825298309326,13.878171920776367,3.448713541030884
1695713042841396500,6.298396484375,2.7673721313476562,15.9155855178833,0.35604143142700195
1695713042860500500,6.31750048828125,3.1416749954223633,9.733026504516602,-2.3933558464050293
1695713042879604500,6.3366044921875,-4.668283462524414,-0.9419939517974854,-1.7244782447814941
1695713042898678000,6.355677978515625,-6.9265594482421875,-5.075819969177246,-0.33352017402648926
1695713042917782000,6.374781982421875,-6.316709518432617,0.5461211204528809,0.4404788017272949
1695713042936855600,6.39385546875,1.4110002517700195,12.399829864501953,1.0325675010681152
1695713042955959600,6.41295947265625,-8.397233963012695,20.315032958984375,-1.118272304534912
1695713042975063600,6.4320634765625,-7.2037763595581055,9.79664421081543,4.827904224395752
1695713042994137000,6.45113720703125,-14.348531723022461,-2.94413423538208,5.015570640563965
1695713043013241000,6.470240966796875,-8.300875663757324,-2.9027366638183594,3.0977888107299805
1695713043032314400,6.489314453125,-5.6310343742370605,5.878472328186035,4.6875715255737305
1695713043051418400,6.50841845703125,-8.713897705078125,10.891020774841309,4.474456310272217
1695713043070492000,6.527491943359375,-8.910074234008789,8.918795585632324,2.3368759155273438
1695713043089596000,6.546595947265625,-6.652201175689697,4.048369407653809,-0.3623392581939697
1695713043108669400,6.56566943359375,-4.5454607009887695,0.9907088279724121,-0.6172659397125244
1695713043127804000,6.584803955078125,-6.559638977050781,-0.024924755096435547,1.1841320991516113
1695713043146908000,6.603907958984375,-8.699051856994629,1.0682015419006348,2.4214820861816406
1695713043165981400,6.6229814453125,-7.537205696105957,1.2413372993469238,2.332638740539551
1695713043185085400,6.64208544921875,-5.978449821472168,0.4161195755004883,1.9671781063079834
1695713043204159000,6.661158935546875,-5.418551445007324,0.265869140625,2.072894811630249
1695713043223263000,6.680262939453125,-6.434964656829834,0.9543089866638184,2.565232276916504
1695713043242336500,6.69933642578125,-7.403263568878174,1.2631216049194336,2.9604897499084473
1695713043261440500,6.7184404296875,-6.849140167236328,1.0373568534851074,2.992436408996582
1695713043280514000,6.73751416015625,-5.153865814208984,1.081087589263916,2.870617628097534
1695713043299618000,6.7566181640625,-3.620333194732666,1.7285151481628418,2.370680093765259
1695713043318722000,6.77572216796875,-3.4080071449279785,2.497722625732422,1.4650061130523682
1695713043337795300,6.79479541015625,-4.3563008308410645,2.233652114868164,0.9679036140441895
1695713043356899300,6.8138994140625,-6.350176811218262,2.718153953552246,1.2927179336547852
1695713043375972900,6.832972900390625,-5.535269737243652,3.1871328353881836,1.6623384952545166
1695713043395076900,6.852076904296875,-4.1786322593688965,3.0165367126464844,1.8686866760253906
1695713043414180900,6.871180908203125,-3.89982271194458,3.4762840270996094,1.2891278266906738
1695713043433315300,6.8903154296875,-3.165945053100586,4.28377628326416,1.0545730590820312
1695713043452358400,6.9093583984375,-3.300588607788086,4.662616729736328,2.4494447708129883
1695713043471462400,6.92846240234375,-5.602955341339111,6.388226509094238,4.109584808349609
1695713043490566400,6.94756640625,-7.824089527130127,6.192098140716553,4.852975845336914
1695713043509640000,6.966639892578125,-8.69361686706543,3.8641819953918457,3.7518112659454346
1695713043528744000,6.985743896484375,-8.623800277709961,3.0352702140808105,0.1296994686126709
1695713043547817500,7.0048173828125,-7.480132102966309,3.520073890686035,-2.202457904815674
1695713043566921500,7.02392138671875,-6.451138496398926,5.668860912322998,-2.354517936706543
1695713043585995000,7.0429951171875,-4.433951377868652,7.781046390533447,-1.3467292785644531
1695713043605099000,7.06209912109375,-1.8191537857055664,7.5848517417907715,1.024822473526001
1695713043624172300,7.08117236328125,-4.242611885070801,6.801502704620361,2.4380061626434326
1695713043643276300,7.1002763671875,-10.869937896728516,7.867194652557373,0.7178635597229004
1695713043662349800,7.119349853515625,-12.979022979736328,6.071732997894287,0.07861113548278809
1695713043681453800,7.138453857421875,-9.417850494384766,3.017375946044922,2.1832854747772217
1695713043700557800,7.157557861328125,-7.528871536254883,2.182631492614746,2.442281484603882
1695713043719661800,7.176661865234375,-7.149757385253906,1.3883872032165527,1.7055432796478271
1695713043738765800,7.195765869140625,-6.949079513549805,0.5581274032592773,1.0030262470245361
1695713043757839400,7.21483935546875,-6.742049217224121,0.25852274894714355,1.0595543384552002
1695713043776943400,7.233943359375,-7.131529808044434,-0.41611528396606445,2.06429386138916
1695713043796017000,7.253016845703125,-7.5896453857421875,-0.9046616554260254,2.833320140838623
1695713043815121000,7.272120849609375,-6.787823677062988,-1.0437519550323486,2.9272103309631348
1695713043834194400,7.2911943359375,-5.459234714508057,-0.6739969253540039,2.7881970405578613
1695713043853298400,7.31029833984375,-4.322714328765869,0.09272265434265137,2.767411231994629
1695713043872402400,7.32940234375,-2.8727989196777344,1.8913559913635254,2.9153389930725098
1695713043891475700,7.348475830078125,0.30860376358032227,5.448779106140137,2.79239559173584
1695713043910580000,7.367580078125,3.7968835830688477,11.808013916015625,3.764132022857666
1695713043929653200,7.3866533203125,1.8964428901672363,14.35302734375,2.5780086517333984
1695713043948757200,7.40575732421875,4.8270039558410645,11.257381439208984,-0.49749326705932617
1695713043967830800,7.424830810546875,-1.1229524612426758,2.7361226081848145,-1.264427661895752
1695713043986965200,7.44396533203125,-6.440743446350098,-4.382724761962891,-0.5105500221252441
1695713044006038800,7.463038818359375,-6.089155197143555,-1.757556438446045,-0.23115968704223633
1695713044025142800,7.482142822265625,-0.13788080215454102,8.970251083374023,0.1025381088256836
1695713044044246800,7.501246826171875,-0.5169057846069336,19.287466049194336,-0.05710792541503906
1695713044063320300,7.5203203125,-4.0995402336120605,11.758589744567871,5.761650085449219
1695713044082424300,7.53942431640625,-17.840538024902344,-5.1471943855285645,4.923567771911621
1695713044101497900,7.558497802734375,-10.125917434692383,-7.338343143463135,4.486674785614014
1695713044120601900,7.577601806640625,-3.1363654136657715,3.3991775512695312,6.057626247406006
1695713044139675400,7.59667529296875,-8.771890640258789,10.31805419921875,4.307844161987305
1695713044158779400,7.615779296875,-8.739062309265137,8.769710540771484,3.596860408782959
1695713044177852700,7.634852783203125,-5.416513919830322,4.81596565246582,1.912325382232666
1695713044196987400,7.6539873046875,-2.8823084831237793,1.335306167602539,1.0595507621765137
1695713044216061000,7.67306103515625,-4.969396591186523,-0.13027381896972656,2.7004432678222656
1695713044235134200,7.69213427734375,-7.108100891113281,0.9273314476013184,3.875645160675049
1695713044254238200,7.71123828125,-6.591831684112549,1.4696855545043945,4.248893737792969
1695713044273342200,7.73034228515625,-5.127871990203857,0.3591318130493164,4.028137683868408
1695713044292446200,7.7494462890625,-4.60166072845459,0.11638164520263672,3.257990837097168
1695713044311519700,7.768519775390625,-5.412500858306885,0.7927684783935547,3.1373655796051025
1695713044330623700,7.787623779296875,-5.802382946014404,1.2769503593444824,2.920649290084839
1695713044349697300,7.806697265625,-5.26548433303833,0.6847176551818848,2.354372501373291
1695713044368801300,7.82580126953125,-4.002230644226074,0.4764561653137207,2.279951810836792
1695713044387905300,7.8449052734375,-2.4152750968933105,1.393035888671875,2.7429885864257812
1695713044406978800,7.863978759765625,-1.6574225425720215,2.4207725524902344,2.838988780975342
1695713044426082800,7.883082763671875,-3.170760154724121,2.255544662475586,2.547253370285034
1695713044445156400,7.90215625,-4.794487953186035,2.7882490158081055,2.5971224308013916
1695713044464260400,7.92126025390625,-4.903197288513184,3.1805057525634766,3.788935661315918
1695713044483333600,7.940333740234375,-3.708723306655884,3.1821346282958984,4.850791931152344
1695713044502437600,7.959437744140625,-2.2232024669647217,4.260144233703613,4.058487415313721
1695713044521511200,7.97851123046875,-1.152395486831665,5.20418643951416,3.4814867973327637
1695713044540615200,7.997615234375,-3.392306327819824,5.850805282592773,4.851746082305908
1695713044559719200,8.01671923828125,-6.370792865753174,6.525659561157227,5.691305160522461
1695713044578823200,8.0358232421875,-7.4264912605285645,5.858137130737305,4.880553722381592
1695713044597927200,8.05492724609375,-7.059564113616943,4.417516231536865,2.2698018550872803
1695713044617000700,8.074000732421876,-7.121142864227295,3.757844924926758,-1.2595958709716797
1695713044636104700,8.093104736328126,-6.950382232666016,4.223136901855469,-1.734422206878662
1695713044655178200,8.11217822265625,-7.005786418914795,5.925344944000244,-0.704214334487915
1695713044674282200,8.1312822265625,-4.901618957519531,7.397837162017822,0.41403675079345703
1695713044693355800,8.150355712890626,-2.0618081092834473,7.3658976554870605,1.0536012649536133
1695713044712459800,8.169459716796876,-5.1316399574279785,6.882419109344482,1.2457773685455322
1695713044731533300,8.188533203125,-10.881980895996094,6.82081413269043,0.08604931831359863
1695713044750637300,8.20763720703125,-12.017009735107422,3.29388427734375,1.8185241222381592
1695713044769741300,8.2267412109375,-9.888650894165039,0.606511116027832,2.7280781269073486
1695713044788814600,8.245814697265626,-8.513298034667969,-1.4665775299072266,1.8316638469696045
1695713044807918600,8.264918701171876,-6.156459331512451,-1.3959236145019531,2.0776214599609375
1695713044826992000,8.2839921875,-4.866015911102295,-1.1129460334777832,2.1640872955322266
1695713044846096100,8.30309619140625,-4.93325662612915,-0.8760504722595215,2.512929916381836
1695713044865200000,8.3222001953125,-6.026637077331543,-1.1708621978759766,3.1239352226257324
1695713044884304100,8.34130419921875,-6.2314066886901855,-1.5346875190734863,3.2210144996643066
1695713044903377700,8.360377685546876,-5.385758399963379,-1.761795997619629,3.244503974914551
1695713044922481700,8.379481689453126,-4.13237190246582,-1.6239433288574219,3.2193069458007812
1695713044941585700,8.398585693359376,-2.7852578163146973,-0.8457398414611816,3.4146008491516113
1695713044960659200,8.4176591796875,-1.260728359222412,1.039710521697998,3.253208637237549
1695713044979763200,8.43676318359375,1.003282070159912,6.277134418487549,2.369292736053467
1695713044998836700,8.455836669921876,4.193578243255615,15.297345161437988,1.525075912475586
1695713045017940700,8.474940673828126,6.596502780914307,18.159990310668945,-1.8418645858764648
1695713045037014300,8.49401416015625,3.466433048248291,6.657455921173096,-1.6142072677612305
1695713045056118300,8.5131181640625,-6.064281463623047,-6.811131477355957,0.5596628189086914
1695713045075191600,8.532191650390626,-7.266146659851074,-6.189303398132324,2.737971305847168
1695713045094295600,8.551295654296876,3.7036619186401367,8.165142059326172,3.5167245864868164
1695713045113399600,8.570399658203126,-8.401561737060547,17.46530532836914,1.1965761184692383
1695713045132534300,8.5895341796875,-10.597831726074219,10.687808990478516,3.9833412170410156
1695713045151607600,8.608607666015626,-13.167749404907227,-3.5207395553588867,3.739225387573242
1695713045170681000,8.62768115234375,-2.935563087463379,-3.2828149795532227,3.7060513496398926
1695713045189785000,8.64678515625,-3.9159412384033203,5.529867172241211,4.466761589050293
1695713045208858600,8.665858642578126,-8.535184860229492,7.607935905456543,5.040701389312744
1695713045227962600,8.684962646484376,-7.654481410980225,5.628529071807861,3.1593527793884277
1695713045247036200,8.7040361328125,-6.6686015129089355,3.319314479827881,0.3181009292602539
1695713045266140200,8.72314013671875,-5.398087978363037,0.6135544776916504,1.2066617012023926
1695713045285244200,8.742244140625,-4.965019226074219,-0.23197555541992188,3.2542550563812256
1695713045304317700,8.761317626953126,-5.483829975128174,0.48122262954711914,3.388845205307007
1695713045323421700,8.780421630859376,-4.663375377655029,-0.033172607421875,2.928225040435791
1695713045342495200,8.7994951171875,-3.869170665740967,-0.8366050720214844,2.821319341659546
1695713045361599200,8.81859912109375,-5.022007942199707,-0.4280567169189453,3.2262961864471436
1695713045380672500,8.837672607421876,-6.237943649291992,0.2945232391357422,3.5518579483032227
1695713045399776500,8.856776611328126,-5.584850788116455,0.13856220245361328,3.5860469341278076
1695713045418880500,8.875880615234376,-3.6911590099334717,0.5057582855224609,4.138600826263428
1695713045437984500,8.894984619140626,-1.8902266025543213,1.2904911041259766,4.4092254638671875
1695713045457088500,8.914088623046876,-2.644129991531372,1.1507062911987305,3.0331130027770996
1695713045476162000,8.933162109375,-3.371312379837036,1.2755050659179688,2.0163726806640625
1695713045495266000,8.95226611328125,-1.9977777004241943,2.4339828491210938,2.31619930267334
1695713045514339600,8.971339599609376,-2.707228899002075,3.09869384765625,3.325939178466797
1695713045533443600,8.990443603515626,-4.146916389465332,2.9836950302124023,4.973877429962158
1695713045552517000,9.00951708984375,-2.6857242584228516,3.2574338912963867,4.951572418212891
1695713045571621000,9.02862109375,-1.4456980228424072,4.6428680419921875,4.036070823669434
1695713045590694700,9.047694580078126,-3.0154433250427246,6.24061393737793,4.409611701965332
1695713045609798700,9.066798583984376,-4.986142158508301,5.774101257324219,5.251725196838379
1695713045628902700,9.085902587890626,-7.565789222717285,4.4393768310546875,4.979866027832031
1695713045647976200,9.10497607421875,-6.7962117195129395,3.4472227096557617,1.7778005599975586
1695713045667080200,9.124080078125,-5.468987941741943,3.715786933898926,-2.440462589263916
1695713045686153500,9.143153564453126,-4.023139476776123,5.66819429397583,-3.3239192962646484
1695713045705257500,9.162257568359376,-3.1509971618652344,7.0951080322265625,-1.798257827758789
1695713045724361500,9.181361572265626,-2.6391239166259766,7.090848445892334,0.17871546745300293
1695713045743465500,9.200465576171876,-5.065760612487793,5.941204071044922,0.6394145488739014
1695713045762539000,9.2195390625,-10.980445861816406,6.3772430419921875,0.15926170349121094
1695713045781643000,9.23864306640625,-13.065773010253906,4.510514736175537,-0.31678080558776855
1695713045800716500,9.257716552734376,-10.470335006713867,1.1819233894348145,2.5424954891204834
1695713045819820500,9.276820556640626,-6.440362930297852,-0.09312152862548828,3.54722261428833
1695713045838924500,9.295924560546876,-4.412807464599609,0.20284414291381836,2.7560911178588867
1695713045857998000,9.314998046875,-4.7933502197265625,0.1024322509765625,1.9695782661437988
1695713045877102000,9.33410205078125,-5.538007736206055,-0.46547985076904297,1.5619449615478516
1695713045896206000,9.3532060546875,-6.465620994567871,-0.8805108070373535,1.4795751571655273
1695713045915279600,9.372279541015626,-7.158284664154053,-1.782857894897461,1.977525234222412
1695713045934353200,9.391353271484375,-6.43712043762207,-2.4004688262939453,2.5978469848632812
1695713045953457200,9.41045703125,-4.797828197479248,-2.5605664253234863,3.0713672637939453
1695713045972530400,9.429530517578126,-3.705303192138672,-2.0780205726623535,2.95004940032959
1695713045991665200,9.4486650390625,-2.7953896522521973,-0.8491005897521973,2.8578224182128906
1695713046010769200,9.46776904296875,-1.1474099159240723,1.3643317222595215,2.6181201934814453
1695713046029842400,9.486842529296876,2.3302512168884277,5.8280487060546875,2.8112425804138184
1695713046048946400,9.505946533203126,4.042159080505371,12.19437313079834,3.9983339309692383
1695713046068020000,9.52502001953125,6.443763732910156,14.272668838500977,2.220561981201172
1695713046087124000,9.5441240234375,5.897503852844238,7.693700790405273,0.6403698921203613
1695713046106197500,9.563197509765626,-3.7580795288085938,-4.136005401611328,0.20540094375610352
1695713046125301500,9.582301513671876,-3.696800708770752,-3.9149389266967773,0.17496204376220703
1695713046144375000,9.601375,0.9149160385131836,7.418573379516602,0.4413905143737793
1695713046163479000,9.62047900390625,-8.111577987670898,13.918039321899414,0.4791750907897949
1695713046182583000,9.6395830078125,-12.79505729675293,6.775870323181152,3.461747169494629
1695713046201656600,9.658656494140626,-9.629945755004883,-3.4983201026916504,5.136129856109619
1695713046220760600,9.677760498046876,-2.710150718688965,-3.4509329795837402,4.3151726722717285
1695713046239834000,9.696834228515625,-5.394792079925537,6.159219741821289,2.375847339630127
1695713046258938000,9.715938232421875,-7.635660171508789,9.448554992675781,2.954284191131592
1695713046278042000,9.7350419921875,-4.646505832672119,5.734739303588867,3.6695683002471924
1695713046297146000,9.75414599609375,-4.803875923156738,1.3792462348937988,2.242455244064331
1695713046316219400,9.773219482421876,-5.977179050445557,-1.061349868774414,2.6671059131622314
1695713046335323400,9.792323486328126,-6.8255181312561035,-0.5419464111328125,3.4582748413085938
1695713046354397000,9.81139697265625,-5.151000022888184,0.5984721183776855,3.6393885612487793
1695713046373501000,9.8305009765625,-3.1261887550354004,-0.3154897689819336,3.755218267440796
1695713046392605000,9.84960498046875,-3.7299041748046875,-0.7693290710449219,2.5527291297912598
1695713046411678500,9.868678466796876,-4.711026191711426,-0.20667266845703125,1.5442719459533691
1695713046430782500,9.887782470703126,-3.8151438236236572,-0.08771133422851562,1.9418041706085205
1695713046449856000,9.90685595703125,-3.3467729091644287,-0.3952217102050781,2.796398162841797
1695713046468960000,9.9259599609375,-3.480421781539917,-0.37465572357177734,3.263432264328003
1695713046488033500,9.945033447265626,-3.6278090476989746,0.1556835174560547,3.349548101425171
1695713046507137500,9.964137451171876,-3.715256690979004,0.8944005966186523,2.8637492656707764
1695713046526211000,9.983211181640625,-2.2875189781188965,1.3647308349609375,2.5938289165496826
1695713046545315000,10.002315185546875,-1.6155095100402832,2.2413148880004883,2.800797939300537
1695713046564419000,10.021419189453125,-3.039069652557373,2.901944160461426,3.353666067123413
1695713046583523000,10.040523193359375,-3.466195583343506,2.812239646911621,3.2937686443328857
1695713046602627000,10.059626953125,-1.9604859352111816,2.362973213195801,3.3042173385620117
1695713046621700400,10.078700439453126,-1.0102627277374268,2.8676862716674805,3.226109266281128
1695713046640804400,10.097804443359376,-1.8052945137023926,4.1753740310668945,3.681765556335449
1695713046659878000,10.1168779296875,-3.3888845443725586,6.281227111816406,5.018303871154785
1695713046678982000,10.13598193359375,-4.442361354827881,7.397284507751465,5.8709492683410645
1695713046698055400,10.155055419921876,-6.649367332458496,6.228762626647949,4.745923042297363
1695713046717159400,10.174159423828126,-6.988523483276367,2.487245559692383,0.05494976043701172
1695713046736263400,10.193263427734376,-6.720611572265625,0.5174837112426758,-4.564726829528809
1695713046755337000,10.2123369140625,-4.330025672912598,2.5618581771850586,-4.418935775756836
1695713046774441000,10.23144091796875,-2.748867988586426,5.3195295333862305,-1.418996810913086
1695713046793514500,10.250514404296876,-1.1845283508300781,6.270443439483643,0.7028458118438721
1695713046812618500,10.269618408203126,-3.3572587966918945,5.790599822998047,1.321239709854126
1695713046831691800,10.28869189453125,-8.475446701049805,6.273562908172607,0.4981813430786133
1695713046850826500,10.307826416015626,-13.115730285644531,5.05407190322876,-0.9705336093902588
1695713046869900000,10.326900146484375,-7.973820686340332,1.6111078262329102,1.6042559146881104
1695713046889004000,10.346004150390625,-9.000974655151367,1.7683839797973633,3.8686556816101074
1695713046908108000,10.36510791015625,-5.072721481323242,-0.1150665283203125,2.5899901390075684
1695713046927181300,10.384181396484376,-4.114156723022461,-0.5818285942077637,1.2690351009368896
1695713046946285300,10.403285400390626,-5.221088886260986,-1.0914974212646484,0.888014554977417
1695713046965358800,10.42235888671875,-6.908751010894775,-2.2439050674438477,1.6238532066345215
1695713046984462800,10.441462890625,-6.660330295562744,-2.8016715049743652,2.1007282733917236
1695713047003536400,10.460536376953126,-5.226190567016602,-3.276676654815674,2.634032726287842
1695713047022640400,10.479640380859376,-4.199408531188965,-2.9821934700012207,2.8380422592163086
1695713047041714000,10.4987138671875,-3.3050832748413086,-2.4135751724243164,2.5200319290161133
1695713047060818000,10.51781787109375,-2.467556953430176,-1.5839037895202637,2.150475025177002
1695713047079922000,10.536921875,-1.6901764869689941,0.3025527000427246,2.1401844024658203
1695713047098995500,10.555995361328126,0.792147159576416,4.964528560638428,2.8865485191345215
1695713047118099500,10.575099365234376,3.3391828536987305,13.150453567504883,3.1866507530212402
1695713047137203500,10.594203369140626,2.9303131103515625,15.489933013916016,-0.9941873550415039
1695713047156307500,10.613307373046876,2.2197670936584473,6.577573776245117,-4.459268569946289
1695713047175381000,10.632381103515625,0.5985722541809082,-5.315524578094482,-0.8073935508728027
1695713047194485000,10.651485107421875,-2.4828085899353027,-8.063774108886719,-0.555694580078125
1695713047213558300,10.670558349609376,-7.172133445739746,-2.8851871490478516,-0.7337446212768555
1695713047232662300,10.689662353515626,-1.5783920288085938,8.550830841064453,-0.47005367279052734
1695713047251735800,10.70873583984375,-1.3351149559020996,18.722257614135742,1.2304034233093262
1695713047270839800,10.72783984375,-2.984455108642578,10.949918746948242,5.7681803703308105
1695713047289943800,10.74694384765625,-11.210394859313965,-3.0809383392333984,6.827874183654785
1695713047309017300,10.766017333984376,-11.465751647949219,-6.068485736846924,3.2799861431121826
1695713047328121300,10.785121337890626,-3.8708653450012207,2.5998010635375977,4.019326210021973
1695713047347195000,10.80419482421875,-5.048713684082031,8.323820114135742,4.4732842445373535
1695713047366299000,10.823298828125,-5.211636066436768,7.100573539733887,3.6525535583496094
1695713047385372400,10.842372314453126,-3.671985626220703,3.142730236053467,0.8594646453857422
1695713047404476400,10.861476318359376,-2.3491439819335938,0.26054811477661133,-0.7908623218536377
1695713047423580400,10.880580322265626,-4.450224876403809,-1.177560806274414,1.3111510276794434
1695713047442684400,10.899684326171876,-7.531529426574707,-0.42277050018310547,3.142885208129883
1695713047461788400,10.918788330078126,-7.0505852699279785,0.9694881439208984,3.381654739379883
1695713047480862000,10.937862060546875,-4.183485507965088,-0.09106159210205078,3.1430673599243164
1695713047499966000,10.956966064453125,-2.6562490463256836,-0.9917068481445312,2.5481622219085693
1695713047519039200,10.976039306640626,-3.96759295463562,-0.7298107147216797,2.303816080093384
1695713047538143200,10.995143310546876,-4.8344621658325195,-0.37460803985595703,2.373598575592041
1695713047557216800,11.014216796875,-3.4325220584869385,-0.34487056732177734,2.750570297241211
1695713047576320800,11.03332080078125,-2.0504636764526367,-0.229949951171875,3.0349628925323486
1695713047595424800,11.0524248046875,-1.6428806781768799,-0.011989593505859375,3.0857980251312256
1695713047614498300,11.071498291015626,-1.7453656196594238,0.5976152420043945,3.0248520374298096
1695713047633602300,11.090602294921876,-1.6218035221099854,1.6359643936157227,2.6370091438293457
1695713047652675800,11.10967578125,-1.4126620292663574,2.611172676086426,2.1682050228118896
1695713047671779800,11.12877978515625,-2.336808919906616,2.4413633346557617,2.4537084102630615
1695713047690853400,11.147853271484376,-1.5463643074035645,1.9646062850952148,3.298400402069092
1695713047709987800,11.16698779296875,-0.923499584197998,2.756103515625,3.1941609382629395
1695713047729061400,11.186061279296876,-2.1015186309814453,4.279664993286133,3.3321115970611572
1695713047748165400,11.205165283203126,-3.6481733322143555,6.914711952209473,4.051666259765625
1695713047767248400,11.224248291015625,-4.456609725952148,6.348513603210449,4.63264274597168
1695713047786352400,11.243352294921875,-5.525457859039307,3.67636775970459,3.4895713329315186
1695713047805456400,11.262456298828125,-5.963013648986816,-0.016695022583007812,-0.15502691268920898
1695713047824530000,11.281530029296874,-5.540287971496582,1.0020647048950195,-2.198643445968628
1695713047843634000,11.300634033203124,-4.487493515014648,4.732761383056641,-1.4791083335876465
1695713047862707200,11.319707275390625,-3.725088596343994,6.951460838317871,-0.7865872383117676
1695713047881811200,11.338811279296875,-1.6851301193237305,6.041741847991943,0.3380429744720459
1695713047900884700,11.357884765625,-3.4823899269104004,4.972198009490967,0.5729732513427734
1695713047919988700,11.37698876953125,-8.123516082763672,6.898557662963867,-1.0321800708770752
1695713047939062300,11.396062255859375,-7.322711944580078,3.3496460914611816,1.3162155151367188
1695713047958166300,11.415166259765625,-10.97265911102295,1.4259705543518066,3.280240774154663
1695713047977270300,11.434270263671875,-8.26084041595459,0.5786123275756836,3.288283109664917
1695713047996374300,11.453374267578125,-5.559048175811768,0.23026227951049805,2.2845845222473145
1695713048015478300,11.472478271484375,-4.056159496307373,-0.8034706115722656,1.1675598621368408
1695713048034551800,11.4915517578125,-4.728476524353027,-1.7213726043701172,0.6305267810821533
1695713048053655800,11.51065576171875,-6.073080062866211,-2.609891414642334,1.252180814743042
1695713048072729300,11.529729248046875,-6.467103004455566,-3.4482345581054688,2.215087890625
1695713048091833300,11.548833251953125,-5.2869873046875,-3.888101100921631,2.7544260025024414
1695713048110907000,11.567906982421874,-4.088511943817139,-3.6618528366088867,2.8073391914367676
1695713048130011000,11.587010986328124,-2.993791103363037,-2.993417263031006,2.429612159729004
1695713048149084200,11.606084228515625,-2.010904312133789,-1.4645295143127441,2.4865331649780273
1695713048168188200,11.625188232421875,-0.5261449813842773,1.3107891082763672,2.193176746368408
1695713048187292200,11.644292236328125,2.638871669769287,7.2541093826293945,2.4012598991394043
1695713048206365700,11.66336572265625,2.119791030883789,13.576882362365723,1.1515541076660156
1695713048225469700,11.6824697265625,5.910397529602051,12.796096801757812,-1.2286906242370605
1695713048244543200,11.701543212890625,4.49315881729126,2.497866153717041,-0.9576401710510254
1695713048263647200,11.720647216796875,-2.5451273918151855,-6.8042144775390625,-0.11524391174316406
1695713048282751200,11.739751220703125,-4.687338352203369,-5.093292236328125,-0.1307382583618164
1695713048301855200,11.758855224609375,-0.229644775390625,5.519908905029297,-0.09725189208984375
1695713048320928800,11.7779287109375,-3.1956939697265625,15.014607429504395,0.4610915184020996
1695713048340032800,11.79703271484375,-9.195161819458008,8.928345680236816,3.099081516265869
1695713048359136800,11.81613671875,-7.741123676300049,-2.848909378051758,6.1537981033325195
1695713048378210300,11.835210205078125,-8.840204238891602,-5.869534969329834,3.4759860038757324
1695713048397314300,11.854314208984375,-3.0627012252807617,2.339904308319092,3.732084274291992
1695713048416387800,11.873387939453124,-5.7495036125183105,8.164937019348145,4.317093849182129
1695713048435491800,11.892491943359374,-5.38228178024292,6.515196323394775,3.779446601867676
1695713048454565000,11.911565185546875,-4.555062294006348,2.2470688819885254,1.0300548076629639
1695713048473669000,11.930669189453125,-3.3937206268310547,-0.3418464660644531,-0.2702138423919678
1695713048492742700,11.94974267578125,-3.8143153190612793,-1.1344099044799805,1.9832592010498047
1695713048511846700,11.9688466796875,-5.521241188049316,0.41687965393066406,3.1785340309143066
1695713048530981000,11.987981201171875,-5.005334377288818,0.8415365219116211,2.9421260356903076
1695713048550024200,12.007024169921875,-3.065258502960205,-0.8319482803344727,2.5335946083068848
1695713048569158700,12.02615869140625,-2.8182618618011475,-1.6228466033935547,2.1652414798736572
1695713048588232200,12.045232177734375,-4.377836227416992,-1.0293588638305664,2.2470831871032715
1695713048607336200,12.064336181640625,-4.513286590576172,-0.6634845733642578,2.6189889907836914
1695713048626409700,12.08340966796875,-2.9129955768585205,-0.8985824584960938,2.8288707733154297
1695713048645513700,12.102513671875,-1.8667044639587402,-0.8563117980957031,2.765080213546753
1695713048664587300,12.121587158203125,-1.487771987915039,-0.12638378143310547,2.7301230430603027
1695713048683691300,12.140691162109375,-1.3555254936218262,0.8299360275268555,2.6653800010681152
1695713048702795300,12.159795166015625,-1.2744580507278442,1.3376274108886719,2.3531997203826904
1695713048721868800,12.178868896484374,-1.3018018007278442,1.5457744598388672,2.0249555110931396
1695713048740972800,12.197972900390624,-1.5282341241836548,1.891977310180664,2.357219696044922
1695713048760046000,12.217046142578125,-1.677451729774475,2.210049629211426,3.7724545001983643
1695713048779150000,12.236150146484375,-0.9876208305358887,2.852703094482422,3.9164276123046875
1695713048798223600,12.2552236328125,-0.09112513065338135,3.859452247619629,3.261411428451538
1695713048817327600,12.27432763671875,-1.0182781219482422,4.631982803344727,3.8722286224365234
1695713048836401200,12.293401123046875,-2.3016486167907715,5.649646759033203,4.83818244934082
1695713048855535600,12.31253564453125,-4.5099639892578125,4.599492073059082,5.315469741821289
1695713048874609200,12.331609130859375,-4.955303192138672,2.957386016845703,3.5542685985565186
1695713048893713200,12.350713134765625,-4.927008628845215,1.6149091720581055,-0.2372739315032959
1695713048912817200,12.369817138671875,-4.902856826782227,2.417083740234375,-2.68674635887146
1695713048931890700,12.388890625,-4.425432205200195,4.564309120178223,-2.561319589614868
1695713048950994700,12.40799462890625,-3.5857114791870117,6.16275691986084,-1.6109490394592285
1695713048970068200,12.427068115234375,-0.9622159004211426,5.386578559875488,0.239426851272583
1695713048989172200,12.446172119140625,-2.2063040733337402,4.364044189453125,0.7465231418609619
1695713049008245800,12.465245849609374,-7.742340087890625,4.956165313720703,-0.10052347183227539
1695713049027349800,12.484349853515624,-9.675007820129395,2.9069528579711914,1.8333933353424072
1695713049046423000,12.503423095703125,-7.4469218254089355,-0.2962222099304199,3.7512905597686768
1695713049065527000,12.522527099609375,-4.740609645843506,-0.8586273193359375,3.1298720836639404
1695713049084631000,12.541631103515625,-4.575456619262695,-1.2079830169677734,2.047229290008545
1695713049103704600,12.56070458984375,-5.4694743156433105,-1.4784317016601562,1.1603050231933594
1695713049122808600,12.57980859375,-6.329086780548096,-2.313595771789551,0.9963915348052979
1695713049141912600,12.59891259765625,-6.197504997253418,-2.6708712577819824,1.1503465175628662
1695713049161016600,12.6180166015625,-5.325665473937988,-3.215606212615967,1.7476179599761963
1695713049180090000,12.637090087890625,-4.419271469116211,-3.5591578483581543,2.2758073806762695
1695713049199194000,12.656194091796875,-3.3723816871643066,-3.273275852203369,2.5018272399902344
1695713049218267600,12.675267578125,-2.4327244758605957,-2.4728903770446777,2.3947343826293945
1695713049237371600,12.69437158203125,-1.5280146598815918,-1.0716595649719238,2.117833137512207
1695713049256475600,12.7134755859375,0.6121964454650879,1.612349510192871,1.7429237365722656
1695713049275549200,12.732549072265625,5.360193252563477,7.880057334899902,3.058396339416504
1695713049294653200,12.751653076171875,6.353036403656006,13.606101989746094,1.0009369850158691
1695713049313726700,12.770726806640624,8.315069198608398,11.454307556152344,-3.7043323516845703
1695713049332830700,12.789830810546874,1.6065335273742676,-0.981900691986084,-2.1244125366210938
1695713049351904000,12.808904052734375,-4.2059831619262695,-8.945096969604492,-0.8049721717834473
1695713049371008000,12.828008056640625,-6.923181056976318,-5.340816974639893,-0.958773136138916
1695713049390081500,12.84708154296875,-1.16817045211792,8.075584411621094,-0.7780776023864746
1695713049409185500,12.866185546875,-3.623537540435791,17.766530990600586,0.49977684020996094
1695713049428289500,12.88528955078125,-3.782226085662842,9.084762573242188,3.2251625061035156
1695713049447393500,12.9043935546875,-4.688699245452881,-2.5953941345214844,6.955077648162842
1695713049466528000,12.923528076171875,-11.008642196655273,-6.817758083343506,3.7182345390319824
1695713049485571000,12.942571044921875,-6.771923065185547,0.2532205581665039,2.401676893234253
1695713049504675000,12.961675048828125,-3.9303336143493652,6.0790605545043945,2.5823776721954346
1695713049523748600,12.98074853515625,-2.5398688316345215,4.948814392089844,2.9071056842803955
1695713049542852600,12.9998525390625,-3.5122995376586914,0.6718673706054688,1.358820915222168
1695713049561926100,13.018926025390625,-5.26017951965332,-1.299656867980957,0.21911835670471191
1695713049581030100,13.038030029296875,-4.987851142883301,-0.8141756057739258,1.9705755710601807
1695713049600103700,13.057103759765624,-5.0580153465271,0.5171108245849609,3.094282388687134
1695713049619207700,13.076207763671874,-3.9192445278167725,0.3040647506713867,3.476994276046753
1695713049638311700,13.095311767578124,-2.0295727252960205,-0.8770132064819336,2.9387526512145996
1695713049657385000,13.114385009765625,-3.013320207595825,-0.9086780548095703,2.1574766635894775
1695713049676489000,13.133489013671875,-4.120349884033203,-0.5028247833251953,1.8130433559417725
1695713049695562500,13.1525625,-3.6485822200775146,-0.6979656219482422,2.302978992462158
1695713049714697000,13.171697021484375,-2.54533052444458,-0.662750244140625,2.7216029167175293
1695713049733770500,13.1907705078125,-1.1334021091461182,-0.21501922607421875,2.9420783519744873
1695713049752874500,13.20987451171875,-0.3716830015182495,0.2830696105957031,2.822178840637207
1695713049771948000,13.228947998046875,-0.4091838598251343,0.45990657806396484,2.4712119102478027
1695713049791052000,13.248052001953125,-0.30504631996154785,0.8578405380249023,2.1284914016723633
1695713049810156000,13.267156005859375,-1.1346186399459839,1.441655158996582,2.1195485591888428
1695713049829229600,13.2862294921875,-1.384641408920288,1.6964902877807617,3.0778920650482178
1695713049848333600,13.30533349609375,-0.90500807762146,2.1883392333984375,3.757925510406494
1695713049867407000,13.324406982421875,-0.8122109174728394,3.3145713806152344,3.1578211784362793
1695713049886511000,13.343510986328125,-1.0722565650939941,4.2499895095825195,3.032409191131592
1695713049905584600,13.362584716796874,-1.4405860900878906,4.871376991271973,3.3025012016296387
1695713049924688600,13.381688720703124,-3.165076732635498,3.998072624206543,3.637468099594116
1695713049943762000,13.400761962890625,-4.683260917663574,2.1009445190429688,2.364767551422119
1695713049962866000,13.419865966796875,-4.637922763824463,0.3686847686767578,-0.9865829944610596
1695713049981970000,13.438969970703125,-4.475576400756836,1.9882545471191406,-3.3941423892974854
1695713050001074000,13.458073974609375,-4.102383613586426,4.474370956420898,-3.6562507152557373
1695713050020178000,13.477177978515625,-2.9365572929382324,5.3492841720581055,-2.9481709003448486
1695713050039251500,13.49625146484375,-0.8514351844787598,4.307384490966797,-0.9159440994262695
1695713050058355500,13.51535546875,-2.908975124359131,4.3699951171875,0.05732250213623047
1695713050077429000,13.534428955078125,-7.83718204498291,5.614148139953613,-0.27063775062561035
1695713050096533000,13.553532958984375,-9.0843505859375,3.0412793159484863,1.7116608619689941
1695713050115606500,13.5726064453125,-6.32703161239624,0.17472171783447266,2.9842512607574463
1695713050134710500,13.59171044921875,-4.223512172698975,-0.6274528503417969,2.619917631149292
1695713050153814500,13.610814453125,-4.280094623565674,-0.7813773155212402,1.58369779586792
1695713050172888000,13.62988818359375,-4.875631332397461,-0.9706835746765137,0.7055089473724365
1695713050191992000,13.648991943359375,-5.983372688293457,-1.919140338897705,0.6090915203094482
1695713050211065300,13.6680654296875,-6.042129039764404,-2.7614216804504395,0.7860462665557861
1695713050230200000,13.687199951171875,-5.111177921295166,-3.9557876586914062,1.5271761417388916
1695713050249243000,13.706242919921875,-3.9224557876586914,-4.8661041259765625,2.230534553527832
1695713050268347000,13.725346923828125,-2.8416295051574707,-4.538441181182861,2.247685670852661
1695713050287451000,13.744450927734375,-2.2908034324645996,-3.143512725830078,2.066250801086426
1695713050306555000,13.763554931640625,-0.7876791954040527,-0.3505129814147949,1.647566318511963
1695713050325659000,13.782658935546875,1.0751352310180664,5.141141891479492,1.062593698501587
1695713050344732400,13.801732421875,3.354032039642334,13.414497375488281,1.3842370510101318
1695713050363836400,13.82083642578125,5.316882610321045,15.778736114501953,-2.5917422771453857
1695713050382910000,13.839909912109375,4.425607681274414,4.236151695251465,-3.5266358852386475
1695713050402014000,13.859013916015625,-2.4296255111694336,-9.927600860595703,-1.003673791885376
1695713050421087500,13.87808740234375,-5.145009517669678,-12.733772277832031,1.0650379657745361
1695713050440191500,13.89719140625,-3.3225579261779785,-2.8701705932617188,2.0223705768585205
1695713050459265000,13.91626513671875,-3.2376198768615723,13.140148162841797,-0.0011343955993652344
1695713050478369000,13.935369140625,-2.315457344055176,23.977888107299805,0.5970878601074219
1695713050497442300,13.9544423828125,-7.6985554695129395,5.2937445640563965,5.949794769287109
1695713050516546300,13.97354638671875,-12.802490234375,-9.643579483032227,1.8414275646209717
1695713050535650300,13.992650390625,-3.4128336906433105,-5.519761562347412,-0.23923230171203613
1695713050554723800,14.011723876953125,-3.396817684173584,4.631261348724365,1.2694828510284424
1695713050573858600,14.030858642578124,-3.8257765769958496,6.671849250793457,4.103626251220703
1695713050592931800,14.049931884765625,-6.008667469024658,3.768890380859375,1.8617019653320312
1695713050612035800,14.069035888671875,-4.649961471557617,1.2875232696533203,-0.6528041362762451
1695713050631109400,14.088109375,-2.5947680473327637,-0.7937641143798828,0.9685366153717041
1695713050650213400,14.10721337890625,-4.232564926147461,-0.7741451263427734,2.287569761276245
1695713050669287000,14.126286865234375,-5.689794063568115,-0.22896766662597656,2.1327242851257324
1695713050688391000,14.145390869140625,-4.236747741699219,-1.3263559341430664,1.5736067295074463
1695713050707495000,14.164494873046875,-2.8477723598480225,-1.6141653060913086,1.4185495376586914
1695713050726568400,14.183568359375,-2.765532970428467,-0.8369779586791992,2.2148404121398926
1695713050745672400,14.20267236328125,-3.2529420852661133,0.1895427703857422,2.718451976776123
1695713050764746000,14.22174609375,-3.1096644401550293,0.24181175231933594,2.7314839363098145
1695713050783850000,14.24085009765625,-1.7477164268493652,-0.053404808044433594,2.3657898902893066
1695713050802923300,14.25992333984375,-1.2107157707214355,-0.1654644012451172,1.8827288150787354
1695713050822027300,14.27902734375,-1.331935167312622,-0.10935115814208984,1.3548212051391602
1695713050841100800,14.298100830078125,-1.4884600639343262,-0.04071044921875,0.9416344165802002
1695713050860235500,14.317235595703124,-1.52677321434021,0.23734378814697266,1.3193917274475098
1695713050879308800,14.336308837890625,-2.050752639770508,0.934971809387207,2.2942681312561035
1695713050898412800,14.355412841796875,-1.9578077793121338,1.4661521911621094,2.6118173599243164
1695713050917516800,14.374516845703125,-1.0814520120620728,1.5670766830444336,2.5125732421875
1695713050936590300,14.39359033203125,-0.9203145503997803,1.5986642837524414,1.8012127876281738
1695713050955694300,14.4126943359375,-0.24955081939697266,1.7591228485107422,1.3136539459228516
1695713050974767900,14.431767822265625,0.3470684289932251,1.8740530014038086,1.862668514251709
1695713050993872000,14.450871826171875,-0.7715703248977661,2.4408111572265625,2.745867967605591
1695713051012945400,14.4699453125,-3.0480518341064453,3.556105613708496,3.953702449798584
1695713051032049400,14.48904931640625,-4.183094024658203,4.124760627746582,4.630923271179199
1695713051051123000,14.508123046875,-4.745572090148926,2.746476173400879,3.514600992202759
1695713051070227000,14.52722705078125,-4.841719627380371,1.7557449340820312,-0.6066913604736328
1695713051089331000,14.5463310546875,-4.814335823059082,1.2340450286865234,-3.806013584136963
1695713051108404200,14.565404296875,-1.9185185432434082,3.573925018310547,-4.113386154174805
1695713051127508200,14.58450830078125,0.9498543739318848,4.932427406311035,-1.47422194480896
1695713051146612200,14.6036123046875,0.5719771385192871,4.334559440612793,1.9716689586639404
1695713051165747000,14.622746826171875,-4.7654876708984375,4.519779682159424,2.2613749504089355
1695713051184789800,14.641789794921875,-10.555721282958984,4.68706750869751,1.1148216724395752
1695713051203893800,14.660893798828125,-9.302236557006836,2.4306931495666504,1.55418062210083
1695713051222967300,14.67996728515625,-9.174291610717773,-0.26594972610473633,1.4091856479644775
1695713051242071300,14.6990712890625,-4.19275426864624,-0.8624362945556641,1.60453200340271
1695713051261175300,14.71817529296875,-3.0627970695495605,-0.5190024375915527,1.4529356956481934
1695713051280248800,14.737248779296875,-2.503079414367676,-0.8368444442749023,0.7075486183166504
1695713051299352800,14.756352783203125,-3.16707706451416,-0.9190917015075684,-0.032982587814331055
1695713051318426400,14.77542626953125,-4.976205348968506,-0.9757442474365234,0.13089609146118164
1695713051337530400,14.7945302734375,-5.792449474334717,-1.6867566108703613,0.8538789749145508
1695713051356604000,14.81360400390625,-4.201539516448975,-2.497861862182617,1.374042272567749
1695713051375708000,14.8327080078125,-1.970144271850586,-2.416783332824707,1.5120108127593994
1695713051394781200,14.85178125,-1.2002954483032227,-1.764897346496582,1.2862458229064941
1695713051413885200,14.87088525390625,-1.4528613090515137,-0.3440818786621094,1.3667173385620117
1695713051432989200,14.8899892578125,-1.4881987571716309,1.5048894882202148,1.2611010074615479
1695713051452093200,14.90909326171875,-2.212956428527832,3.2592029571533203,0.7875967025756836
1695713051471197200,14.928197265625,-2.0662612915039062,4.739481449127197,0.8192377090454102
1695713051490270700,14.947270751953125,2.5030503273010254,5.012871265411377,1.68062424659729
1695713051509374700,14.966374755859375,4.276525974273682,4.891274929046631,1.0324082374572754
1695713051528448300,14.9854482421875,-1.1340322494506836,3.1472973823547363,-0.025121688842773438
1695713051547552300,15.00455224609375,-3.303100109100342,-0.2779884338378906,-0.1412665843963623
1695713051566625800,15.023625732421875,-0.908998966217041,-1.4422369003295898,0.08554863929748535
1695713051585729800,15.042729736328125,-0.9746627807617188,2.0032153129577637,-0.2030782699584961
1695713051604803300,15.06180322265625,-2.1089606285095215,5.7945051193237305,0.21288728713989258
1695713051623907300,15.0809072265625,-4.290406703948975,7.638749122619629,0.30644655227661133
1695713051643011300,15.10001123046875,-2.9794235229492188,2.081207752227783,3.1712656021118164
1695713051662084900,15.1190849609375,-10.043777465820312,-4.628588676452637,1.743135929107666
1695713051681188900,15.13818896484375,-8.015616416931152,-2.8642311096191406,2.2351622581481934
1695713051700262100,15.15726220703125,-4.279333114624023,3.5556583404541016,2.9913365840911865
1695713051719396900,15.17639697265625,-5.052248001098633,6.1967878341674805,3.3603193759918213
1695713051738470100,15.19547021484375,-5.75261926651001,4.600526809692383,2.409735679626465
1695713051757574100,15.21457421875,-3.8388357162475586,1.5244569778442383,0.6728384494781494
1695713051776647700,15.233647705078125,-0.8828320503234863,-0.19599533081054688,0.9771304130554199
1695713051795751700,15.252751708984375,-0.2418351173400879,0.10379886627197266,2.0887537002563477
1695713051814855700,15.271855712890625,-2.827141523361206,1.0530366897583008,2.5108585357666016
1695713051833929200,15.29092919921875,-5.282703876495361,0.8993349075317383,2.4444777965545654
1695713051853033200,15.310033203125,-5.309327125549316,-0.39792537689208984,2.5629162788391113
1695713051872106800,15.329106689453125,-3.210357666015625,-0.24235248565673828,2.478937864303589
1695713051891210800,15.348210693359375,-1.7315340042114258,1.2666435241699219,1.766937255859375
1695713051910284300,15.3672841796875,-1.5950307846069336,1.5727806091308594,1.1297943592071533
1695713051929418800,15.386418701171875,-1.2441160678863525,1.105229377746582,1.1457655429840088
1695713051948461800,15.4054619140625,-0.7135803699493408,1.187880516052246,1.6338062286376953
1695713051967565800,15.42456591796875,-0.44654273986816406,1.371760368347168,1.9664547443389893
1695713051986669800,15.443669921875,-1.182100772857666,1.2870521545410156,1.7978787422180176
1695713052005773800,15.46277392578125,-3.9231066703796387,0.6387290954589844,0.6001393795013428
1695713052024877800,15.4818779296875,-4.87351131439209,-0.26471424102783203,-0.14049839973449707
1695713052043951000,15.500951171875,-3.826727867126465,-0.37374019622802734,0.3953588008880615
1695713052063055000,15.52005517578125,-2.3676846027374268,0.30434226989746094,1.2848842144012451
1695713052082128600,15.539128662109375,-1.6487586498260498,1.0189313888549805,2.026685953140259
1695713052101232600,15.558232666015625,-2.9003849029541016,1.2847185134887695,2.4102020263671875
1695713052120306200,15.57730615234375,-4.5666022300720215,1.2246437072753906,2.366415023803711
1695713052139410200,15.59641015625,-4.717461585998535,0.8644876480102539,2.492659330368042
1695713052158483700,15.615483642578125,-4.22930383682251,0.6072826385498047,2.863414764404297
1695713052177587700,15.634587646484375,-4.043927192687988,0.7728796005249023,2.782449722290039
1695713052196691700,15.653691650390625,-3.72446608543396,0.9195728302001953,2.536940574645996
1695713052215765200,15.67276513671875,-3.2306766510009766,0.9814386367797852,2.2711575031280518
1695713052234869200,15.691869140625,-3.1773242950439453,0.7364931106567383,2.1053736209869385
1695713052253942800,15.71094287109375,-3.158693790435791,0.6399574279785156,1.9932076930999756
1695713052273046800,15.730046875,-2.868589401245117,1.1568994522094727,1.7247915267944336
1695713052292150800,15.74915087890625,-2.4310836791992188,1.772843360900879,1.5146679878234863
1695713052311254800,15.7682548828125,-2.6928300857543945,2.4754343032836914,1.2589590549468994
1695713052330328000,15.787328125,-3.866832733154297,2.415104866027832,0.7029883861541748
1695713052349432000,15.80643212890625,-5.103682518005371,0.9295120239257812,-0.4058997631072998
1695713052368536000,15.8255361328125,-5.040761470794678,-0.45305538177490234,-1.7626852989196777
1695713052387609600,15.844609619140625,-2.998302459716797,-0.4107217788696289,-2.1237239837646484
1695713052406713600,15.863713623046875,-1.0629992485046387,0.7724752426147461,-1.4201958179473877
1695713052425787100,15.882787109375,-1.528592586517334,1.3690619468688965,-0.18345952033996582
1695713052444891100,15.90189111328125,-3.834105968475342,1.3752765655517578,0.6783487796783447
1695713052463964700,15.920964599609375,-4.25637149810791,1.2182579040527344,0.887537956237793
1695713052483068700,15.940068603515625,-2.5973148345947266,0.21255779266357422,0.3761770725250244
1695713052502142200,15.95914208984375,-1.247642993927002,-0.5928201675415039,-0.9889364242553711
1695713052521246200,15.97824609375,0.25198888778686523,-0.2777247428894043,-1.0258305072784424
1695713052540350200,15.99735009765625,2.07417631149292,1.6123900413513184,2.5510079860687256
1695713052559423700,16.016423828125,-0.002418041229248047,2.3058533668518066,4.154193878173828
1695713052578558200,16.03555810546875,-3.475203037261963,1.3069119453430176,2.4710693359375
1695713052597631700,16.0546318359375,-4.574972152709961,0.7798151969909668,-0.29485249519348145
1695713052616735700,16.07373583984375,-1.7275009155273438,1.262444019317627,-2.395059585571289
1695713052635809000,16.09280908203125,1.1547598838806152,1.885488510131836,-2.5923945903778076
1695713052654913000,16.1119130859375,0.7284669876098633,1.5207767486572266,-0.9529116153717041
1695713052673986600,16.130986572265623,-1.9448637962341309,0.5222206115722656,1.4871010780334473
1695713052693090600,16.150090576171873,-2.7731080055236816,0.37921667098999023,1.8089721202850342
1695713052712194600,16.169194580078123,-2.539687156677246,1.0433721542358398,1.1370351314544678
1695713052731268000,16.18826806640625,-2.0354127883911133,1.261277198791504,1.3177285194396973
1695713052750372000,16.2073720703125,-1.0422577857971191,1.0707707405090332,1.2773654460906982
1695713052769445600,16.226445556640623,-1.205552577972412,0.6093673706054688,0.5937693119049072
1695713052788549600,16.245549560546873,-1.6929798126220703,0.5112295150756836,-0.3103446960449219
1695713052807623200,16.264623046875,-0.8516464233398438,1.251878261566162,-0.6342422962188721
1695713052826727200,16.28372705078125,-0.5849127769470215,2.0767526626586914,-0.47483134269714355
1695713052845800700,16.30280078125,-1.2922449111938477,1.6766366958618164,-0.08844399452209473
1695713052864965600,16.321965576171873,-1.5284295082092285,0.7347402572631836,0.3738372325897217
1695713052884008700,16.3410087890625,-1.5564641952514648,0.6917581558227539,0.9435596466064453
1695713052903112700,16.36011279296875,-1.7876605987548828,1.26149320602417,1.0477046966552734
1695713052922216700,16.379216796875,-1.458796501159668,1.4954805374145508,0.9194784164428711
1695713052941290000,16.3982900390625,-1.5812110900878906,1.4007716178894043,0.5549278259277344
1695713052960394000,16.41739404296875,-1.4039602279663086,1.2629685401916504,0.2685546875
1695713052979467500,16.436467529296873,-1.3919105529785156,1.4124398231506348,0.19161272048950195
1695713052998571500,16.455571533203123,-1.7871627807617188,1.5837922096252441,0.30335474014282227
1695713053017645000,16.47464501953125,-1.8405323028564453,1.7059776782989502,0.4939093589782715
1695713053036749000,16.4937490234375,-1.725412368774414,1.9000506401062012,0.5749757289886475
1695713053055822600,16.512822509765623,-1.662557601928711,2.1476187705993652,0.20366954803466797
1695713053074926600,16.531926513671873,-1.5719432830810547,2.564391613006592,0.012528657913208008
1695713053094030600,16.551030517578123,-1.575392723083496,2.625988006591797,-0.06638669967651367
1695713053113104100,16.570104248046874,-1.037642478942871,2.826704740524292,-0.13024401664733887
1695713053132208000,16.5892080078125,-0.45939159393310547,2.9216184616088867,0.0015723705291748047
1695713053151312100,16.60831201171875,-0.5644588470458984,2.2403252124786377,0.28608012199401855
1695713053170416000,16.627416015625,-0.6995887756347656,1.860039472579956,0.8891069889068604
1695713053189489700,16.64648974609375,-0.6916236877441406,1.938301920890808,1.000077724456787
1695713053208593700,16.66559375,-0.19281959533691406,2.4514989852905273,0.4565000534057617
1695713053227667000,16.6846669921875,-0.12730979919433594,2.6739234924316406,-0.3526334762573242
1695713053246771000,16.70377099609375,0.1334972381591797,2.61877703666687,-0.5375056266784668
1695713053265844500,16.722844482421873,0.4789876937866211,2.485840320587158,-0.3673563003540039
1695713053284948500,16.741948486328123,0.5514421463012695,2.5489299297332764,0.1005406379699707
1695713053304052500,16.761052490234373,0.4663553237915039,2.547445297241211,0.37970471382141113
1695713053323126000,16.7801259765625,0.7514533996582031,2.732269525527954,0.34119176864624023
1695713053342230000,16.79922998046875,1.1273069381713867,2.8356401920318604,0.022757530212402344
1695713053361303600,16.818303466796873,1.6819162368774414,2.609758138656616,-0.20242691040039062
1695713053380407600,16.837407470703123,2.34500789642334,2.218843698501587,-0.6838955879211426
1695713053399481000,16.856481201171874,2.2654285430908203,1.6249306201934814,-1.103623628616333
1695713053418585000,16.875585205078124,2.172107696533203,1.5836747884750366,-0.9598197937011719
1695713053437689000,16.894689208984374,1.3393898010253906,2.237600803375244,-1.0674290657043457
1695713053456793000,16.91379296875,0.26212024688720703,2.472257614135742,-1.0555946826934814
1695713053475897000,16.93289697265625,-0.22624778747558594,1.9692580699920654,-0.706371545791626
1695713053494970600,16.951970703125,-0.22742271423339844,1.8737235069274902,-0.4130587577819824
1695713053514074600,16.97107470703125,-0.7882108688354492,2.0095198154449463,-0.00773167610168457
1695713053533148000,16.99014794921875,-1.123061180114746,2.0247087478637695,0.21690940856933594
1695713053552252000,17.009251953125,-0.33498477935791016,2.1838014125823975,0.3325538635253906
1695713053571325400,17.028325439453123,0.07665252685546875,2.057129144668579,0.23877906799316406
1695713053590429400,17.047429443359373,-0.46286869049072266,1.625624656677246,-0.03772735595703125
1695713053609503000,17.0665029296875,-0.27939319610595703,1.529658317565918,-0.43189239501953125
1695713053628637400,17.085637451171873,0.1803874969482422,2.146064281463623,-0.40673327445983887
1695713053647711000,17.1047109375,0.11740303039550781,2.7308435440063477,0.10095024108886719
1695713053666784500,17.123784423828123,-0.32622337341308594,2.7568178176879883,0.04072129726409912
1695713053685888500,17.142888427734373,-0.7195510864257812,2.2104787826538086,-0.47125113010406494
1695713053704962000,17.161962158203124,-0.6089639663696289,1.6749184131622314,-0.6403770446777344
1695713053724096500,17.181096435546873,-0.3901023864746094,1.558546543121338,-0.4707152843475342
1695713053743170000,17.200170166015624,-0.6496152877807617,1.6151069402694702,-0.24716806411743164
1695713053762274000,17.219274169921874,-0.5765619277954102,1.4075462818145752,-0.4059123992919922
1695713053781347300,17.238347412109373,-0.013157844543457031,1.2348542213439941,-0.9160670042037964
1695713053800451600,17.25745166015625,0.07249736785888672,1.324777364730835,-1.3882020711898804
1695713053819555600,17.2765556640625,-0.2819995880126953,1.2095439434051514,-1.8983542919158936
1695713053838628900,17.29562890625,-0.27997875213623047,0.5653636455535889,-1.8318523168563843
1695713053857732900,17.31473291015625,0.3459653854370117,0.18094170093536377,-1.0650047063827515
1695713053876806400,17.333806396484373,0.7761716842651367,0.5448344945907593,-0.2556576728820801
1695713053895910400,17.352910400390623,0.9216442108154297,0.8707785606384277,0.2971005439758301
1695713053914984000,17.37198388671875,0.8848962783813477,1.0799651145935059,0.17687249183654785
1695713053934088000,17.391087890625,0.6463193893432617,1.3447110652923584,-0.217352032661438
1695713053953161500,17.410161376953123,0.0685129165649414,1.5680575370788574,-0.06387227773666382
1695713053972265500,17.429265380859373,0.08465576171875,1.5495989322662354,0.5306155681610107
1695713053991339000,17.448339111328124,-0.0724334716796875,1.1650410890579224,0.81074458360672
1695713054010473500,17.467473388671873,-0.3647804260253906,0.9994957447052002,0.9189621806144714
1695713054029577500,17.486577392578123,-0.4342002868652344,0.9598422050476074,0.8134263157844543
1695713054048651000,17.505651123046874,-0.3525571823120117,1.1127569675445557,0.691530704498291
1695713054067755000,17.524755126953124,-0.27277374267578125,1.5179893970489502,0.4428209066390991
1695713054086828300,17.543828369140623,0.2833433151245117,1.8755555152893066,0.14087563753128052
1695713054105932300,17.562932373046873,0.5596914291381836,2.0179288387298584,-0.11671429872512817
1695713054125005800,17.582005859375,0.2026357650756836,1.9150168895721436,-0.23026496171951294
1695713054144109800,17.60110986328125,-0.6490459442138672,1.5012900829315186,-0.38819098472595215
1695713054163183400,17.620183349609373,-1.1751956939697266,1.285808801651001,-0.5358085632324219
1695713054182287400,17.639287353515623,-0.6303300857543945,1.3688242435455322,-0.6845188736915588
1695713054201391400,17.658391357421873,-0.3184022903442383,1.5769898891448975,-1.0540722608566284
1695713054220465000,17.67746484375,0.03559684753417969,1.806693196296692,-1.3815064430236816
1695713054239569000,17.69656884765625,1.0724000930786133,2.42147159576416,-1.8568503856658936
1695713054258642400,17.715642333984373,1.8433828353881836,3.326699733734131,-1.918591856956482
1695713054277746400,17.734746337890623,1.3101530075073242,3.141988754272461,-1.214734673500061
1695713054296850400,17.753850341796873,0.5166654586791992,2.1014761924743652,-0.9376773834228516
1695713054315954400,17.772954345703123,-0.8731584548950195,1.106769323348999,-0.8642096519470215
1695713054335028000,17.792028076171874,-2.675405502319336,0.1054641604423523,-0.5426784157752991
1695713054354132000,17.811132080078124,-2.0736541748046875,0.5410244464874268,-0.09547114372253418
1695713054373205200,17.830205322265623,-0.3673830032348633,1.4595719575881958,0.27291643619537354
1695713054392309200,17.849309326171873,0.4184885025024414,1.8505417108535767,0.25925853848457336
1695713054411413200,17.868413330078123,0.8548564910888672,2.0755112171173096,0.2720786929130554
1695713054430486800,17.88748681640625,1.4231815338134766,2.366806745529175,-0.1459345817565918
1695713054449590800,17.9065908203125,0.9305591583251953,2.17330265045166,-0.6155389547348022
1695713054468664300,17.925664306640623,0.12781333923339844,1.4455147981643677,-0.884045422077179
1695713054487768300,17.944768310546873,-0.35357093811035156,0.981553316116333,-0.9295197129249573
1695713054506841900,17.963841796875,-0.35583972930908203,1.0402188301086426,-0.8271724581718445
1695713054525945900,17.98294580078125,-0.07329940795898438,1.3174738883972168,-0.8311612606048584
1695713054545019400,18.002019287109373,0.15204715728759766,1.5190691947937012,-0.888939380645752
1695713054564123400,18.021123291015623,0.23991966247558594,1.6720008850097656,-0.8871771097183228
1695713054583257900,18.0402578125,0.1088876724243164,1.7335078716278076,-0.8130424618721008
1695713054602331400,18.059331298828123,-0.052608489990234375,1.658499002456665,-0.7786659598350525
1695713054621435400,18.078435302734373,-0.11330795288085938,1.5778720378875732,-0.7530046701431274
1695713054640509000,18.097509033203124,-0.1899557113647461,1.5521049499511719,-0.7490779757499695
1695713054659613000,18.116613037109374,-0.3000965118408203,1.587432861328125,-0.788047194480896
1695713054678686200,18.135686279296873,-0.3622255325317383,1.6022294759750366,-0.8184788823127747
1695713054697790200,18.154790283203123,-0.2700176239013672,1.6712713241577148,-0.7886814475059509
1695713054716863700,18.17386376953125,-0.14858627319335938,1.734771966934204,-0.8620336651802063
1695713054735967700,18.1929677734375,-0.1219329833984375,1.7136601209640503,-0.9258665442466736
1695713054755071700,18.21207177734375,-0.1724071502685547,1.6096023321151733,-0.9573500752449036
1695713054774145300,18.231145263671873,-0.20720481872558594,1.5235071182250977,-0.9951255321502686
1695713054793249300,18.250249267578123,-0.250274658203125,1.5424572229385376,-0.9972411394119263
1695713054812322800,18.26932275390625,-0.26567935943603516,1.5635372400283813,-0.9002629518508911
1695713054831426800,18.2884267578125,-0.17207622528076172,1.5324556827545166,-0.7902867197990417
1695713054850500400,18.307500244140623,-0.09854984283447266,1.461240530014038,-0.6971460580825806
1695713054869634800,18.326634765625,-0.06951522827148438,1.449042558670044,-0.702398419380188
1695713054888708400,18.345708251953123,-0.02407073974609375,1.479159951210022,-0.6950668692588806
1695713054907812400,18.364812255859373,0.057267189025878906,1.4741451740264893,-0.7381115555763245
1695713054926916400,18.383916259765623,-0.0693197250366211,1.3351094722747803,-0.6972198486328125
1695713054945990000,18.402989990234374,-0.2816905975341797,1.1941907405853271,-0.7106319665908813
1695713054965094000,18.422093994140624,-0.3899087905883789,1.1881721019744873,-0.5728564858436584
1695713054984167200,18.441167236328123,-0.17675113677978516,1.3927741050720215,-0.6018090844154358
1695713055003271200,18.460271240234373,0.209625244140625,1.6302093267440796,-0.6387256979942322
1695713055022344700,18.4793447265625,0.034577369689941406,1.597510814666748,-0.5854418873786926
1695713055041448700,18.49844873046875,-0.10053825378417969,1.5562812089920044,-0.49518054723739624
1695713055060522200,18.517522216796873,-0.11179065704345703,1.5872304439544678,-0.4984518885612488
1695713055079626200,18.536626220703123,-0.1289386749267578,1.6270935535430908,-0.5144127011299133
1695713055098699800,18.55569970703125,-0.11733531951904297,1.5841310024261475,-0.5032400488853455
1695713055117803800,18.5748037109375,0.03148460388183594,1.543295979499817,-0.348067045211792
1695713055136907800,18.59390771484375,0.6141347885131836,1.908860445022583,0.2408285140991211
1695713055156011800,18.61301171875,0.41006946563720703,1.659346103668213,-0.06493058800697327
1695713055175115800,18.63211572265625,-0.49108028411865234,1.1648492813110352,-0.8805335760116577
1695713055194189300,18.651189208984373,-0.4835071563720703,1.364595651626587,-1.0891376733779907
1695713055213293300,18.670293212890623,-0.1999807357788086,1.6817293167114258,-0.7289742231369019
1695713055232366800,18.689366943359374,-0.15421009063720703,1.575507402420044,-0.5914243459701538
1695713055251470800,18.708470947265624,-0.28896141052246094,1.2761784791946411,-0.7896007299423218
1695713055270544100,18.727544189453123,-0.28531932830810547,1.2109249830245972,-0.8865711688995361
1695713055289648000,18.746648193359373,-0.10886001586914062,1.399970531463623,-0.8637012839317322
1695713055308752100,18.765752197265623,0.0063190460205078125,1.7215893268585205,-0.5428361296653748
1695713055327856000,18.784856201171873,-0.07009410858154297,1.470851182937622,-0.7000948190689087
1695713055346929700,18.8039296875,-0.09369659423828125,1.2134649753570557,-0.8253430128097534
1695713055366003200,18.823003173828123,-0.10469913482666016,1.503741979598999,-0.7763321399688721
1695713055385107200,18.842107177734373,-0.31223011016845703,1.4319086074829102,-0.6818223595619202
1695713055404180700,18.8611806640625,-0.18095684051513672,1.3987443447113037,-0.5962145924568176
1695713055423284700,18.88028466796875,0.013899803161621094,1.5126456022262573,-0.583651065826416
1695713055442388700,18.899388671875,0.03475475311279297,1.5588576793670654,-0.6375163197517395
1695713055461492700,18.91849267578125,-0.06223487854003906,1.4712527990341187,-0.6080402135848999
1695713055480596700,18.9375966796875,-0.16745853424072266,1.4428975582122803,-0.5363357067108154
1695713055499670300,18.956670166015623,-0.17502880096435547,1.4509572982788086,-0.5256281495094299
1695713055518774300,18.975774169921873,-0.1335439682006836,1.4859036207199097,-0.5362709760665894
1695713055537847800,18.994847900390624,-0.08344554901123047,1.5187575817108154,-0.5175774097442627
1695713055556951800,19.013951904296874,-0.048633575439453125,1.5029321908950806,-0.5083032250404358
1695713055576025000,19.033025146484373,-0.03648185729980469,1.4252724647521973,-0.543720543384552
1695713055595129000,19.052129150390623,-0.09480953216552734,1.3838534355163574,-0.5773739814758301
1695713055614202600,19.07120263671875,-0.09123611450195312,1.4061009883880615,-0.6415097117424011
1695713055633306600,19.090306640625,-0.08642005920410156,1.4228265285491943,-0.6946559548377991
1695713055652410600,19.10941064453125,-0.0852365493774414,1.405437707901001,-0.6532425880432129
1695713055671484200,19.128484130859373,-0.09011173248291016,1.3632323741912842,-0.5670709013938904
1695713055690588200,19.147588134765623,-0.08912086486816406,1.3546228408813477,-0.5120730996131897
1695713055709661700,19.16666162109375,-0.13228321075439453,1.3737764358520508,-0.5220097303390503
1695713055728796200,19.185796142578123,-0.10989093780517578,1.3963055610656738,-0.5326922535896301
1695713055747869700,19.20486962890625,-0.09337615966796875,1.3933266401290894,-0.5463841557502747
1695713055766973700,19.2239736328125,-0.07921791076660156,1.365239143371582,-0.5506730079650879
1695713055786047200,19.243047119140623,-0.09012317657470703,1.374337911605835,-0.5585514307022095
1695713055805151200,19.262151123046873,-0.1010293960571289,1.3710317611694336,-0.567121148109436
1695713055824224800,19.281224853515624,-0.1250295639038086,1.3711585998535156,-0.5838388800621033
1695713055843328800,19.300328857421874,-0.1251697540283203,1.353809118270874,-0.5908242464065552
1695713055862432800,19.319432861328124,-0.10619449615478516,1.349962592124939,-0.5784043073654175
1695713055881506000,19.338506103515623,-0.10750102996826172,1.329753041267395,-0.5948336124420166
1695713055900610000,19.357610107421873,-0.10284614562988281,1.329293966293335,-0.5898396968841553
1695713055919683600,19.37668359375,-0.12800216674804688,1.3099164962768555,-0.5899530649185181
1695713055938787600,19.39578759765625,-0.12099838256835938,1.2953109741210938,-0.5736114978790283
1695713055957861000,19.414861083984373,-0.11756038665771484,1.309198260307312,-0.5739385485649109
1695713055976965000,19.433965087890623,-0.1152963638305664,1.319490909576416,-0.5845937132835388
1695713055996038700,19.45303857421875,-0.12374114990234375,1.3369956016540527,-0.5819194316864014
1695713056015173000,19.472173095703123,-0.10712528228759766,1.3287250995635986,-0.5731782913208008
1695713056034277000,19.491277099609373,-0.10843658447265625,1.3204026222229004,-0.564927339553833
1695713056053350700,19.5103505859375,-0.11332225799560547,1.3140161037445068,-0.5569542646408081
1695713056072454700,19.52945458984375,-0.10872650146484375,1.3016533851623535,-0.5706952214241028
1695713056091528200,19.548528076171873,-0.0981283187866211,1.2861504554748535,-0.5460856556892395
1695713056110632200,19.567632080078123,-0.09823036193847656,1.3039772510528564,-0.5424507856369019
1695713056129705700,19.586705810546874,-0.10545730590820312,1.3181278705596924,-0.5387765169143677
1695713056148809700,19.605809814453124,-0.1270275115966797,1.2752330303192139,-0.5165635943412781
1695713056167883000,19.624883056640623,-0.09737014770507812,1.251583218574524,-0.5220944881439209
1695713056186987000,19.643987060546873,-0.08558273315429688,1.272977590560913,-0.5551500916481018
1695713056206060500,19.663060546875,-0.06314373016357422,1.2368322610855103,-0.5517889261245728
1695713056225164500,19.68216455078125,-0.10511589050292969,1.3293050527572632,-0.5703866481781006
1695713056244268500,19.7012685546875,-0.16243934631347656,1.2916574478149414,-0.5479040145874023
1695713056263342000,19.720342041015623,-0.16713905334472656,1.2524131536483765,-0.5219882130622864
1695713056282446000,19.739446044921873,-0.08006954193115234,1.2509307861328125,-0.4785807132720947
1695713056301550000,19.758550048828123,-0.08603382110595703,1.2404465675354004,-0.4963304400444031
1695713056320654000,19.777654052734373,-0.09324836730957031,1.2587298154830933,-0.5146066546440125
1695713056339727600,19.7967275390625,-0.09572029113769531,1.2790734767913818,-0.5327107906341553
1695713056358831600,19.81583154296875,-0.1183938980102539,1.273158311843872,-0.554903507232666
1695713056377905200,19.8349052734375,-0.1302967071533203,1.2759509086608887,-0.5668944716453552
1695713056397009200,19.854009033203123,-0.1088113784790039,1.2875069379806519,-0.5140193700790405
1695713056416113200,19.873113037109373,-0.10870838165283203,1.2721768617630005,-0.5142351388931274
1695713056435186700,19.892186767578124,-0.12283992767333984,1.2603634595870972,-0.5089044570922852
1695713056454290700,19.911290771484374,-0.12981128692626953,1.2405717372894287,-0.48412394523620605
1695713056473364000,19.930364013671873,-0.11890792846679688,1.2222479581832886,-0.4931955337524414
1695713056492468000,19.949468017578123,-0.09138965606689453,1.2025058269500732,-0.5088931322097778
1695713056511541500,19.96854150390625,-0.10917854309082031,1.198808193206787,-0.5119795799255371
1695713056530645500,19.9876455078125,-0.12221050262451172,1.1795381307601929,-0.539207935333252
1695713056549719000,20.006718994140623,-0.1352691650390625,1.181710958480835,-0.5437674522399902
1695713056568823000,20.025822998046873,-0.12325572967529297,1.1632344722747803,-0.5457251071929932
1695713056587957500,20.04495751953125,-0.08380508422851562,1.1784155368804932,-0.5739567279815674
1695713056607031000,20.064031005859373,-0.09558486938476562,1.2121516466140747,-0.5553282499313354
1695713056626135000,20.083135009765623,-0.0811920166015625,1.2171658277511597,-0.5345370173454285
1695713056645208600,20.10220849609375,-0.10978221893310547,1.222632884979248,-0.5110347867012024
1695713056664312600,20.1213125,-0.1252756118774414,1.2397642135620117,-0.5048530101776123
1695713056683386000,20.14038623046875,-0.13953590393066406,1.2289804220199585,-0.4907701015472412
1695713056702490000,20.159489990234373,-0.12871074676513672,1.1987993717193604,-0.5155001282691956
1695713056721563400,20.1785634765625,-0.08090972900390625,1.1889264583587646,-0.5005460977554321
1695713056740667600,20.197667724609374,-0.06416511535644531,1.175076961517334,-0.4909743070602417
1695713056759741000,20.216740966796873,-0.1106100082397461,1.1602892875671387,-0.47467076778411865
1695713056778845000,20.235844970703123,-0.11654949188232422,1.1689326763153076,-0.47278541326522827
1695713056797949000,20.254948974609373,-0.12012863159179688,1.1741303205490112,-0.4831444025039673
1695713056817022500,20.2740224609375,-0.10938549041748047,1.1488419771194458,-0.48742878437042236
1695713056836126500,20.29312646484375,-0.1070089340209961,1.1590216159820557,-0.491710364818573
1695713056855200000,20.312199951171873,-0.11652278900146484,1.1678624153137207,-0.48641735315322876
1695713056874334500,20.33133447265625,-0.11650657653808594,1.173183798789978,-0.5013964772224426
1695713056893408000,20.350407958984373,-0.103363037109375,1.182103157043457,-0.5077244639396667
1695713056912512000,20.369511962890623,-0.10212421417236328,1.1982330083847046,-0.48991328477859497
1695713056931585500,20.38858544921875,-0.11159610748291016,1.1766606569290161,-0.48166245222091675
1695713056950689500,20.407689453125,-0.1258401870727539,1.1669249534606934,-0.4687580466270447
1695713056969793500,20.42679345703125,-0.11388111114501953,1.1441092491149902,-0.4907839298248291
1695713056988867000,20.4458671875,-0.1055145263671875,1.146030068397522,-0.490318238735199
1695713057007971000,20.46497119140625,-0.09835147857666016,1.1373183727264404,-0.4934656023979187
1695713057027075000,20.484074951171873,-0.09951591491699219,1.1416598558425903,-0.4845331311225891
1695713057046148400,20.5031484375,-0.11499309539794922,1.124509572982788,-0.4830218553543091
1695713057065222000,20.522221923828123,-0.11618614196777344,1.139275312423706,-0.4768941402435303
1695713057084326000,20.541325927734373,-0.1197652816772461,1.1315035820007324,-0.4744099974632263
1695713057103399400,20.5603994140625,-0.11380863189697266,1.1178131103515625,-0.45625990629196167
1695713057122503400,20.57950341796875,-0.08995819091796875,1.1266238689422607,-0.4831250309944153
1695713057141607400,20.598607421875,-0.11138439178466797,1.1302871704101562,-0.5006656050682068
1695713057160711400,20.61771142578125,-0.04828929901123047,1.1017165184020996,-0.47933101654052734
1695713057179815400,20.6368154296875,-0.09249114990234375,1.1723148822784424,-0.5136033892631531
1695713057198889000,20.655888916015623,-0.14963817596435547,1.1038775444030762,-0.5125887393951416
1695713057217993000,20.674992919921873,-0.13284873962402344,1.0709054470062256,-0.4652174115180969
1695713057237066500,20.69406640625,-0.09230327606201172,1.0659857988357544,-0.42999255657196045
1695713057256170500,20.71317041015625,-0.10423564910888672,1.0749125480651855,-0.43867194652557373
1695713057275244000,20.732244140625,-0.10424327850341797,1.1363146305084229,-0.4398992657661438
1695713057294348000,20.75134814453125,-0.12214946746826172,1.1372402906417847,-0.45312565565109253
1695713057313421300,20.77042138671875,-0.12932109832763672,1.1116318702697754,-0.46434521675109863
1695713057332525300,20.789525390625,-0.10071372985839844,1.106460452079773,-0.47991734743118286
1695713057351629300,20.80862939453125,-0.1126108169555664,1.120162010192871,-0.5012354254722595
1695713057370702800,20.827702880859373,-0.11139774322509766,1.109065294265747,-0.4831239581108093
1695713057389806800,20.846806884765623,-0.12328529357910156,1.0606064796447754,-0.4508233666419983
1695713057408880400,20.86588037109375,-0.12682247161865234,1.0633518695831299,-0.4531867504119873
1695713057427984400,20.884984375,-0.07913589477539062,1.071564793586731,-0.45781123638153076
1695713057447088400,20.90408837890625,-0.09584712982177734,1.064752459526062,-0.45840156078338623
1695713057466192400,20.9231923828125,-0.12329864501953125,1.0451236963272095,-0.4447837471961975
1695713057485266000,20.942265869140623,-0.11846256256103516,1.0464507341384888,-0.4372427463531494
1695713057504370000,20.961369873046873,-0.11956024169921875,1.0338647365570068,-0.4352409839630127
1695713057523474000,20.980473876953123,-0.102813720703125,1.0576767921447754,-0.4694065451622009
1695713057542547500,20.99954736328125,-0.09799003601074219,1.0576456785202026,-0.4605119824409485
1695713057561651500,21.0186513671875,-0.10149383544921875,1.0801770687103271,-0.47084325551986694
1695713057580725000,21.03772509765625,-0.13239002227783203,1.0637731552124023,-0.4700060486793518
1695713057599829000,21.0568291015625,-0.10837841033935547,1.0475807189941406,-0.47185254096984863
1695713057618902300,21.07590234375,-0.11418533325195312,1.0419200658798218,-0.4725487232208252
1695713057638006300,21.09500634765625,-0.11645126342773438,1.0410020351409912,-0.475044310092926
1695713057657079800,21.114079833984373,-0.13064193725585938,1.04676353931427,-0.46365368366241455
1695713057676183800,21.133183837890623,-0.0900125503540039,1.021741271018982,-0.43880605697631836
1695713057695287800,21.152287841796873,-0.11135482788085938,1.0061180591583252,-0.4131612181663513
1695713057714361300,21.171361328125,-0.11012840270996094,1.0196914672851562,-0.4094353914260864
1695713057733495800,21.190495849609373,-0.11835670471191406,1.0190002918243408,-0.42068231105804443
1695713057752569300,21.2095693359375,-0.11106300354003906,1.0232943296432495,-0.40996021032333374
1695713057771676400,21.228676513671875,-0.11094284057617188,1.023239254951477,-0.3981521725654602
1695713057790750000,21.24775,-0.10721397399902344,1.0268280506134033,-0.3934670686721802
1695713057809854000,21.26685400390625,-0.11661815643310547,1.022904872894287,-0.40319013595581055
1695713057828927500,21.285927490234375,-0.09146690368652344,1.0213041305541992,-0.41275572776794434
1695713057848031500,21.305031494140625,-0.0639486312866211,1.0137341022491455,-0.41200917959213257
1695713057867104800,21.324104736328124,-0.084136962890625,1.01505446434021,-0.425936758518219
1695713057886208800,21.343208740234374,-0.10553550720214844,1.0007121562957764,-0.44382190704345703
1695713057905312800,21.362312744140624,-0.1138601303100586,0.9966956377029419,-0.42507535219192505
1695713057924386300,21.38138623046875,-0.10312271118164062,0.9996495246887207,-0.42893123626708984
1695713057943490300,21.400490234375,-0.1007537841796875,1.011968731880188,-0.43670374155044556
1695713057962563800,21.419563720703124,-0.1007833480834961,0.9744640588760376,-0.4279385209083557
1695713057981667800,21.438667724609374,-0.11391067504882812,0.9725291728973389,-0.4238802194595337
1695713058000741400,21.457741455078125,-0.12465381622314453,0.9837875366210938,-0.44130492210388184
1695713058019875800,21.476875732421874,-0.09730243682861328,0.9475679993629456,-0.416223406791687
1695713058038949400,21.495949462890625,-0.0628814697265625,1.0470658540725708,-0.4419211149215698
1695713058058053400,21.515053466796875,-0.12843894958496094,1.0201129913330078,-0.4615229368209839
1695713058077157400,21.534157470703125,-0.15211772918701172,0.9487079381942749,-0.42799538373947144
1695713058096231000,21.55323095703125,-0.0853109359741211,0.935546875,-0.3632136583328247
1695713058115335000,21.5723349609375,-0.08531379699707031,0.9264993667602539,-0.38195085525512695
1695713058134408400,21.591408447265625,-0.106781005859375,0.9551507234573364,-0.395999550819397
1695713058153512400,21.610512451171875,-0.12471294403076172,0.9863388538360596,-0.37690138816833496
1695713058172585700,21.629585693359374,-0.14496326446533203,1.0014420747756958,-0.36081409454345703
1695713058191689700,21.648689697265624,-0.09604358673095703,1.0181366205215454,-0.3894866108894348
1695713058210763300,21.66776318359375,-0.09241390228271484,1.005338191986084,-0.42889827489852905
1695713058229867300,21.6868671875,-0.10548591613769531,0.9852042198181152,-0.4302058219909668
1695713058248971300,21.70597119140625,-0.10778331756591797,0.9639769792556763,-0.4418560862541199
1695713058268044800,21.725044921875,-0.11603927612304688,0.9406228065490723,-0.42115193605422974
1695713058287148800,21.744148681640624,-0.10883426666259766,0.9346874356269836,-0.40803760290145874
1695713058306252800,21.763252685546874,-0.09691238403320312,0.924720048904419,-0.40873581171035767
1695713058325356800,21.782356689453124,-0.0957345962524414,0.9239102005958557,-0.4251343607902527
1695713058344430300,21.801430419921875,-0.11002540588378906,0.9114735126495361,-0.41514086723327637
1695713058363534300,21.820534423828125,-0.12078380584716797,0.9027397036552429,-0.3969235420227051
1695713058382608000,21.83960791015625,-0.09934139251708984,0.9045332670211792,-0.3883167505264282
1695713058401711900,21.8587119140625,-0.11362934112548828,0.926227331161499,-0.37213021516799927
1695713058420785400,21.877785400390625,-0.12312507629394531,0.9565149545669556,-0.3854464888572693
1695713058439889400,21.896889404296875,-0.1159200668334961,0.9281319379806519,-0.3830702304840088
1695713058458993400,21.915993408203125,-0.10397911071777344,0.9175026416778564,-0.39802777767181396
1695713058478066700,21.935066650390624,-0.09804725646972656,0.9183140397071838,-0.4267433285713196
1695713058497170700,21.954170654296874,-0.10641193389892578,0.9223027229309082,-0.4184618592262268
1695713058516244200,21.973244140625,-0.0933218002319336,0.9299036264419556,-0.39047878980636597
1695713058535348200,21.99234814453125,-0.08974933624267578,0.931598424911499,-0.3613990545272827
1695713058554421800,22.011421875,-0.10171318054199219,0.9342189431190491,-0.34362149238586426
1695713058573525800,22.03052587890625,-0.1386699676513672,0.9298882484436035,-0.3520866632461548
1695713058592629800,22.049629638671874,-0.11008834838867188,0.9141987562179565,-0.3399427533149719
1695713058611733800,22.068733642578124,-0.10532951354980469,0.8788988590240479,-0.343355655670166
1695713058630837800,22.087837646484374,-0.08745479583740234,0.8847094774246216,-0.33932745456695557
1695713058649911300,22.106911376953125,-0.09453964233398438,0.8857819437980652,-0.3622758984565735
1695713058669015300,22.126015380859375,-0.10521411895751953,0.9174699187278748,-0.37096649408340454
1695713058688088800,22.1450888671875,-0.10394668579101562,0.9337636828422546,-0.41028231382369995
1695713058707192800,22.16419287109375,-0.10504913330078125,0.9174004197120667,-0.41016215085983276
1695713058726296800,22.183296875,-0.09900665283203125,0.8962967991828918,-0.4065919518470764
1695713058745370400,22.202370361328125,-0.0763101577758789,0.9008315205574036,-0.3755769729614258
1695713058764443600,22.221443603515624,-0.09774208068847656,0.8952324390411377,-0.4096935987472534
1695713058783547600,22.240547607421874,-0.10369014739990234,0.8872089982032776,-0.4094245433807373
1695713058802651600,22.259651611328124,-0.1072397232055664,0.8662891387939453,-0.3765767216682434
1695713058821725200,22.27872509765625,-0.11790084838867188,0.848116934299469,-0.3924989700317383
1695713058840829200,22.2978291015625,-0.10953617095947266,0.8509937524795532,-0.4040064811706543
1695713058859902700,22.31690283203125,-0.10242176055908203,0.8490267395973206,-0.3682246804237366
1695713058879037200,22.336037109375,-0.10362529754638672,0.8472632169723511,-0.35624784231185913
1695713058898110700,22.35511083984375,-0.11314201354980469,0.8801425695419312,-0.372599720954895
1695713058917214700,22.374214599609374,-0.09878826141357422,0.87496417760849,-0.3538224697113037
1695713058936288300,22.393288330078125,-0.05111122131347656,0.9306337833404541,-0.35911595821380615
1695713058955392300,22.412392333984375,-0.09990215301513672,0.9447413682937622,-0.3943687677383423
1695713058974465800,22.4314658203125,-0.14144229888916016,0.8838368058204651,-0.3835698366165161
1695713058993569800,22.45056982421875,-0.08649826049804688,0.8528254628181458,-0.31365007162094116
1695713059012673800,22.469673828125,-0.08409404754638672,0.840610146522522,-0.3229725956916809
1695713059031747000,22.4887470703125,-0.08050346374511719,0.8313466310501099,-0.344200074672699
1695713059050851300,22.507851318359375,-0.0864410400390625,0.8377416729927063,-0.35569900274276733
1695713059069924600,22.526924560546874,-0.1305370330810547,0.8369728326797485,-0.35820889472961426
1695713059089028600,22.546028564453124,-0.11146259307861328,0.8446102738380432,-0.36412423849105835
1695713059108102100,22.56510205078125,-0.11382675170898438,0.8489106893539429,-0.3578941822052002
1695713059127206100,22.5842060546875,-0.12453174591064453,0.8400322198867798,-0.35399842262268066
1695713059146279700,22.60327978515625,-0.10899066925048828,0.8362922668457031,-0.3532959222793579
1695713059165414100,22.6224140625,-0.0958108901977539,0.8329430818557739,-0.3607538938522339
1695713059184518100,22.64151806640625,-0.09337520599365234,0.8352599740028381,-0.3791046738624573
1695713061742867700,25.19986767578125,0.8498821258544922,1.2506439685821533,0.4480515718460083
1695713061761971700,25.2189716796875,0.025737762451171875,1.713796615600586,0.21919095516204834
1695713061781075700,25.23807568359375,-1.4376487731933594,1.9092159271240234,-0.48652446269989014
1695713061800149200,25.257149169921874,-1.4524345397949219,0.4587629735469818,0.7733364105224609
1695713061819253200,25.276253173828124,1.3857574462890625,0.6559781432151794,0.9005453586578369
1695713061838326800,25.295326904296875,0.8454465866088867,1.257323980331421,0.6828962564468384
1695713061857430800,25.3144306640625,-0.5692129135131836,0.9988361597061157,0.2776608467102051
1695713061876504300,25.33350439453125,-0.8137435913085938,0.35609346628189087,-0.189042329788208
1695713061895608300,25.3526083984375,-0.5901660919189453,0.1456633359193802,-0.34197092056274414
1695713061914681900,25.371681884765625,-0.7748022079467773,0.12089700996875763,-0.38639020919799805
1695713061933785900,25.390785888671875,-0.8792047500610352,-0.1252383589744568,-0.6968495845794678
1695713061952859100,25.409859130859374,-0.8109502792358398,-0.5113021731376648,-0.763221025466919
1695713062201089300,25.65808935546875,0.6846952438354492,0.3868110179901123,-0.6069905757904053
1695713062220162800,25.677162841796875,2.390899658203125,0.9014828205108643,0.7322309017181396
1695713063652108500,27.109108642578125,0.11566925048828125,-1.160778522491455,-1.48622465133667
1695713063671182000,27.12818212890625,-0.0624690055847168,-1.7384097576141357,-1.9251117706298828
1695713063690286000,27.1472861328125,0.08192729949951172,-1.3764777183532715,-2.184152603149414
1695713063709359600,27.166359619140625,0.6022086143493652,-0.4265913963317871,-2.2177767753601074
1695713063728463600,27.185463623046875,0.9770264625549316,0.23866677284240723,-2.234243869781494
1695713063747567600,27.204567626953125,-0.12371063232421875,0.10983061790466309,-1.6145730018615723
1695713063766671600,27.223671630859375,-0.5361547470092773,-0.5853453874588013,-0.9260501861572266
1695713063785745000,27.242744873046874,-0.2763671875,-1.8122398853302002,-0.7633571624755859
1695713063804849000,27.261848876953124,-2.5405454635620117,-1.457248568534851,-0.6666431427001953
1695713063823953000,27.280952880859374,-3.60214900970459,-1.5768274068832397,-0.3851001262664795
1695713063843026400,27.3000263671875,-4.003777503967285,-1.4337115287780762,-0.32044267654418945
1695713063862130400,27.31913037109375,-3.8525304794311523,-1.8420097827911377,0.29808926582336426
1695713063881204000,27.338203857421874,-3.469188690185547,-1.799290418624878,0.5594518184661865
1695713063900308000,27.357307861328124,-3.826007843017578,-1.419351577758789,1.0481842756271362
1695713063919381500,27.376381591796875,-3.893782615661621,-1.3188965320587158,1.3949366807937622
1695713063938485500,27.395485595703125,-3.363286018371582,-1.4917423725128174,1.1744699478149414
1695713063957559000,27.41455908203125,-2.715526580810547,-1.6115342378616333,0.5152747631072998
1695713063976663000,27.4336630859375,-1.7731027603149414,-1.797823429107666,-0.06747913360595703
1695713063995736600,27.452736572265625,-1.7275867462158203,-1.7274633646011353,-1.1785976886749268
1695713064014871000,27.47187109375,-2.149232864379883,-1.7745418548583984,-2.202606678009033
1695713064033975000,27.49097509765625,-2.5362634658813477,-1.5283268690109253,-2.564359188079834
1695713064053048600,27.510048583984375,-2.3453826904296875,-0.35624605417251587,-2.4911861419677734
1695713064072152600,27.529152587890625,-1.6375837326049805,0.4416804611682892,-2.2971081733703613
1695713064091225900,27.548225830078124,-1.430302619934082,0.3448285758495331,-2.2124571800231934
1695713064110329900,27.567329833984374,-0.6829738616943359,0.938106894493103,-2.193617820739746
1695713064129403400,27.5864033203125,0.2470998764038086,1.4706408977508545,-1.9673850536346436
1695713064148507400,27.60550732421875,1.054173469543457,1.4101040363311768,-1.541677474975586
1695713064167581000,27.624580810546874,1.4580612182617188,1.4018436670303345,-0.26460134983062744
1695713064186685000,27.643684814453124,2.174053192138672,1.3440122604370117,1.2734134197235107
1695713064205789000,27.662788818359374,0.5646896362304688,-0.2115696668624878,6.618236064910889
1695713064224862500,27.681862548828125,1.223912239074707,-3.81679105758667,5.67362117767334
1695713064243966500,27.700966552734375,0.4782390594482422,-4.935630798339844,0.509207010269165
1695713064263040000,27.7200400390625,-3.3134536743164062,-0.8462059497833252,-1.2210617065429688
1695713064282144000,27.73914404296875,-2.029080390930176,1.5012974739074707,-2.175553798675537
1695713064301248000,27.758248046875,-0.5689258575439453,1.7077138423919678,-0.88980633020401
1695713064320352000,27.77735205078125,0.4203815460205078,1.2620835304260254,-0.5961668491363525
1695713064339425500,27.796425537109375,0.3908805847167969,0.7617020606994629,-0.8239373564720154
1695713064358529500,27.815529541015625,0.6643762588500977,0.7360765933990479,-0.8310384750366211
1695713064377633500,27.834633544921875,1.3843278884887695,1.0287525653839111,-0.6229747533798218
1695713064396706800,27.853706787109374,1.7493696212768555,1.081864595413208,-0.25346171855926514
1695713064415810800,27.872810791015624,1.2946662902832031,0.9571695327758789,0.05149483680725098
1695713064434884400,27.89188427734375,1.0986156463623047,0.8387875556945801,-0.12627792358398438
1695713064453988400,27.91098828125,1.2837610244750977,1.146883249282837,-0.3407173156738281
1695713064473062000,27.930061767578124,1.1782770156860352,1.0906662940979004,-0.16297316551208496
1695713064492166000,27.949165771484374,0.5268068313598633,0.764683723449707,-0.11851966381072998
1695713064511239400,27.968239501953125,-0.42336273193359375,0.3543581962585449,0.016657114028930664
1695713064530343400,27.987343505859375,-0.11432075500488281,0.9311444759368896,-0.5341470241546631
1695713064549417000,28.0064169921875,0.8969783782958984,1.6937525272369385,-0.39541661739349365
1695713064568521000,28.02552099609375,1.0908546447753906,1.9137115478515625,-0.41500890254974365
1695713064587625000,28.044625,0.26293087005615234,1.2990703582763672,-0.24279415607452393
1695713064606729000,28.06372900390625,-1.1740589141845703,0.5556106567382812,-0.1337396502494812
1695713064625833000,28.0828330078125,-2.0609302520751953,0.8601937294006348,-0.6914778351783752
1695713064644906500,28.101906494140625,-1.9324150085449219,1.216538429260254,-0.989797830581665
1695713064664010500,28.121010498046875,-1.0939855575561523,1.1858494281768799,-0.7772507071495056
