time,seconds_elapsed,z,y,x
1695713144205643500,0.1806435546875,-0.0146484375,-4.14215087890625,0.2557373046875
1695713144215195600,0.190195556640625,-0.491790771484375,-3.38226318359375,0.191650390625
1695713144224717000,0.199717041015625,-0.874481201171875,-2.40936279296875,0.13153076171875
1695713144234269000,0.20926904296875,-1.146697998046875,-1.65679931640625,0.054473876953125
1695713144243821000,0.218821044921875,-1.31561279296875,-1.179046630859375,-0.059814453125
1695713144253373000,0.228373046875,-1.36993408203125,-0.788116455078125,-0.301666259765625
1695713144262894600,0.23789453125,-1.262054443359375,-0.885009765625,-0.701751708984375
1695713144272446500,0.247446533203125,-1.0546875,-1.3616943359375,-1.13861083984375
1695713144281998600,0.25699853515625,-0.787506103515625,-1.60736083984375,-1.5521240234375
1695713144291550500,0.266550537109375,-0.31890869140625,-1.492462158203125,-1.58111572265625
1695713144301102600,0.2761025390625,0.231170654296875,-1.23687744140625,-1.226806640625
1695713144310624000,0.2856240234375,0.527801513671875,-0.9149169921875,-0.8428955078125
1695713144320175900,0.29517578125,0.579376220703125,-0.49835205078125,-0.592803955078125
1695713144329728000,0.30472802734375,0.524139404296875,-0.085296630859375,-0.55816650390625
1695713144339280100,0.314280029296875,0.47210693359375,0.20355224609375,-0.670318603515625
1695713144348801500,0.323801513671875,0.45013427734375,0.324859619140625,-0.82977294921875
1695713144358353400,0.333353515625,0.4498291015625,0.293731689453125,-0.947418212890625
1695713144367905500,0.342905517578125,0.475616455078125,0.11383056640625,-0.970916748046875
1695713144377457400,0.35245751953125,0.490570068359375,-0.19866943359375,-0.885009765625
1695713144386979000,0.36197900390625,0.38360595703125,-0.487060546875,-0.713653564453125
1695713144396531000,0.371531005859375,0.206146240234375,-0.763397216796875,-0.5291748046875
1695713144406083000,0.3810830078125,0.05218505859375,-0.8953857421875,-0.370025634765625
1695713144415635000,0.390635009765625,0.0189208984375,-0.812225341796875,-0.285186767578125
1695713144425217500,0.400217529296875,0.115966796875,-0.728302001953125,-0.321807861328125
1695713144434739000,0.409739013671875,0.251922607421875,-0.63140869140625,-0.47637939453125
1695713144444291000,0.419291015625,0.276641845703125,-0.469512939453125,-0.646820068359375
1695713144453843000,0.428843017578125,0.188140869140625,-0.323333740234375,-0.76904296875
1695713144463395000,0.43839501953125,0.117645263671875,-0.244140625,-0.78643798828125
1695713144472947000,0.447947021484375,0.0811767578125,-0.19775390625,-0.647735595703125
1695713144482468400,0.45746826171875,0.04852294921875,-0.2197265625,-0.390777587890625
1695713144492020500,0.4670205078125,0.0286865234375,-0.24383544921875,-0.113525390625
1695713144501572600,0.476572509765625,0.02471923828125,-0.22247314453125,0.13031005859375
1695713144511124500,0.48612451171875,0.0604248046875,-0.185546875,0.299530029296875
1695713144520646000,0.49564599609375,0.135955810546875,-0.13397216796875,0.366058349609375
1695713144530198000,0.505197998046875,0.145721435546875,-0.172119140625,0.424041748046875
1695713144539750000,0.51475,0.06561279296875,-0.14068603515625,0.6256103515625
1695713144549302000,0.524302001953125,-0.050811767578125,-0.1446533203125,0.93048095703125
1695713144558823400,0.533823486328125,-0.104827880859375,-0.334320068359375,1.20025634765625
1695713144568375600,0.54337548828125,-0.165252685546875,-0.451202392578125,1.3323974609375
1695713144577927400,0.552927490234375,-0.22979736328125,-0.5047607421875,1.2261962890625
1695713144587479600,0.5624794921875,-0.323486328125,-0.521240234375,1.014556884765625
1695713144597031400,0.572031494140625,-0.350341796875,-0.464324951171875,0.87890625
1695713144606552800,0.581552734375,-0.25726318359375,-0.6268310546875,0.749359130859375
1695713144616105000,0.59110498046875,-0.167083740234375,-0.8599853515625,0.5401611328125
1695713144625656800,0.60065673828125,-0.097503662109375,-0.9454345703125,0.48492431640625
1695713144635209000,0.610208984375,-0.01678466796875,-0.95428466796875,0.53253173828125
1695713144644730400,0.61973046875,0.11688232421875,-0.90362548828125,0.48980712890625
1695713144654282500,0.629282470703125,0.301971435546875,-0.738067626953125,0.357208251953125
1695713144663834400,0.63883447265625,0.46783447265625,-0.54046630859375,0.19012451171875
1695713144673386500,0.648386474609375,0.651702880859375,-0.475921630859375,0.113372802734375
1695713144682938400,0.6579384765625,0.921783447265625,-0.54534912109375,0.12847900390625
1695713144692460000,0.6674599609375,1.248016357421875,-0.791778564453125,0.16937255859375
1695713144702012000,0.677011962890625,1.82342529296875,-1.21246337890625,0.267333984375
1695713144711594500,0.686594482421875,2.6055908203125,-1.71783447265625,0.363006591796875
1695713144721146400,0.696146484375,3.25439453125,-2.00836181640625,0.359039306640625
1695713144730668000,0.70566796875,3.795318603515625,-2.259368896484375,0.18890380859375
1695713144740220000,0.715219970703125,4.150848388671875,-2.579498291015625,0.116729736328125
1695713144749772000,0.72477197265625,4.3505859375,-3.03741455078125,0.262451171875
1695713144759324000,0.734323974609375,4.3994140625,-3.644256591796875,0.58990478515625
1695713144768876000,0.7438759765625,4.37347412109375,-4.1790771484375,1.147003173828125
1695713144778397400,0.7533974609375,4.574432373046875,-4.743194580078125,1.791534423828125
1695713144787949300,0.76294921875,5.06134033203125,-5.55419921875,2.35626220703125
1695713144797501400,0.77250146484375,5.550994873046875,-6.30615234375,2.884063720703125
1695713144807053300,0.78205322265625,5.86181640625,-6.786651611328125,3.38958740234375
1695713144816575000,0.791574951171875,6.055908203125,-6.909637451171875,3.8555908203125
1695713144826126800,0.801126953125,6.18194580078125,-6.7205810546875,4.253692626953125
1695713144835679000,0.810678955078125,6.2176513671875,-6.35711669921875,4.56329345703125
1695713144845230800,0.82023095703125,6.1761474609375,-5.96923828125,4.730987548828125
1695713144854783000,0.829782958984375,6.14349365234375,-5.819854736328125,4.620208740234375
1695713144864304400,0.839304443359375,6.07177734375,-5.875701904296875,4.1827392578125
1695713144873856500,0.8488564453125,5.878753662109375,-5.371551513671875,3.998565673828125
1695713144883408400,0.858408447265625,5.585479736328125,-4.707489013671875,4.1259765625
1695713144892960500,0.86796044921875,5.154876708984375,-4.400482177734375,4.338531494140625
1695713144902482000,0.87748193359375,4.497833251953125,-4.1778564453125,4.625701904296875
1695713144912033800,0.88703369140625,3.71551513671875,-3.621978759765625,4.90966796875
1695713144921586000,0.8965859375,2.92327880859375,-2.7215576171875,5.027923583984375
1695713144931137800,0.9061376953125,2.22198486328125,-1.68701171875,4.9224853515625
1695713144940690000,0.91568994140625,1.674041748046875,-0.732574462890625,4.662628173828125
1695713144950211300,0.92521142578125,1.304168701171875,0.1837158203125,4.337005615234375
1695713144959763500,0.934763427734375,1.08154296875,0.969390869140625,3.989715576171875
1695713144969315300,0.9443154296875,0.966949462890625,1.53564453125,3.633575439453125
1695713144978867500,0.953867431640625,0.903778076171875,1.816864013671875,3.264007568359375
1695713144988388900,0.963388916015625,0.809326171875,1.695404052734375,3.00079345703125
1695713144997971500,0.972971435546875,0.997467041015625,-0.24749755859375,3.02276611328125
1695713145007523300,0.9825234375,1.07513427734375,-4.392242431640625,3.0718994140625
1695713145017075500,0.992075439453125,0.957794189453125,-6.100311279296875,2.3480224609375
1695713145026627300,1.00162744140625,1.348419189453125,-5.143890380859375,1.483001708984375
1695713145036149000,1.01114892578125,1.981353759765625,-3.4210205078125,0.92193603515625
1695713145045700900,1.020700927734375,2.641754150390625,-1.764678955078125,0.628662109375
1695713145055253000,1.0302529296875,3.025970458984375,-0.721588134765625,0.48858642578125
1695713145064804900,1.039804931640625,2.94342041015625,-0.351104736328125,0.384674072265625
1695713145074326300,1.049326171875,2.51129150390625,-0.475921630859375,0.355682373046875
1695713145083878400,1.05887841796875,2.062530517578125,-0.832672119140625,0.448760986328125
1695713145093430300,1.06843017578125,1.826171875,-1.143951416015625,0.61004638671875
1695713145102982400,1.077982421875,1.7584228515625,-1.26739501953125,0.668487548828125
1695713145112534300,1.0875341796875,1.80328369140625,-1.21856689453125,0.465240478515625
1695713145122056000,1.097055908203125,2.007598876953125,-1.004638671875,0.067291259765625
1695713145131607800,1.10660791015625,2.254638671875,-0.87860107421875,-0.375213623046875
1695713145141160000,1.116159912109375,2.409210205078125,-0.766143798828125,-0.694427490234375
1695713145150711800,1.1257119140625,2.4908447265625,-0.731658935546875,-0.8807373046875
1695713145160233500,1.1352333984375,2.5738525390625,-0.8636474609375,-0.971527099609375
1695713145169785300,1.144785400390625,2.763824462890625,-1.157684326171875,-1.072235107421875
1695713145179337500,1.15433740234375,2.437286376953125,-1.99676513671875,-0.713653564453125
1695713145188889300,1.163889404296875,2.1502685546875,-2.280120849609375,-0.631561279296875
1695713145198441500,1.17344140625,2.277069091796875,-1.777801513671875,-0.9356689453125
1695713145207963000,1.182962890625,2.15484619140625,-0.838775634765625,-0.77972412109375
1695713145217514800,1.1925146484375,1.7510986328125,-0.25848388671875,-0.40985107421875
1695713145227067000,1.20206689453125,1.276702880859375,-0.16326904296875,0.018463134765625
1695713145236618800,1.21161865234375,1.06689453125,-0.150146484375,0.29632568359375
1695713145246140400,1.221140380859375,1.247100830078125,-0.061798095703125,0.21759033203125
1695713145255692300,1.2306923828125,1.638641357421875,-0.16693115234375,0.081939697265625
1695713145265244400,1.240244384765625,2.13836669921875,-0.376434326171875,0.010223388671875
1695713145274796300,1.24979638671875,2.690582275390625,-0.375213623046875,-0.0787353515625
1695713145284379000,1.25937890625,3.160552978515625,-0.177001953125,-0.16082763671875
1695713145293900300,1.268900390625,3.460540771484375,0.06591796875,-0.174560546875
1695713145303452400,1.278452392578125,3.5919189453125,0.256195068359375,-0.10009765625
1695713145313004300,1.28800439453125,3.619384765625,0.4119873046875,0.067596435546875
1695713145322556400,1.297556396484375,3.68988037109375,0.680999755859375,0.23895263671875
1695713145332077800,1.307077880859375,3.96087646484375,1.1212158203125,0.28411865234375
1695713145341630000,1.3166298828125,4.225921630859375,1.309661865234375,0.14373779296875
1695713145351181800,1.326181884765625,3.5833740234375,0.661163330078125,-0.032501220703125
1695713145360734000,1.33573388671875,1.993865966796875,-0.793609619140625,-0.1446533203125
1695713145370285800,1.345285888671875,0.919342041015625,-1.504974365234375,-0.697479248046875
1695713145379807200,1.35480712890625,0.8111572265625,-0.98724365234375,-0.811767578125
1695713145389359400,1.364359375,0.782470703125,0.375213623046875,-0.326995849609375
1695713145398911200,1.3739111328125,0.878753662109375,1.055755615234375,0.23529052734375
1695713145408463400,1.38346337890625,1.1865234375,0.88287353515625,0.5322265625
1695713145417984800,1.39298486328125,1.566619873046875,0.400390625,0.458526611328125
1695713145427537000,1.402536865234375,1.861572265625,0.0482177734375,0.22796630859375
1695713145437088800,1.4120888671875,1.990814208984375,0.0701904296875,0.108184814453125
1695713145446641000,1.421640869140625,2.049713134765625,0.1971435546875,0.073699951171875
1695713145456192800,1.43119287109375,2.082977294921875,0.222625732421875,0.050201416015625
1695713145465714400,1.44071435546875,2.086334228515625,0.250396728515625,0.066375732421875
1695713145475266300,1.450266357421875,1.986236572265625,0.44586181640625,0.091400146484375
1695713145484818400,1.459818359375,1.8475341796875,0.78155517578125,0.047149658203125
1695713145494370300,1.469370361328125,1.7803955078125,1.038360595703125,-0.045166015625
1695713145503891700,1.4788916015625,1.733551025390625,1.082611083984375,-0.17303466796875
1695713145513443800,1.48844384765625,1.589508056640625,1.020660400390625,-0.255279541015625
1695713145522995700,1.49799560546875,1.40106201171875,0.8599853515625,-0.251922607421875
1695713145532547800,1.5075478515625,1.261444091796875,0.593414306640625,-0.164794921875
1695713145542099700,1.517099609375,1.40838623046875,0.367279052734375,-0.1165771484375
1695713145551621400,1.526621337890625,1.724395751953125,0.406494140625,-0.09735107421875
1695713145561173200,1.53617333984375,1.876220703125,0.646514892578125,-0.037384033203125
1695713145570755800,1.545755859375,2.015533447265625,0.736846923828125,-0.037841796875
1695713145580307700,1.5553076171875,2.1722412109375,0.828857421875,-0.1068115234375
1695713145589829400,1.564829345703125,2.24853515625,1.053619384765625,-0.086669921875
1695713145599381200,1.57438134765625,2.25250244140625,1.407623291015625,-0.0738525390625
1695713145608933400,1.583933349609375,2.225341796875,1.746978759765625,-0.10986328125
1695713145618485200,1.5934853515625,2.094879150390625,1.9268798828125,-0.1751708984375
1695713145628037400,1.603037353515625,1.86737060546875,0.329742431640625,0.14404296875
1695713145637558800,1.612558837890625,1.601409912109375,0.057373046875,0.283203125
1695713145647111000,1.62211083984375,1.15966796875,0.41412353515625,-0.041351318359375
1695713145656662800,1.631662841796875,0.80474853515625,0.224456787109375,-0.359039306640625
1695713145666215000,1.64121484375,0.634613037109375,0.595245361328125,-0.86822509765625
1695713145675736300,1.650736328125,0.37841796875,0.309600830078125,-1.2249755859375
1695713145685288200,1.6602880859375,0.345458984375,-0.60302734375,-1.629638671875
1695713145694840300,1.66984033203125,0.77850341796875,-1.111907958984375,-1.5960693359375
1695713145704392200,1.67939208984375,0.861663818359375,-1.3299560546875,-0.630035400390625
1695713145713944300,1.6889443359375,0.878448486328125,-0.791473388671875,0.435333251953125
1695713145723465700,1.6984658203125,0.71807861328125,-0.23590087890625,0.740203857421875
1695713145733017900,1.708017822265625,0.252227783203125,0.408935546875,0.59722900390625
1695713145742569700,1.71756982421875,-0.165863037109375,0.744476318359375,0.65185546875
1695713145752121900,1.727121826171875,-0.424346923828125,1.032257080078125,0.816497802734375
1695713145761643300,1.736643310546875,-0.65338134765625,0.79559326171875,0.94146728515625
1695713145771195400,1.7461953125,-0.72784423828125,0.667266845703125,1.55303955078125
1695713145780747300,1.755747314453125,-1.0919189453125,0.4425048828125,1.5692138671875
1695713145790299400,1.76529931640625,-1.207733154296875,1.673431396484375,1.911468505859375
1695713145799851300,1.774851318359375,-1.46392822265625,1.98150634765625,2.008056640625
1695713145809372700,1.78437255859375,-2.15179443359375,1.105194091796875,1.828765869140625
1695713145818924800,1.7939248046875,-2.8173828125,-0.029449462890625,1.23291015625
1695713145828476700,1.8034765625,-3.054962158203125,-0.23834228515625,0.426788330078125
1695713145838028800,1.81302880859375,-2.75146484375,0.336456298828125,-0.10345458984375
1695713145847550200,1.82255029296875,-2.18597412109375,0.987396240234375,-0.19561767578125
1695713145857132800,1.8321328125,-1.4495849609375,1.352081298828125,0.012664794921875
1695713145866684700,1.8416845703125,-0.5859375,1.23382568359375,0.28045654296875
1695713145876236800,1.85123681640625,0.146026611328125,0.636749267578125,0.401458740234375
1695713145885788700,1.86078857421875,0.3076171875,0.17486572265625,0.356292724609375
1695713145895310300,1.870310302734375,0.06195068359375,0.14068603515625,0.27496337890625
1695713145904862200,1.8798623046875,-0.059356689453125,0.17669677734375,0.19561767578125
1695713145914414300,1.889414306640625,-0.045318603515625,0.232696533203125,0.1885986328125
1695713145923966200,1.89896630859375,-0.0054931640625,0.286102294921875,0.201416015625
1695713145933487900,1.90848779296875,0.06500244140625,0.307464599609375,0.137939453125
1695713145943039700,1.918039794921875,0.127105712890625,0.295867919921875,0.003509521484375
1695713145952592000,1.927591796875,0.154266357421875,0.247344970703125,-0.1300048828125
1695713145962143700,1.937143798828125,0.156707763671875,0.269622802734375,-0.14312744140625
1695713145971695900,1.94669580078125,0.129852294921875,0.249176025390625,-0.09552001953125
1695713145981217300,1.95621728515625,0.0433349609375,0.13519287109375,0.001068115234375
1695713145990769200,1.96576904296875,-0.0189208984375,0.0396728515625,0.097808837890625
1695713146000321300,1.9753212890625,-0.0103759765625,-0.025177001953125,0.109405517578125
1695713146009873200,1.984873046875,0.0054931640625,-0.096282958984375,0.032196044921875
1695713146019394800,1.994394775390625,-0.02471923828125,-0.1617431640625,-0.07476806640625
1695713146028946700,2.00394677734375,-0.048370361328125,-0.17120361328125,-0.11566162109375
1695713146038498800,2.013498779296875,-0.01434326171875,-0.23529052734375,-0.16326904296875
1695713146048050700,2.02305078125,-0.0286865234375,-0.24505615234375,-0.16082763671875
1695713146057602800,2.032602783203125,-0.056304931640625,-0.337677001953125,-0.1300048828125
1695713146067124200,2.042124267578125,-0.089874267578125,-0.417327880859375,-0.15289306640625
1695713146076676400,2.05167626953125,-0.091400146484375,-0.117034912109375,0.066375732421875
1695713146086228200,2.061228271484375,-0.058135986328125,-0.004730224609375,0.28228759765625
1695713146095780400,2.0707802734375,-0.03997802734375,-0.011138916015625,0.317230224609375
1695713146105301800,2.0803017578125,-0.04180908203125,-0.070343017578125,0.2587890625
1695713146114853600,2.089853515625,-0.045623779296875,-0.117340087890625,0.21270751953125
1695713146124405800,2.09940576171875,-0.047149658203125,-0.1507568359375,0.2093505859375
1695713146133957600,2.10895751953125,-0.045623779296875,-0.17181396484375,0.2203369140625
1695713146143540200,2.118540283203125,-0.04425048828125,-0.18951416015625,0.21942138671875
1695713146153061600,2.1280615234375,-0.048675537109375,-0.21453857421875,0.20721435546875
1695713146162613800,2.13761376953125,-0.056610107421875,-0.238037109375,0.2008056640625
1695713146172165600,2.14716552734375,-0.067596435546875,-0.25360107421875,0.2056884765625
1695713146181717800,2.1567177734375,-0.077972412109375,-0.26092529296875,0.21514892578125
1695713146191239200,2.1662392578125,-0.084991455078125,-0.26275634765625,0.22705078125
1695713146200791300,2.175791259765625,-0.100555419921875,-0.2801513671875,0.2313232421875
1695713146210343200,2.18534326171875,-0.116119384765625,-0.303955078125,0.2276611328125
1695713146219895300,2.194895263671875,-0.131988525390625,-0.315093994140625,0.22491455078125
1695713146229447200,2.204447265625,-0.149688720703125,-0.323028564453125,0.2227783203125
1695713146238968800,2.21396875,-0.162506103515625,-0.315399169921875,0.22003173828125
1695713146248520700,2.223520751953125,-0.175323486328125,-0.29876708984375,0.21881103515625
1695713146258072800,2.23307275390625,-0.188140869140625,-0.279541015625,0.21209716796875
1695713146267624700,2.242624755859375,-0.201263427734375,-0.25848388671875,0.20172119140625
1695713146277146000,2.25214599609375,-0.209197998046875,-0.225830078125,0.1910400390625
1695713146286698200,2.2616982421875,-0.214691162109375,-0.17822265625,0.18341064453125
1695713146296250000,2.27125,-0.221710205078125,-0.119476318359375,0.185546875
1695713146305802200,2.28080224609375,-0.23681640625,-0.051422119140625,0.19195556640625
1695713146315323600,2.29032373046875,-0.26123046875,0.002899169921875,0.1934814453125
1695713146324875800,2.299875732421875,-0.28411865234375,0.021514892578125,0.1898193359375
1695713146334427600,2.309427734375,-0.30792236328125,0.004425048828125,0.1861572265625
1695713146343979800,2.318979736328125,-0.3265380859375,-0.031890869140625,0.17669677734375
1695713146353531600,2.32853173828125,-0.3369140625,-0.069427490234375,0.1556396484375
1695713146363053300,2.33805322265625,-0.34881591796875,-0.081634521484375,0.115966796875
1695713146372605200,2.347605224609375,-0.36834716796875,-0.055084228515625,0.050506591796875
1695713146382157300,2.3571572265625,-0.39276123046875,0.025787353515625,-0.036468505859375
1695713146391709200,2.366709228515625,-0.410308837890625,0.1544189453125,-0.13580322265625
1695713146401261300,2.37626123046875,-0.405426025390625,0.303192138671875,-0.22705078125
1695713146410782700,2.38578271484375,-0.37261962890625,0.44769287109375,-0.290679931640625
1695713146420334600,2.39533447265625,-0.311279296875,0.54534912109375,-0.329437255859375
1695713146429917200,2.404917236328125,-0.24261474609375,0.55389404296875,-0.368194580078125
1695713146439469300,2.41446923828125,-0.178680419921875,0.474853515625,-0.439453125
1695713146448990700,2.42399072265625,-0.127105712890625,0.346832275390625,-0.56610107421875
1695713146458542600,2.43354248046875,-0.114593505859375,0.237579345703125,-0.739593505859375
1695713146468094700,2.4430947265625,-0.134429931640625,0.1806640625,-0.948944091796875
1695713146477646600,2.452646484375,-0.159149169921875,0.17669677734375,-1.18255615234375
1695713146487168300,2.462168212890625,-0.189361572265625,0.22003173828125,-1.424713134765625
1695713146496720100,2.47172021484375,-0.234375,0.306243896484375,-1.663360595703125
1695713146506272300,2.481272216796875,-0.2813720703125,0.41259765625,-1.89422607421875
1695713146515824000,2.49082421875,-0.31402587890625,0.51361083984375,-2.130889892578125
1695713146525376300,2.500376220703125,-0.3094482421875,0.631866455078125,-2.36236572265625
1695713146534897700,2.509897705078125,-0.294189453125,0.762939453125,-2.57293701171875
1695713146544449800,2.51944970703125,-0.3167724609375,0.746002197265625,-2.724609375
1695713146554001700,2.529001708984375,-0.37750244140625,0.426025390625,-2.776336669921875
1695713146563553800,2.5385537109375,-0.430755615234375,-0.069427490234375,-2.69317626953125
1695713146573105700,2.548105712890625,-0.440826416015625,-0.468292236328125,-2.481231689453125
1695713146582627000,2.557626953125,-0.401458740234375,-0.5908203125,-2.202911376953125
1695713146592179200,2.56717919921875,-0.364990234375,-0.377960205078125,-1.932373046875
1695713146601731000,2.57673095703125,-0.35400390625,0.0750732421875,-1.723785400390625
1695713146611283200,2.586283203125,-0.33294677734375,0.57647705078125,-1.614990234375
1695713146620804600,2.5958046875,-0.2783203125,0.937347412109375,-1.62506103515625
1695713146630356700,2.605356689453125,-0.23712158203125,1.148681640625,-1.721649169921875
1695713146639908600,2.61490869140625,-0.199432373046875,1.20208740234375,-1.845703125
1695713146649460700,2.624460693359375,-0.114593505859375,1.13739013671875,-1.9189453125
1695713146658982100,2.633982177734375,0.05279541015625,1.1370849609375,-1.86859130859375
1695713146668534300,2.6435341796875,0.287017822265625,1.19537353515625,-1.728973388671875
1695713146678086100,2.653086181640625,0.488433837890625,1.19140625,-1.57745361328125
1695713146687638300,2.66263818359375,0.590667724609375,1.14013671875,-1.413726806640625
1695713146697190100,2.672190185546875,0.615692138671875,1.058502197265625,-1.26556396484375
1695713146706711600,2.681711669921875,0.606842041015625,0.90972900390625,-1.16424560546875
1695713146716294100,2.691294189453125,0.595245361328125,0.8172607421875,-1.111297607421875
1695713146725846300,2.70084619140625,0.600738525390625,0.8441162109375,-1.103057861328125
1695713146735398100,2.710398193359375,0.591583251953125,0.961456298828125,-1.124267578125
1695713146744919600,2.71991943359375,0.559844970703125,1.112213134765625,-1.1444091796875
1695713146754471700,2.7294716796875,0.516510009765625,1.22650146484375,-1.14837646484375
1695713146764023600,2.7390234375,0.460205078125,1.27349853515625,-1.1236572265625
1695713146773575700,2.74857568359375,0.38909912109375,1.2689208984375,-1.047821044921875
1695713146783127600,2.75812744140625,0.32012939453125,1.22955322265625,-0.9124755859375
1695713146792649200,2.767649169921875,0.258331298828125,1.13983154296875,-0.742340087890625
1695713146802201000,2.777201171875,0.221710205078125,0.978240966796875,-0.57159423828125
1695713146811753200,2.786753173828125,0.205535888671875,0.79132080078125,-0.408782958984375
1695713146821305000,2.79630517578125,0.191497802734375,0.645599365234375,-0.243377685546875
1695713146830826800,2.80582666015625,0.184173583984375,0.550537109375,-0.06988525390625
1695713146840378600,2.815378662109375,0.186614990234375,0.4833984375,0.097198486328125
1695713146849930800,2.8249306640625,0.193328857421875,0.42999267578125,0.23834228515625
1695713146859482600,2.834482666015625,0.198822021484375,0.374603271484375,0.347442626953125
1695713146869034800,2.84403466796875,0.195465087890625,0.307464599609375,0.428009033203125
1695713146878556200,2.85355615234375,0.187225341796875,0.237274169921875,0.48980712890625
1695713146888108000,2.86310791015625,0.174102783203125,0.1800537109375,0.53497314453125
1695713146897660200,2.87266015625,0.156707763671875,0.13397216796875,0.5645751953125
1695713146907212000,2.8822119140625,0.138397216796875,0.096435546875,0.58349609375
1695713146916733700,2.891733642578125,0.134735107421875,0.0689697265625,0.582275390625
1695713146926285600,2.90128564453125,0.165252685546875,0.06591796875,0.5474853515625
1695713146935837700,2.910837646484375,0.236968994140625,0.106201171875,0.4827880859375
1695713146945389600,2.9203896484375,0.33355712890625,0.20751953125,0.402374267578125
1695713146954941700,2.929941650390625,0.418701171875,0.384063720703125,0.314788818359375
1695713146964463000,2.939463134765625,0.47119140625,0.636138916015625,0.21453857421875
1695713146974015200,2.94901513671875,0.472412109375,0.882568359375,0.078582763671875
1695713146983567000,2.958567138671875,0.413818359375,0.979461669921875,-0.128173828125
1695713146993119200,2.968119140625,0.3143310546875,0.79742431640625,-0.378265380859375
1695713147002671000,2.977671142578125,0.209808349609375,0.321502685546875,-0.57281494140625
1695713147012223200,2.98722314453125,0.128021240234375,-0.27130126953125,-0.659942626953125
1695713147021775000,2.996775146484375,0.0494384765625,-0.676116943359375,-0.674896240234375
1695713147031327200,3.0063271484375,-0.028076171875,-0.700836181640625,-0.667877197265625
1695713147040879000,3.015879150390625,-0.087127685546875,-0.365447998046875,-0.609893798828125
1695713147050400500,3.025400390625,-0.111541748046875,0.16937255859375,-0.4364013671875
1695713147059952600,3.03495263671875,-0.069732666015625,0.689239501953125,-0.1336669921875
1695713147069504500,3.04450439453125,-0.00030517578125,1.076202392578125,0.2703857421875
1695713147079056600,3.054056640625,0.008544921875,1.304473876953125,0.724945068359375
1695713147088578000,3.063578125,0.00518798828125,1.22161865234375,1.22406005859375
1695713147098130200,3.073130126953125,-0.003662109375,0.578765869140625,1.73248291015625
1695713147107682000,3.08268212890625,-0.0054931640625,-0.792694091796875,1.9207763671875
1695713147117234200,3.092234130859375,0.07720947265625,-2.44415283203125,1.3800048828125
1695713147126786000,3.1017861328125,0.168914794921875,-2.631683349609375,0.13397216796875
1695713147136307700,3.1113076171875,0.33416748046875,-0.9967041015625,-1.2652587890625
1695713147145859600,3.120859619140625,0.537872314453125,0.315704345703125,-1.405792236328125
1695713147155411700,3.13041162109375,0.615997314453125,0.373382568359375,0.085601806640625
1695713147164963600,3.139963623046875,0.4754638671875,-0.15380859375,1.72332763671875
1695713147174485000,3.149485107421875,0.212860107421875,-0.771331787109375,2.30560302734375
1695713147184037000,3.159037109375,-0.142669677734375,-1.26220703125,1.937255859375
1695713147193589000,3.168589111328125,-0.563201904296875,-0.9613037109375,1.204833984375
1695713147203141000,3.17814111328125,-0.826873779296875,-0.16143798828125,0.679473876953125
1695713147212693000,3.18769287109375,-0.827789306640625,0.243682861328125,0.5621337890625
1695713147222214700,3.197214599609375,-0.550994873046875,-0.1837158203125,0.767974853515625
1695713147231766500,3.2067666015625,-0.0146484375,-0.98297119140625,1.032257080078125
1695713147241318700,3.216318603515625,0.559539794921875,-1.434173583984375,1.175079345703125
1695713147250870500,3.22587060546875,0.893707275390625,-1.3543701171875,1.188507080078125
1695713147260392000,3.235391845703125,0.935211181640625,-0.97686767578125,1.167755126953125
1695713147269944000,3.244944091796875,0.8050537109375,-0.436248779296875,1.170196533203125
1695713147279496200,3.25449609375,0.596771240234375,0.09002685546875,1.171112060546875
1695713147289078500,3.26407861328125,0.362548828125,0.260772705078125,1.169586181640625
1695713147298630700,3.273630615234375,0.174713134765625,0.0555419921875,1.25518798828125
1695713147308152000,3.283152099609375,0.05340576171875,-0.52703857421875,1.372833251953125
1695713147317704200,3.2927041015625,0.01800537109375,-1.172027587890625,1.474761962890625
1695713147327256000,3.302256103515625,0.076904296875,-1.461944580078125,1.5667724609375
1695713147336808200,3.31180810546875,0.162811279296875,-1.3385009765625,1.575927734375
1695713147346329600,3.32132958984375,0.219573974609375,-0.85723876953125,1.490631103515625
1695713147355881500,3.330881591796875,0.204315185546875,-0.24444580078125,1.356201171875
1695713147365433600,3.34043359375,0.134124755859375,0.14678955078125,1.21551513671875
1695713147374985500,3.3499853515625,0.0604248046875,0.19287109375,1.129913330078125
1695713147384537600,3.35953759765625,0.01190185546875,0.014190673828125,1.144256591796875
1695713147394059000,3.36905908203125,-0.00762939453125,-0.23406982421875,1.23046875
1695713147403611100,3.378611083984375,-0.02655029296875,-0.438079833984375,1.3153076171875
1695713147413163000,3.3881630859375,-0.056610107421875,-0.54595947265625,1.337890625
1695713147422715100,3.397715087890625,-0.074615478515625,-0.562744140625,1.31500244140625
1695713147432236500,3.407236572265625,-0.086212158203125,-0.5328369140625,1.292724609375
1695713147441788700,3.41678857421875,-0.124664306640625,-0.49163818359375,1.2957763671875
1695713147451340500,3.426340576171875,-0.174102783203125,-0.471038818359375,1.3201904296875
1695713147460892700,3.435892578125,-0.22613525390625,-0.49713134765625,1.353759765625
1695713147470444500,3.445444580078125,-0.274658203125,-0.533447265625,1.383514404296875
1695713147479966000,3.454966064453125,-0.3106689453125,-0.56854248046875,1.399688720703125
1695713147489518000,3.46451806640625,-0.33447265625,-0.5877685546875,1.407012939453125
1695713147499070000,3.474070068359375,-0.35125732421875,-0.58258056640625,1.403045654296875
1695713147508622000,3.4836220703125,-0.37567138671875,-0.5328369140625,1.386260986328125
1695713147518143500,3.4931435546875,-0.418548583984375,-0.471649169921875,1.34918212890625
1695713147527695600,3.502695556640625,-0.465850830078125,-0.464019775390625,1.28326416015625
1695713147537247500,3.51224755859375,-0.502471923828125,-0.5322265625,1.175079345703125
1695713147546799600,3.521799560546875,-0.512542724609375,-0.64453125,1.019134521484375
1695713147556351500,3.5313515625,-0.475921630859375,-0.724945068359375,0.824432373046875
1695713147565873000,3.540872802734375,-0.3887939453125,-0.690460205078125,0.638427734375
1695713147575455500,3.55045556640625,-0.2801513671875,-0.5438232421875,0.5029296875
1695713147585007600,3.560007568359375,-0.204925537109375,-0.420379638671875,0.413360595703125
1695713147594559500,3.5695595703125,-0.196075439453125,-0.456085205078125,0.335845947265625
1695713147604081200,3.5790810546875,-0.238037109375,-0.6451416015625,0.24932861328125
1695713147613633000,3.588633056640625,-0.301513671875,-0.849609375,0.16815185546875
1695713147623185200,3.59818505859375,-0.35400390625,-0.927734375,0.096282958984375
1695713147632737000,3.607737060546875,-0.38421630859375,-0.838775634765625,0.033416748046875
1695713147642289200,3.6172890625,-0.38818359375,-0.62774658203125,-0.034942626953125
1695713147651810600,3.626810546875,-0.36163330078125,-0.402374267578125,-0.12725830078125
1695713147661362400,3.636362548828125,-0.31158447265625,-0.250244140625,-0.265045166015625
1695713147670914600,3.64591455078125,-0.22674560546875,-0.1934814453125,-0.45196533203125
1695713147680466400,3.655466552734375,-0.130462646484375,-0.112152099609375,-0.670013427734375
1695713147689988000,3.664988037109375,-0.059967041015625,0.1043701171875,-0.8978271484375
1695713147699540000,3.6745400390625,0.00946044921875,0.40863037109375,-1.12823486328125
1695713147709092000,3.684092041015625,0.09857177734375,0.729827880859375,-1.368255615234375
1695713147718644000,3.69364404296875,0.163116455078125,0.976409912109375,-1.61468505859375
1695713147728196000,3.703196044921875,0.179290771484375,1.104888916015625,-1.85272216796875
1695713147737717500,3.712717529296875,0.160064697265625,1.1822509765625,-2.139434814453125
1695713147747269400,3.722269287109375,0.0787353515625,1.21124267578125,-2.59918212890625
1695713147756821500,3.731821533203125,-0.084075927734375,1.087493896484375,-3.134002685546875
1695713147766373600,3.74137353515625,-0.24200439453125,0.8050537109375,-3.505401611328125
1695713147775895000,3.75089501953125,-0.28900146484375,0.50384521484375,-3.621978759765625
1695713147785447000,3.760447021484375,-0.196075439453125,0.16510009765625,-3.484954833984375
1695713147794999000,3.7699990234375,-0.091400146484375,-0.21331787109375,-3.156585693359375
1695713147804551000,3.779551025390625,-0.061492919921875,-0.669097900390625,-2.752532958984375
1695713147814103000,3.78910302734375,-0.080718994140625,-1.3226318359375,-2.422027587890625
1695713147823624400,3.79862451171875,-0.075225830078125,-2.00531005859375,-2.24945068359375
1695713147833176600,3.808176513671875,-0.029296875,-2.4420166015625,-2.187042236328125
1695713147842728400,3.817728515625,0.0164794921875,-2.33062744140625,-2.100982666015625
1695713147852280600,3.827280517578125,0.0579833984375,-1.490631103515625,-1.87744140625
1695713147861832400,3.83683251953125,0.09735107421875,-0.085906982421875,-1.64825439453125
1695713147871384600,3.846384521484375,0.132598876953125,1.58782958984375,-1.62322998046875
1695713147880936400,3.8559365234375,0.09674072265625,2.60223388671875,-1.988525390625
1695713147890488600,3.865488525390625,-0.046234130859375,2.67242431640625,-2.513275146484375
1695713147900040400,3.87504052734375,-0.157623291015625,2.2747802734375,-2.846832275390625
1695713147909561900,3.884561767578125,-0.161285400390625,1.777496337890625,-2.894134521484375
1695713147919114000,3.894114013671875,-0.095672607421875,1.441802978515625,-2.70263671875
1695713147928666000,3.903666015625,0.01953125,1.2554931640625,-2.33489990234375
1695713147938218000,3.913218017578125,0.164337158203125,1.16546630859375,-1.89361572265625
1695713147947739400,3.922739501953125,0.341796875,1.098785400390625,-1.479949951171875
1695713147957291500,3.93229150390625,0.508880615234375,1.027069091796875,-1.15386962890625
1695713147966843400,3.941843505859375,0.615997314453125,0.973358154296875,-0.926513671875
1695713147976395500,3.9513955078125,0.66619873046875,1.004486083984375,-0.770263671875
1695713147985947400,3.960947509765625,0.68206787109375,1.073150634765625,-0.669097900390625
1695713147995469000,3.970468994140625,0.6732177734375,1.110687255859375,-0.597991943359375
1695713148005021000,3.98002099609375,0.656280517578125,1.065826416015625,-0.53192138671875
1695713148014573000,3.989572998046875,0.626983642578125,0.957489013671875,-0.4473876953125
1695713148024125000,3.999125,0.592803955078125,0.8001708984375,-0.327606201171875
1695713148033646300,4.008646240234375,0.561065673828125,0.630645751953125,-0.1568603515625
1695713148043198500,4.018198486328125,0.543060302734375,0.46295166015625,0.067291259765625
1695713148052750300,4.027750244140625,0.540313720703125,0.298004150390625,0.345916748046875
1695713148062302500,4.037302490234375,0.563201904296875,0.16387939453125,0.673370361328125
1695713148071854600,4.0468544921875,0.596771240234375,0.074462890625,1.030731201171875
1695713148081376000,4.0563759765625,0.631866455078125,0.022125244140625,1.389617919921875
1695713148090927900,4.065927978515625,0.67901611328125,0.016632080078125,1.7236328125
1695713148100480000,4.07547998046875,0.7293701171875,0.06866455078125,1.998291015625
1695713148110032000,4.085031982421875,0.7574462890625,0.17333984375,2.181243896484375
1695713148119553500,4.094553466796875,0.760498046875,0.350494384765625,2.188873291015625
1695713148129105400,4.10410546875,0.74249267578125,0.54931640625,1.93328857421875
1695713148138688000,4.11368798828125,0.67718505859375,0.727691650390625,1.412811279296875
1695713148148240000,4.123239990234375,0.549774169921875,1.006927490234375,0.6341552734375
1695713148157792000,4.1327919921875,0.41412353515625,1.5032958984375,-0.4302978515625
1695713148167313400,4.1423134765625,0.318603515625,1.922607421875,-1.51763916015625
1695713148176865500,4.151865478515625,0.318603515625,1.683502197265625,-2.028961181640625
1695713148186417400,4.16141748046875,0.40863037109375,0.631256103515625,-1.785125732421875
1695713148195969500,4.170969482421875,0.45654296875,-0.56671142578125,-1.20025634765625
1695713148205491000,4.180490966796875,0.4437255859375,-1.031951904296875,-0.731048583984375
1695713148215042800,4.190042724609375,0.35888671875,-0.62103271484375,-0.48675537109375
1695713148224595000,4.199594970703125,0.3143310546875,0.09307861328125,-0.364227294921875
1695713148234146800,4.209146728515625,0.36865234375,0.79193115234375,-0.14068603515625
1695713148243699000,4.218698974609375,0.352783203125,1.419525146484375,0.319366455078125
1695713148253220400,4.228220458984375,0.226287841796875,1.61407470703125,1.050567626953125
1695713148262772500,4.2377724609375,0.03631591796875,0.595550537109375,1.892242431640625
1695713148272324400,4.247324462890625,0.05462646484375,-1.96075439453125,1.99005126953125
1695713148281876500,4.25687646484375,0.155792236328125,-3.42437744140625,0.8953857421875
1695713148291398000,4.26639794921875,0.171051025390625,-1.59027099609375,-0.619659423828125
1695713148300950000,4.275949951171875,0.323486328125,0.352630615234375,-0.757598876953125
1695713148310502000,4.285501953125,0.352783203125,-0.351409912109375,0.56976318359375
1695713148320054000,4.295053955078125,0.199127197265625,-1.365966796875,1.851348876953125
1695713148329606000,4.30460595703125,-0.057220458984375,-1.427764892578125,2.199554443359375
1695713148339127300,4.314127197265625,-0.2850341796875,-0.93719482421875,1.764984130859375
1695713148348679400,4.323679443359375,-0.526885986328125,-0.808868408203125,1.456756591796875
1695713148358231300,4.333231201171875,-0.60821533203125,-1.030120849609375,1.673583984375
1695713148367783400,4.342783447265625,-0.518341064453125,-1.510467529296875,2.0489501953125
1695713148377304800,4.352304931640625,-0.2996826171875,-2.172088623046875,2.28485107421875
1695713148386857000,4.36185693359375,0.09613037109375,-2.36358642578125,2.209014892578125
1695713148396408800,4.371408935546875,0.509490966796875,-1.795501708984375,1.884613037109375
1695713148405961000,4.3809609375,0.7037353515625,-0.9796142578125,1.649169921875
1695713148415512800,4.390512939453125,0.656585693359375,-0.418853759765625,1.5704345703125
1695713148425065000,4.40006494140625,0.4766845703125,-0.118255615234375,1.533355712890625
1695713148434616800,4.409616943359375,0.267486572265625,-0.126953125,1.549224853515625
1695713148444169000,4.4191689453125,0.076904296875,-0.395355224609375,1.6107177734375
1695713148453720800,4.428720947265625,-0.0360107421875,-0.582275390625,1.676025390625
1695713148463242500,4.438242431640625,-0.079498291015625,-0.717620849609375,1.658935546875
1695713148472794400,4.44779443359375,-0.077667236328125,-0.797271728515625,1.571044921875
1695713148482346500,4.457346435546875,-0.098724365234375,-1.002197265625,1.395111083984375
1695713148491898400,4.4668984375,-0.116119384765625,-1.117095947265625,1.22833251953125
1695713148501450500,4.476450439453125,-0.197601318359375,-1.105499267578125,1.140899658203125
1695713148510972000,4.485971923828125,-0.2825927734375,-1.035919189453125,1.107940673828125
1695713148520523800,4.495523681640625,-0.3076171875,-0.9716796875,1.126251220703125
1695713148530076000,4.505075927734375,-0.2734375,-0.9320068359375,1.171112060546875
1695713148539627800,4.514627685546875,-0.22796630859375,-0.87249755859375,1.20635986328125
1695713148549149400,4.5241494140625,-0.211334228515625,-0.781097412109375,1.182403564453125
1695713148558701300,4.533701416015625,-0.220489501953125,-0.694122314453125,1.118927001953125
1695713148568253400,4.54325341796875,-0.25787353515625,-0.6341552734375,1.075897216796875
1695713148577805300,4.552805419921875,-0.2960205078125,-0.5938720703125,1.064910888671875
1695713148587327000,4.562326904296875,-0.33050537109375,-0.550537109375,1.079864501953125
1695713148596878800,4.57187890625,-0.3564453125,-0.52825927734375,1.090850830078125
1695713148606431000,4.581430908203125,-0.36102294921875,-0.5615234375,1.085968017578125
1695713148615982800,4.59098291015625,-0.35675048828125,-0.61767578125,1.082305908203125
1695713148625535000,4.600534912109375,-0.3570556640625,-0.665740966796875,1.071319580078125
1695713148635056400,4.610056396484375,-0.37261962890625,-0.675201416015625,1.041107177734375
1695713148644608300,4.619608154296875,-0.404510498046875,-0.653076171875,0.99700927734375
1695713148654160400,4.629160400390625,-0.445709228515625,-0.64849853515625,0.95184326171875
1695713148663712300,4.638712158203125,-0.476226806640625,-0.724029541015625,0.8953857421875
1695713148673264400,4.648264404296875,-0.487823486328125,-0.827484130859375,0.826568603515625
1695713148682785800,4.657785888671875,-0.479888916015625,-0.841217041015625,0.734710693359375
1695713148692338000,4.667337890625,-0.438385009765625,-0.732574462890625,0.611572265625
1695713148701889800,4.676889892578125,-0.372314453125,-0.548095703125,0.474395751953125
1695713148711442000,4.68644189453125,-0.3363037109375,-0.371246337890625,0.348358154296875
1695713148720993800,4.695993896484375,-0.34393310546875,-0.310821533203125,0.24688720703125
1695713148730546000,4.7055458984375,-0.3741455078125,-0.323333740234375,0.1702880859375
1695713148740097800,4.715097900390625,-0.413360595703125,-0.2642822265625,0.12237548828125
1695713148749650000,4.72464990234375,-0.432586669921875,-0.13153076171875,0.088043212890625
1695713148759171300,4.73417138671875,-0.415496826171875,-0.011444091796875,0.010528564453125
1695713148768723500,4.743723388671875,-0.35675048828125,0.1007080078125,-0.15838623046875
1695713148778275300,4.753275390625,-0.27496337890625,0.222625732421875,-0.376434326171875
1695713148787827500,4.762827392578125,-0.171661376953125,0.294952392578125,-0.584259033203125
1695713148797379300,4.77237939453125,-0.01953125,0.274810791015625,-0.750274658203125
1695713148806900700,4.781900634765625,0.134429931640625,0.243682861328125,-0.894775390625
1695713148816452900,4.791452880859375,0.200347900390625,0.390167236328125,-1.081085205078125
1695713148826004700,4.801004638671875,0.209503173828125,0.685272216796875,-1.349639892578125
1695713148835556900,4.810556884765625,0.215606689453125,0.8563232421875,-1.678009033203125
1695713148845108700,4.820108642578125,0.185699462890625,0.84716796875,-2.042388916015625
1695713148854630400,4.82963037109375,0.103759765625,0.756378173828125,-2.482452392578125
1695713148864182300,4.839182373046875,-0.00701904296875,0.49285888671875,-3.009033203125
1695713148873734400,4.848734375,-0.059356689453125,0.021209716796875,-3.43048095703125
1695713148883286300,4.858286376953125,-0.01312255859375,-0.388336181640625,-3.540496826171875
1695713148892808000,4.867807861328125,0.05279541015625,-0.5316162109375,-3.306884765625
1695713148902359800,4.87735986328125,0.08819580078125,-0.421295166015625,-2.914276123046875
1695713148911912000,4.886911865234375,0.0933837890625,-0.20843505859375,-2.61138916015625
1695713148921463800,4.8964638671875,0.0628662109375,-0.1519775390625,-2.519683837890625
1695713148930985200,4.905985107421875,-0.03204345703125,-0.391998291015625,-2.6171875
1695713148940537300,4.915537353515625,-0.129241943359375,-0.84808349609375,-2.742156982421875
1695713148950089200,4.925089111328125,-0.198822021484375,-1.26556396484375,-2.72552490234375
1695713148959641300,4.934641357421875,-0.30029296875,-1.27227783203125,-2.509918212890625
1695713148969193200,4.944193115234375,-0.31829833984375,-0.688323974609375,-2.141876220703125
1695713148978715000,4.95371484375,-0.199432373046875,0.06927490234375,-1.92596435546875
1695713148988266800,4.963266845703125,-0.059967041015625,0.931396484375,-1.9036865234375
1695713148997849300,4.972849365234375,0.00701904296875,1.438140869140625,-2.146759033203125
1695713149007401200,4.982401123046875,-0.0177001953125,1.49566650390625,-2.431182861328125
1695713149016923000,4.9919228515625,-0.023193359375,1.2847900390625,-2.56011962890625
1695713149026474800,5.001474853515625,0.0274658203125,0.962982177734375,-2.515716552734375
1695713149036027000,5.01102685546875,0.127105712890625,0.692291259765625,-2.30224609375
1695713149045578800,5.020578857421875,0.266571044921875,0.557861328125,-1.94427490234375
1695713149055131000,5.030130859375,0.408935546875,0.5596923828125,-1.5557861328125
1695713149064652300,5.03965234375,0.524444580078125,0.689849853515625,-1.23504638671875
1695713149074204400,5.049204345703125,0.574798583984375,0.88104248046875,-1.025848388671875
1695713149083756300,5.05875634765625,0.585174560546875,1.089630126953125,-0.911865234375
1695713149093308400,5.068308349609375,0.580596923828125,1.268310546875,-0.8331298828125
1695713149102829800,5.077829833984375,0.577239990234375,1.359405517578125,-0.734100341796875
1695713149112381700,5.087381591796875,0.575103759765625,1.366119384765625,-0.599517822265625
1695713149121933800,5.096933837890625,0.550384521484375,1.28387451171875,-0.42510986328125
1695713149131485700,5.106485595703125,0.509490966796875,1.14532470703125,-0.20782470703125
1695713149141037800,5.116037841796875,0.47119140625,0.941009521484375,0.073394775390625
1695713149150559200,5.125559326171875,0.4461669921875,0.653228759765625,0.436859130859375
1695713149160111400,5.135111328125,0.44769287109375,0.380096435546875,0.83892822265625
1695713149169663200,5.144663330078125,0.46844482421875,0.1898193359375,1.23748779296875
1695713149179215400,5.15421533203125,0.490570068359375,0.08270263671875,1.62017822265625
1695713149188736800,5.16373681640625,0.525054931640625,0.06591796875,1.9635009765625
1695713149198289000,5.173288818359375,0.567474365234375,0.1824951171875,2.208099365234375
1695713149207840800,5.1828408203125,0.587921142578125,0.41595458984375,2.27142333984375
1695713149217393000,5.192392822265625,0.572967529296875,0.76202392578125,2.03765869140625
1695713149226944800,5.20194482421875,0.533294677734375,1.110382080078125,1.463775634765625
1695713149236466200,5.211466064453125,0.45440673828125,1.2664794921875,0.56884765625
1695713149246018300,5.221018310546875,0.275726318359375,1.297760009765625,-0.5712890625
1695713149255570200,5.230570068359375,0.0115966796875,1.331329345703125,-1.662750244140625
1695713149265122300,5.240122314453125,-0.213775634765625,1.094512939453125,-2.20794677734375
1695713149274643700,5.249643798828125,-0.183258056640625,0.17822265625,-2.008056640625
1695713149284226300,5.259226318359375,-0.0048828125,-0.88165283203125,-1.383819580078125
1695713149293778200,5.268778076171875,0.08758544921875,-1.219482421875,-0.757598876953125
1695713149303330300,5.278330322265625,0.03631591796875,-0.778350830078125,-0.373687744140625
1695713149312882200,5.287882080078125,-0.058441162109375,-0.16937255859375,-0.21087646484375
1695713149322403800,5.29740380859375,-0.096282958984375,0.474853515625,-0.06072998046875
1695713149331955700,5.306955810546875,-0.215911865234375,1.18072509765625,0.1690673828125
1695713149341507800,5.3165078125,-0.456085205078125,1.641845703125,0.57861328125
1695713149351059700,5.326059814453125,-0.58837890625,1.2152099609375,0.9564208984375
1695713149360581400,5.335581298828125,-0.461578369140625,-0.361785888671875,0.804901123046875
1695713149370133200,5.34513330078125,-0.24658203125,-1.70379638671875,0.2752685546875
1695713149379685400,5.354685302734375,-0.140228271484375,-0.5419921875,-0.308074951171875
1695713149389237200,5.3642373046875,0.1153564453125,0.738067626953125,-0.55816650390625
1695713149398789400,5.373789306640625,0.48248291015625,-0.463409423828125,0.661163330078125
1695713149408310800,5.383310791015625,0.68634033203125,-1.389312744140625,1.9830322265625
1695713149417862700,5.392862548828125,0.545806884765625,-0.95001220703125,2.294921875
1695713149427414800,5.402414794921875,0.268096923828125,-0.382843017578125,1.925048828125
1695713149436966700,5.411966552734375,0.0054931640625,-0.395355224609375,1.64764404296875
1695713149446488300,5.42148828125,-0.138397216796875,-0.823822021484375,1.835174560546875
1695713149456040200,5.431040283203125,-0.164031982421875,-1.25885009765625,2.218475341796875
1695713149465592300,5.44059228515625,-0.106658935546875,-1.428070068359375,2.469329833984375
1695713149475144200,5.450144287109375,0.0848388671875,-1.2921142578125,2.462615966796875
1695713149484696300,5.4596962890625,0.35186767578125,-0.98480224609375,2.173309326171875
1695713149494217700,5.4692177734375,0.563201904296875,-0.62744140625,1.73614501953125
1695713149503769900,5.478769775390625,0.649566650390625,-0.28778076171875,1.446075439453125
1695713149513321700,5.48832177734375,0.631866455078125,-0.064544677734375,1.36322021484375
1695713149522873900,5.497873779296875,0.555267333984375,-0.039520263671875,1.438140869140625
1695713149532395300,5.507395263671875,0.44464111328125,-0.244140625,1.65740966796875
1695713149541947100,5.516947021484375,0.32440185546875,-0.579833984375,1.893463134765625
1695713149551499300,5.526499267578125,0.213165283203125,-0.9246826171875,1.97540283203125
1695713149561051100,5.536051025390625,0.127716064453125,-1.163482666015625,1.895904541015625
1695713149570603300,5.545603271484375,0.0750732421875,-1.175994873046875,1.764373779296875
1695713149580155100,5.555155029296875,0.06317138671875,-0.98968505859375,1.63818359375
1695713149589707300,5.564707275390625,0.08331298828125,-0.776519775390625,1.56646728515625
1695713149599259100,5.574259033203125,0.08087158203125,-0.628662109375,1.533660888671875
1695713149608811300,5.583811279296875,0.03662109375,-0.5914306640625,1.484527587890625
1695713149618332700,5.593332763671875,-0.01190185546875,-0.680389404296875,1.412506103515625
1695713149627884800,5.602884765625,-0.052947998046875,-0.820159912109375,1.35101318359375
1695713149637436700,5.612436767578125,-0.084381103515625,-0.92987060546875,1.31683349609375
1695713149646988800,5.62198876953125,-0.102996826171875,-0.9710693359375,1.3055419921875
1695713149656540700,5.631540771484375,-0.119476318359375,-0.91583251953125,1.29791259765625
1695713149666062300,5.641062255859375,-0.144195556640625,-0.784149169921875,1.2762451171875
1695713149675614200,5.6506142578125,-0.179290771484375,-0.64727783203125,1.2554931640625
1695713149685166300,5.660166259765625,-0.22369384765625,-0.5267333984375,1.24481201171875
1695713149694718200,5.66971826171875,-0.26885986328125,-0.439910888671875,1.24114990234375
1695713149704239600,5.679239501953125,-0.3118896484375,-0.412139892578125,1.23321533203125
1695713149713791700,5.688791748046875,-0.35186767578125,-0.444488525390625,1.21856689453125
1695713149723343600,5.698343505859375,-0.384521484375,-0.52490234375,1.20452880859375
1695713149732895700,5.707895751953125,-0.3997802734375,-0.62744140625,1.19415283203125
1695713149742447600,5.717447509765625,-0.389404296875,-0.686492919921875,1.183929443359375
1695713149751969300,5.72696923828125,-0.36376953125,-0.699615478515625,1.145477294921875
1695713149761521200,5.736521240234375,-0.355224609375,-0.775604248046875,1.007080078125
1695713149771073300,5.7460732421875,-0.3515625,-0.8795166015625,0.785064697265625
1695713149780625200,5.755625244140625,-0.3369140625,-0.90667724609375,0.55572509765625
1695713149790146800,5.765146728515625,-0.30792236328125,-0.820159912109375,0.383758544921875
1695713149799698700,5.77469873046875,-0.28472900390625,-0.660400390625,0.29083251953125
1695713149809250800,5.784250732421875,-0.2960205078125,-0.51300048828125,0.23284912109375
1695713149818802700,5.793802734375,-0.33294677734375,-0.465545654296875,0.15289306640625
1695713149828354800,5.803354736328125,-0.36834716796875,-0.49530029296875,0.049285888671875
1695713149837876200,5.812876220703125,-0.38421630859375,-0.5206298828125,-0.043792724609375
1695713149847428000,5.822427978515625,-0.35369873046875,-0.49102783203125,-0.13824462890625
1695713149857010700,5.8320107421875,-0.28564453125,-0.415802001953125,-0.230865478515625
1695713149866562800,5.841562744140625,-0.214080810546875,-0.338287353515625,-0.366973876953125
1695713149876084200,5.851084228515625,-0.131988525390625,-0.24749755859375,-0.540771484375
1695713149885636000,5.860635986328125,-0.0225830078125,-0.119476318359375,-0.725250244140625
1695713149895188200,5.870188232421875,0.067138671875,0.027313232421875,-0.9185791015625
1695713149904740000,5.879739990234375,0.0836181640625,0.232086181640625,-1.1676025390625
1695713149914292200,5.889292236328125,0.0732421875,0.5322265625,-1.477203369140625
1695713149923813600,5.898813720703125,0.09765625,0.7769775390625,-1.786651611328125
1695713149933365800,5.90836572265625,0.145111083984375,0.940093994140625,-2.060394287109375
1695713149942917600,5.917917724609375,0.132293701171875,1.103973388671875,-2.424774169921875
1695713149952469800,5.9274697265625,0.001220703125,1.065826416015625,-2.93243408203125
1695713149961991200,5.9369912109375,-0.103607177734375,0.724945068359375,-3.36822509765625
1695713149971543300,5.946543212890625,-0.071258544921875,0.281829833984375,-3.562774658203125
1695713149981095200,5.95609521484375,0.02532958984375,-0.125579833984375,-3.42681884765625
1695713149990647300,5.965647216796875,0.08819580078125,-0.385589599609375,-3.04229736328125
1695713150000199200,5.97519921875,0.0909423828125,-0.481109619140625,-2.6226806640625
1695713150009720600,5.984720458984375,0.04974365234375,-0.538330078125,-2.417144775390625
1695713150019272700,5.994272705078125,-0.009765625,-0.62530517578125,-2.476043701171875
1695713150028824600,6.003824462890625,-0.092926025390625,-0.769500732421875,-2.587890625
1695713150038376700,6.013376708984375,-0.169525146484375,-0.836944580078125,-2.559356689453125
1695713150047898000,6.022898193359375,-0.191192626953125,-0.62713623046875,-2.3406982421875
1695713150057450200,6.0324501953125,-0.171966552734375,-0.078887939453125,-1.99798583984375
1695713150067002000,6.042002197265625,-0.037994384765625,0.605926513671875,-1.767120361328125
1695713150076554200,6.05155419921875,0.06195068359375,1.29364013671875,-1.798248291015625
1695713150086106000,6.061106201171875,0.032958984375,1.730499267578125,-2.084197998046875
1695713150095627800,6.070627685546875,-0.0323486328125,1.736297607421875,-2.35107421875
1695713150105179600,6.0801796875,-0.045928955078125,1.5216064453125,-2.438507080078125
1695713150114731800,6.089731689453125,-0.045166015625,1.405181884765625,-2.441864013671875
1695713150124283600,6.09928369140625,-0.0152587890625,1.263427734375,-2.32879638671875
1695713150133805000,6.10880517578125,0.078125,1.116943359375,-2.081756591796875
1695713150143387600,6.1183876953125,0.211334228515625,1.031646728515625,-1.779937744140625
1695713150152939800,6.127939697265625,0.31951904296875,0.965728759765625,-1.5191650390625
1695713150162491600,6.13749169921875,0.35858154296875,0.966949462890625,-1.313629150390625
1695713150172043800,6.147043701171875,0.35797119140625,1.085357666015625,-1.1590576171875
1695713150181565200,6.156565185546875,0.33966064453125,1.19842529296875,-1.047821044921875
1695713150191117000,6.166116943359375,0.3277587890625,1.2109375,-0.9234619140625
1695713150200669200,6.175669189453125,0.313720703125,1.1639404296875,-0.750579833984375
1695713150210221000,6.185220947265625,0.301666259765625,1.083831787109375,-0.537109375
1695713150219742700,6.19474267578125,0.286712646484375,0.998992919921875,-0.300750732421875
1695713150229294600,6.204294677734375,0.268096923828125,0.89508056640625,-0.04669189453125
1695713150238846700,6.2138466796875,0.267791748046875,0.756072998046875,0.242919921875
1695713150248398600,6.223398681640625,0.30364990234375,0.610504150390625,0.56488037109375
1695713150257950700,6.23295068359375,0.37017822265625,0.49102783203125,0.90423583984375
1695713150267472100,6.24247216796875,0.44830322265625,0.41229248046875,1.2420654296875
1695713150277024300,6.252024169921875,0.533905029296875,0.39947509765625,1.549835205078125
1695713150286576000,6.261576171875,0.631866455078125,0.45074462890625,1.816558837890625
1695713150296128300,6.271128173828125,0.7305908203125,0.540771484375,2.01446533203125
1695713150305649700,6.280649658203125,0.8050537109375,0.677642822265625,2.05230712890625
1695713150315201500,6.290201416015625,0.837554931640625,0.8209228515625,1.817169189453125
1695713150324753700,6.299753662109375,0.860137939453125,0.87310791015625,1.279296875
1695713150334305500,6.309305419921875,0.78277587890625,0.919189453125,0.468902587890625
1695713150343857700,6.318857666015625,0.551910400390625,1.1737060546875,-0.657501220703125
1695713150353379000,6.328379150390625,0.240325927734375,1.475982666015625,-1.780242919921875
1695713150362931200,6.33793115234375,0.155487060546875,1.066741943359375,-2.25677490234375
1695713150372483000,6.347483154296875,0.3485107421875,-0.2117919921875,-1.885986328125
1695713150382035200,6.35703515625,0.536956787109375,-1.2933349609375,-1.100921630859375
1695713150391556600,6.366556640625,0.506744384765625,-1.3140869140625,-0.46966552734375
1695713150401108700,6.376108642578125,0.260467529296875,-0.633544921875,-0.21759033203125
1695713150410660600,6.38566064453125,0.03387451171875,0.12664794921875,-0.1470947265625
1695713150420212700,6.395212646484375,-0.003662109375,0.85357666015625,-0.0518798828125
1695713150429764600,6.4047646484375,-0.061798095703125,1.64154052734375,0.16448974609375
1695713150439316700,6.414316650390625,-0.199737548828125,2.177276611328125,0.62744140625
1695713150448868600,6.42386865234375,-0.2532958984375,1.349029541015625,1.287841796875
1695713150458420700,6.433420654296875,-0.176544189453125,-1.118621826171875,1.6571044921875
1695713150467972600,6.44297265625,-0.209808349609375,-2.70843505859375,1.160125732421875
1695713150477494000,6.452493896484375,-0.38818359375,-0.769195556640625,-0.206298828125
1695713150487046100,6.462046142578125,-0.097198486328125,0.56793212890625,-0.77667236328125
1695713150496598000,6.471597900390625,0.369873046875,-0.815887451171875,0.4949951171875
1695713150506150100,6.481150146484375,0.541229248046875,-1.26068115234375,1.67633056640625
1695713150515702000,6.490701904296875,0.394287109375,-0.349578857421875,1.892547607421875
1695713150525223700,6.5002236328125,0.175018310546875,0.56610107421875,1.433563232421875
1695713150534775600,6.509775634765625,-0.03631591796875,0.413818359375,1.21307373046875
1695713150544327700,6.51932763671875,-0.21881103515625,-0.62255859375,1.6455078125
1695713150553879600,6.528879638671875,-0.2471923828125,-1.527252197265625,2.210235595703125
1695713150563401200,6.538401123046875,-0.137481689453125,-1.909332275390625,2.548370361328125
1695713150572953000,6.547953125,0.052490234375,-1.907196044921875,2.534332275390625
1695713150582505200,6.557505126953125,0.275726318359375,-1.646728515625,2.168121337890625
1695713150592057000,6.56705712890625,0.4583740234375,-1.154937744140625,1.756439208984375
1695713150601609200,6.576609130859375,0.556488037109375,-0.57891845703125,1.5789794921875
1695713150611130600,6.586130615234375,0.583343505859375,-0.314483642578125,1.57501220703125
1695713150620682500,6.5956826171875,0.509796142578125,-0.379486083984375,1.62384033203125
1695713150630234600,6.605234619140625,0.3594970703125,-0.6341552734375,1.6961669921875
1695713150639786500,6.614786376953125,0.188446044921875,-0.92132568359375,1.775970458984375
1695713150649308200,6.62430810546875,0.10772705078125,-1.01165771484375,1.818695068359375
1695713150658860000,6.633860107421875,0.129241943359375,-0.835113525390625,1.816558837890625
1695713150668412200,6.643412109375,0.157318115234375,-0.62286376953125,1.775665283203125
1695713150677964000,6.652964111328125,0.169219970703125,-0.4931640625,1.69525146484375
1695713150687516200,6.66251611328125,0.171661376953125,-0.374908447265625,1.62109375
1695713150697037600,6.67203759765625,0.133514404296875,-0.344390869140625,1.557159423828125
1695713150706589700,6.681589599609375,0.0494384765625,-0.424652099609375,1.474761962890625
1695713150716141600,6.6911416015625,-0.02655029296875,-0.5889892578125,1.382904052734375
1695713150725724200,6.70072412109375,-0.092315673828125,-0.765838623046875,1.3226318359375
1695713150735245600,6.71024560546875,-0.142669677734375,-0.86181640625,1.3140869140625
1695713150744797700,6.719797607421875,-0.158538818359375,-0.833892822265625,1.33636474609375
1695713150754349600,6.729349609375,-0.156402587890625,-0.683746337890625,1.3421630859375
1695713150763901700,6.738901611328125,-0.152740478515625,-0.475311279296875,1.31988525390625
1695713150773453600,6.74845361328125,-0.177764892578125,-0.28350830078125,1.275634765625
1695713150782975000,6.75797509765625,-0.23101806640625,-0.16448974609375,1.224365234375
1695713150792527000,6.767527099609375,-0.29571533203125,-0.104217529296875,1.181488037109375
1695713150802079000,6.777078857421875,-0.352783203125,-0.1483154296875,1.152496337890625
1695713150811631000,6.786631103515625,-0.3900146484375,-0.320587158203125,1.139678955078125
1695713150821152500,6.796152587890625,-0.3961181640625,-0.53955078125,1.148223876953125
1695713150830704600,6.80570458984375,-0.38482666015625,-0.706024169921875,1.170196533203125
1695713150840256500,6.815256591796875,-0.38238525390625,-0.766143798828125,1.171417236328125
1695713150849808600,6.82480859375,-0.404205322265625,-0.756683349609375,1.099090576171875
1695713150859360500,6.834360595703125,-0.456085205078125,-0.690765380859375,0.94573974609375
1695713150868882200,6.843882080078125,-0.511932373046875,-0.59417724609375,0.754241943359375
1695713150878434000,6.85343408203125,-0.529327392578125,-0.53375244140625,0.5682373046875
1695713150887986200,6.862986083984375,-0.478057861328125,-0.48919677734375,0.414886474609375
1695713150897538000,6.8725380859375,-0.38116455078125,-0.395355224609375,0.317535400390625
1695713150907059500,6.8820595703125,-0.31890869140625,-0.2764892578125,0.25177001953125
1695713150916611600,6.891611572265625,-0.321044921875,-0.21148681640625,0.194091796875
1695713150926163500,6.90116357421875,-0.3533935546875,-0.25177001953125,0.126953125
1695713150935715600,6.910715576171875,-0.37353515625,-0.331878662109375,0.077972412109375
1695713150945267500,6.920267333984375,-0.37078857421875,-0.380401611328125,0.041046142578125
1695713150954789000,6.9297890625,-0.3692626953125,-0.406646728515625,-0.001373291015625
1695713150964341000,6.939341064453125,-0.405120849609375,-0.408782958984375,-0.08819580078125
1695713150973893000,6.94889306640625,-0.448760986328125,-0.386810302734375,-0.253753662109375
1695713150983445000,6.958445068359375,-0.429534912109375,-0.30181884765625,-0.44921875
1695713150992966400,6.96796630859375,-0.35736083984375,-0.084075927734375,-0.664215087890625
1695713151002549000,6.977549072265625,-0.27862548828125,0.1678466796875,-0.91217041015625
1695713151012101000,6.98710107421875,-0.184478759765625,0.368499755859375,-1.199951171875
1695713151021653000,6.996653076171875,-0.060272216796875,0.51605224609375,-1.494140625
1695713151031174700,7.006174560546875,0.09735107421875,0.666351318359375,-1.775054931640625
1695713151040726500,7.0157265625,0.245513916015625,0.830078125,-2.0233154296875
1695713151050278700,7.025278564453125,0.34423828125,0.948333740234375,-2.27508544921875
1695713151059830500,7.03483056640625,0.3228759765625,0.962677001953125,-2.6556396484375
1695713151069382700,7.044382568359375,0.204925537109375,0.77667236328125,-3.08502197265625
1695713151078904000,7.053904052734375,0.116424560546875,0.395355224609375,-3.3837890625
1695713151088456000,7.0634560546875,0.09429931640625,0.091552734375,-3.44268798828125
1695713151098008000,7.073008056640625,0.03143310546875,0.0628662109375,-3.2879638671875
1695713151107560000,7.082559814453125,-0.093536376953125,0.342864990234375,-3.06610107421875
1695713151117112000,7.092112060546875,-0.207061767578125,0.648040771484375,-2.911529541015625
1695713151126633500,7.101633544921875,-0.25299072265625,0.55450439453125,-2.845611572265625
1695713151136185600,7.111185546875,-0.286865234375,-0.051422119140625,-2.794342041015625
1695713151145737500,7.120737548828125,-0.2813720703125,-0.84716796875,-2.67669677734375
1695713151155289600,7.13028955078125,-0.25238037109375,-1.403045654296875,-2.456817626953125
1695713151164811000,7.13981103515625,-0.221099853515625,-1.439666748046875,-2.172698974609375
1695713151174363100,7.149363037109375,-0.111541748046875,-0.740509033203125,-1.819610595703125
1695713151183915000,7.1589150390625,0.1055908203125,0.4266357421875,-1.61712646484375
1695713151193467100,7.168467041015625,0.217132568359375,1.62567138671875,-1.679840087890625
1695713151202988500,7.177988525390625,0.167083740234375,2.22808837890625,-2.038116455078125
1695713151212540400,7.18754052734375,0.0531005859375,2.3651123046875,-2.36419677734375
1695713151222092500,7.197092529296875,-0.0238037109375,2.24151611328125,-2.521209716796875
1695713151231644400,7.20664453125,-0.01678466796875,1.90948486328125,-2.524871826171875
1695713151241196500,7.216196533203125,0.07354736328125,1.51702880859375,-2.369384765625
1695713151250718000,7.225718017578125,0.222320556640625,1.220703125,-2.067413330078125
1695713151260270000,7.23527001953125,0.41534423828125,1.073150634765625,-1.717681884765625
1695713151269822000,7.244822021484375,0.624542236328125,1.061553955078125,-1.378021240234375
1695713151279374000,7.2543740234375,0.770263671875,1.13861083984375,-1.096343994140625
1695713151288926000,7.263926025390625,0.82427978515625,1.21612548828125,-0.894775390625
1695713151298478000,7.27347802734375,0.82000732421875,1.316986083984375,-0.757293701171875
1695713151308030000,7.283030029296875,0.78887939453125,1.414642333984375,-0.650177001953125
1695713151317582000,7.29258203125,0.7391357421875,1.47430419921875,-0.5389404296875
1695713151327134000,7.302134033203125,0.69000244140625,1.50909423828125,-0.398406982421875
1695713151336655600,7.311655517578125,0.648345947265625,1.4788818359375,-0.221405029296875
1695713151346207500,7.32120751953125,0.623931884765625,1.362152099609375,-0.000457763671875
1695713151355759600,7.330759521484375,0.628814697265625,1.17034912109375,0.274658203125
1695713151365311500,7.3403115234375,0.665283203125,0.944976806640625,0.6085205078125
1695713151374833000,7.3498330078125,0.73211669921875,0.724334716796875,0.9625244140625
1695713151384385000,7.359385009765625,0.811767578125,0.5462646484375,1.30859375
1695713151393937000,7.36893701171875,0.888519287109375,0.4534912109375,1.6241455078125
1695713151403489000,7.378489013671875,0.956878662109375,0.4351806640625,1.876373291015625
1695713151413041000,7.388041015625,1.009979248046875,0.47698974609375,2.01202392578125
1695713151422562600,7.3975625,1.0540771484375,0.5413818359375,1.95831298828125
1695713151432114400,7.407114501953125,1.0711669921875,0.603485107421875,1.61590576171875
1695713151441666600,7.41666650390625,0.991363525390625,0.701751708984375,0.924072265625
1695713151451218400,7.426218505859375,0.74462890625,1.024932861328125,-0.009307861328125
1695713151460770600,7.4357705078125,0.3814697265625,1.4825439453125,-1.116485595703125
1695713151470292000,7.4452919921875,0.08331298828125,1.49261474609375,-2.087249755859375
1695713151479843800,7.45484375,0.124359130859375,0.678558349609375,-2.294921875
1695713151489396000,7.46439599609375,0.35003662109375,-0.2972412109375,-1.781158447265625
1695713151498948000,7.473947998046875,0.506439208984375,-0.57525634765625,-1.105194091796875
1695713151508469500,7.483469482421875,0.45135498046875,-0.1318359375,-0.655975341796875
1695713151518021400,7.493021484375,0.281524658203125,0.43914794921875,-0.44158935546875
1695713151527573500,7.502573486328125,0.218658447265625,0.924072265625,-0.301055908203125
1695713151537125400,7.51212548828125,0.33172607421875,1.383819580078125,-0.032806396484375
1695713151546647000,7.52164697265625,0.499114990234375,1.786956787109375,0.55511474609375
1695713151556199000,7.531198974609375,0.597686767578125,2.067718505859375,1.522064208984375
1695713151565751000,7.5407509765625,0.41015625,1.21673583984375,2.6556396484375
1695713151575303000,7.550302978515625,0.0830078125,-1.787261962890625,2.7764892578125
1695713151584885500,7.559885498046875,-0.36865234375,-4.406890869140625,1.21490478515625
1695713151594407000,7.569406982421875,-0.538177490234375,-2.650146484375,-0.742950439453125
1695713151603959000,7.578958984375,0.127410888671875,0.85174560546875,-1.25579833984375
1695713151613511000,7.588510986328125,0.73150634765625,1.467742919921875,-0.20477294921875
1695713151623063000,7.59806298828125,0.79193115234375,0.288848876953125,1.28326416015625
1695713151632615000,7.607614990234375,0.560455322265625,-0.64483642578125,2.135162353515625
1695713151642136300,7.61713623046875,0.31494140625,-0.947265625,2.129974365234375
1695713151651688400,7.6266884765625,0.01190185546875,-0.420989990234375,1.60980224609375
1695713151661240600,7.636240478515625,-0.360107421875,-0.5450439453125,1.433258056640625
1695713151670792400,7.64579248046875,-0.65765380859375,-1.32171630859375,1.786651611328125
1695713151680313900,7.65531396484375,-0.728759765625,-2.06756591796875,2.227630615234375
1695713151689866000,7.664865966796875,-0.490875244140625,-2.772216796875,2.519378662109375
1695713151699417900,7.67441796875,-0.028076171875,-3.0377197265625,2.514495849609375
1695713151708970000,7.683969970703125,0.4461669921875,-2.248687744140625,2.227630615234375
1695713151718491400,7.693491455078125,0.775146484375,-0.88409423828125,1.807403564453125
1695713151728043500,7.70304345703125,0.8343505859375,-0.059051513671875,1.448516845703125
1695713151737595400,7.712595458984375,0.667572021484375,0.215606689453125,1.28875732421875
1695713151747147500,7.7221474609375,0.43853759765625,0.17242431640625,1.3104248046875
1695713151756699400,7.731699462890625,0.238494873046875,-0.111846923828125,1.425018310546875
1695713151766220800,7.741220703125,0.10986328125,-0.436859130859375,1.561431884765625
1695713151775773000,7.75077294921875,0.09246826171875,-0.6158447265625,1.6827392578125
1695713151785324800,7.76032470703125,0.143890380859375,-0.687408447265625,1.738128662109375
1695713151794877000,7.769876953125,0.181121826171875,-0.61004638671875,1.71295166015625
1695713151804398300,7.7793984375,0.153961181640625,-0.5657958984375,1.61041259765625
1695713151813950500,7.788950439453125,0.0592041015625,-0.673980712890625,1.454315185546875
1695713151823502300,7.79850244140625,-0.065460205078125,-0.86181640625,1.2841796875
1695713151833054500,7.808054443359375,-0.166473388671875,-0.9967041015625,1.158294677734375
1695713151842606300,7.8176064453125,-0.216522216796875,-1.0003662109375,1.116180419921875
1695713151852128000,7.8271279296875,-0.2276611328125,-0.87493896484375,1.131134033203125
1695713151861710300,7.83671044921875,-0.211334228515625,-0.6622314453125,1.155853271484375
1695713151871262500,7.846262451171875,-0.211029052734375,-0.457305908203125,1.178741455078125
1695713151880814300,7.855814453125,-0.2276611328125,-0.336456298828125,1.183013916015625
1695713151890336000,7.8653359375,-0.242919921875,-0.30517578125,1.163482666015625
1695713151899887900,7.874887939453125,-0.25909423828125,-0.334320068359375,1.127166748046875
1695713151909440000,7.88443994140625,-0.28472900390625,-0.368499755859375,1.101531982421875
1695713151918992000,7.893991943359375,-0.306396484375,-0.403594970703125,1.094818115234375
1695713151928544000,7.9035439453125,-0.316162109375,-0.455169677734375,1.098175048828125
1695713151938065400,7.9130654296875,-0.32012939453125,-0.478973388671875,1.110382080078125
1695713151947617300,7.9226171875,-0.333251953125,-0.439605712890625,1.117706298828125
1695713151957169400,7.93216943359375,-0.35888671875,-0.381622314453125,1.093902587890625
1695713151966721300,7.94172119140625,-0.39276123046875,-0.332489013671875,1.037139892578125
1695713151976243000,7.951242919921875,-0.429229736328125,-0.319976806640625,0.9619140625
1695713151985794800,7.960794921875,-0.452728271484375,-0.370330810546875,0.88287353515625
1695713151995347000,7.970346923828125,-0.449066162109375,-0.476837158203125,0.809173583984375
1695713152004898800,7.97989892578125,-0.409088134765625,-0.58502197265625,0.735321044921875
1695713152014451000,7.989450927734375,-0.360107421875,-0.604248046875,0.66070556640625
1695713152023972400,7.998972412109375,-0.3204345703125,-0.50628662109375,0.587158203125
1695713152033524500,8.0085244140625,-0.30242919921875,-0.391082763671875,0.51116943359375
1695713152043076400,8.018076416015624,-0.311279296875,-0.352020263671875,0.418243408203125
1695713152052628500,8.02762841796875,-0.328369140625,-0.399627685546875,0.319061279296875
1695713152062150000,8.03714990234375,-0.31158447265625,-0.516357421875,0.24139404296875
1695713152071701800,8.04670166015625,-0.23193359375,-0.65216064453125,0.2032470703125
1695713152081254000,8.05625390625,-0.127410888671875,-0.749969482421875,0.16845703125
1695713152090805800,8.0658056640625,-0.042266845703125,-0.768890380859375,0.107574462890625
1695713152100358000,8.07535791015625,0.00396728515625,-0.676116943359375,-0.010223388671875
1695713152109879300,8.08487939453125,0.02227783203125,-0.412445068359375,-0.211181640625
1695713152119431400,8.094431396484374,0.0555419921875,-0.066375732421875,-0.44586181640625
1695713152128983300,8.1039833984375,0.146331787109375,0.17425537109375,-0.662689208984375
1695713152138535400,8.113535400390624,0.255584716796875,0.333709716796875,-0.86334228515625
1695713152148087300,8.12308740234375,0.333251953125,0.48248291015625,-1.078948974609375
1695713152157639400,8.132639404296874,0.33447265625,0.673675537109375,-1.311492919921875
1695713152167191300,8.14219140625,0.33966064453125,0.83251953125,-1.54388427734375
1695713152176743400,8.151743408203124,0.41351318359375,0.86944580078125,-1.838836669921875
1695713152186295300,8.16129541015625,0.37506103515625,0.869140625,-2.3309326171875
1695713152195817000,8.17081689453125,0.200347900390625,0.578155517578125,-2.9571533203125
1695713152205368800,8.180368896484374,0.08026123046875,-0.059967041015625,-3.424072265625
1695713152214921000,8.1899208984375,0.10711669921875,-0.683135986328125,-3.528594970703125
1695713152224472800,8.199472900390624,0.171966552734375,-1.00006103515625,-3.316650390625
1695713152233994200,8.208994140625,0.194244384765625,-0.9161376953125,-3.00201416015625
1695713152243546400,8.21854638671875,0.166778564453125,-0.5694580078125,-2.789764404296875
1695713152253098200,8.22809814453125,0.07598876953125,-0.2801513671875,-2.768707275390625
1695713152262650400,8.237650390625,-0.099029541015625,-0.22552490234375,-2.846832275390625
1695713152272202200,8.2472021484375,-0.341796875,-0.346221923828125,-2.885894775390625
1695713152281724000,8.256723876953124,-0.507965087890625,-0.450592041015625,-2.824249267578125
1695713152291275800,8.26627587890625,-0.521087646484375,-0.361480712890625,-2.67822265625
1695713152300828000,8.275827880859374,-0.476837158203125,0.10772705078125,-2.429046630859375
1695713152310379800,8.2853798828125,-0.3546142578125,0.670928955078125,-2.2735595703125
1695713152319901400,8.2949013671875,-0.234375,1.341094970703125,-2.2711181640625
1695713152329453300,8.304453369140624,-0.2264404296875,1.737518310546875,-2.454681396484375
1695713152339005400,8.31400537109375,-0.27740478515625,1.64398193359375,-2.6495361328125
1695713152348557300,8.323557373046874,-0.28594970703125,1.26007080078125,-2.73529052734375
1695713152358109400,8.333109375,-0.22125244140625,0.86151123046875,-2.6702880859375
1695713152367630800,8.342630859375,-0.103607177734375,0.665435791015625,-2.452850341796875
1695713152377182700,8.3521826171875,0.05126953125,0.657806396484375,-2.152557373046875
1695713152386734800,8.36173486328125,0.197906494140625,0.677642822265625,-1.88140869140625
1695713152396286700,8.37128662109375,0.3057861328125,0.685272216796875,-1.673736572265625
1695713152405808400,8.380808349609374,0.364990234375,0.784912109375,-1.5081787109375
1695713152415360300,8.3903603515625,0.38360595703125,0.926513671875,-1.358489990234375
1695713152424912400,8.399912353515624,0.3765869140625,1.063079833984375,-1.20361328125
1695713152434464300,8.40946435546875,0.3558349609375,1.163330078125,-1.037750244140625
1695713152444046800,8.419046875,0.3265380859375,1.17218017578125,-0.85601806640625
1695713152453568300,8.428568359375,0.303192138671875,1.101531982421875,-0.642852783203125
1695713152463120400,8.438120361328124,0.283966064453125,1.002655029296875,-0.380706787109375
1695713152472672300,8.44767236328125,0.260467529296875,0.86944580078125,-0.0775146484375
1695713152482224400,8.457224365234374,0.252227783203125,0.704498291015625,0.267333984375
1695713152491745800,8.466745849609374,0.276947021484375,0.53985595703125,0.635986328125
1695713152501298000,8.4762978515625,0.3509521484375,0.4010009765625,1.00677490234375
1695713152510849800,8.485849853515624,0.46295166015625,0.298004150390625,1.36932373046875
1695713152520402000,8.49540185546875,0.586395263671875,0.252532958984375,1.70501708984375
1695713152529953800,8.504953857421874,0.7025146484375,0.290374755859375,1.9854736328125
1695713152539475200,8.51447509765625,0.77728271484375,0.42236328125,2.151641845703125
1695713152549027300,8.52402734375,0.77850341796875,0.671234130859375,2.101898193359375
1695713152558579200,8.5335791015625,0.7037353515625,0.928955078125,1.756439208984375
1695713152568131300,8.54313134765625,0.599517822265625,1.131591796875,1.176605224609375
1695713152577652700,8.55265283203125,0.45989990234375,1.364593505859375,0.453948974609375
1695713152587204900,8.562204833984374,0.313720703125,1.49658203125,-0.5084228515625
1695713152596756700,8.5717568359375,0.133209228515625,1.50726318359375,-1.447601318359375
1695713152606308900,8.581308837890624,-0.00244140625,0.995025634765625,-1.87591552734375
1695713152615860700,8.59086083984375,0.09796142578125,-0.2166748046875,-1.58721923828125
1695713152625382400,8.60038232421875,0.276947021484375,-1.139068603515625,-1.057281494140625
1695713152634934300,8.609934326171874,0.274505615234375,-1.246337890625,-0.663909912109375
1695713152644499700,8.619499755859374,0.08209228515625,-0.8843994140625,-0.4791259765625
1695713152654051600,8.629051513671875,-0.062713623046875,-0.359649658203125,-0.4302978515625
1695713152663573000,8.638572998046875,-0.057525634765625,0.4638671875,-0.390167236328125
1695713152673125000,8.648125,-0.137786865234375,1.478271484375,-0.16815185546875
1695713152682677000,8.657677001953125,-0.34698486328125,2.21343994140625,0.397491455078125
1695713152692229000,8.66722900390625,-0.477752685546875,1.685333251953125,1.212158203125
1695713152701781000,8.676781005859375,-0.38665771484375,-0.6231689453125,1.483306884765625
1695713152711302700,8.686302734375,-0.223541259765625,-2.3822021484375,0.803375244140625
1695713152720885000,8.695885009765625,-0.2685546875,-0.52947998046875,-0.440673828125
1695713152730437000,8.70543701171875,0.03082275390625,0.313873291015625,-0.5755615234375
1695713152739989000,8.714989013671875,0.490570068359375,-1.297607421875,0.92498779296875
1695713152749510700,8.7245107421875,0.631561279296875,-1.69921875,2.02392578125
1695713152759062500,8.7340625,0.406494140625,-0.801849365234375,2.008056640625
1695713152768614700,8.74361474609375,0.10955810546875,0.093994140625,1.490020751953125
1695713152778166500,8.75316650390625,-0.078582763671875,-0.033721923828125,1.530303955078125
1695713152787718700,8.76271875,-0.075531005859375,-0.8612060546875,2.09869384765625
1695713152797240000,8.772239990234375,0.00091552734375,-1.6473388671875,2.625274658203125
1695713152806792200,8.781792236328124,0.09185791015625,-2.0062255859375,2.843170166015625
1695713152816344000,8.791343994140625,0.215911865234375,-1.9677734375,2.7191162109375
1695713152825896200,8.800896240234374,0.384521484375,-1.59942626953125,2.191619873046875
1695713152835417600,8.81041748046875,0.487518310546875,-0.99456787109375,1.6107177734375
1695713152844969500,8.819969482421875,0.508270263671875,-0.441131591796875,1.382904052734375
1695713152854521600,8.829521484375,0.521697998046875,-0.25177001953125,1.479339599609375
1695713152864073500,8.839073486328125,0.4632568359375,-0.48736572265625,1.668701171875
1695713152873625600,8.84862548828125,0.34759521484375,-0.810089111328125,1.789703369140625
1695713152883147000,8.85814697265625,0.208587646484375,-1.071929931640625,1.850433349609375
1695713152892699100,8.86769921875,0.074462890625,-1.2322998046875,1.865997314453125
1695713152902251000,8.8772509765625,-0.0372314453125,-1.22894287109375,1.851654052734375
1695713152911803100,8.88680322265625,-0.081939697265625,-1.040496826171875,1.809539794921875
1695713152921324500,8.896324462890625,-0.061187744140625,-0.793304443359375,1.734161376953125
1695713152930876400,8.90587646484375,0.01373291015625,-0.56365966796875,1.6436767578125
1695713152940428500,8.915428466796875,0.06561279296875,-0.440216064453125,1.57745361328125
1695713152949980400,8.92498046875,0.05828857421875,-0.446929931640625,1.531524658203125
1695713152959532500,8.934532470703125,0.0274658203125,-0.595703125,1.497344970703125
1695713152969054000,8.944053955078125,0.00640869140625,-0.796966552734375,1.454010009765625
1695713152978606000,8.953606201171874,-0.0140380859375,-0.95245361328125,1.396942138671875
1695713152988158000,8.963157958984375,-0.039215087890625,-1.014404296875,1.34124755859375
1695713152997710000,8.9727099609375,-0.065765380859375,-0.9503173828125,1.30859375
1695713153007262000,8.982261962890625,-0.099029541015625,-0.780487060546875,1.3140869140625
1695713153016814000,8.99181396484375,-0.144195556640625,-0.58441162109375,1.343994140625
1695713153026366000,9.001365966796875,-0.196685791015625,-0.416412353515625,1.37176513671875
1695713153035918000,9.01091796875,-0.25634765625,-0.2886962890625,1.389617919921875
1695713153045470000,9.020469970703125,-0.3125,-0.19500732421875,1.409454345703125
1695713153054991600,9.02999169921875,-0.36102294921875,-0.184326171875,1.429901123046875
1695713153064543500,9.03954345703125,-0.39764404296875,-0.30181884765625,1.444244384765625
1695713153074095600,9.049095703125,-0.411834716796875,-0.490264892578125,1.448516845703125
1695713153083647500,9.0586474609375,-0.423431396484375,-0.686492919921875,1.424713134765625
1695713153093169000,9.0681689453125,-0.439910888671875,-0.815277099609375,1.3507080078125
1695713153102721000,9.077720947265625,-0.457305908203125,-0.85235595703125,1.20880126953125
1695713153112273000,9.08727294921875,-0.479583740234375,-0.821075439453125,1.009521484375
1695713153121825000,9.096824951171875,-0.486907958984375,-0.811309814453125,0.785369873046875
1695713153131377200,9.106377197265624,-0.463714599609375,-0.807342529296875,0.59478759765625
1695713153140898600,9.115898681640624,-0.424652099609375,-0.735321044921875,0.460968017578125
1695713153150450400,9.125450439453125,-0.3912353515625,-0.6103515625,0.376129150390625
1695713153160002600,9.13500244140625,-0.374755859375,-0.5682373046875,0.325775146484375
1695713153169554400,9.144554443359375,-0.36346435546875,-0.64422607421875,0.2825927734375
1695713153179076000,9.154076171875,-0.32684326171875,-0.746002197265625,0.2252197265625
1695713153188628000,9.1636279296875,-0.24810791015625,-0.757598876953125,0.15350341796875
1695713153198180000,9.17318017578125,-0.165863037109375,-0.60516357421875,0.047760009765625
1695713153207732000,9.18273193359375,-0.103912353515625,-0.377349853515625,-0.0836181640625
1695713153217284000,9.1922841796875,-0.045623779296875,-0.18890380859375,-0.253143310546875
1695713153226805500,9.201805419921875,0.04119873046875,-0.083770751953125,-0.45562744140625
1695713153236357400,9.211357421875,0.121307373046875,-0.023040771484375,-0.641937255859375
1695713153245909500,9.220909423828125,0.178985595703125,0.14801025390625,-0.838623046875
1695713153255461400,9.23046142578125,0.238494873046875,0.46142578125,-1.061248779296875
1695713153264983000,9.239983154296874,0.299835205078125,0.7861328125,-1.3006591796875
1695713153274535000,9.249534912109375,0.35858154296875,0.986785888671875,-1.55609130859375
1695713153284087000,9.259087158203124,0.34759521484375,1.092376708984375,-1.86859130859375
1695713153293669600,9.268669677734374,0.273895263671875,1.12823486328125,-2.3291015625
1695713153303191000,9.27819091796875,0.182952880859375,0.9417724609375,-2.841644287109375
1695713153312743000,9.287742919921875,0.153350830078125,0.42266845703125,-3.205108642578125
1695713153322295000,9.297294921875,0.182342529296875,-0.22308349609375,-3.30108642578125
1695713153331847000,9.306846923828125,0.236053466796875,-0.680084228515625,-3.133697509765625
1695713153341399000,9.31639892578125,0.281524658203125,-0.749664306640625,-2.850494384765625
1695713153350920400,9.32592041015625,0.290069580078125,-0.5029296875,-2.61810302734375
1695713153360472600,9.33547265625,0.242767333984375,-0.2655029296875,-2.539215087890625
1695713153370024400,9.3450244140625,0.10772705078125,-0.277099609375,-2.561187744140625
1695713153379576600,9.35457666015625,-0.088043212890625,-0.4864501953125,-2.58392333984375
1695713153389128400,9.36412841796875,-0.216827392578125,-0.6634521484375,-2.559051513671875
1695713153398649900,9.37364990234375,-0.2484130859375,-0.58807373046875,-2.478179931640625
1695713153408202000,9.383201904296875,-0.31280517578125,-0.13824462890625,-2.2943115234375
1695713153417753900,9.39275390625,-0.3271484375,0.603485107421875,-2.066497802734375
1695713153427306000,9.402305908203125,-0.25360107421875,1.316986083984375,-2.058258056640625
1695713153436827400,9.411827392578125,-0.22491455078125,1.89727783203125,-2.2662353515625
1695713153446379500,9.421379638671874,-0.2734375,1.94549560546875,-2.540435791015625
1695713153455931400,9.430931396484375,-0.30914306640625,1.6387939453125,-2.69256591796875
1695713153465483500,9.4404833984375,-0.2679443359375,1.22222900390625,-2.6593017578125
1695713153475005000,9.4500048828125,-0.159149169921875,0.916748046875,-2.489776611328125
1695713153484557000,9.45955712890625,-0.01007080078125,0.7806396484375,-2.23907470703125
1695713153494109000,9.46910888671875,0.167999267578125,0.7635498046875,-1.97357177734375
1695713153503661000,9.4786611328125,0.34423828125,0.754852294921875,-1.747894287109375
1695713153513213000,9.488212890625,0.484619140625,0.76446533203125,-1.58203125
1695713153522734300,9.497734375,0.589447021484375,0.8917236328125,-1.465606689453125
1695713153532286500,9.507286376953125,0.634307861328125,1.067352294921875,-1.394500732421875
1695713153541838300,9.51683837890625,0.646820068359375,1.22802734375,-1.335296630859375
1695713153551390500,9.526390380859375,0.643157958984375,1.324310302734375,-1.2554931640625
1695713153560942300,9.5359423828125,0.624237060546875,1.334686279296875,-1.1358642578125
1695713153570464000,9.545464111328124,0.575714111328125,1.2493896484375,-0.961761474609375
1695713153580046300,9.55504638671875,0.511932373046875,1.089935302734375,-0.731658935546875
1695713153589598500,9.564598388671875,0.46295166015625,0.889892578125,-0.4351806640625
1695713153599150600,9.574150634765624,0.41900634765625,0.656280517578125,-0.0677490234375
1695713153608672000,9.583672119140624,0.40069580078125,0.44952392578125,0.342559814453125
1695713153618223900,9.593223876953125,0.4193115234375,0.309600830078125,0.763092041015625
1695713153627776000,9.60277587890625,0.45989990234375,0.238800048828125,1.159210205078125
1695713153637328000,9.612327880859375,0.510711669921875,0.20416259765625,1.492156982421875
1695713153646849500,9.621849609375,0.568695068359375,0.20263671875,1.733856201171875
1695713153656401400,9.6314013671875,0.609283447265625,0.251007080078125,1.848602294921875
1695713153665953500,9.64095361328125,0.614166259765625,0.39947509765625,1.769561767578125
1695713153675505400,9.65050537109375,0.587615966796875,0.658416748046875,1.486968994140625
1695713153685057500,9.6600576171875,0.550384521484375,0.954742431640625,1.090240478515625
1695713153694579000,9.669578857421875,0.515899658203125,1.316680908203125,0.52886962890625
1695713153704130800,9.679130859375,0.45806884765625,1.694793701171875,-0.279693603515625
1695713153713683000,9.688682861328125,0.389404296875,1.92657470703125,-1.079864501953125
1695713153723234800,9.69823486328125,0.355224609375,1.57623291015625,-1.465301513671875
1695713153732787000,9.707786865234375,0.39520263671875,0.599212646484375,-1.2841796875
1695713153742308400,9.717308349609375,0.43548583984375,-0.5035400390625,-0.78369140625
1695713153751860500,9.726860595703124,0.3887939453125,-0.92803955078125,-0.419921875
1695713153761412400,9.736412353515625,0.266876220703125,-0.56671142578125,-0.353240966796875
1695713153770964500,9.745964599609374,0.178070068359375,0.08758544921875,-0.455322265625
1695713153780486000,9.75548583984375,0.208282470703125,0.853271484375,-0.58074951171875
1695713153790038000,9.7650380859375,0.176849365234375,1.725311279296875,-0.49346923828125
1695713153799590000,9.77458984375,0.03570556640625,2.181549072265625,0.103607177734375
1695713153809142000,9.78414208984375,-0.109710693359375,1.038055419921875,1.053314208984375
1695713153818663400,9.793663330078125,-0.189056396484375,-1.63482666015625,1.488800048828125
1695713153828215300,9.80321533203125,-0.330810546875,-2.537689208984375,0.595703125
1695713153837767400,9.812767333984375,-0.479888916015625,0.389862060546875,-0.998992919921875
1695713153847319300,9.8223193359375,-0.202178955078125,1.13739013671875,-0.978851318359375
1695713153856871400,9.831871337890625,0.158538818359375,-0.579833984375,0.49957275390625
1695713153866423300,9.84142333984375,0.301971435546875,-0.750579833984375,1.431427001953125
1695713153875975400,9.850975341796875,0.215911865234375,-0.000762939453125,1.239013671875
1695713153885527300,9.86052734375,0.05096435546875,-0.13580322265625,0.977783203125
1695713153895079400,9.870079345703125,-0.129241943359375,-1.30218505859375,1.56951904296875
1695713153904600800,9.879600830078125,-0.145416259765625,-2.305908203125,2.43072509765625
1695713153914153000,9.889153076171874,-0.03814697265625,-2.6641845703125,2.983245849609375
1695713153923704800,9.898704833984375,0.0823974609375,-2.431640625,3.06976318359375
1695713153933257000,9.908257080078124,0.276031494140625,-2.0343017578125,2.6666259765625
1695713153942808800,9.917808837890625,0.4736328125,-1.5960693359375,2.02239990234375
1695713153952330500,9.92733056640625,0.555572509765625,-1.059417724609375,1.60125732421875
1695713153961882400,9.93688232421875,0.554962158203125,-0.60699462890625,1.514129638671875
1695713153971434500,9.9464345703125,0.512847900390625,-0.5096435546875,1.62750244140625
1695713153980986400,9.955986328125,0.40863037109375,-0.668487548828125,1.771087646484375
1695713153990507800,9.9655078125,0.248565673828125,-0.801544189453125,1.851654052734375
1695713154000060000,9.975059814453125,0.122222900390625,-0.89080810546875,1.853179931640625
1695713154009611800,9.98461181640625,0.03082275390625,-0.94207763671875,1.830596923828125
1695713154019164000,9.994163818359375,-0.058746337890625,-0.9271240234375,1.829986572265625
1695713154028715800,10.0037158203125,-0.103912353515625,-0.835723876953125,1.826019287109375
1695713154038237400,10.013237548828124,-0.077972412109375,-0.712127685546875,1.795501708984375
1695713154047789300,10.022789306640625,-0.01495361328125,-0.601806640625,1.742095947265625
1695713154057341400,10.032341552734374,0.01678466796875,-0.584716796875,1.63787841796875
1695713154066893300,10.041893310546875,0.035400390625,-0.6280517578125,1.523895263671875
1695713154076415000,10.0514150390625,0.04547119140625,-0.730438232421875,1.452484130859375
1695713154085966800,10.060966796875,0.0128173828125,-0.86944580078125,1.430206298828125
1695713154095519000,10.07051904296875,-0.037841796875,-1.00128173828125,1.428070068359375
1695713154105070800,10.08007080078125,-0.088958740234375,-1.080474853515625,1.416473388671875
1695713154114623000,10.089623046875,-0.136871337890625,-1.019287109375,1.398773193359375
1695713154124144400,10.099144287109375,-0.186309814453125,-0.833587646484375,1.371307373046875
1695713154133696300,10.1086962890625,-0.23193359375,-0.625,1.3372802734375
1695713154143248400,10.118248291015625,-0.27496337890625,-0.443878173828125,1.30706787109375
1695713154152831000,10.1278310546875,-0.32135009765625,-0.332183837890625,1.2738037109375
1695713154162352400,10.137352294921875,-0.3692626953125,-0.30517578125,1.2493896484375
1695713154171904300,10.146904296875,-0.411834716796875,-0.348968505859375,1.2548828125
1695713154181456400,10.156456298828125,-0.438995361328125,-0.428314208984375,1.2823486328125
1695713154191008300,10.16600830078125,-0.443878173828125,-0.5133056640625,1.30767822265625
1695713154200560400,10.175560302734375,-0.444488525390625,-0.58746337890625,1.297607421875
1695713154210081800,10.185081787109375,-0.448150634765625,-0.6402587890625,1.22802734375
1695713154219634000,10.194634033203124,-0.445709228515625,-0.675811767578125,1.084747314453125
1695713154229185800,10.204185791015625,-0.436553955078125,-0.675506591796875,0.89935302734375
1695713154238738000,10.213738037109374,-0.412445068359375,-0.64239501953125,0.718841552734375
1695713154248259300,10.22325927734375,-0.3717041015625,-0.58074951171875,0.57525634765625
1695713154257811500,10.2328115234375,-0.318603515625,-0.499267578125,0.471343994140625
1695713154267363300,10.24236328125,-0.28717041015625,-0.435638427734375,0.392913818359375
1695713154276915500,10.25191552734375,-0.28167724609375,-0.48431396484375,0.314178466796875
1695713154286467300,10.26146728515625,-0.29632568359375,-0.6109619140625,0.22247314453125
1695713154295988700,10.27098876953125,-0.3094482421875,-0.696563720703125,0.12939453125
1695713154305540900,10.280540771484375,-0.29693603515625,-0.714569091796875,0.048675537109375
1695713154315092700,10.2900927734375,-0.2734375,-0.66436767578125,-0.026092529296875
1695713154324644900,10.299644775390625,-0.2587890625,-0.55328369140625,-0.10345458984375
1695713154334166300,10.309166259765625,-0.25146484375,-0.399627685546875,-0.235748291015625
1695713154343718400,10.318718505859374,-0.2227783203125,-0.2532958984375,-0.44921875
1695713154353270300,10.328270263671875,-0.148773193359375,-0.13916015625,-0.706024169921875
1695713154362822400,10.337822509765624,-0.043792724609375,0.011138916015625,-0.980377197265625
1695713154372374300,10.347374267578125,0.07110595703125,0.302886962890625,-1.25091552734375
1695713154381896000,10.35689599609375,0.178680419921875,0.739593505859375,-1.5252685546875
1695713154391447800,10.36644775390625,0.258941650390625,1.18743896484375,-1.789398193359375
1695713154401000000,10.376,0.345458984375,1.442718505859375,-2.029571533203125
1695713154410551800,10.3855517578125,0.36224365234375,1.54937744140625,-2.37335205078125
1695713154420073200,10.3950732421875,0.252227783203125,1.439666748046875,-2.880401611328125
1695713154429625300,10.404625244140625,0.147552490234375,0.909423828125,-3.31787109375
1695713154439208000,10.4142080078125,0.131072998046875,0.118408203125,-3.476715087890625
1695713154448759800,10.423759765625,0.176544189453125,-0.533447265625,-3.33038330078125
1695713154458312000,10.43331201171875,0.179901123046875,-0.704803466796875,-3.0517578125
1695713154467833300,10.442833251953125,0.10833740234375,-0.412139892578125,-2.837066650390625
1695713154477385200,10.45238525390625,0.035400390625,-0.075531005859375,-2.770233154296875
1695713154486937300,10.461937255859375,-0.044403076171875,-0.092926025390625,-2.820281982421875
1695713154496489200,10.4714892578125,-0.176239013671875,-0.428314208984375,-2.870941162109375
1695713154506011000,10.481010986328124,-0.33172607421875,-0.770111083984375,-2.833099365234375
1695713154515562800,10.490562744140625,-0.456390380859375,-0.87738037109375,-2.68707275390625
1695713154525115000,10.500114990234374,-0.506134033203125,-0.51177978515625,-2.382049560546875
1695713154534666800,10.509666748046875,-0.36590576171875,0.252532958984375,-2.02117919921875
1695713154544219000,10.519218994140624,-0.104522705078125,1.040496826171875,-1.922607421875
1695713154553740300,10.528740234375,-0.01800537109375,1.580810546875,-2.122955322265625
1695713154563292400,10.53829248046875,-0.078582763671875,1.84967041015625,-2.36572265625
1695713154572844300,10.54784423828125,-0.130767822265625,1.834259033203125,-2.511138916015625
1695713154582396400,10.557396484375,-0.134124755859375,1.4892578125,-2.544708251953125
1695713154591917800,10.566917724609375,-0.075836181640625,1.146240234375,-2.423553466796875
1695713154601469700,10.5764697265625,0.045166015625,0.955352783203125,-2.164764404296875
1695713154611021800,10.586021728515625,0.195465087890625,0.82763671875,-1.8682861328125
1695713154620573700,10.59557373046875,0.34637451171875,0.782470703125,-1.58233642578125
1695713154630125800,10.605125732421875,0.458984375,0.8587646484375,-1.335601806640625
1695713154639647200,10.614647216796875,0.519561767578125,0.977935791015625,-1.14471435546875
1695713154649199400,10.624199462890624,0.529937744140625,1.040191650390625,-0.992889404296875
1695713154658751200,10.633751220703125,0.515899658203125,1.107940673828125,-0.841064453125
1695713154668303400,10.643303466796874,0.487823486328125,1.20574951171875,-0.680694580078125
1695713154677824800,10.65282470703125,0.460205078125,1.2445068359375,-0.52032470703125
1695713154687377000,10.662376953125,0.4315185546875,1.18499755859375,-0.345611572265625
1695713154696928800,10.6719287109375,0.40069580078125,1.069488525390625,-0.1385498046875
1695713154706481000,10.68148095703125,0.39154052734375,0.949249267578125,0.114288330078125
1695713154716032800,10.69103271484375,0.41717529296875,0.77972412109375,0.410308837890625
1695713154725585000,10.7005849609375,0.488739013671875,0.604095458984375,0.746002197265625
1695713154735136800,10.71013671875,0.586700439453125,0.48675537109375,1.096038818359375
1695713154744689000,10.71968896484375,0.6964111328125,0.4949951171875,1.435394287109375
1695713154754240800,10.72924072265625,0.83099365234375,0.615081787109375,1.743011474609375
1695713154763762200,10.73876220703125,0.978546142578125,0.75836181640625,1.98028564453125
1695713154773314300,10.748314208984375,1.08062744140625,0.926513671875,2.03033447265625
1695713154782866200,10.7578662109375,1.104736328125,1.096649169921875,1.7022705078125
1695713154792418300,10.767418212890625,1.06048583984375,1.083221435546875,0.9783935546875
1695713154801970200,10.77697021484375,0.884552001953125,1.109466552734375,0.14892578125
1695713154811491800,10.786491943359374,0.548553466796875,1.396331787109375,-0.634307861328125
1695713154821043700,10.796043701171875,0.223846435546875,1.468963623046875,-1.340484619140625
1695713154830595800,10.805595947265624,0.115966796875,0.89202880859375,-1.714019775390625
1695713154840147700,10.815147705078125,0.250701904296875,-0.19561767578125,-1.56097412109375
1695713154849669400,10.82466943359375,0.40771484375,-0.968017578125,-1.13189697265625
1695713154859221200,10.83422119140625,0.37200927734375,-0.9765625,-0.693817138671875
1695713154868773400,10.8437734375,0.149078369140625,-0.50445556640625,-0.339202880859375
1695713154878325200,10.8533251953125,-0.037841796875,-0.041351318359375,-0.08758544921875
1695713154887877400,10.86287744140625,-0.100250244140625,0.345001220703125,0.101165771484375
1695713154897398800,10.872398681640625,-0.104827880859375,0.84075927734375,0.23651123046875
1695713154906950700,10.88195068359375,-0.2569580078125,1.439971923828125,0.374298095703125
1695713154916502800,10.891502685546875,-0.528717041015625,1.9482421875,0.64453125
1695713154926054700,10.9010546875,-0.657958984375,1.761016845703125,1.35009765625
1695713154935576300,10.910576416015624,-0.499114990234375,0.333404541015625,1.800384521484375
1695713154945128200,10.920128173828125,0.02593994140625,-2.10174560546875,0.99029541015625
1695713154954680300,10.929680419921874,0.237884521484375,-2.524261474609375,-0.0677490234375
1695713154964232200,10.939232177734375,0.408935546875,-0.1922607421875,-0.718231201171875
1695713154973784300,10.948784423828124,0.886077880859375,0.10162353515625,-0.07965087890625
1695713154983305700,10.9583056640625,1.215972900390625,-1.6461181640625,1.585693359375
1695713154992857900,10.96785791015625,1.0235595703125,-2.081298828125,2.553558349609375
1695713155002409700,10.97740966796875,0.500946044921875,-1.20849609375,2.40325927734375
1695713155011992300,10.986992431640624,-0.03021240234375,0.1611328125,1.507720947265625
1695713155021513700,10.996513671875,-0.394287109375,0.607757568359375,1.154937744140625
1695713155031065900,11.00606591796875,-0.546417236328125,-0.107269287109375,1.64520263671875
1695713155040617700,11.01561767578125,-0.6060791015625,-1.122283935546875,2.271575927734375
1695713155050169900,11.025169921875,-0.529937744140625,-1.95556640625,2.608489990234375
1695713155059691300,11.034691162109375,-0.23223876953125,-2.32086181640625,2.539825439453125
1695713155069243100,11.0442431640625,0.127105712890625,-1.806182861328125,2.117156982421875
1695713155078795300,11.053795166015625,0.430908203125,-0.837554931640625,1.57196044921875
1695713155088347100,11.06334716796875,0.605010986328125,-0.1806640625,1.31683349609375
1695713155097899300,11.072899169921875,0.644378662109375,-0.065765380859375,1.29302978515625
1695713155107420700,11.082420654296875,0.550994873046875,-0.20416259765625,1.381988525390625
1695713155116972800,11.091972900390624,0.3692626953125,-0.50537109375,1.543731689453125
1695713155126524700,11.101524658203125,0.186309814453125,-0.94940185546875,1.7193603515625
1695713155136076800,11.111076904296874,0.052490234375,-1.3006591796875,1.776885986328125
1695713155145628700,11.120628662109375,0.03570556640625,-1.314697265625,1.767425537109375
1695713155155150300,11.130150390625,0.131683349609375,-0.97930908203125,1.766204833984375
1695713155164702200,11.1397021484375,0.232391357421875,-0.676422119140625,1.739349365234375
1695713155174254300,11.14925439453125,0.248565673828125,-0.56427001953125,1.656494140625
1695713155183806200,11.15880615234375,0.196685791015625,-0.58990478515625,1.539764404296875
1695713155193327600,11.16832763671875,0.10711669921875,-0.684051513671875,1.425018310546875
1695713155202879700,11.177879638671875,0.01007080078125,-0.841827392578125,1.318359375
1695713155212431600,11.187431640625,-0.070037841796875,-0.9906005859375,1.23443603515625
1695713155221983700,11.196983642578125,-0.134429931640625,-1.045379638671875,1.199951171875
1695713155231535600,11.20653564453125,-0.169525146484375,-0.97808837890625,1.20208740234375
1695713155241057300,11.216057373046874,-0.180206298828125,-0.800018310546875,1.22222900390625
1695713155250609200,11.225609130859375,-0.195159912109375,-0.61981201171875,1.2432861328125
1695713155260161300,11.235161376953124,-0.230712890625,-0.52978515625,1.25274658203125
1695713155269713200,11.244713134765625,-0.27862548828125,-0.468292236328125,1.26617431640625
1695713155279234800,11.25423486328125,-0.3271484375,-0.397491455078125,1.2774658203125
1695713155288786700,11.26378662109375,-0.37445068359375,-0.370941162109375,1.280517578125
1695713155298369300,11.273369384765624,-0.409393310546875,-0.428314208984375,1.28143310546875
1695713155307921200,11.282921142578125,-0.419769287109375,-0.51483154296875,1.28692626953125
1695713155317473300,11.292473388671874,-0.414581298828125,-0.58624267578125,1.2811279296875
1695713155326994700,11.30199462890625,-0.405731201171875,-0.62713623046875,1.24114990234375
1695713155336546800,11.311546875,-0.408172607421875,-0.65155029296875,1.151885986328125
1695713155346098700,11.3210986328125,-0.430755615234375,-0.6671142578125,1.01837158203125
1695713155355650800,11.33065087890625,-0.459136962890625,-0.686187744140625,0.853271484375
1695713155365172200,11.340172119140625,-0.473175048828125,-0.709381103515625,0.688018798828125
1695713155374724000,11.34972412109375,-0.446929931640625,-0.718231201171875,0.5438232421875
1695713155384276200,11.359276123046875,-0.37933349609375,-0.666656494140625,0.439910888671875
1695713155393828000,11.368828125,-0.30517578125,-0.5657958984375,0.381011962890625
1695713155403349800,11.378349853515624,-0.2557373046875,-0.49835205078125,0.351715087890625
1695713155412901600,11.387901611328125,-0.2325439453125,-0.5633544921875,0.309295654296875
1695713155422453800,11.397453857421874,-0.219268798828125,-0.753326416015625,0.22705078125
1695713155432005600,11.407005615234375,-0.198211669921875,-0.9564208984375,0.1129150390625
1695713155441557800,11.416557861328124,-0.170745849609375,-1.048736572265625,0.004730224609375
1695713155451079200,11.4260791015625,-0.152435302734375,-1.00372314453125,-0.0836181640625
1695713155460631300,11.43563134765625,-0.169219970703125,-0.827484130859375,-0.18646240234375
1695713155470183200,11.44518310546875,-0.207061767578125,-0.58319091796875,-0.330963134765625
1695713155479735300,11.4547353515625,-0.200958251953125,-0.384368896484375,-0.565185546875
1695713155489256700,11.464256591796875,-0.115203857421875,-0.2447509765625,-0.86822509765625
1695713155498808600,11.47380859375,0.0213623046875,-0.081634521484375,-1.17401123046875
1695713155508360700,11.483360595703125,0.162200927734375,0.21087646484375,-1.454315185546875
1695713155517912600,11.49291259765625,0.291290283203125,0.652923583984375,-1.731414794921875
1695713155527464700,11.502464599609375,0.35614013671875,1.12823486328125,-1.9873046875
1695713155536986000,11.511986083984375,0.37567138671875,1.446075439453125,-2.259521484375
1695713155546538200,11.521538330078124,0.36376953125,1.51214599609375,-2.63763427734375
1695713155556090000,11.531090087890625,0.291595458984375,1.299285888671875,-3.04443359375
1695713155565642200,11.540642333984374,0.237274169921875,0.819091796875,-3.32611083984375
1695713155575163600,11.55016357421875,0.213165283203125,0.254058837890625,-3.4063720703125
1695713155584746200,11.559746337890624,0.166168212890625,-0.152587890625,-3.3221435546875
1695713155594298000,11.569298095703125,0.08697509765625,-0.27008056640625,-3.155059814453125
1695713155603850200,11.578850341796874,0.01190185546875,-0.14434814453125,-2.98583984375
1695713155613402000,11.588402099609375,-0.025634765625,-0.111541748046875,-2.857208251953125
1695713155622923800,11.597923828125,-0.084991455078125,-0.433502197265625,-2.770538330078125
1695713155632475600,11.6074755859375,-0.139312744140625,-0.93109130859375,-2.68463134765625
1695713155642027800,11.61702783203125,-0.171966552734375,-1.25244140625,-2.534332275390625
1695713155651579600,11.62657958984375,-0.24658203125,-1.104583740234375,-2.28790283203125
1695713155661101000,11.63610107421875,-0.3143310546875,-0.392913818359375,-2.01019287109375
1695713155670653200,11.645653076171875,-0.138702392578125,0.5096435546875,-1.89453125
1695713155680205000,11.655205078125,0.1116943359375,1.5411376953125,-1.9512939453125
1695713155689757200,11.664757080078125,0.153350830078125,2.30682373046875,-2.192535400390625
1695713155699309000,11.67430908203125,0.0634765625,2.6226806640625,-2.427215576171875
1695713155708830700,11.683830810546874,-0.0244140625,2.508697509765625,-2.567138671875
1695713155718382600,11.693382568359375,-0.058441162109375,2.066192626953125,-2.6019287109375
1695713155727934700,11.702934814453124,-0.0201416015625,1.6259765625,-2.480010986328125
1695713155737486600,11.712486572265625,0.09735107421875,1.324920654296875,-2.190399169921875
1695713155747008300,11.72200830078125,0.255584716796875,1.12945556640625,-1.834869384765625
1695713155756560100,11.73156005859375,0.43487548828125,1.035919189453125,-1.4849853515625
1695713155766112300,11.7411123046875,0.587005615234375,1.005706787109375,-1.19537353515625
1695713155775664000,11.7506640625,0.68084716796875,1.042327880859375,-0.965423583984375
1695713155785216300,11.76021630859375,0.69793701171875,1.17584228515625,-0.79437255859375
1695713155794737700,11.769737548828125,0.6719970703125,1.317291259765625,-0.678253173828125
1695713155804289500,11.77928955078125,0.629119873046875,1.377410888671875,-0.582733154296875
1695713155813841700,11.788841552734375,0.572357177734375,1.376190185546875,-0.47119140625
1695713155823393500,11.7983935546875,0.522308349609375,1.314544677734375,-0.320281982421875
1695713155832915200,11.807915283203124,0.489044189453125,1.2005615234375,-0.135498046875
1695713155842467000,11.817467041015625,0.4693603515625,1.042022705078125,0.090179443359375
1695713155852019200,11.827019287109374,0.4791259765625,0.8587646484375,0.360565185546875
1695713155861571000,11.836571044921875,0.522613525390625,0.687408447265625,0.664520263671875
1695713155871153700,11.846153564453125,0.597686767578125,0.5523681640625,0.98388671875
1695713155880675000,11.855675048828125,0.68603515625,0.48828125,1.3153076171875
1695713155890227200,11.865227294921874,0.7830810546875,0.5279541015625,1.636962890625
1695713155899779000,11.874779052734375,0.891876220703125,0.648345947265625,1.915130615234375
1695713155909331200,11.884331298828124,0.980987548828125,0.810546875,2.06878662109375
1695713155918852600,11.8938525390625,0.998687744140625,0.965423583984375,1.95648193359375
1695713155928404700,11.90340478515625,0.946197509765625,1.004791259765625,1.503143310546875
1695713155937956600,11.91295654296875,0.82733154296875,0.902099609375,0.778045654296875
1695713155947508700,11.9225087890625,0.621795654296875,1.015472412109375,-0.0640869140625
1695713155957060600,11.932060546875,0.34912109375,1.337738037109375,-0.94207763671875
1695713155966582000,11.94158203125,0.146636962890625,1.314544677734375,-1.58782958984375
1695713155976134100,11.951134033203125,0.133819580078125,0.44921875,-1.657257080078125
1695713155985686000,11.96068603515625,0.227813720703125,-0.684051513671875,-1.2481689453125
1695713155995238100,11.970238037109375,0.277862548828125,-1.166534423828125,-0.78826904296875
1695713156004759600,11.979759521484375,0.181427001953125,-0.89691162109375,-0.51177978515625
1695713156014311700,11.989311767578124,0.0189208984375,-0.327301025390625,-0.398712158203125
1695713156023863600,11.998863525390625,-0.063018798828125,0.307769775390625,-0.294036865234375
1695713156033415700,12.008415771484374,-0.172271728515625,1.104583740234375,-0.062255859375
1695713156042967600,12.017967529296875,-0.431060791015625,1.687469482421875,0.2978515625
1695713156052489200,12.0274892578125,-0.65521240234375,1.53411865234375,0.89111328125
1695713156062041000,12.037041015625,-0.65155029296875,0.4266357421875,1.415557861328125
1695713156071593200,12.04659326171875,-0.29754638671875,-1.34552001953125,1.01715087890625
1695713156081145000,12.05614501953125,-0.009765625,-1.93939208984375,-0.005035400390625
1695713156090666500,12.06566650390625,0.194854736328125,-0.55999755859375,-0.738372802734375
1695713156100218600,12.075218505859375,0.568389892578125,0.0335693359375,-0.306549072265625
1695713156109770500,12.0847705078125,0.850982666015625,-1.041412353515625,1.185760498046875
1695713156119322600,12.094322509765625,0.76568603515625,-1.6265869140625,2.160797119140625
1695713156128874500,12.10387451171875,0.39642333984375,-1.2158203125,2.192230224609375
1695713156138396200,12.113396240234374,0.02044677734375,-0.444488525390625,1.69097900390625
1695713156147948000,12.122947998046875,-0.177154541015625,-0.088043212890625,1.486053466796875
1695713156157530600,12.132530517578125,-0.222015380859375,-0.408782958984375,1.766815185546875
1695713156167082500,12.14208251953125,-0.170745849609375,-1.0223388671875,2.131805419921875
1695713156176604200,12.151604248046874,-0.072174072265625,-1.548309326171875,2.27935791015625
1695713156186156000,12.161156005859375,0.08819580078125,-1.5618896484375,2.141571044921875
1695713156195708200,12.170708251953124,0.32073974609375,-1.085357666015625,1.772003173828125
1695713156205260000,12.180260009765625,0.502166748046875,-0.6463623046875,1.474456787109375
1695713156214812200,12.189812255859374,0.597686767578125,-0.50048828125,1.428375244140625
1695713156224333600,12.19933349609375,0.592498779296875,-0.57403564453125,1.522369384765625
1695713156233885700,12.2088857421875,0.490570068359375,-0.800018310546875,1.66717529296875
1695713156243437600,12.2184375,0.34912109375,-1.137542724609375,1.819610595703125
1695713156252989700,12.22798974609375,0.204315185546875,-1.500396728515625,1.9366455078125
1695713156262511000,12.237510986328125,0.0994873046875,-1.69677734375,1.99432373046875
1695713156272063000,12.24706298828125,0.07049560546875,-1.61865234375,1.98883056640625
1695713156281615000,12.256614990234375,0.121002197265625,-1.324462890625,1.93389892578125
1695713156291167000,12.2661669921875,0.213470458984375,-1.02203369140625,1.835479736328125
1695713156300719000,12.275718994140625,0.223236083984375,-0.814361572265625,1.71722412109375
1695713156310240500,12.285240478515625,0.130157470703125,-0.760650634765625,1.5966796875
1695713156319792600,12.294792724609374,0.0286865234375,-0.821685791015625,1.484222412109375
1695713156329344500,12.304344482421875,-0.055389404296875,-0.91552734375,1.390838623046875
1695713156338896600,12.313896728515624,-0.118560791015625,-0.96588134765625,1.32598876953125
1695713156348418000,12.32341796875,-0.161590576171875,-0.91064453125,1.31683349609375
1695713156357970000,12.332969970703125,-0.186309814453125,-0.768890380859375,1.3519287109375
1695713156367522000,12.34252197265625,-0.198516845703125,-0.6396484375,1.389617919921875
1695713156377074200,12.35207421875,-0.213775634765625,-0.5450439453125,1.386566162109375
1695713156386626000,12.3616259765625,-0.2459716796875,-0.446014404296875,1.3531494140625
1695713156396147500,12.3711474609375,-0.28656005859375,-0.368804931640625,1.32598876953125
1695713156405699600,12.380699462890625,-0.31951904296875,-0.362396240234375,1.32720947265625
1695713156415251500,12.39025146484375,-0.3472900390625,-0.428924560546875,1.35467529296875
1695713156424803600,12.399803466796875,-0.367431640625,-0.52093505859375,1.375732421875
1695713156434325000,12.409324951171875,-0.379638671875,-0.61767578125,1.3629150390625
1695713156443907600,12.418907470703125,-0.37109375,-0.717010498046875,1.295166015625
1695713156453459500,12.42845947265625,-0.35797119140625,-0.783233642578125,1.167449951171875
1695713156463011600,12.438011474609375,-0.3765869140625,-0.787811279296875,1.004638671875
1695713156472563500,12.4475634765625,-0.430145263671875,-0.790863037109375,0.836029052734375
1695713156482085000,12.457085205078124,-0.487823486328125,-0.842132568359375,0.673370361328125
1695713156491637000,12.466636962890625,-0.504913330078125,-0.92315673828125,0.521240234375
1695713156501189000,12.476189208984374,-0.451812744140625,-0.9661865234375,0.383758544921875
1695713156510741000,12.485740966796875,-0.3594970703125,-0.889892578125,0.2850341796875
1695713156520262400,12.495262451171875,-0.2801513671875,-0.745697021484375,0.233154296875
1695713156529814500,12.504814453125,-0.2410888671875,-0.673065185546875,0.19775390625
1695713156539366700,12.51436669921875,-0.235595703125,-0.738067626953125,0.13427734375
1695713156548918500,12.52391845703125,-0.22674560546875,-0.840606689453125,0.042266845703125
1695713156558470700,12.533470703125,-0.203094482421875,-0.89263916015625,-0.0634765625
1695713156567992000,12.542991943359375,-0.174407958984375,-0.839996337890625,-0.18157958984375
1695713156577544000,12.5525439453125,-0.145721435546875,-0.653076171875,-0.318450927734375
1695713156587096000,12.562095947265625,-0.108795166015625,-0.365447998046875,-0.49041748046875
1695713156596648000,12.57164794921875,-0.03631591796875,-0.15167236328125,-0.692596435546875
1695713156606169600,12.581169677734374,0.0567626953125,-0.064849853515625,-0.91217041015625
1695713156615721500,12.590721435546875,0.133514404296875,0.004730224609375,-1.15386962890625
1695713156625273600,12.600273681640624,0.193328857421875,0.20111083984375,-1.449432373046875
1695713156634825500,12.609825439453125,0.239715576171875,0.5230712890625,-1.783294677734375
1695713156644377600,12.619377685546874,0.282745361328125,0.79132080078125,-2.134857177734375
1695713156653899000,12.62889892578125,0.284271240234375,0.89263916015625,-2.57843017578125
1695713156663451000,12.638450927734375,0.207366943359375,0.7928466796875,-3.07098388671875
1695713156673003000,12.6480029296875,0.174713134765625,0.43243408203125,-3.43017578125
1695713156682555000,12.657554931640625,0.225067138671875,-0.108184814453125,-3.533172607421875
1695713156692076500,12.66707666015625,0.270843505859375,-0.511474609375,-3.40789794921875
1695713156701628400,12.67662841796875,0.237884521484375,-0.54901123046875,-3.191070556640625
1695713156711180500,12.6861806640625,0.152130126953125,-0.20751953125,-3.0194091796875
1695713156720732400,12.695732421875,0.07080078125,0.1483154296875,-2.94952392578125
1695713156730315000,12.70531494140625,-0.041961669921875,0.1336669921875,-2.9412841796875
1695713156739836400,12.71483642578125,-0.203399658203125,-0.20538330078125,-2.904205322265625
1695713156749388500,12.724388427734375,-0.37750244140625,-0.5841064453125,-2.780609130859375
1695713156758940400,12.7339404296875,-0.487823486328125,-0.728912353515625,-2.5653076171875
1695713156768492500,12.743492431640625,-0.528106689453125,-0.428619384765625,-2.27630615234375
1695713156778014000,12.753013916015625,-0.3955078125,0.279693603515625,-2.0208740234375
1695713156787566000,12.762566162109374,-0.196685791015625,1.1260986328125,-1.9683837890625
1695713156797118000,12.772117919921875,-0.105133056640625,1.750640869140625,-2.174530029296875
1695713156806670000,12.781670166015624,-0.126800537109375,2.01019287109375,-2.441558837890625
1695713156816222000,12.791221923828125,-0.164031982421875,1.92962646484375,-2.6043701171875
1695713156825743400,12.800743408203125,-0.145111083984375,1.624755859375,-2.6324462890625
1695713156835295500,12.81029541015625,-0.056915283203125,1.304473876953125,-2.512664794921875
1695713156844847400,12.819847412109375,0.08392333984375,1.083831787109375,-2.2454833984375
1695713156854399500,12.8293994140625,0.255279541015625,0.946197509765625,-1.9122314453125
1695713156863921000,12.8389208984375,0.4254150390625,0.863037109375,-1.58294677734375
1695713156873473000,12.84847314453125,0.551300048828125,0.8721923828125,-1.313629150390625
1695713156883025000,12.85802490234375,0.615692138671875,0.972747802734375,-1.114349365234375
1695713156892577000,12.867576904296875,0.637359619140625,1.062164306640625,-0.962982177734375
1695713156902129000,12.87712890625,0.620574951171875,1.14959716796875,-0.823974609375
1695713156911650600,12.886650634765624,0.580902099609375,1.19384765625,-0.687103271484375
1695713156921202400,12.896202392578125,0.539703369140625,1.16485595703125,-0.5218505859375
1695713156930754600,12.905754638671874,0.498504638671875,1.106109619140625,-0.317230224609375
1695713156940306400,12.915306396484375,0.46295166015625,1.044158935546875,-0.062255859375
1695713156949827800,12.924827880859375,0.45074462890625,0.937042236328125,0.233154296875
1695713156959380000,12.9343798828125,0.47271728515625,0.7672119140625,0.572509765625
1695713156968931800,12.943931884765625,0.521392822265625,0.599517822265625,0.94879150390625
1695713156978484000,12.95348388671875,0.582733154296875,0.487060546875,1.339111328125
1695713156988005400,12.96300537109375,0.651702880859375,0.460205078125,1.71600341796875
