time,seconds_elapsed,z,y,x
1695713187018345000,0.158344970703125,0,0,0
1695713187028394200,0.168394287109375,0.27609729766845703,-0.6760568618774414,1.2278066873550415
1695713187038402000,0.178402099609375,0.00682830810546875,-0.13471126556396484,1.4387632608413696
1695713187048523000,0.18852294921875,-0.5567970275878906,0.21604537963867188,1.067824363708496
1695713187058644000,0.19864404296875,-0.8237242698669434,0.16931915283203125,0.7918128967285156
1695713187068651800,0.20865185546875,-0.9217448234558105,0.18493938446044922,0.2265690565109253
1695713187078659600,0.21865966796875,-1.1433491706848145,-0.1577463150024414,0.07989263534545898
1695713187088749600,0.22874951171875,-1.0718493461608887,-0.09282588958740234,-0.3738279342651367
1695713187098757400,0.23875732421875,-0.8681268692016602,-0.22780895233154297,-0.7140997648239136
1695713187108661800,0.248661865234375,-0.8361787796020508,-0.33911991119384766,-0.8119803071022034
1695713187118621000,0.258620849609375,-0.33260202407836914,-0.20965337753295898,-0.48002660274505615
1695713187128687900,0.26868798828125,0.33764076232910156,0.03180074691772461,0.2195420265197754
1695713187138692900,0.27869287109375,1.062425136566162,0.32770204544067383,0.5686991214752197
1695713187148750300,0.288750244140625,1.6895122528076172,0.4046354293823242,0.7711074352264404
1695713187158777300,0.29877734375,1.5924224853515625,0.3749713897705078,1.083079218864441
1695713187168829400,0.308829345703125,1.7898426055908203,-0.2975010871887207,1.894376516342163
1695713187178867200,0.3188671875,1.6524219512939453,-0.10837125778198242,1.435063362121582
1695713187188904400,0.328904541015625,0.8652763366699219,-0.6375093460083008,1.0149788856506348
1695713187198941700,0.338941650390625,0.93896484375,-0.5085325241088867,0.6073088645935059
1695713187208964000,0.348964111328125,0.6121301651000977,-0.8277344703674316,0.35241007804870605
1695713187218995000,0.358994873046875,0.6057157516479492,-1.1127781867980957,0.08820319175720215
1695713187229022700,0.369022705078125,0.8899774551391602,-1.232264518737793,-0.4504821300506592
1695713187239052300,0.37905224609375,0.9433965682983398,-1.3358941078186035,-1.1059867143630981
1695713187249086000,0.3890859375,0.7092838287353516,-1.8293004035949707,-1.3485076427459717
1695713187259117300,0.399117431640625,0.10840034484863281,-2.0082008838653564,-1.3521006107330322
1695713187269150500,0.409150390625,-0.6609320640563965,-2.5699470043182373,-1.3626539707183838
1695713187279182600,0.4191826171875,-1.6422114372253418,-3.129796028137207,-1.6123714447021484
1695713187289213400,0.42921337890625,-2.6994056701660156,-3.5132009983062744,-2.0362186431884766
1695713187299245000,0.4392451171875,-2.8663229942321777,-4.416469573974609,-3.2451181411743164
1695713187309277400,0.44927734375,-2.7771153450012207,-4.083047389984131,-3.9300243854522705
1695713187319309300,0.459309326171875,-2.5035319328308105,-6.1171088218688965,-3.8534443378448486
1695713187329340400,0.46934033203125,-1.8989968299865723,-5.613794326782227,-5.3467936515808105
1695713187339372000,0.4793720703125,-2.2641167640686035,-7.436840534210205,-5.971436023712158
1695713187349435600,0.489435546875,-2.42543888092041,-8.076805114746094,-6.800229549407959
1695713187359480800,0.499480712890625,-2.7733356952667236,-8.254518508911133,-7.146910667419434
1695713187369501000,0.5095009765625,-3.2428970336914062,-8.807137489318848,-6.387906551361084
1695713187379535600,0.51953564453125,-3.4999186992645264,-9.424562454223633,-5.265336036682129
1695713187389568300,0.529568359375,-3.4982845783233643,-9.50764274597168,-4.168649196624756
1695713187399602000,0.539601806640625,-2.952820062637329,-9.660150527954102,-3.3269591331481934
1695713187409630500,0.54963037109375,-2.4311444759368896,-9.824475288391113,-2.8327362537384033
1695713187419663600,0.55966357421875,-2.0437381267547607,-9.308727264404297,-2.330538272857666
1695713187429658600,0.56965869140625,-2.781888484954834,-9.354453086853027,-0.16811132431030273
1695713187439688000,0.57968798828125,-3.3411357402801514,-9.862594604492188,3.033383846282959
1695713187449758500,0.589758544921875,-1.4718167781829834,-7.512807846069336,3.978464126586914
1695713187459792000,0.5997919921875,-0.23526835441589355,-5.19602632522583,4.974741458892822
1695713187469788400,0.609788330078125,1.975548505783081,-5.012800693511963,5.676208972930908
1695713187479818200,0.619818359375,4.271020889282227,-2.772510051727295,4.8911614418029785
1695713187489890600,0.629890625,5.40103006362915,-0.016774654388427734,5.78883171081543
1695713187499924700,0.6399248046875,5.293379783630371,0.06412649154663086,8.601048469543457
1695713187509938700,0.649938720703125,5.616344451904297,-0.3437926769256592,12.724503517150879
1695713187519970600,0.659970458984375,5.802624225616455,0.24239826202392578,15.513333320617676
1695713187530150700,0.670150634765625,5.836513042449951,2.016157865524292,16.192489624023438
1695713187540182800,0.680182861328125,5.264508247375488,3.165818214416504,15.85062026977539
1695713187550069000,0.690069091796875,3.6895534992218018,3.1732139587402344,15.289290428161621
1695713187560089300,0.70008935546875,1.0950927734375,3.81164813041687,15.529916763305664
1695713187570134000,0.710134033203125,-3.2061939239501953,3.783815622329712,14.90316104888916
1695713187580156700,0.72015673828125,-6.753535270690918,4.9850969314575195,13.25405216217041
1695713187590205400,0.730205322265625,-9.922126770019531,6.94626522064209,12.211345672607422
1695713187600231000,0.74023095703125,-12.637600898742676,7.240419387817383,12.091209411621094
1695713187610260700,0.7502607421875,-15.005176544189453,7.436668395996094,11.844554901123047
1695713187620286500,0.760286376953125,-17.648624420166016,7.666802406311035,10.578507423400879
1695713187630325500,0.770325439453125,-25.314956665039062,7.172816276550293,10.780545234680176
1695713187640352500,0.7803525390625,-56.506507873535156,-0.007623434066772461,14.499133110046387
1695713187650391300,0.790391357421875,-4.476120948791504,16.210308074951172,-0.013449668884277344
1695713187660419600,0.800419677734375,-1.7270641326904297,4.621888637542725,2.089724540710449
1695713187670461400,0.81046142578125,4.628657817840576,0.45507264137268066,2.9504880905151367
1695713187680491300,0.8204912109375,6.485807418823242,1.7448432445526123,-0.2431812286376953
1695713187690519300,0.830519287109375,-5.218326091766357,1.5494787693023682,-3.709745407104492
1695713187700548600,0.840548583984375,-10.648651123046875,3.3283722400665283,-2.4127702713012695
1695713187710595800,0.850595947265625,-1.9458231925964355,5.610416412353516,-0.3048515319824219
1695713187720627200,0.860627197265625,7.082828044891357,3.37886118888855,2.3653030395507812
1695713187730658600,0.870658447265625,10.043397903442383,-0.8763368129730225,0.4181547164916992
1695713187740690000,0.88068994140625,3.302328109741211,2.3890016078948975,-2.7002830505371094
1695713187750721300,0.89072119140625,1.2494332790374756,1.3527227640151978,-0.39262866973876953
1695713187760752400,0.90075244140625,-1.7806541919708252,1.0754923820495605,0.007405281066894531
1695713187770799000,0.910799072265625,1.7341854572296143,1.3118008375167847,1.5923871994018555
1695713187780831700,0.920831787109375,4.439236640930176,-1.6773340702056885,2.3580703735351562
1695713187790857200,0.930857177734375,3.2703120708465576,-1.5154469013214111,0.5278663635253906
1695713187800889300,0.940889404296875,2.343780994415283,-1.765324354171753,0.6284399032592773
1695713187810910700,0.95091064453125,0.18314379453659058,-1.4601469039916992,-0.14820098876953125
1695713187820941800,0.96094189453125,3.560607671737671,-2.5330967903137207,2.5467634201049805
1695713187830979000,0.97097900390625,2.802842140197754,-5.725430488586426,1.156808853149414
1695713187841010700,0.9810107421875,1.1901775598526,-5.93055534362793,-1.1240949630737305
1695713187851049200,0.99104931640625,0.8084896802902222,-7.88781213760376,-2.3888611793518066
1695713187861081600,1.00108154296875,-0.18100011348724365,-10.525972366333008,-2.628169059753418
1695713187871082500,1.01108251953125,-1.0258371829986572,-11.701678276062012,-3.199392318725586
1695713187881111800,1.02111181640625,-1.4939396381378174,-11.373966217041016,-2.567352294921875
1695713187891162000,1.031162109375,-1.709365725517273,-9.24421501159668,-1.8427529335021973
1695713187901193500,1.041193359375,-2.2200121879577637,-5.334062099456787,-2.4550981521606445
1695713187911227400,1.051227294921875,-2.5944621562957764,-0.6862587928771973,-3.575685501098633
1695713187921259000,1.061259033203125,-1.5499556064605713,1.4721715450286865,-4.2346625328063965
1695713187931292000,1.0712919921875,0.08680260181427002,1.7663042545318604,-4.216733455657959
1695713187941323500,1.081323486328125,0.6625062823295593,1.6954070329666138,-3.713167667388916
1695713187951356000,1.09135595703125,-1.3740451335906982,0.49642062187194824,-3.095794677734375
1695713187961387800,1.1013876953125,1.5357908010482788,0.5042765140533447,-3.2437143325805664
1695713187971400000,1.11139990234375,4.294615268707275,1.3444743156433105,-3.5802054405212402
1695713187981429800,1.1214296875,4.790193557739258,1.0626025199890137,-3.3375630378723145
1695713187991494100,1.131494140625,3.226553201675415,-0.2768397331237793,-2.7117199897766113
1695713188001527300,1.14152734375,1.8201545476913452,-1.077458381652832,-1.7107186317443848
1695713188011549000,1.151548828125,-0.72052401304245,-2.643554210662842,0.05793476104736328
1695713188021581000,1.1615810546875,-3.9089744091033936,-5.358303546905518,2.761381149291992
1695713188031619800,1.171619873046875,-3.3510661125183105,-7.543763160705566,5.989490032196045
1695713188041652700,1.18165283203125,0.1004781723022461,-7.28049898147583,7.368561267852783
1695713188051692300,1.1916923828125,2.11997652053833,-4.952857971191406,6.990100860595703
1695713188061726000,1.201725830078125,2.1033713817596436,-0.24634218215942383,4.453510284423828
1695713188071730000,1.21172998046875,0.7878898978233337,1.9081144332885742,1.9403491020202637
1695713188081760500,1.221760498046875,0.01928269863128662,0.8784360885620117,-0.3291158676147461
1695713188091808000,1.23180810546875,-0.25203263759613037,1.1137304306030273,-0.6772713661193848
1695713188101840100,1.241840087890625,0.24248626828193665,1.634148120880127,0.2622189521789551
1695713188111878000,1.2518779296875,-0.12515413761138916,1.54925537109375,0.6995830535888672
1695713188121910500,1.26191064453125,-0.11161655187606812,2.3362865447998047,0.04876136779785156
1695713188131938000,1.27193798828125,0.23577457666397095,8.380888938903809,0.36339330673217773
1695713188141970200,1.28197021484375,0.3431943953037262,14.741175651550293,-0.21828222274780273
1695713188152006400,1.29200634765625,0.34256309270858765,10.494384765625,-1.1472196578979492
1695713188162039000,1.3020390625,1.5687063932418823,4.561169624328613,-1.1679396629333496
1695713188172074200,1.31207421875,1.8389424085617065,3.7172389030456543,-1.398576259613037
1695713188182107000,1.32210693359375,1.0490784645080566,4.783068656921387,-4.225921154022217
1695713188192114700,1.33211474609375,1.2689628601074219,5.246340751647949,-6.591621398925781
1695713188202145000,1.34214501953125,3.813683271408081,3.572802782058716,-6.090819358825684
1695713188212200200,1.3522001953125,6.490026950836182,6.221523284912109,-5.92463493347168
1695713188222233000,1.362233154296875,5.789608478546143,5.613799095153809,-5.400443077087402
1695713188232259000,1.372259033203125,1.7747888565063477,1.6314716339111328,-4.006128787994385
1695713188242291200,1.382291259765625,-0.43648627400398254,-4.069526672363281,-1.3084073066711426
1695713188252334800,1.3923349609375,3.8741042613983154,-18.242469787597656,3.5385284423828125
1695713188262368000,1.402367919921875,3.739858865737915,-20.69800567626953,1.6679866313934326
1695713188272374500,1.41237451171875,3.2492058277130127,-10.164568901062012,1.7991230487823486
1695713188282405000,1.422405029296875,0.5709327459335327,-4.974007606506348,1.7762017250061035
1695713188292452900,1.432452880859375,-3.0292694568634033,-6.784523963928223,-0.07064247131347656
1695713188302485200,1.4424853515625,-4.968008041381836,-6.259963035583496,-1.7097690105438232
1695713188312523000,1.45252294921875,-5.870448589324951,-6.890927314758301,-3.760744094848633
1695713188322556000,1.462555908203125,-2.9257376194000244,-5.272771835327148,-4.0389323234558105
1695713188332582000,1.472581787109375,-1.1194663047790527,-3.190877914428711,-4.526546478271484
1695713188342614000,1.482614013671875,-0.5620124340057373,-1.0659046173095703,-4.913764476776123
1695713188352645400,1.492645263671875,-0.47187182307243347,0.7198343276977539,-4.479994773864746
1695713188362677200,1.50267724609375,-0.5346867442131042,2.0486135482788086,-3.2294864654541016
1695713188372692000,1.51269189453125,0.7797406911849976,1.455449104309082,-2.344634532928467
1695713188382722300,1.522722412109375,1.2925084829330444,0.7292613983154297,-1.5830587148666382
1695713188392780500,1.532780517578125,1.8517415523529053,0.6300268173217773,-0.8530339002609253
1695713188402813700,1.542813720703125,1.6505824327468872,0.8008823394775391,-0.5129035711288452
1695713188412848400,1.552848388671875,1.5297703742980957,0.5078926086425781,-0.48513662815093994
1695713188422881500,1.562881591796875,1.1406551599502563,0.2966299057006836,-0.5425330400466919
1695713188432916700,1.572916748046875,0.4962494373321533,0.20370101928710938,-0.7472215890884399
1695713188442950100,1.5829501953125,0.1752026081085205,0.1987438201904297,-0.710995078086853
1695713188452979200,1.592979248046875,0.8458965420722961,0.05295753479003906,-0.7059036493301392
1695713188463012000,1.60301220703125,2.1114614009857178,0.5976963043212891,0.02564382553100586
1695713188473023700,1.613023681640625,3.046377658843994,1.1120243072509766,0.18572020530700684
1695713188483054600,1.6230546875,1.6699033975601196,0.10825729370117188,0.1583244800567627
1695713188493110300,1.6331103515625,1.9314409494400024,-0.6239719390869141,1.4656009674072266
1695713188503143700,1.643143798828125,0.35772836208343506,0.1567983627319336,1.1894350051879883
1695713188513177900,1.653177734375,-0.5432870984077454,0.420989990234375,0.7903347015380859
1695713188523211300,1.663211181640625,-0.9355407357215881,0.5731067657470703,0.2543346881866455
1695713188533206000,1.6732060546875,-1.428758144378662,0.653407096862793,0.03514504432678223
1695713188543235600,1.683235595703125,-1.3062641620635986,0.3523874282836914,-0.28878045082092285
1695713188553273900,1.69327392578125,-1.4294885396957397,0.699432373046875,-0.11411523818969727
1695713188563304400,1.703304443359375,-1.5770492553710938,0.8614940643310547,-0.2477874755859375
1695713188573355300,1.713355224609375,-1.426841139793396,-0.008892059326171875,-0.8814157247543335
1695713188583388000,1.723387939453125,-0.5012844800949097,-0.6807641983032227,-0.9317002296447754
1695713188593399000,1.73339892578125,0.6697560548782349,-0.994267463684082,-0.5165749788284302
1695713188603429400,1.743429443359375,0.6238951683044434,-0.6167459487915039,-0.6885322332382202
1695713188613469700,1.7534697265625,-0.022871196269989014,0.3413534164428711,-1.412970781326294
1695713188623501000,1.7635009765625,0.8054512143135071,0.4682140350341797,-1.6873832941055298
1695713188633532700,1.77353271484375,0.7666906118392944,0.3182792663574219,-1.6986514329910278
1695713188643564000,1.78356396484375,-0.35221368074417114,0.29288196563720703,-1.8140994310379028
1695713188653598000,1.793597900390625,-0.6857782006263733,0.2919654846191406,-2.004089117050171
1695713188663629600,1.803629638671875,-1.9043742418289185,0.14031696319580078,-1.667336344718933
1695713188673671200,1.813671142578125,-2.744852066040039,0.40787696838378906,-1.6702042818069458
1695713188683703800,1.823703857421875,-2.694704532623291,0.011307716369628906,-0.4455528259277344
1695713188693755600,1.833755615234375,-0.9087406396865845,-0.3295145034790039,0.9077391624450684
1695713188703790000,1.8437900390625,0.5036309957504272,-0.4351692199707031,1.3432424068450928
1695713188713813800,1.853813720703125,0.9076188206672668,-0.6176071166992188,1.148975133895874
1695713188723847400,1.863847412109375,1.5620462894439697,-0.05802154541015625,1.1793849468231201
1695713188733871600,1.87387158203125,1.9057528972625732,0.2887592315673828,0.5295941829681396
1695713188743904300,1.883904296875,1.5121245384216309,0.3867044448852539,0.12552666664123535
1695713188753934000,1.89393408203125,1.8571374416351318,0.1911630630493164,0.9543273448944092
1695713188763966500,1.903966552734375,0.7579646706581116,0.46880340576171875,0.9134681224822998
1695713188773997300,1.913997314453125,0.4401988387107849,0.5728683471679688,0.8245861530303955
1695713188784029200,1.924029296875,0.35792016983032227,0.9000749588012695,0.6795341968536377
1695713188794061600,1.9340615234375,0.28370535373687744,0.9731435775756836,0.2972679138183594
1695713188804093700,1.94409375,0.1701412796974182,0.9222984313964844,-0.24852800369262695
1695713188814127400,1.95412744140625,-0.19525396823883057,0.7725505828857422,-1.061010479927063
1695713188824159700,1.96415966796875,-0.5001027584075928,0.5908975601196289,-1.5029964447021484
1695713188834191400,1.97419140625,-0.49701130390167236,0.4251060485839844,-1.4244344234466553
1695713188844223700,1.9842236328125,0.2855503559112549,0.32637596130371094,0.08709549903869629
1695713188854274300,1.9942744140625,-0.15770447254180908,0.024346351623535156,0.15020227432250977
1695713188864308200,2.00430810546875,-0.5612081289291382,-0.1454944610595703,-0.3127131462097168
1695713188874324200,2.01432421875,-0.15763115882873535,-0.0972747802734375,-0.6878236532211304
1695713188884356400,2.0243564453125,0.09357720613479614,0.21658802032470703,-1.381464958190918
1695713188894385700,2.0343857421875,0.3164147138595581,0.08281230926513672,-2.3452134132385254
1695713188904417800,2.044417724609375,-0.19826817512512207,0.03931236267089844,-2.2118029594421387
1695713188914448100,2.0544482421875,-1.3595271110534668,0.04440021514892578,-1.2183663845062256
1695713188924480000,2.06447998046875,-0.5502734184265137,-0.5140562057495117,-0.17238616943359375
1695713188934514400,2.074514404296875,1.0735156536102295,-0.3714942932128906,0.9773879051208496
1695713188944546600,2.084546630859375,0.7042063474655151,-0.4253501892089844,0.7656042575836182
1695713188954576600,2.09457666015625,0.4622461199760437,-0.4363441467285156,0.8216023445129395
1695713188964608500,2.1046083984375,0.23633277416229248,-0.1948108673095703,0.6420042514801025
1695713188974645200,2.114645263671875,0.19649213552474976,0.012471199035644531,-0.3310859203338623
1695713188984677600,2.124677734375,0.32789361476898193,0.4043102264404297,-0.8905216455459595
1695713188994709200,2.134709228515625,0.32725703716278076,0.5082435607910156,-1.0915794372558594
1695713189004741400,2.144741455078125,0.2997128963470459,0.42206859588623047,-1.0841076374053955
1695713189014771500,2.154771484375,0.23246043920516968,0.39476490020751953,-0.9911105632781982
1695713189024803600,2.164803466796875,-0.13680732250213623,0.15917396545410156,-0.775344967842102
1695713189034837200,2.174837158203125,-0.4413946866989136,0.010134696960449219,-0.7715002298355103
1695713189044869400,2.184869384765625,-0.32490313053131104,0.1950225830078125,-0.37570643424987793
1695713189054911500,2.194911376953125,-0.5878778696060181,0.7638721466064453,0.1337602138519287
1695713189064944400,2.2049443359375,-0.33683109283447266,0.7531852722167969,0.13376522064208984
1695713189074962400,2.21496240234375,-0.2266702651977539,0.7473134994506836,-0.07197856903076172
1695713189084994000,2.224994140625,-0.047089219093322754,0.9266481399536133,-0.409193754196167
1695713189095036200,2.2350361328125,0.17241597175598145,0.852574348449707,-0.5696190595626831
1695713189105068800,2.24506884765625,0.17389118671417236,0.651097297668457,-0.35510826110839844
1695713189115103700,2.255103759765625,0.049076199531555176,0.2512664794921875,0.14178729057312012
1695713189125136600,2.26513671875,-0.08372187614440918,-0.2420196533203125,0.22209596633911133
1695713189135165400,2.27516552734375,-0.0864553451538086,-0.43314647674560547,0.019527912139892578
1695713189145197800,2.28519775390625,0.012771129608154297,-0.2854299545288086,-0.42113566398620605
1695713189155234800,2.29523486328125,0.00969552993774414,0.0428314208984375,-0.8050302267074585
1695713189165267700,2.305267822265625,-0.09431159496307373,0.20272350311279297,-0.8255220651626587
1695713189175300000,2.315300048828125,-0.11483824253082275,0.019128799438476562,-0.4140434265136719
1695713189185333000,2.3253330078125,-0.11596620082855225,0.008182525634765625,-0.10824108123779297
1695713189195362000,2.335362060546875,0.29078763723373413,-0.1837310791015625,0.13826990127563477
1695713189205394400,2.34539453125,0.5333244800567627,-0.12691688537597656,-0.09517621994018555
1695713189215430700,2.3554306640625,0.6546486020088196,0.2864990234375,-0.0038728713989257812
1695713189225463600,2.365463623046875,0.7377622723579407,0.6013021469116211,0.1814253330230713
1695713189235488800,2.37548876953125,0.5897860527038574,0.49489402770996094,0.10129380226135254
1695713189245521000,2.38552099609375,0.6121737957000732,0.23289203643798828,0.30214953422546387
1695713189255553500,2.395553466796875,0.3987444043159485,-0.0086669921875,-0.07507991790771484
1695713189265585700,2.405585693359375,0.3434532880783081,-0.27211761474609375,-0.5022995471954346
1695713189275623700,2.415623779296875,-0.17104291915893555,-0.16582489013671875,-0.4360933303833008
1695713189285656600,2.425656494140625,-0.6070305109024048,-0.1414499282836914,-0.5463776588439941
1695713189295690800,2.435690673828125,-0.5558106899261475,-0.1492471694946289,-0.012394428253173828
1695713189305723600,2.4457236328125,-0.6788066625595093,0.21384811401367188,0.2733168601989746
1695713189315740400,2.455740478515625,-0.3946876525878906,0.43027305603027344,0.278106689453125
1695713189325771500,2.465771484375,-0.13732826709747314,0.26295948028564453,-0.030994415283203125
1695713189335817000,2.47581689453125,0.29531586170196533,-0.05965423583984375,-0.22549915313720703
1695713189345849600,2.485849609375,0.22017407417297363,0.06206035614013672,-0.6378661394119263
1695713189355875600,2.49587548828125,0.3458670377731323,0.4202384948730469,-1.1399776935577393
1695713189365907700,2.50590771484375,0.5993736982345581,0.4963970184326172,-1.055069923400879
1695713189375938300,2.515938232421875,0.260703444480896,0.3257904052734375,-0.6733475923538208
1695713189385970200,2.52597021484375,0.16933214664459229,-0.02867603302001953,-0.0568995475769043
1695713189396014300,2.536014404296875,-0.44358742237091064,0.09463691711425781,0.2560458183288574
1695713189406047500,2.546047607421875,-0.3940964937210083,0.23449325561523438,0.032976388931274414
1695713189416071400,2.556071533203125,-0.1310056447982788,-0.04078388214111328,-0.32488346099853516
1695713189426103600,2.566103515625,0.13113033771514893,-0.4570779800415039,-0.6852303743362427
1695713189436137500,2.576137451171875,0.28770506381988525,-0.5513105392456055,-0.7970579862594604
1695713189446169900,2.586169921875,0.2894033193588257,-0.38243961334228516,-0.7407211065292358
1695713189456204500,2.59620458984375,0.28212523460388184,-0.3515195846557617,-0.3031485080718994
1695713189466237200,2.6062373046875,-0.039306044578552246,0.2246847152709961,-0.35449671745300293
1695713189476260400,2.61626025390625,0.17277288436889648,0.4185962677001953,-0.5000052452087402
1695713189486292000,2.6262919921875,0.32074975967407227,0.37897396087646484,0.03714156150817871
1695713189496330800,2.636330810546875,0.051403164863586426,0.32491302490234375,0.06957530975341797
1695713189506363100,2.646363037109375,0.06599783897399902,-0.06681156158447266,-0.17802906036376953
1695713189516397000,2.65639697265625,-0.024050354957580566,0.2113943099975586,0.09846305847167969
1695713189526429400,2.666429443359375,0.07535076141357422,0.047265052795410156,-0.4012589454650879
1695713189536452900,2.676452880859375,0.08294320106506348,0.17735862731933594,-0.2640421390533447
1695713189546484500,2.686484375,-0.037332773208618164,-0.5882930755615234,-0.5064201354980469
1695713189556522000,2.69652197265625,-0.2993849515914917,-0.17762374877929688,0.1363670825958252
1695713189566554000,2.70655419921875,-0.18223977088928223,0.5116367340087891,0.10822200775146484
1695713189576582400,2.71658251953125,-0.10302853584289551,0.5068111419677734,-0.24254655838012695
1695713189586614300,2.7266142578125,-0.19065523147583008,0.4792203903198242,-0.18001151084899902
1695713189596656000,2.73665625,-0.24793362617492676,0.10012149810791016,-0.4788343906402588
1695713189606688800,2.746688720703125,-0.43324804306030273,0.4757547378540039,-0.07816195487976074
1695713189616717800,2.7567177734375,-0.5971484184265137,0.5056371688842773,-0.2577064037322998
1695713189626750200,2.766750244140625,-0.5726840496063232,0.7827863693237305,0.09016060829162598
1695713189636785700,2.77678564453125,-0.41352999210357666,0.8224811553955078,0.3630638122558594
1695713189646818300,2.786818359375,-0.17506897449493408,-0.8447551727294922,-0.4265916347503662
1695713189656841500,2.796841552734375,-0.17624568939208984,-1.4637737274169922,0.06108903884887695
1695713189666873000,2.806873046875,-0.3287709951400757,-1.0550193786621094,0.3052060604095459
1695713189676906500,2.816906494140625,-0.17138159275054932,-0.4253835678100586,0.1096038818359375
1695713189686938000,2.826938232421875,0.05950045585632324,0.33526039123535156,0.2592597007751465
1695713189696950300,2.8369501953125,-0.04835867881774902,0.8120212554931641,0.6732127666473389
1695713189706979800,2.846979736328125,-0.2138688564300537,0.7576112747192383,0.7612409591674805
1695713189717013200,2.85701318359375,-0.08475077152252197,0.5883407592773438,0.5445289611816406
1695713189727043300,2.867043212890625,0.10237205028533936,0.38257884979248047,-0.02250218391418457
1695713189737112800,2.87711279296875,0.12272322177886963,0.2922801971435547,-0.7183488607406616
1695713189747147000,2.88714697265625,-0.10382616519927979,-0.058304786682128906,-1.3014347553253174
1695713189757143600,2.8971435546875,0.15514397621154785,-0.6342582702636719,-1.3435640335083008
1695713189767174000,2.907173828125,-0.020846009254455566,-0.3427743911743164,-0.6182378530502319
1695713189777243400,2.917243408203125,-0.08774793148040771,-0.2620534896850586,-0.7738409042358398
1695713189787277600,2.927277587890625,-0.10024571418762207,-0.9447612762451172,-2.008746385574341
1695713189797305600,2.9373056640625,-0.24540841579437256,-0.2777872085571289,-2.4082508087158203
1695713189807339300,2.94733935546875,0.5497379302978516,0.7131595611572266,-2.9049124717712402
1695713189817338000,2.957338134765625,-0.23494362831115723,0.611018180847168,-2.9586453437805176
1695713189827368200,2.9673681640625,-1.6242445707321167,0.7252435684204102,-2.210106372833252
1695713189837436200,2.977436279296875,-1.9171768426895142,1.0269460678100586,-1.2400763034820557
1695713189847470000,2.987469970703125,-0.28665363788604736,1.1594352722167969,-0.34999656677246094
1695713189857502700,2.997502685546875,0.34626567363739014,0.8010778427124023,0.41271138191223145
1695713189867536600,3.00753662109375,0.6277204751968384,0.33296775817871094,1.7149468660354614
1695713189877552000,3.01755224609375,0.05780446529388428,0.4080953598022461,2.115619421005249
1695713189887584000,3.027583984375,0.11043107509613037,0.8532781600952148,1.9650403261184692
1695713189897613000,3.037613037109375,0.21992850303649902,0.9481430053710938,1.2883776426315308
1695713189907644700,3.047644775390625,0.07321047782897949,1.1618452072143555,0.6835376024246216
1695713189917688300,3.057688232421875,0.036521315574645996,1.4513254165649414,0.4560978412628174
1695713189927721200,3.06772119140625,-0.010776162147521973,1.4011850357055664,0.28489601612091064
1695713189937745000,3.077744873046875,0.022784948348999023,0.9696311950683594,0.07548415660858154
1695713189947777000,3.087777099609375,-0.028988003730773926,0.12470436096191406,-0.17434990406036377
1695713189957815800,3.09781591796875,-0.05915653705596924,-0.5404291152954102,-0.16671359539031982
1695713189967848400,3.107848388671875,0.0007817745208740234,-1.0074958801269531,0.011860966682434082
1695713189977878800,3.117878662109375,0.08963745832443237,-1.3106184005737305,0.18960833549499512
1695713189988070700,3.128070556640625,0.015188455581665039,-1.3747453689575195,0.3491557836532593
1695713189998098000,3.138097900390625,0.05275845527648926,-0.7999143600463867,0.345115065574646
1695713190008130300,3.14813037109375,0.027927935123443604,-0.13695716857910156,0.17274224758148193
1695713190018143500,3.1581435546875,-0.08437007665634155,0.30419921875,0.06019878387451172
1695713190028177700,3.168177734375,0.0029893219470977783,0.46706104278564453,0.027046799659729004
1695713190038210000,3.1782099609375,0.36627283692359924,0.36183738708496094,0.06686282157897949
1695713190048245200,3.188245361328125,0.4784514307975769,0.6097583770751953,0.1417614221572876
1695713190058278000,3.19827783203125,1.059067964553833,0.1450023651123047,0.28151464462280273
1695713190068334600,3.20833447265625,1.1518563032150269,0.06247234344482422,0.2013251781463623
1695713190078346800,3.2183466796875,1.2367976903915405,0.17539405822753906,0.044837117195129395
1695713190088379100,3.228379150390625,1.3195174932479858,0.18248462677001953,-0.063529372215271
1695713190098420500,3.23842041015625,1.2961958646774292,0.05530834197998047,-0.15879106521606445
1695713190108452900,3.248452880859375,0.7455484867095947,-0.2247457504272461,-0.32234346866607666
1695713190118485200,3.2584853515625,0.3166447579860687,-0.2896289825439453,-0.5689810514450073
1695713190128504000,3.268504150390625,-0.28753089904785156,-0.3162994384765625,-0.7726472616195679
1695713190138400800,3.27840087890625,-0.21464882791042328,-0.35257625579833984,-0.9050647616386414
1695713190148417300,3.288417236328125,-0.8091565370559692,-0.6656198501586914,-0.9467978477478027
1695713190158429400,3.298429443359375,-0.4811171889305115,-0.6101446151733398,-0.8406400084495544
1695713190168445400,3.308445556640625,-0.30772665143013,-0.47838878631591797,-0.3953755497932434
1695713190178491600,3.31849169921875,-0.08131657540798187,-0.17995071411132812,0.17250168323516846
1695713190188510700,3.3285107421875,0.2955934405326843,0.0935525894165039,0.6895896196365356
1695713190198590500,3.338590576171875,0.6127088665962219,0.27042293548583984,1.0355318784713745
1695713190208615700,3.34861572265625,0.7627362012863159,0.30800437927246094,1.1919231414794922
1695713190218814200,3.358814208984375,0.9415913224220276,0.26885414123535156,1.2220391035079956
1695713190228839400,3.36883935546875,1.0505778789520264,0.191558837890625,1.103663682937622
1695713190238846200,3.37884619140625,1.0279099941253662,0.13366127014160156,0.919683575630188
1695713190248878600,3.388878662109375,0.735068678855896,0.23371124267578125,0.8819500207901001
1695713190258903800,3.39890380859375,0.49911782145500183,0.3242063522338867,1.028602123260498
1695713190268947700,3.40894775390625,0.4698870778083801,0.4097919464111328,1.1999765634536743
1695713190278978000,3.41897802734375,0.47951793670654297,0.44741058349609375,1.18501877784729
1695713190289003500,3.42900341796875,0.550041139125824,0.46581554412841797,1.0319875478744507
1695713190299036400,3.439036376953125,0.5659993290901184,0.43642330169677734,0.7510639429092407
1695713190309079600,3.44907958984375,0.4708002209663391,0.4262580871582031,0.4910019636154175
1695713190319106000,3.45910595703125,0.36644095182418823,0.3684701919555664,0.3282487392425537
1695713190329137700,3.4691376953125,0.7491313219070435,0.5257720947265625,0.21012377738952637
1695713190339169300,3.479169189453125,0.354461669921875,0.21013641357421875,0.023318886756896973
1695713190349201200,3.489201171875,0.019595354795455933,-0.01871204376220703,-0.02991616725921631
1695713190359232800,3.499232666015625,0.07204583287239075,0.1015310287475586,-0.09280860424041748
1695713190369264400,3.509264404296875,-0.21419112384319305,0.011256217956542969,-0.06534910202026367
1695713190379296000,3.5192958984375,-0.3260233402252197,-0.05021381378173828,-0.05341780185699463
1695713190389322500,3.529322509765625,-0.2408015877008438,-0.03997802734375,-0.0805286169052124
1695713190399342000,3.539342041015625,-0.35502368211746216,-0.1063375473022461,-0.10463130474090576
1695713190409266700,3.5492666015625,-0.40946611762046814,-0.1487407684326172,-0.16851133108139038
1695713190419283200,3.559283203125,-0.42269209027290344,-0.09555530548095703,-0.20477265119552612
1695713190429484000,3.569484130859375,-0.49437713623046875,-0.07111167907714844,-0.2178664207458496
1695713190439515000,3.579514892578125,-0.46021589636802673,-0.060858726501464844,-0.24549782276153564
1695713190449531400,3.589531494140625,-0.48644256591796875,-0.15538692474365234,-0.2777670621871948
1695713190459571500,3.599571533203125,-0.6157488822937012,-0.2159881591796875,-0.33899086713790894
1695713190469610800,3.60961083984375,-0.7194949388504028,-0.20934295654296875,-0.4285849928855896
1695713190479627000,3.619626953125,-0.9173374176025391,-0.1500234603881836,-0.546578049659729
1695713190489670000,3.629669921875,-1.2363722324371338,-0.14803409576416016,-0.5976993441581726
1695713190499694800,3.63969482421875,-1.403002142906189,-0.012264251708984375,-0.6345942616462708
1695713190509711400,3.64971142578125,-1.477471113204956,0.1376514434814453,-0.6937472820281982
1695713190519765200,3.65976513671875,-1.556527853012085,0.0961008071899414,-0.46145978569984436
1695713190529784800,3.669784912109375,-1.487752079963684,0.19731712341308594,-0.02223104238510132
1695713190539822000,3.679822021484375,-1.6906278133392334,0.2733173370361328,0.3261672258377075
1695713190549859300,3.689859375,-1.8204782009124756,0.19948291778564453,0.6213082671165466
1695713190559896300,3.699896240234375,-1.7787742614746094,-0.1532907485961914,0.7381090521812439
1695713190569933600,3.70993359375,-1.6563047170639038,-0.9086265563964844,0.5493130087852478
1695713190579970800,3.719970703125,-1.9515118598937988,-1.688558578491211,0.44193994998931885
1695713190589990400,3.729990478515625,-2.0317652225494385,-2.2880773544311523,0.29738759994506836
1695713190600019200,3.740019287109375,-1.552363395690918,-2.6075477600097656,0.3930138349533081
1695713190610038800,3.750038818359375,-1.152513861656189,-2.399094581604004,0.39273273944854736
1695713190619938000,3.75993798828125,-0.7714798450469971,-2.108154296875,0.37218451499938965
1695713190630057000,3.770056884765625,-0.4220306873321533,-1.9123477935791016,0.3414928913116455
1695713190640175900,3.78017578125,-0.38644206523895264,-1.5409679412841797,0.40466952323913574
1695713190650218000,3.790218017578125,0.5675300359725952,-0.9574480056762695,0.4015839099884033
1695713190660227600,3.8002275390625,2.331390619277954,-0.4045896530151367,0.15473699569702148
1695713190670242800,3.810242919921875,3.318296432495117,-0.16662311553955078,-0.195945143699646
1695713190680292600,3.820292724609375,2.858927011489868,-0.04889869689941406,-0.5628746151924133
1695713190690302000,3.830302001953125,1.7120182514190674,-0.0450592041015625,-0.828927755355835
1695713190700346400,3.840346435546875,0.9813598394393921,-0.15521907806396484,-0.9985151290893555
1695713190710385400,3.850385498046875,0.2017533779144287,-0.32079601287841797,-1.4527173042297363
1695713190720394800,3.860394775390625,-0.07834792137145996,0.07021141052246094,-2.1603899002075195
1695713190730444000,3.870444091796875,-0.2585022449493408,0.38530635833740234,-2.7892284393310547
1695713190740458200,3.880458251953125,-0.4582953453063965,0.6804046630859375,-3.1743011474609375
1695713190750499000,3.8904990234375,0.007857322692871094,1.0308666229248047,-3.096806049346924
1695713190760540000,3.900539794921875,-0.020641803741455078,1.3080320358276367,-2.942378520965576
1695713190770580500,3.91058056640625,0.14701581001281738,1.6379022598266602,-2.7132115364074707
1695713190780621300,3.920621337890625,0.2903268337249756,1.873549461364746,-2.5251617431640625
1695713190790662100,3.930662109375,0.9000451564788818,1.8351202011108398,-2.2166314125061035
1695713190800676000,3.940676025390625,0.8044259548187256,1.8730440139770508,-1.7979228496551514
1695713190810664000,3.950663818359375,0.6002218723297119,1.8896770477294922,-1.2293319702148438
1695713190820678000,3.960677978515625,0.947606086730957,1.8039112091064453,-0.9203578233718872
1695713203090078200,16.230078125,-0.8968020677566528,0.7781887054443359,0.20882415771484375
1695713203100110800,16.24011083984375,-1.3245941400527954,0.7875699996948242,0.34377527236938477
1695713203110144800,16.250144775390623,-1.57328200340271,0.3200407028198242,0.7481917142868042
1695713203120178400,16.260178466796877,-1.7276686429977417,-0.3332071304321289,1.1110508441925049
1695713203130212400,16.27021240234375,-1.7066433429718018,-0.9486608505249023,1.3260871171951294
1695713203140246300,16.280246337890624,-1.228166103363037,-1.2274589538574219,1.3845316171646118
1695713203150280000,16.290280029296873,-0.4851999282836914,-1.1074810028076172,1.0460107326507568
1695713203160313900,16.30031396484375,0.437919020652771,-0.7485322952270508,0.38397932052612305
1695713203170347800,16.31034765625,1.2336386442184448,-0.29164600372314453,-0.459902286529541
1695713203180381400,16.32038134765625,1.82637619972229,0.05558204650878906,-1.2403793334960938
1695713203190415400,16.330415283203124,2.0045413970947266,0.1007537841796875,-1.7442283630371094
1695713203200449300,16.34044921875,1.7476310729980469,-0.0952606201171875,-2.2861104011535645
1695713203210481400,16.3504814453125,1.4520881175994873,-0.5769319534301758,-2.4832475185394287
1695713203220511700,16.36051171875,1.5047125816345215,-0.9329710006713867,-2.3730757236480713
1695713203230542000,16.3705419921875,2.0377438068389893,-1.0487289428710938,-1.7236216068267822
1695713203240572400,16.380572509765624,2.4164810180664062,-1.0545902252197266,-0.7038722038269043
1695713203250602500,16.3906025390625,2.5409319400787354,-1.1338310241699219,0.4218723773956299
1695713203260632800,16.4006328125,2.4359498023986816,-1.2735633850097656,1.3042012453079224
1695713203270663200,16.4106630859375,2.779910087585449,-1.5326967239379883,1.6995117664337158
1695713203280693500,16.420693603515623,3.607635974884033,-1.5829544067382812,1.4457870721817017
1695713203290723800,16.430723876953124,3.953052520751953,-1.7115917205810547,0.8708486557006836
1695713203300754200,16.440754150390624,3.582024574279785,-1.8072090148925781,0.0641779899597168
1695713203310784500,16.450784423828125,2.8856523036956787,-1.5873756408691406,-0.8910746574401855
1695713203320816400,16.46081640625,2.4644875526428223,-1.090010643005371,-1.4861559867858887
1695713203330847200,16.47084716796875,2.2675418853759766,-0.5790071487426758,-1.6727371215820312
1695713203340878000,16.480878173828124,1.8673721551895142,-0.14693546295166016,-1.855104923248291
1695713203350909000,16.490908935546877,1.373504877090454,0.2894115447998047,-2.0812246799468994
1695713203360939500,16.500939453125,1.2620587348937988,0.8263912200927734,-2.065781831741333
1695713203370970400,16.510970458984374,1.3413159847259521,1.6111688613891602,-2.055818557739258
1695713203381001200,16.521001220703123,1.2226688861846924,2.398317813873291,-1.9057331085205078
1695713203391032000,16.531031982421876,1.172248125076294,3.1195273399353027,-1.540205478668213
1695713203401063000,16.54106298828125,1.3052747249603271,3.5849833488464355,-1.058708667755127
1695713203411093800,16.55109375,1.4994986057281494,3.802074909210205,-0.5698168277740479
1695713203421124600,16.56112451171875,1.5851590633392334,3.860593318939209,-0.022891998291015625
1695713203431156500,16.571156494140624,1.7201011180877686,3.83392333984375,0.7035961151123047
1695713203441188400,16.581188232421876,1.7708766460418701,3.7309365272521973,1.5812026262283325
1695713203451220500,16.591220458984374,1.5389997959136963,3.3669848442077637,2.5269713401794434
1695713203461252400,16.60125244140625,1.0926737785339355,2.8563947677612305,3.181525707244873
1695713203471284200,16.6112841796875,0.4278130531311035,2.0662131309509277,3.671572685241699
1695713203481316000,16.621316162109373,-0.3418736457824707,1.153956413269043,3.678776741027832
1695713203491348000,16.631347900390626,-1.5122590065002441,0.007035732269287109,3.412057399749756
1695713203501380000,16.641380126953123,-3.206906795501709,-1.3308682441711426,2.8157858848571777
1695713203511412000,16.651411865234376,-5.170971393585205,-2.683689594268799,2.2338297367095947
1695713203521443800,16.66144384765625,-5.661985397338867,-3.8423995971679688,1.3284752368927002
1695713203531475700,16.671475830078126,-3.74661922454834,-4.588265419006348,0.8201608657836914
1695713203541508000,16.681508056640624,-1.7591276168823242,-4.1090216636657715,0.48973870277404785
1695713203551542300,16.691542236328125,-0.6893486976623535,-1.9430904388427734,0.39556050300598145
1695713203561576400,16.701576416015627,-0.412200927734375,1.8636846542358398,0.17696142196655273
1695713203571611000,16.71161083984375,0.9697246551513672,7.043755531311035,-0.7244038581848145
1695713203581645000,16.72164501953125,3.4904940128326416,13.039325714111328,-2.0578737258911133
1695713203591679200,16.73167919921875,3.6968796253204346,7.8354926109313965,-1.391272783279419
1695713203601713400,16.74171337890625,3.136366367340088,2.290609359741211,-1.4181392192840576
1695713203611747800,16.751747802734375,0.5514540672302246,0.818392276763916,-2.4472274780273438
1695713203621782000,16.761781982421876,-2.186540126800537,-0.8981113433837891,-2.8932199478149414
1695713203631816200,16.771816162109374,-2.8635663986206055,-3.3054442405700684,-1.4100430011749268
1695713203641848800,16.781848876953124,-1.4568324089050293,-4.566549301147461,0.5701117515563965
1695713203651882800,16.7918828125,0.5659661293029785,-3.5985517501831055,2.3687119483947754
1695713203661916400,16.80191650390625,1.3630900382995605,-1.2801575660705566,2.5202622413635254
1695713203671950300,16.811950439453124,0.7956185340881348,-0.6928467750549316,1.932206630706787
1695713203681984300,16.821984375,0.09638214111328125,-0.44780802726745605,0.7659432888031006
1695713203692018200,16.83201806640625,0.03436279296875,0.00635075569152832,-0.5409979820251465
1695713203702052000,16.842052001953125,0.521430492401123,0.5179111957550049,-1.3817877769470215
1695713203712086000,16.8520859375,0.28858375549316406,1.093691349029541,-2.15493106842041
1695713203722119700,16.86211962890625,-0.6083869934082031,1.3041704893112183,-1.9862151145935059
1695713203732153600,16.872153564453125,-1.1931591033935547,1.018667221069336,-1.2637677192687988
1695713203742187500,16.8821875,-1.3774852752685547,0.35278642177581787,0.09627175331115723
1695713203752220200,16.89222021484375,-0.7473058700561523,-0.08460068702697754,1.0165801048278809
1695713203762252000,16.902251953125,-0.7989654541015625,-0.1858433485031128,0.9913580417633057
1695713203772284000,16.912283935546874,-0.0708017349243164,0.04518544673919678,1.1257095336914062
1695713203782316000,16.92231591796875,-0.7946567535400391,0.4963754415512085,1.10723876953125
1695713203792348000,16.932347900390624,-1.7072734832763672,0.6158589720726013,1.2909562587738037
1695713203802380000,16.942380126953125,-1.5710630416870117,0.27705854177474976,1.9315669536590576
1695713203812412000,16.952411865234374,-0.9172086715698242,-0.13610756397247314,2.1187095642089844
1695713203822443800,16.96244384765625,-0.495880126953125,-0.08954310417175293,1.5740654468536377
1695713203832476000,16.972475830078125,-0.4382171630859375,0.29414427280426025,0.8549635410308838
1695713203842507800,16.9825078125,-0.3455667495727539,0.6068617105484009,0.3378314971923828
1695713203852540000,16.992539794921875,-0.27120399475097656,0.7157104015350342,0.21558594703674316
1695713203862570800,17.00257080078125,-0.20692729949951172,0.711146354675293,0.3569765090942383
1695713203872601300,17.012601318359376,0.03713512420654297,0.9732903242111206,0.5538730621337891
1695713203882632000,17.0226318359375,0.09253406524658203,1.329498291015625,0.6055958271026611
1695713203892662800,17.032662841796874,-0.33394527435302734,1.4639537334442139,0.6293370723724365
1695713203902693400,17.042693359375,-0.8715229034423828,1.3686848878860474,0.7817718982696533
1695713203912724200,17.05272412109375,-1.2581806182861328,0.9736210107803345,1.0643677711486816
1695713203922754800,17.0627548828125,-1.6979331970214844,0.5632875561714172,1.509390950202942
1695713203932785400,17.072785400390625,-2.6667442321777344,0.34354740381240845,1.8936359882354736
1695713203942816300,17.082816162109374,-3.7736244201660156,0.36535465717315674,1.939568281173706
1695713203952846800,17.092846923828127,-4.398115158081055,0.20945364236831665,1.4380695819854736
1695713203962879000,17.10287890625,-4.206287384033203,-0.593135416507721,0.3559340238571167
1695713203972909600,17.11290966796875,-3.020941734313965,-1.5264261960983276,-0.8550758361816406
1695713203982940400,17.1229404296875,-1.3383874893188477,-1.9973008632659912,-1.704437255859375
1695713203992971300,17.13297119140625,0.1778583526611328,-1.7782615423202515,-1.97621750831604
1695713204003001900,17.143001953125,1.113382339477539,-0.9060873985290527,-1.752181053161621
1695713204013032700,17.15303271484375,1.4984431266784668,0.18670964241027832,-1.162277340888977
1695713204023063300,17.163063232421877,1.6251912117004395,1.1168020963668823,-0.5324381589889526
1695713204033094100,17.17309423828125,1.4694981575012207,1.5942471027374268,0.30160677433013916
1695713204043125000,17.183125,1.012049674987793,1.8412604331970215,1.1135821342468262
1695713204053155600,17.193155517578123,0.7308063507080078,1.922603964805603,1.6093285083770752
1695713204063186400,17.2031865234375,0.4628324508666992,1.8770619630813599,1.9840071201324463
1695713204073218600,17.213218505859373,0.11808967590332031,1.7279863357543945,1.9176151752471924
1695713204083251500,17.22325146484375,-0.20220565795898438,1.5195887088775635,1.6330194473266602
1695713204093284400,17.233284423828124,-0.49268150329589844,1.2466474771499634,1.2577143907546997
1695713204103317200,17.243317138671873,-0.8250188827514648,1.108254313468933,1.1427720785140991
1695713204113350100,17.25335009765625,-0.8410816192626953,0.8845570087432861,1.1308706998825073
1695713204123383300,17.26338330078125,-0.6571063995361328,0.6003538966178894,1.1453232765197754
1695713204133416200,17.273416259765625,-0.5417947769165039,0.2660420536994934,1.3435240983963013
1695713204143449000,17.283448974609374,-0.5192594528198242,0.030405640602111816,1.465071439743042
1695713204153482000,17.29348193359375,-0.4264488220214844,-0.14053237438201904,1.2546486854553223
1695713204163515000,17.303514892578125,-0.31533336639404297,-0.3458482027053833,0.9504960775375366
1695713204173547800,17.3135478515625,-0.3621234893798828,-0.491452693939209,0.9990538358688354
1695713204183580200,17.323580078125,-0.15567493438720703,-0.5846178531646729,0.8808178901672363
1695713204193613600,17.333613525390625,0.016916275024414062,-0.6291104555130005,0.7902396321296692
1695713204203647000,17.34364697265625,0.18928813934326172,-0.6538547277450562,0.8554369211196899
1695713204213680400,17.353680419921876,0.18468284606933594,-0.530616283416748,0.8666062355041504
1695713204223713800,17.3637138671875,0.18975830078125,-0.2847633361816406,0.9017102718353271
1695713204233747200,17.373747314453126,0.12775707244873047,0.04166364669799805,0.8186361789703369
1695713204243780400,17.3837802734375,0.042067527770996094,0.32011109590530396,0.8542474508285522
1695713204253813800,17.393813720703125,-0.1482372283935547,0.5678939819335938,0.8172682523727417
1695713204263847200,17.40384716796875,-0.1753702163696289,0.7308769822120667,0.8762160539627075
1695713204273880600,17.413880615234376,-0.12120532989501953,0.8325706720352173,0.8710833787918091
1695713204283912700,17.42391259765625,-0.12917137145996094,0.8456778526306152,0.6093701720237732
1695713204293943300,17.433943359375,-0.01741313934326172,0.9055678844451904,0.5426475405693054
1695713204303974000,17.443973876953127,0.1084604263305664,0.9904581308364868,0.5172949433326721
1695713204314004500,17.45400439453125,0.2525959014892578,0.9969549179077148,0.436016321182251
1695713204324035000,17.46403515625,0.3002300262451172,1.0364152193069458,0.43218541145324707
1695713204334065700,17.474065673828125,0.16576290130615234,1.1700040102005005,0.3763601779937744
1695713204344096300,17.48409619140625,0.012911796569824219,1.193877100944519,0.32653796672821045
1695713204354126800,17.494126953125,-0.033618927001953125,1.1298683881759644,0.34781932830810547
1695713204364157200,17.5041572265625,-0.036370277404785156,1.011927843093872,0.20222610235214233
1695713204374187800,17.514187744140624,-0.004984855651855469,0.8111711740493774,0.07163405418395996
1695713204384220400,17.524220458984374,-0.0067386627197265625,0.5181941986083984,0.07324296236038208
1695713204394255000,17.534255126953123,0.15361309051513672,0.3634403944015503,0.09227436780929565
1695713204404289800,17.544289794921873,0.21233367919921875,0.3110479712486267,0.07448941469192505
1695713204414324500,17.554324462890627,0.15069103240966797,0.3475077748298645,0.14695954322814941
1695713204424359200,17.564359130859376,0.017171859741210938,0.40890824794769287,0.20709609985351562
1695713204434393900,17.574393798828126,-0.0824441909790039,0.3445436358451843,0.2720363736152649
1695713204444428800,17.5844287109375,-0.04771995544433594,0.2539246678352356,0.28840500116348267
1695713204454463500,17.59446337890625,0.1351175308227539,0.09002435207366943,0.20515912771224976
1695713204464498200,17.604498291015624,0.36493873596191406,0.09869766235351562,0.10107487440109253
1695713204474532900,17.614532958984373,0.3976259231567383,0.21867245435714722,-0.006843626499176025
1695713204484564500,17.624564453125,0.35310935974121094,0.3730238676071167,-0.07556688785552979
1695713204494591700,17.634591796875,0.33689212799072266,0.5659806728363037,-0.15472334623336792
1695713204504618800,17.64461865234375,0.2583341598510742,0.6776517033576965,-0.1740700602531433
1695713204514646000,17.65464599609375,0.24219512939453125,0.8745640516281128,-0.15595924854278564
1695713204524673300,17.66467333984375,0.21665096282958984,0.8651735782623291,-0.21016603708267212
1695713204534700500,17.674700439453126,0.12443161010742188,0.8266844749450684,-0.23637080192565918
1695713204544727800,17.684727783203126,0.051804542541503906,0.7972030639648438,-0.22126471996307373
1695713204554755000,17.694755126953126,0.09894275665283203,0.6094794869422913,-0.19275546073913574
1695713204564782000,17.704781982421874,0.13141345977783203,0.5129282474517822,-0.10489523410797119
1695713204574809300,17.714809326171874,0.15878009796142578,0.45479726791381836,-0.010194659233093262
1695713204584841500,17.724841552734375,0.17162036895751953,0.3631792664527893,0.10947626829147339
1695713204594876000,17.7348759765625,0.15814781188964844,0.2914178967475891,0.18898499011993408
1695713204604910000,17.74491015625,0.1543569564819336,0.24397307634353638,0.27659285068511963
1695713204614944500,17.754944580078124,0.16491031646728516,0.18700236082077026,0.35751450061798096
1695713204624979000,17.76497900390625,0.12833881378173828,0.11086034774780273,0.45128387212753296
1695713204635013000,17.77501318359375,0.12077713012695312,0.04875195026397705,0.5152859091758728
1695713204645047600,17.785047607421873,0.10393428802490234,0.00609898567199707,0.5361446738243103
1695713204655081700,17.795081787109375,0.1155080795288086,0.02998518943786621,0.5624428391456604
1695713204665116200,17.8051162109375,0.08438301086425781,0.08688569068908691,0.5559740662574768
1695713204675150600,17.815150634765626,0.10075569152832031,0.16695445775985718,0.549921452999115
1695713204685184800,17.825184814453124,0.10741138458251953,0.27001696825027466,0.5622009634971619
1695713204695217000,17.835216796875,0.04814624786376953,0.33440351486206055,0.5395886301994324
1695713204705248800,17.845248779296874,0.05597114562988281,0.3093540668487549,0.46755844354629517
1695713204715280600,17.85528076171875,0.07324409484863281,0.27200931310653687,0.4975023865699768
1695713204725312300,17.865312255859376,0.10907936096191406,0.14761751890182495,0.5203480124473572
1695713204735344000,17.87534423828125,0.08293914794921875,-0.006611466407775879,0.5385574698448181
1695713204745376000,17.8853759765625,0.01939868927001953,-0.06884622573852539,0.5062095522880554
1695713204755408000,17.895407958984375,-0.07603168487548828,-0.14038991928100586,0.48464733362197876
1695713204765439500,17.905439453125,-0.1366872787475586,-0.14080941677093506,0.4621437191963196
1695713204775471400,17.915471435546873,-0.139495849609375,-0.06564164161682129,0.45560556650161743
1695713204785503200,17.925503173828126,-0.000789642333984375,0.12369030714035034,0.524799644947052
1695713204795534800,17.935534912109375,0.11201095581054688,0.2996595501899719,0.5467129945755005
1695713204805567000,17.94556689453125,0.17099380493164062,0.3682372570037842,0.5417331457138062
1695713204815599000,17.95559912109375,0.20520496368408203,0.3255698084831238,0.4791630208492279
1695713204825631200,17.96563134765625,0.22441387176513672,0.21896034479141235,0.376409113407135
1695713204835663000,17.9756630859375,0.16782093048095703,0.1183856725692749,0.2863485813140869
1695713204845695200,17.9856953125,0.046248435974121094,0.022065401077270508,0.14354681968688965
1695713204855727000,17.99572705078125,-0.07314109802246094,-0.14670050144195557,-0.04156923294067383
1695713204865759200,18.00575927734375,-0.14318275451660156,-0.16132569313049316,-0.11785554885864258
1695713204875791400,18.015791259765624,-0.12221145629882812,-0.09427642822265625,-0.12200683355331421
1695713204885823200,18.0258232421875,-0.04953575134277344,0.03142404556274414,-0.12693077325820923
1695713204895855400,18.03585546875,0.02673816680908203,0.12270641326904297,-0.13830256462097168
1695713204905888000,18.045887939453124,0.1064748764038086,0.22339600324630737,-0.2317255139350891
1695713204915923000,18.0559228515625,0.16122055053710938,0.2625790238380432,-0.2817775011062622
1695713204925958000,18.0659580078125,0.20079803466796875,0.2875719666481018,-0.3021851181983948
1695713204935992800,18.075992919921877,0.23956012725830078,0.3355042338371277,-0.2262515425682068
1695713204946027500,18.086027587890626,0.23041534423828125,0.31182223558425903,-0.1495550274848938
1695713204956062500,18.0960625,0.2025165557861328,0.2928776144981384,-0.0682220458984375
1695713204966097400,18.106097412109374,0.13269615173339844,0.2359958291053772,0.003170490264892578
1695713204976132400,18.11613232421875,0.09231185913085938,0.12728595733642578,0.03673511743545532
1695713204986167300,18.126167236328126,0.015046119689941406,0.027920126914978027,0.0803990364074707
1695713204996202200,18.1362021484375,-0.0185089111328125,0.004010319709777832,0.16248178482055664
1695713205006237200,18.1462373046875,-0.004328727722167969,-0.011393904685974121,0.20156413316726685
1695713205016269000,18.15626904296875,0.0049533843994140625,0.038605332374572754,0.20282119512557983
1695713205026298400,18.16629833984375,0.037667274475097656,0.06396150588989258,0.20394283533096313
1695713205036327700,18.17632763671875,0.03213691711425781,0.0892333984375,0.1437077522277832
1695713205046356700,18.186356689453124,0.0125885009765625,0.020329713821411133,0.08377861976623535
1695713205056386000,18.196385986328124,0.012231826782226562,-0.009519219398498535,0.0854373574256897
1695713205066415000,18.2064150390625,0.026042938232421875,0.03181743621826172,0.13370615243911743
1695713205076444400,18.2164443359375,0.044322967529296875,0.13915038108825684,0.2179812788963318
1695713205086473500,18.226473388671874,0.06223583221435547,0.19383519887924194,0.1873214840888977
1695713205096502800,18.236502685546874,0.04217720031738281,0.10636413097381592,-0.02172297239303589
1695713205106531800,18.24653173828125,0.036632537841796875,0.010149836540222168,-0.0432201623916626
1695713205116561200,18.25656103515625,0.0688629150390625,-0.004704952239990234,0.01589488983154297
1695713205126593300,18.26659326171875,0.015882492065429688,-0.005287528038024902,0.0168265700340271
1695713205136626000,18.2766259765625,0.015707969665527344,-0.019878029823303223,0.06811249256134033
1695713205146658800,18.286658935546875,0.043854713439941406,-0.04809212684631348,0.02338320016860962
1695713205156691500,18.29669140625,0.038542747497558594,-0.1035609245300293,-0.02095639705657959
1695713205166724400,18.306724365234373,0.02377605438232422,-0.12430202960968018,-0.040797650814056396
1695713205176757000,18.316757080078126,0.018609046936035156,-0.1722356081008911,-0.0417172908782959
1695713205186789600,18.32678955078125,-0.010011672973632812,-0.21908283233642578,0.008767366409301758
1695713205196822500,18.336822509765625,0.013676643371582031,-0.2418752908706665,0.08189499378204346
1695713205206855200,18.346855224609374,-0.0006723403930664062,-0.18011021614074707,0.15425223112106323
1695713205216887800,18.3568876953125,0.0464019775390625,-0.06285345554351807,0.1926918625831604
1695713205226920700,18.366920654296877,0.04557323455810547,0.0055201053619384766,0.1882374882698059
1695713205236952800,18.376952880859374,0.05882453918457031,0.04492795467376709,0.21687936782836914
1695713205246985500,18.3869853515625,0.03887748718261719,0.05564463138580322,0.1931251883506775
1695713205257018000,18.39701806640625,0.0004901885986328125,0.004762530326843262,0.19763416051864624
1695713205267050800,18.40705078125,-0.022994041442871094,-0.05990314483642578,0.17774373292922974
1695713205277083600,18.417083740234375,-0.0036268234252929688,-0.1099327802658081,0.18159067630767822
1695713205287116300,18.4271162109375,0.01078033447265625,-0.13165283203125,0.1621028184890747
1695713205297149000,18.43714892578125,0.02967548370361328,-0.0876396894454956,0.1434718370437622
1695713205307181600,18.447181640625,0.0623779296875,-0.0024520158767700195,0.14464253187179565
1695713205317214200,18.457214111328124,0.052109718322753906,0.08583462238311768,0.13715791702270508
1695713205327246800,18.467246826171873,0.07495689392089844,0.1489797830581665,0.13013380765914917
1695713205337279500,18.477279541015626,0.0456085205078125,0.16896510124206543,0.09481501579284668
1695713205347311600,18.4873115234375,0.030849456787109375,0.17026031017303467,0.11621677875518799
1695713205357343000,18.497343017578125,0.039890289306640625,0.13874459266662598,0.13690292835235596
1695713205367374300,18.507374267578125,0.011083602905273438,0.1315852403640747,0.12419778108596802
1695713205377405700,18.51740576171875,0.0015964508056640625,0.07753121852874756,0.11625200510025024
1695713205387436800,18.527436767578124,0.00640869140625,0.024179577827453613,0.11324644088745117
1695713205397468200,18.53746826171875,-0.0029478073120117188,0.01818108558654785,0.10601609945297241
1695713205407499500,18.54749951171875,0.016074180603027344,0.012075185775756836,0.11363941431045532
1695713205417531000,18.55753076171875,0.058289527893066406,0.05303990840911865,0.10753035545349121
1695713205427562000,18.56756201171875,0.08093547821044922,0.08846962451934814,0.12091469764709473
1695713205437593300,18.57759326171875,0.06082344055175781,0.09485042095184326,0.12025952339172363
1695713205447624700,18.587624755859373,0.05516529083251953,0.08248889446258545,0.10058224201202393
1695713205457656800,18.59765673828125,0.026105880737304688,0.06550800800323486,0.052609145641326904
1695713205467689700,18.607689697265624,0.02107524871826172,0.08669495582580566,0.005113661289215088
1695713205477722600,18.61772265625,0.020843505859375,0.07468545436859131,-0.008852958679199219
1695713205487755500,18.627755615234374,0.025278091430664062,0.11495912075042725,0.010484516620635986
1695713205497788400,18.637788330078124,-0.008096694946289062,0.09375536441802979,0.006142675876617432
1695713205507821300,18.6478212890625,-0.0032911300659179688,0.04968607425689697,0.020770370960235596
1695713205517854200,18.657854248046874,0.0014190673828125,0.030101418495178223,0.0162087082862854
1695713205527887400,18.667887451171875,0.02019977569580078,0.02033257484436035,0.03490567207336426
1695713205537920000,18.677919921875,0.024559974670410156,0.06250333786010742,0.02957397699356079
1695713205547953200,18.687953125,0.038260459899902344,0.08994472026824951,0.06190073490142822
1695713205557986000,18.697986083984375,0.032919883728027344,0.07413709163665771,0.08459287881851196
1695713205568018000,18.708017822265624,0.037116050720214844,0.10530030727386475,0.0882464051246643
1695713205578049000,18.718049072265625,0.036561012268066406,0.10269594192504883,0.08250868320465088
1695713205588080000,18.728080078125,0.03602123260498047,0.07670009136199951,0.07194781303405762
1695713205598111200,18.738111328125,0.030798912048339844,0.032329559326171875,0.05191159248352051
1695713205608142300,18.748142333984376,0.02090167999267578,0.059921860694885254,0.04142838716506958
1695713205618173400,18.75817333984375,0.02527618408203125,0.07324337959289551,0.035606563091278076
1695713205628204300,18.768204345703126,0.020186424255371094,0.06750857830047607,0.04841899871826172
1695713205638235400,18.7782353515625,-0.0036230087280273438,0.0570528507232666,0.07024890184402466
1695713205648266500,18.7882666015625,-0.02235698699951172,0.05156147480010986,0.06839388608932495
1695713205658297600,18.798297607421876,-0.03136444091796875,0.01770329475402832,0.05746161937713623
1695713205668328700,18.80832861328125,-0.0072956085205078125,0.01734328269958496,0.08010357618331909
1695713205678360800,18.81836083984375,0.0022344589233398438,-0.0020693540573120117,0.04158836603164673
1695713205688394000,18.82839404296875,0.006861686706542969,-0.020869970321655273,0.06493872404098511
1695713205698427000,18.838427001953125,0.01610851287841797,-0.03426969051361084,0.0639844536781311
1695713205708460000,18.8484599609375,0.015740394592285156,-0.051361799240112305,0.07657754421234131
1695713205718493000,18.858492919921876,0.02010059356689453,-0.06338727474212646,0.05103093385696411
1695713205728525800,18.86852587890625,-0.008565902709960938,-0.06603658199310303,0.04971134662628174
1695713205738559000,18.87855908203125,-0.013140678405761719,-0.06980061531066895,0.058620452880859375
1695713205748591900,18.888591796875,0.024755477905273438,0.0009740591049194336,0.04482567310333252
1695713205758625000,18.898625,0.043193817138671875,0.06998670101165771,0.013139903545379639
1695713205768658000,18.908657958984374,0.061293601989746094,0.09108901023864746,0.005420982837677002
1695713205778691000,18.918691162109376,0.08845996856689453,0.10777127742767334,0.006921529769897461
1695713205788723500,18.928723388671877,0.08215904235839844,0.09206247329711914,0.017278075218200684
1695713205798757400,18.93875732421875,0.038298606872558594,0.12877929210662842,0.02690279483795166
1695713205808791300,18.948791259765624,0.004656791687011719,0.10807538032531738,-0.020521461963653564
1695713205818825200,18.9588251953125,-0.009481430053710938,0.08177566528320312,-0.04315859079360962
1695713205828859100,18.968859130859375,-0.03278541564941406,0.0783228874206543,-0.04524022340774536
1695713205838893000,18.97889306640625,-0.018024444580078125,0.0928504467010498,-0.02263462543487549
1695713205848927000,18.988927001953126,-0.0082550048828125,0.12126708030700684,-0.0188596248626709
1695713205858961000,18.9989609375,0.04366493225097656,0.14982789754867554,-0.0011597871780395508
1695713205868994800,19.008994873046873,0.06640052795410156,0.15516823530197144,0.0065152645111083984
1695713205879028500,19.019028564453127,0.09809017181396484,0.16596263647079468,0.01390230655670166
1695713205889062400,19.0290625,0.07274913787841797,0.13928431272506714,0.08658379316329956
1695713205899094500,19.039094482421874,0.06199455261230469,0.11304980516433716,0.1576281189918518
1695713205909124900,19.049124755859374,0.042000770568847656,0.08702754974365234,0.20895624160766602
1695713205919155200,19.0591552734375,-0.020002365112304688,0.06082761287689209,0.21273314952850342
1695713205929185500,19.069185546875,-0.03390312194824219,0.05397045612335205,0.21184426546096802
1695713205939216000,19.0792158203125,-0.02407550811767578,0.01470792293548584,0.18266117572784424
1695713205949246200,19.08924609375,-0.037964820861816406,0.0004966259002685547,0.15770286321640015
1695713205959276300,19.0992763671875,-0.004487037658691406,0.04358243942260742,0.15543651580810547
1695713205969306600,19.109306640625,0.004923820495605469,-0.012481093406677246,0.1852092742919922
1695713205979337000,19.1193369140625,0.004817962646484375,-0.08658075332641602,0.19517570734024048
1695713205989367300,19.1293671875,0.00002193450927734375,-0.10315179824829102,0.21447652578353882
1695713205999397600,19.139397705078125,-0.014136314392089844,-0.07739603519439697,0.18236035108566284
1695713206009430300,19.14943017578125,-0.009232521057128906,-0.03788352012634277,0.15079736709594727
1695713206019465500,19.159465576171876,-0.013821601867675781,0.010520458221435547,0.08655571937561035
1695713206029501000,19.1695009765625,-0.03715229034423828,-0.012189149856567383,0.032173335552215576
1695713206039536000,19.1795361328125,-0.022378921508789062,-0.0531315803527832,0.010830283164978027
1695713206049571600,19.189571533203125,-0.021918296813964844,-0.02745509147644043,0.007960200309753418
1695713206059606800,19.199606689453127,-0.007274627685546875,-0.016506195068359375,-0.00010120868682861328
1695713206069642200,19.209642333984377,0.021236419677734375,0.01301121711730957,-0.031298041343688965
1695713206079677400,19.219677490234375,0.0539398193359375,0.037210941314697266,-0.08490103483200073
1695713206089713000,19.229712890625,0.048370361328125,0.03741312026977539,-0.12743091583251953
1695713206099748000,19.239748046875,0.038105010986328125,0.052074313163757324,-0.13110607862472534
1695713206109783600,19.249783447265624,0.04207038879394531,0.019835233688354492,-0.11570233106613159
1695713206119832600,19.25983251953125,0.03185462951660156,0.016242623329162598,-0.09107297658920288
1695713206129881600,19.269881591796874,0.02183055877685547,-0.02538919448852539,-0.09476202726364136
1695713206139930600,19.2799306640625,0.03085803985595703,-0.001233816146850586,-0.055470287799835205
1695713206149980000,19.28997998046875,0.016204833984375,0.05472564697265625,-0.030084848403930664
1695713206160029000,19.30002880859375,0.034691810607910156,0.09096574783325195,-0.028001070022583008
1695713206170078000,19.310077880859374,0.03397560119628906,0.07974433898925781,-0.03968769311904907
1695713206180127000,19.320126953125,0.028499603271484375,0.054911017417907715,-0.06030607223510742
1695713206190176300,19.33017626953125,0.027784347534179688,0.007300615310668945,-0.0288277268409729
1695713206200211500,19.34021142578125,-0.005835533142089844,0.002851247787475586,0.0016399025917053223
1695713206210240800,19.35024072265625,-0.00115966796875,-0.011444807052612305,0.050345778465270996
1695713206220269800,19.360269775390623,-0.0012187957763671875,-0.011935234069824219,0.05130535364151001
1695713206230166000,19.370166015625,-0.010670661926269531,-0.012870430946350098,0.01962071657180786
1695713206240188200,19.380188232421876,-0.010549545288085938,0.019181489944458008,0.016707956790924072
1695713206250202000,19.3902021484375,-0.02459430694580078,0.04639482498168945,-0.005102753639221191
1695713206260223200,19.40022314453125,0.0039501190185546875,0.036275267601013184,-0.01792168617248535
1695713206270260500,19.410260498046874,-0.024468421936035156,0.0031859874725341797,0.006439566612243652
1695713206280283100,19.420283203125,-0.028829574584960938,-0.015119075775146484,0.034498393535614014
1695713206290359800,19.43035986328125,-0.028319358825683594,-0.042903900146484375,0.04272335767745972
1695713206300388000,19.44038818359375,-0.023040771484375,-0.037833213806152344,0.05548810958862305
1695713206310412800,19.450412841796876,-0.017847061157226562,-0.0049555301666259766,0.08732271194458008
1695713206320440800,19.46044091796875,0.010767936706542969,0.017668962478637695,0.06290298700332642
1695713206330467300,19.47046728515625,0.024724960327148438,0.04474139213562012,0.06290441751480103
1695713206340495000,19.4804951171875,0.03371429443359375,0.08576750755310059,0.02986985445022583
1695713206350541600,19.49054150390625,0.042510986328125,0.07489967346191406,0.05360519886016846
1695713206360571100,19.500571044921877,0.046439170837402344,0.055272579193115234,0.062346577644348145
1695713206370612700,19.51061279296875,0.03619956970214844,0.045498013496398926,0.04699206352233887
1695713206380643600,19.5206435546875,-0.0020570755004882812,0.002538919448852539,0.05051887035369873
1695713206390833000,19.5308330078125,-0.011393547058105469,0.006923198699951172,0.05423802137374878
1695713206400854300,19.540854248046877,0.0029392242431640625,0.0016363859176635742,0.053755998611450195
1695713206410885000,19.550885009765626,0.002872467041015625,0.01058042049407959,0.03952920436859131
1695713206420905000,19.560905029296876,0.016895294189453125,0.04803121089935303,0.001885533332824707
1695713206430931700,19.570931640625,0.02122974395751953,0.04754948616027832,-0.011640310287475586
1695713206440962600,19.580962646484377,0.006687164306640625,0.014304876327514648,0.002729356288909912
1695713206451017000,19.591016845703123,-0.012257575988769531,-0.0279008150100708,0.016265153884887695
1695713206461047800,19.6010478515625,-0.03552436828613281,-0.03683054447174072,0.019851326942443848
1695713206471070200,19.6110703125,-0.02069377899169922,-0.03195369243621826,0.009415864944458008
1695713206481092000,19.621092041015626,-0.00141143798828125,-0.027454495429992676,-0.009768962860107422
1695713206491123000,19.631123046875,-0.0013246536254882812,0.00983893871307373,-0.0045095086097717285
1695713206501170700,19.641170654296875,0.012833595275878906,0.03266346454620361,0.0008841156959533691
1695713206511201300,19.651201171875,0.0031414031982421875,0.05577409267425537,-0.017422378063201904
1695713206521230300,19.661230224609376,0.031280517578125,0.02227604389190674,-0.02166891098022461
1695713206531259400,19.67125927734375,0.0213165283203125,-0.038941383361816406,-0.030914366245269775
1695713206541290000,19.6812900390625,0.01627063751220703,-0.03823196887969971,-0.016550183296203613
1695713206551296800,19.691296875,0.011322021484375,-0.028601884841918945,-0.006651699542999268
1695713206561214000,19.7012138671875,0.02057170867919922,-0.024138927459716797,-0.019962966442108154
1695713212710918000,25.85091796875,0.04339790344238281,0.012921154499053955,-0.11524981260299683
1695713212720950300,25.8609501953125,0.04270362854003906,-0.010375440120697021,-0.10930991172790527
1695713212730982700,25.870982666015625,0.060843467712402344,-0.02408498525619507,-0.10315406322479248
1695713212741015000,25.88101513671875,0.04573822021484375,-0.018950164318084717,-0.13004297018051147
1695713212751047700,25.891047607421875,0.02617359161376953,-0.018807530403137207,-0.11390846967697144
1695713212761080000,25.901080078125,0.0022153854370117188,0.000057816505432128906,-0.08841884136199951
1695713212771112400,25.911112548828125,-0.0025167465209960938,0.01407712697982788,-0.044600486755371094
1695713212781144800,25.921144775390626,-0.016584396362304688,0.009226202964782715,-0.03467059135437012
1695713212791177000,25.931177001953124,-0.030405044555664062,-0.00006496906280517578,-0.025193989276885986
1695713212801207800,25.941207763671876,-0.039246559143066406,-0.03285348415374756,0.016797006130218506
1695713212811239000,25.951239013671874,0.0038700103759765625,-0.027682065963745117,0.058151185512542725
1695713212821270000,25.96127001953125,0.022703170776367188,0.0055661797523498535,0.1179383397102356
1695713212831301000,25.971301025390623,0.017645835876464844,0.0051024556159973145,0.15368062257766724
1695713212841332200,25.981332275390624,0.007902145385742188,-0.018974781036376953,0.19421029090881348
1695713212851363300,25.99136328125,0.003017425537109375,-0.03801017999649048,0.16831499338150024
1695713212861394200,26.001394287109374,-0.025289535522460938,-0.08502787351608276,0.15192681550979614
1695713212871425300,26.01142529296875,-0.03425884246826172,-0.10767829418182373,0.13077038526535034
1695713212881456400,26.021456298828124,-0.052466392517089844,-0.08280456066131592,0.08607268333435059
1695713212891487500,26.031487548828125,-0.06568622589111328,-0.10960489511489868,0.03246861696243286
1695713212901519400,26.041519287109374,-0.06925106048583984,-0.08352994918823242,0.011988699436187744
1695713212911551200,26.05155126953125,-0.05859565734863281,-0.05265623331069946,-0.018386781215667725
1695713212921583400,26.061583251953124,-0.019890785217285156,0.02064359188079834,-0.02969205379486084
1695713212931615200,26.071615234375,0.008703231811523438,0.0177496075630188,0.0016942620277404785
1695713212941647000,26.081647216796874,0.050911903381347656,0.0378912091255188,0.028695285320281982
1695713212951679000,26.091678955078127,0.05938911437988281,0.07085144519805908,0.04738694429397583
1695713212961711000,26.101711181640624,0.0629281997680664,0.11650586128234863,0.07684981822967529
1695713212971743000,26.111742919921873,0.03812122344970703,0.1232643723487854,0.09245181083679199
1695713212981774800,26.12177490234375,-0.009867668151855469,0.08729445934295654,0.05201905965805054
1695713212991806700,26.131806640625,-0.019362449645996094,0.07042080163955688,0.012295842170715332
1695713213001838800,26.1418388671875,-0.0145416259765625,0.03989988565444946,-0.05551201105117798
1695713213011871000,26.15187109375,-0.02387523651123047,0.014793336391448975,-0.08050543069839478
1695713213021905000,26.16190478515625,-0.00003147125244140625,0.02309519052505493,-0.11041128635406494
1695713213031938800,26.171938720703125,0.009319305419921875,0.02667921781539917,-0.12611591815948486
1695713213041972700,26.18197265625,0.023262977600097656,-0.007544040679931641,-0.09007930755615234
1695713213052006700,26.192006591796876,0.008723258972167969,0.010706603527069092,-0.10183727741241455
1695713213062040600,26.20204052734375,-0.0055522918701171875,0.019355297088623047,-0.08075398206710815
1695713213072074500,26.212074462890627,-0.019547462463378906,0.009145081043243408,-0.0652434229850769
1695713213082108400,26.2221083984375,-0.019150733947753906,-0.010203003883361816,-0.03627026081085205
1695713213092142300,26.232142333984374,0.02833843231201172,-0.010175526142120361,-0.03163784742355347
1695713213102176300,26.24217626953125,0.01853466033935547,-0.033551037311553955,-0.0036743879318237305
1695713213112210200,26.252210205078125,0.018352508544921875,-0.061193764209747314,-0.009577631950378418
1695713213122242000,26.262241943359374,0.013516426086425781,-0.041238248348236084,-0.015921711921691895
1695713213132271900,26.27227197265625,0.004103660583496094,0.001978933811187744,-0.02740764617919922
1695713213142301700,26.2823017578125,0.02313995361328125,-0.007277786731719971,-0.03442525863647461
1695713213152331800,26.292331787109376,0.04184722900390625,0.011870801448822021,0.0011502504348754883
1695713213162361600,26.302361572265625,-0.07696342468261719,0.03458678722381592,0.1326460838317871
1695713213172391400,26.312391357421873,-0.0948343276977539,-0.008391976356506348,-0.06423699855804443
1695713213182421200,26.322421142578126,-0.013284683227539062,-0.011777341365814209,-0.035207390785217285
1695713213192451000,26.332451171875,0.020002365112304688,0.03640168905258179,-0.07407552003860474
1695713213202481000,26.34248095703125,0.0244903564453125,0.026264488697052002,-0.059691667556762695
1695713213212510700,26.3525107421875,0.04774284362792969,0.04891842603683472,-0.06414806842803955
1695713213222540500,26.36254052734375,0.07058906555175781,0.010811567306518555,0.0203934907913208
1695713213232572700,26.37257275390625,0.022394180297851562,-0.04015535116195679,0.07503116130828857
1695713213242604800,26.382604736328126,0.01736736297607422,-0.024451613426208496,0.04890984296798706
1695713213252637200,26.39263720703125,-0.03937530517578125,-0.037687718868255615,0.03777235746383667
1695713213262669300,26.40266943359375,-0.038623809814453125,-0.03702437877655029,0.05972665548324585
1695713213272701700,26.41270166015625,-0.004929542541503906,-0.0510333776473999,0.08184564113616943
1695713213282733800,26.42273388671875,-0.014270782470703125,-0.037004053592681885,0.12376171350479126
1695713213292766200,26.43276611328125,-0.02828502655029297,-0.05600130558013916,0.12361830472946167
1695713213302798300,26.44279833984375,-0.009096145629882812,-0.05035746097564697,0.11798626184463501
1695713213312830700,26.452830810546875,0.028638839721679688,-0.016436636447906494,0.09790867567062378
1695713213322863000,26.462863037109376,-0.014447212219238281,0.06283771991729736,0.03353536128997803
1695713213332895200,26.472895263671877,-0.023820877075195312,0.028268754482269287,0.08245831727981567
1695713213342927600,26.482927734375,0.009438514709472656,0.02694934606552124,0.007440626621246338
1695713213352961800,26.4929619140625,-0.037955284118652344,0.04913651943206787,0.02369457483291626
1695713213362996200,26.502996337890625,-0.051601409912109375,0.042613327503204346,0.030350446701049805
1695713213373030400,26.513030517578127,-0.027327537536621094,-0.038138747215270996,-0.02070540189743042
1695713213383064600,26.523064697265625,-0.022269248962402344,0.01931530237197876,-0.04315292835235596
1695713213393098800,26.5330986328125,-0.031477928161621094,0.05672174692153931,-0.04092729091644287
1695713213403133200,26.54313330078125,-0.0075664520263671875,0.02808988094329834,-0.06749409437179565
1695713213413167400,26.55316748046875,0.01611328125,-0.0557551383972168,-0.09591275453567505
1695713213423201500,26.563201416015627,0.07244110107421875,-0.05340683460235596,-0.06347411870956421
1695713213433235700,26.573235595703125,0.019455909729003906,0.018582582473754883,-0.07240575551986694
1695713213443270000,26.583269775390626,0.042636871337890625,0.023160994052886963,-0.10395783185958862
1695713213453302500,26.593302490234375,-0.02875518798828125,0.03753840923309326,-0.10698431730270386
1695713213463335200,26.603335205078125,0.04729747772216797,0.04684805870056152,-0.1361570954322815
1695713213473367800,26.613367919921874,0.1081695556640625,0.032042860984802246,-0.10058742761611938
1695713213483400700,26.623400634765623,0.08795928955078125,0.04032415151596069,-0.12131255865097046
1695713213493433300,26.633433349609376,0.02534770965576172,-0.036421358585357666,-0.10044419765472412
1695713213503466000,26.643466064453126,-0.08357429504394531,-0.030961930751800537,-0.06400841474533081
1695713213513498600,26.65349853515625,-0.05409431457519531,0.04077988862991333,-0.038352251052856445
1695713213523531500,26.663531494140624,-0.03916454315185547,0.017419755458831787,-0.032821595668792725
1695713213533564200,26.673564208984374,-0.005535125732421875,0.0556294322013855,-0.02373594045639038
1695713213543596800,26.6835966796875,0.04169273376464844,0.036746323108673096,0.022515952587127686
1695713213553629700,26.693629638671876,0.0174713134765625,0.03218412399291992,0.06370234489440918
1695713213563661300,26.703661376953125,0.0076446533203125,0.02296888828277588,0.15730100870132446
1695713213573690400,26.7136904296875,-0.03506946563720703,0.0368880033493042,0.13298237323760986
1695713213583719400,26.723719482421874,0.0030364990234375,-0.0012192726135253906,0.12730997800827026
1695713213593748500,26.73374853515625,-0.030157089233398438,-0.034367918968200684,0.16479277610778809
1695713213603777800,26.74377783203125,-0.053429603576660156,-0.01573193073272705,0.07077240943908691
1695713213613806800,26.753806884765623,-0.07621288299560547,0.026921629905700684,0.08966219425201416
1695713213623836000,26.7638359375,-0.04184913635253906,0.03637218475341797,0.08647137880325317
1695713213633864700,26.77386474609375,0.010979652404785156,0.02679365873336792,0.08140009641647339
1695713213643893800,26.783893798828124,0.006506919860839844,-0.025504469871520996,0.043075501918792725
1695713213653922800,26.7939228515625,0.049071311950683594,-0.16171687841415405,0.011312305927276611
1695713213663952000,26.803951904296873,-0.04117774963378906,-0.10715562105178833,0.039000868797302246
1695713213673984500,26.813984619140626,0.020796775817871094,-0.1237572431564331,-0.024009644985198975
1695713213684020200,26.824020263671876,-0.0548248291015625,0.033871591091156006,0.03683006763458252
1695713213694056000,26.834055908203126,0.035918235778808594,0.06086975336074829,-0.108009934425354
1695713213704091600,26.844091552734376,-0.0020885467529296875,0.007816016674041748,-0.09912121295928955
1695713213714127400,26.85412744140625,0.012293815612792969,-0.04334533214569092,-0.11915409564971924
1695713213724163000,26.8641630859375,0.0073394775390625,-0.15773558616638184,-0.006094038486480713
1695713213734198800,26.87419873046875,-0.058925628662109375,-0.0581548810005188,0.00780332088470459
1695713213744234500,26.884234375,0.0031976699829101562,0.06713682413101196,0.006640970706939697
1695713213754270200,26.894270263671874,0.06438636779785156,0.10445612668991089,0.03849470615386963
1695713213764306000,26.904305908203124,0.09634208679199219,0.12110233306884766,-0.018917620182037354
1695713213774341600,26.914341552734374,0.09014701843261719,0.11297845840454102,-0.14093345403671265
1695713213784373800,26.924373779296875,0.060474395751953125,0.03461861610412598,-0.15248262882232666
1695713213794404600,26.934404541015624,0.012444496154785156,-0.03275114297866821,-0.13565951585769653
1695713213804435500,26.944435546875,-0.04423999786376953,-0.028092622756958008,-0.11899971961975098
1695713213814466300,26.95446630859375,-0.08114147186279297,-0.004421234130859375,-0.05579221248626709
1695713213824497000,26.964496826171874,-0.06097984313964844,0.07579237222671509,-0.007610917091369629
1695713213834527700,26.97452783203125,-0.041113853454589844,0.07926046848297119,0.04414325952529907
1695713213844558600,26.98455859375,-0.012090682983398438,0.021469414234161377,0.03312128782272339
1695713213854589400,26.99458935546875,0.03530120849609375,-0.00726395845413208,0.07404142618179321
1695713213864620000,27.0046201171875,0.05364799499511719,0.001914381980895996,0.08627080917358398
1695713213874651000,27.01465087890625,0.02928924560546875,-0.06914466619491577,0.05145329236984253
1695713213884683000,27.02468310546875,0.005238533020019531,-0.06344366073608398,0.069766104221344
1695713213894714000,27.034714111328125,-0.02315998077392578,-0.05783766508102417,0.0457921028137207
1695713213904745200,27.0447451171875,-0.06995010375976562,0.004167914390563965,0.102569580078125
1695713213914776600,27.054776611328126,-0.05470752716064453,-0.010118663311004639,0.026083528995513916
1695713213924807700,27.0648076171875,-0.049071311950683594,-0.06615865230560303,0.020520567893981934
1695713213934838800,27.0748388671875,-0.02465534210205078,0.001079857349395752,0.04769539833068848
1695713213944870100,27.0848701171875,0.04175281524658203,-0.036233484745025635,0.008137226104736328
1695713213954901200,27.0949013671875,0.04111194610595703,0.02586650848388672,0.06369823217391968
1695713213964932400,27.104932373046875,0.059276580810546875,0.039895594120025635,0.02451193332672119
1695713213974963700,27.114963623046876,0.05829048156738281,0.053304970264434814,0.04296773672103882
1695713213984995300,27.124995361328125,0.010210990905761719,0.06140637397766113,0.04756581783294678
1695713213995025700,27.135025634765626,-0.027625083923339844,0.012405037879943848,0.033423781394958496
1695713214005056000,27.145055908203126,-0.046016693115234375,0.00183027982711792,-0.03672480583190918
1695713214015086000,27.155086181640623,-0.031087875366210938,0.015380561351776123,-0.05010032653808594
1695713214025116400,27.165116455078124,-0.016462326049804688,0.05280172824859619,-0.016131043434143066
1695713214035146800,27.175146728515625,-0.0209503173828125,0.028812170028686523,-0.006306827068328857
1695713214045176800,27.1851767578125,0.00283050537109375,0.03367197513580322,-0.0009589791297912598
1695713214055207200,27.195207275390626,-0.025434494018554688,0.04185563325881958,-0.047755420207977295
1695713214065237200,27.2052373046875,0.1215066909790039,0.1042587161064148,-0.16288554668426514
1695713214075267600,27.215267578125,0.06302928924560547,0.02440035343170166,0.05838882923126221
1695713214085299500,27.225299560546876,-0.0698556900024414,-0.024528682231903076,-0.016703426837921143
1695713214095332400,27.235332275390626,-0.011999130249023438,-0.18468087911605835,-0.08379155397415161
1695713214105365200,27.245365234375,-0.007117271423339844,-0.10618895292282104,0.06847214698791504
1695713214115398400,27.2553984375,-0.05862998962402344,-0.028943359851837158,-0.13687098026275635
1695713214125431300,27.265431396484374,0.05579566955566406,0.04124736785888672,-0.10046243667602539
1695713214135464200,27.275464111328127,0.05508232116699219,0.04391169548034668,-0.029090523719787598
1695713214145497000,27.2854970703125,-0.011737823486328125,0.04196089506149292,-0.01828455924987793
1695713214155530000,27.295530029296874,-0.020971298217773438,0.04561197757720947,0.024833321571350098
1695713214165563000,27.30556298828125,0.003047943115234375,-0.16663986444473267,-0.09489244222640991
1695713214175595800,27.315595703125,0.18643569946289062,-0.30745184421539307,0.10427898168563843
1695713214185628200,27.325628173828125,-0.21335124969482422,-0.0825355052947998,0.3276485204696655
1695713214195663000,27.3356630859375,-0.1680898666381836,0.15623313188552856,0.09157687425613403
1695713214205698300,27.3456982421875,0.02753734588623047,0.14439547061920166,0.04031193256378174
1695713214215733200,27.355733154296875,0.12128734588623047,0.07936829328536987,-0.1101495623588562
1695713214225768200,27.365768310546876,0.09592533111572266,0.024289071559906006,-0.09913617372512817
1695713214235803100,27.37580322265625,0.03810310363769531,-0.019858181476593018,-0.10370910167694092
1695713214245838000,27.385838134765624,-0.04226207733154297,-0.02023756504058838,-0.038520991802215576
1695713214255873000,27.395873046875,-0.055411338806152344,0.031777381896972656,-0.045147597789764404
1695713214265908000,27.405907958984375,-0.07309722900390625,0.1020159125328064,-0.013761639595031738
1695713214275943000,27.41594287109375,-0.0905609130859375,0.10026472806930542,-0.010277986526489258
1695713214285974000,27.42597412109375,-0.07010269165039062,0.06574004888534546,0.016924381256103516
1695713214295999200,27.435999267578126,0.0066013336181640625,0.05081301927566528,-0.00910109281539917
1695713214306024200,27.446024169921873,0.05857276916503906,0.02672755718231201,-0.03559225797653198
1695713214316049400,27.45604931640625,0.0908803939819336,0.04992145299911499,0.008798182010650635
1695713214326074400,27.466074462890624,0.06601524353027344,0.039669692516326904,0.10562878847122192
1695713214336099600,27.476099609375,0.027250289916992188,-0.031514108180999756,0.06135964393615723
1695713214346124500,27.48612451171875,0.017292022705078125,-0.06867015361785889,0.009417891502380371
1695713214356149800,27.496149658203127,-0.034895896911621094,-0.011806488037109375,0.011008918285369873
1695713214366174700,27.5061748046875,-0.039031028747558594,-0.08324027061462402,-0.0776633620262146
1695713214376200000,27.516199951171874,-0.0288238525390625,-0.11126500368118286,-0.024931788444519043
1695713214386232600,27.526232666015623,0.0001468658447265625,-0.06828373670578003,0.0024778246879577637
1695713214396271600,27.536271728515626,0.03326702117919922,-0.021003782749176025,0.07229369878768921
1695713214406310700,27.546310546875,0.0656900405883789,0.007060050964355469,0.052563488483428955
1695713214416349700,27.556349609375,0.055001258850097656,-0.07800352573394775,0.05362558364868164
1695713214426388500,27.566388427734374,-0.012105941772460938,-0.07709294557571411,0.06988507509231567
1695713214436427500,27.576427490234376,-0.07333183288574219,-0.0765538215637207,0.033845484256744385
1695713214446466600,27.586466552734375,-0.06261157989501953,0.03668630123138428,0.014577031135559082
1695713214456505600,27.596505615234374,0.004543304443359375,0.04928755760192871,-0.02441990375518799
1695713214466544400,27.60654443359375,-0.004840850830078125,0.020034730434417725,-0.006100893020629883
1695713214476583400,27.61658349609375,-0.04238319396972656,-0.026910722255706787,-0.05396151542663574
1695713214486622500,27.62662255859375,-0.013408660888671875,-0.002295851707458496,-0.06791079044342041
1695713214496654600,27.636654541015623,-0.017945289611816406,0.054937779903411865,-0.015086352825164795
1695713214506684000,27.646683837890624,-0.017745018005371094,-0.0015317797660827637,-0.066497802734375
1695713214516713500,27.65671337890625,-0.026882171630859375,-0.014514744281768799,-0.04267847537994385
1695713214526743000,27.666742919921877,0.01604938507080078,0.009674489498138428,0.00841909646987915
1695713214536772400,27.6767724609375,0.05822944641113281,0.10351455211639404,0.08307111263275146
1695713214546802000,27.686802001953126,0.047745704650878906,0.0736340880393982,0.03075927495956421
1695713214556831500,27.69683154296875,0.01871013641357422,0.07715272903442383,-0.01228874921798706
1695713214566860800,27.70686083984375,0.04668712615966797,-0.07050788402557373,-0.05918455123901367
1695713214576890400,27.716890380859375,-0.024566650390625,-0.11716312170028687,-0.08260071277618408
1695713214586920000,27.726919921875,-0.005017280578613281,-0.022396743297576904,-0.003009498119354248
1695713214596949200,27.73694921875,-0.03291797637939453,0.056753337383270264,0.042600810527801514
1695713214606978600,27.746978515625,0.014728546142578125,0.08875513076782227,0.06532007455825806
1695713214617013200,27.75701318359375,-0.08465003967285156,0.24390476942062378,0.1786465048789978
1695713214627048200,27.767048095703124,0.006133079528808594,0.11326974630355835,-0.06876754760742188
1695713214637083000,27.777082763671874,0.09059906005859375,-0.36356526613235474,-0.16518783569335938
1695713214647117600,27.78711767578125,-0.07599925994873047,-0.39048755168914795,0.019368112087249756
1695713214657152500,27.797152587890626,0.01959991455078125,0.06253504753112793,-0.21726053953170776
1695713214667187200,27.807187255859375,0.03825187683105469,0.08903998136520386,0.02570188045501709
1695713214677222000,27.817221923828125,0.056571006774902344,0.026222646236419678,0.04772138595581055
1695713214687256600,27.827256591796875,-0.015286445617675781,0.0030100345611572266,0.2515471577644348
1695713214697291500,27.83729150390625,-0.14280128479003906,0.2155551314353943,0.4319620132446289
1695713214707326200,27.847326171875,-0.08901119232177734,0.13203215599060059,0.0706208348274231
1695713214717355800,27.857355712890627,0.03955364227294922,-0.039997220039367676,-0.06161075830459595
1695713214727387100,27.86738720703125,0.057819366455078125,-0.10620343685150146,-0.11243730783462524
1695713214737418500,27.87741845703125,0.04755687713623047,-0.08678948879241943,-0.09656018018722534
1695713214747449900,27.887449951171874,0.02800273895263672,-0.07200157642364502,-0.03377145528793335
1695713214757481000,27.89748095703125,-0.024315834045410156,-0.009562194347381592,0.023838281631469727
1695713214767512300,27.90751220703125,-0.047585487365722656,0.057070255279541016,0.0054209232330322266
1695713214777543700,27.917543701171876,-0.08457756042480469,0.08069974184036255,-0.022691726684570312
1695713214787575000,27.927574951171874,-0.05495166778564453,0.07565385103225708,-0.07464438676834106
1695713214797606400,27.9376064453125,0.0118560791015625,0.00924217700958252,-0.07851088047027588
1695713214807637500,27.947637451171875,0.058684349060058594,-0.03746664524078369,-0.0817825198173523
1695713214817668900,27.9576689453125,0.05282878875732422,-0.06435465812683105,-0.05586576461791992
1695713214827698700,27.96769873046875,0.01883411407470703,0.05014801025390625,-0.016128480434417725
1695713214837729800,27.977729736328126,0.03738689422607422,0.049301981925964355,-0.07737267017364502
1695713214847760600,27.9877607421875,0.03687572479248047,0.01539069414138794,-0.06764227151870728
1695713214857791700,27.997791748046875,0.0034122467041015625,0.03848695755004883,-0.025060713291168213
1695713214867822600,28.007822509765624,-0.0013113021850585938,0.0895184874534607,0.03626585006713867
1695713214877853700,28.017853759765625,-0.02484416961669922,0.08838969469070435,-0.039871037006378174
1695713214887884500,28.027884521484374,0.027436256408691406,-0.1714162826538086,-0.20056498050689697
1695713214897915600,28.03791552734375,-0.03894805908203125,0.104686439037323,0.0663912296295166
1695713214907946500,28.047946533203124,-0.00044727325439453125,0.1076120138168335,-0.10126465559005737
1695713214917977300,28.057977294921876,0.02820110321044922,0.020669877529144287,-0.06537419557571411
1695713214928008400,28.068008544921874,0.056517601013183594,-0.027581214904785156,-0.02172720432281494
1695713214938038800,28.078038818359374,0.05128765106201172,-0.1035199761390686,0.07429832220077515
1695713214948071700,28.08807177734375,0.04134654998779297,-0.15929025411605835,0.047117650508880615
1695713214958104600,28.0981044921875,-0.0203399658203125,-0.012066543102264404,0.08781492710113525
1695713214968137700,28.1081376953125,-0.019826889038085938,0.014196276664733887,0.10067135095596313
1695713214978170600,28.118170654296875,-0.047705650329589844,0.08226031064987183,0.0864945650100708
1695713214988203500,28.12820361328125,-0.06581687927246094,-0.005758523941040039,0.1015518307685852
1695713214998236400,28.138236328125,-0.060088157653808594,-0.08170503377914429,0.08240824937820435
1695713215008269300,28.148269287109375,-0.0874319076538086,-0.02804499864578247,0.057978034019470215
1695713215018302500,28.158302490234377,-0.029333114624023438,-0.0926477313041687,0.021918773651123047
1695713215028335400,28.16833544921875,0.056220054626464844,-0.03421670198440552,-0.04780304431915283
1695713215038368300,28.1783681640625,0.06498241424560547,0.027462422847747803,0.020882129669189453
1695713215048398800,28.18839892578125,0.040595054626464844,-0.006495058536529541,-0.009629547595977783
1695713215058430000,28.198429931640625,0.021211624145507812,0.025835156440734863,-0.0006764531135559082
1695713215068461000,28.2084609375,-0.05923175811767578,0.05809211730957031,0.07536160945892334
1695713215078492000,28.218491943359375,-0.08177471160888672,0.029401183128356934,-0.025381147861480713
1695713215088523000,28.22852294921875,-0.05201530456542969,-0.02200794219970703,0.038716018199920654
1695713215098554000,28.23855419921875,-0.05089759826660156,-0.08214765787124634,-0.007471323013305664
1695713215108585200,28.248585205078125,0.02099609375,-0.15154653787612915,-0.011448085308074951
1695713215118616300,28.2586162109375,0.04930591583251953,-0.0649646520614624,-0.04304099082946777
1695713215128647400,28.2686474609375,0.08653926849365234,-0.10712850093841553,-0.040777385234832764
1695713215138678500,28.278678466796876,0.07593059539794922,-0.0025954842567443848,0.06639742851257324
1695713215148709600,28.288709716796873,-0.010018348693847656,0.006497979164123535,0.055475831031799316
1695713215158741000,28.298740966796874,-0.038039207458496094,-0.16326749324798584,0.025774478912353516
1695713215168776000,28.30877587890625,-0.09395790100097656,-0.03331631422042847,0.15760499238967896
1695713215178811000,28.318810791015625,-0.12053298950195312,-0.0659254789352417,0.017471790313720703
1695713215188845800,28.328845703125,-0.047492027282714844,-0.12664496898651123,-0.061780452728271484
1695713215198880800,28.338880859375,0.029041290283203125,0.002243936061859131,0.043670058250427246
1695713215208916000,28.348916015625,-0.022973060607910156,0.016578733921051025,0.006988823413848877
1695713215218951000,28.358950927734377,-0.027042388916015625,-0.025453925132751465,-0.048195481300354004
1695713215228985900,28.36898583984375,0.001804351806640625,-0.0146867036819458,-0.007406055927276611
1695713215239020800,28.379020751953124,0.001659393310546875,0.034366726875305176,0.025257647037506104
1695713215249055700,28.3890556640625,-0.022115707397460938,0.02224498987197876,0.001007378101348877
1695713215259091000,28.399091064453124,-0.02196788787841797,-0.017298400402069092,0.009686172008514404
1695713215269122000,28.4091220703125,-0.04533958435058594,-0.04706472158432007,0.008800864219665527
1695713215279153000,28.41915283203125,-0.03525066375732422,-0.03926163911819458,0.01675039529800415
1695713215289183700,28.429183837890626,0.02646160125732422,-0.01338726282119751,0.011070489883422852
1695713215299214300,28.43921435546875,0.07284927368164062,0.0210912823677063,0.07827585935592651
1695713215309245200,28.4492451171875,0.06643390655517578,0.08789986371994019,0.1045147180557251
1695713215319276000,28.459276123046877,0.059983253479003906,0.14411336183547974,0.12244796752929688
1695713215329307000,28.469306884765626,0.011203765869140625,0.13333439826965332,0.05605673789978027
1695713215339337500,28.47933740234375,-0.008439064025878906,0.11790096759796143,-0.04285454750061035
1695713215349368300,28.489368408203124,-0.022823333740234375,0.29970818758010864,-0.019296109676361084
1695713215359399200,28.499399169921876,0.024664878845214844,0.340387225151062,-0.032007038593292236
1695713215369430000,28.509429931640625,0.08586406707763672,0.21467024087905884,-0.08993685245513916
1695713215379461000,28.519461181640626,0.11321449279785156,0.05316281318664551,-0.14336365461349487
1695713215389492000,28.529491943359375,0.08829593658447266,0.012308359146118164,-0.19123494625091553
1695713215399523000,28.539523193359376,0.05423450469970703,0.07157766819000244,-0.23737913370132446
1695713215409554200,28.54955419921875,0.006485939025878906,0.1586540937423706,-0.23952919244766235
1695713215419585000,28.5595849609375,-0.04537010192871094,0.17448389530181885,-0.24040281772613525
1695713215429616000,28.5696162109375,-0.0871286392211914,0.12032413482666016,-0.23077648878097534
1695713215439647000,28.57964697265625,-0.10928535461425781,0.1246805191040039,-0.22773241996765137
1695713215449678000,28.589677978515624,-0.06485271453857422,0.09192895889282227,-0.20950531959533691
1695713215459709200,28.599709228515625,0.026165008544921875,0.02753680944442749,-0.19002670049667358
1695713215469740000,28.609739990234374,0.09221553802490234,-0.012081563472747803,-0.1484714150428772
1695713215479771100,28.619771240234375,0.11484336853027344,-0.02786731719970703,-0.14087951183319092
1695713215489796000,28.629796142578126,0.11821842193603516,-0.030011117458343506,-0.09940207004547119
1695713215499843000,28.639843017578126,0.09786128997802734,-0.04693561792373657,-0.06135779619216919
1695713215509890300,28.649890380859375,0.07303714752197266,-0.0826256275177002,-0.018041789531707764
1695713215519937300,28.659937255859376,0.029526710510253906,-0.16502845287322998,0.04637765884399414
1695713215529960000,28.6699599609375,-0.07454681396484375,-0.006025969982147217,0.05883437395095825
1695713215539989500,28.679989501953123,-0.07787322998046875,0.10825800895690918,0.05054503679275513
1695713215550019000,28.69001904296875,-0.034084320068359375,-0.0381091833114624,0.2355048656463623
1695713215560048400,28.70004833984375,0.023004531860351562,-0.1305018663406372,0.2820841073989868
1695713215570078000,28.710077880859377,-0.0056896209716796875,-0.03820735216140747,0.2538403272628784
1695713215580107500,28.720107421875,0.013278961181640625,-0.06120973825454712,0.13627231121063232
1695713215590137000,28.73013720703125,0.05548286437988281,-0.00868755578994751,0.18085575103759766
1695713215600166400,28.74016650390625,-0.030510902404785156,0.011006534099578857,0.18056178092956543
1695713215610196000,28.750196044921875,-0.11038017272949219,-0.053609371185302734,0.14673620462417603
1695713215620225500,28.7602255859375,-0.09944629669189453,-0.14496880769729614,0.20711618661880493
1695713215630255000,28.770255126953124,-0.08417701721191406,-0.16872328519821167,0.2589930295944214
1695713215640279600,28.780279541015624,-0.07399845123291016,-0.2063799500465393,0.2503528594970703
1695713215650312400,28.7903125,-0.02170562744140625,-0.135128915309906,0.25700026750564575
1695713215660345600,28.800345703125,-0.012644767761230469,-0.07937145233154297,0.1834733486175537
1695713215670378500,28.81037841796875,0.052939414978027344,-0.0390017032623291,0.07195192575454712
1695713215680411400,28.820411376953125,0.09868621826171875,0.014487206935882568,0.06521940231323242
1695713215690444500,28.830444580078126,0.096435546875,-0.022804081439971924,0.03235536813735962
1695713215700477400,28.8404775390625,0.004607200622558594,-0.040759921073913574,0.02057415246963501
1695713215710510300,28.85051025390625,-0.04343128204345703,0.012388169765472412,0.02883201837539673
1695713215720543500,28.86054345703125,-0.09999847412109375,-0.01990485191345215,-0.025450289249420166
1695713215730576400,28.870576416015624,-0.084686279296875,0.028216421604156494,-0.0960465669631958
1695713215740609300,28.880609375,-0.027092933654785156,0.0847475528717041,-0.14810454845428467
1695713215750638300,28.890638427734373,0.05333900451660156,0.11619424819946289,-0.21548974514007568
1695713215760690700,28.900690673828127,0.019211769104003906,0.2131304144859314,0.0075629353523254395
1695713215770743000,28.910742919921876,0.0089263916015625,0.13490307331085205,0.08302927017211914
1695713215780795100,28.920795166015626,0.0031948089599609375,-0.08216202259063721,0.2442271113395691
1695713215790847500,28.930847412109376,-0.031009674072265625,-0.15892189741134644,0.24567091464996338
1695713215800899600,28.940899658203126,-0.14005184173583984,-0.008454084396362305,-0.015913546085357666
1695713215810952000,28.950951904296875,-0.06767559051513672,0.16263216733932495,-0.18066608905792236
1695713215821004300,28.96100439453125,0.15935039520263672,0.05685609579086304,-0.14405250549316406
1695713215831056400,28.971056396484375,0.12818336486816406,-0.061869263648986816,-0.18141907453536987
1695713215841085400,28.98108544921875,0.05481910705566406,-0.07462471723556519,-0.10693615674972534
1695713215851132700,28.991132568359376,-0.0835275650024414,-0.09074521064758301,-0.07439982891082764
1695713215861161700,29.00116162109375,-0.08283615112304688,-0.09668052196502686,-0.16710501909255981
1695713215871190500,29.0111904296875,-0.02050304412841797,-0.08828204870223999,-0.22493791580200195
1695713215881240600,29.021240478515626,0.09273719787597656,-0.028541862964630127,-0.17467951774597168
1695713215891269600,29.03126953125,0.05353355407714844,-0.1070525050163269,-0.23404067754745483
1695713215901288000,29.041287841796876,0.12336444854736328,-0.029702603816986084,-0.052316904067993164
1695713215911317000,29.05131689453125,0.11616134643554688,0.1677524447441101,-0.013620138168334961
1695713215921366800,29.06136669921875,-0.013669967651367188,0.08360636234283447,0.06084495782852173
1695713215931384300,29.07138427734375,0.014180183410644531,-0.08864843845367432,0.10926306247711182
1695713215941413400,29.081413330078124,-0.019489288330078125,-0.11184024810791016,0.0657244324684143
1695713215951436000,29.09143603515625,-0.10405731201171875,-0.11134922504425049,0.010608315467834473
1695713215961499600,29.101499755859376,-0.11652469635009766,-0.02591484785079956,0.007455229759216309
1695713215971528700,29.11152880859375,-0.12450504302978516,0.04004901647567749,0.12532150745391846
1695713215981542000,29.1215419921875,-0.06270599365234375,-0.08089148998260498,0.3656662106513977
1695713215991585800,29.131585693359376,-0.1107473373413086,-0.5112990140914917,0.23584485054016113
1695713216001612000,29.141612060546876,-0.044086456298828125,-0.9391289353370667,-0.036163330078125
1695713216011628300,29.151628173828126,-0.14983844757080078,-0.7158492207527161,-0.8708599805831909
1695713216021644300,29.161644287109375,0.06890010833740234,0.00884026288986206,-1.2850675582885742
1695713216031660300,29.171660400390625,0.3872365951538086,0.7348654866218567,-0.8375625610351562
1695713216041676500,29.181676513671874,0.3299703598022461,0.9378941655158997,-0.12574893236160278
1695713216051692500,29.191692626953124,-0.011372566223144531,0.3091455101966858,0.528083324432373
1695713216061708500,29.20170849609375,-0.3384742736816406,-0.2613207697868347,0.9055892825126648
1695713216071724800,29.211724853515626,-0.3112325668334961,-0.21009796857833862,0.7401436567306519
1695713216081740800,29.22174072265625,-0.11442279815673828,-0.09959143400192261,0.4557936191558838
1695713216091756800,29.2317568359375,0.14110565185546875,0.01812678575515747,0.3336491584777832
1695713216101772800,29.241772705078127,0.24203777313232422,-0.023448467254638672,-0.02790975570678711
1695713216111800600,29.251800537109375,0.2847471237182617,0.03764873743057251,-0.10363489389419556
1695713216121833700,29.261833740234376,0.2652778625488281,0.16155540943145752,-0.16883420944213867
1695713216131867000,29.271866943359374,0.17020034790039062,0.3431159257888794,0.009486019611358643
1695713216141900000,29.281900146484375,-0.0036830902099609375,0.4446669816970825,0.11397457122802734
1695713216151933000,29.291932861328124,-0.09451675415039062,0.4300229549407959,0.24495768547058105
1695713216161966000,29.301966064453126,-0.18356800079345703,0.4329734742641449,0.3298870325088501
1695713216171999200,29.311999267578123,-0.13938236236572266,0.407829225063324,0.3759765028953552
1695713216182032400,29.322032470703125,-0.1572742462158203,0.29498326778411865,0.23261499404907227
1695713216192065500,29.3320654296875,-0.0052433013916015625,0.08172804117202759,-0.11791563034057617
1695713216202098700,29.3420986328125,0.026673316955566406,-0.017826497554779053,-0.008805036544799805
1695713216212131800,29.3521318359375,-0.04053974151611328,0.021589040756225586,-0.14952361583709717
1695713216222159600,29.36215966796875,-0.02584075927734375,0.20760351419448853,0.0060617923736572266
1695713216232189200,29.372189208984373,0.08849048614501953,-0.0918576717376709,0.07322549819946289
1695713216242218800,29.38221875,0.11228179931640625,-0.1778058409690857,0.06979119777679443
1695713216252248300,29.392248291015626,0.06964969635009766,-0.037276268005371094,0.180869460105896
1695713216262278000,29.40227783203125,-0.02922821044921875,-0.17721909284591675,-0.040174126625061035
1695713216272307500,29.412307373046875,-0.1595439910888672,-0.24240845441818237,-0.0037724971771240234
1695713216282336800,29.422336669921876,-0.08967876434326172,0.029477477073669434,0.1552964448928833
1695713216292366300,29.432366455078125,-0.0962514877319336,0.19774514436721802,0.08029752969741821
1695713216302396000,29.44239599609375,0.09071922302246094,0.046823740005493164,-0.1942812204360962
1695713216312425500,29.452425537109374,0.16640090942382812,-0.18450015783309937,-0.44867831468582153
1695713216322455000,29.462455078125,0.14183902740478516,-0.12377125024795532,-0.42605751752853394
1695713216332484000,29.472484130859375,0.03745460510253906,-0.3028595447540283,-0.4884510636329651
1695713216342518000,29.48251806640625,0.0896444320678711,-0.6619623303413391,-0.42290836572647095
1695713216352552000,29.492552001953126,-0.020340919494628906,-0.6781203150749207,-0.10430669784545898
1695713216362586000,29.502586181640623,-0.15766048431396484,-0.35546064376831055,0.06326562166213989
1695713216372620000,29.5126201171875,-0.14241695404052734,-0.09447211027145386,0.10456395149230957
1695713216382654000,29.522654052734374,-0.038127899169921875,0.1083114743232727,0.08720922470092773
1695713216392688000,29.532688232421876,0.026815414428710938,0.3218182325363159,0.05023866891860962
1695713216402722000,29.54272216796875,0.048729896545410156,0.5469967722892761,0.022557079792022705
1695713216412756000,29.552755859375,0.1511545181274414,0.4731881022453308,-0.1503371000289917
1695713216422790000,29.562789794921876,0.21875762939453125,0.35483264923095703,-0.0235673189163208
1695713216432824000,29.572823974609374,0.09193229675292969,0.2193392515182495,-0.10837757587432861
1695713216442854000,29.58285400390625,0.0806131362915039,0.034251391887664795,-0.22823560237884521
1695713216452887600,29.592887451171876,0.08826828002929688,-0.16702717542648315,-0.23233544826507568
1695713216462921200,29.602921142578126,-0.01768207550048828,-0.09855318069458008,-0.2400660514831543
1695713216472954600,29.61295458984375,-0.054988861083984375,-0.08443152904510498,-0.47070765495300293
1695713216482988300,29.62298828125,-0.048821449279785156,-0.17805099487304688,0.12254351377487183
1695713216493022000,29.63302197265625,-0.13822078704833984,-0.15997314453125,0.09319967031478882
1695713216503055600,29.6430556640625,-0.11868572235107422,-0.0032902956008911133,0.01236116886138916
1695713216513089300,29.65308935546875,-0.22260093688964844,0.1619817018508911,0.19135886430740356
1695713216523123000,29.663123046875,-0.3104066848754883,0.5467373132705688,0.01113581657409668
1695713216533156400,29.67315625,0.2616262435913086,0.25167185068130493,-0.6456917524337769
1695713216543190000,29.68318994140625,0.7465877532958984,-0.3300495147705078,-0.1361987590789795
1695713216553220000,29.69322021484375,0.30710792541503906,-0.08813667297363281,-0.3410543203353882
1695713216563251200,29.703251220703127,-0.43018150329589844,-0.04653632640838623,-0.14118564128875732
1695713216573282300,29.7132822265625,-0.26651573181152344,-0.5941072702407837,0.0022083520889282227
1695713216583313400,29.7233134765625,0.0017118453979492188,-0.7221608757972717,0.36551713943481445
1695713216593344500,29.733344482421874,-0.20495223999023438,-0.0472339391708374,0.7189592719078064
1695713216603375400,29.743375244140626,-0.4243297576904297,0.4413182735443115,0.5406690835952759
1695713216613406500,29.753406494140624,-0.2843132019042969,0.15526247024536133,-0.09960758686065674
1695713216623437600,29.7634375,-0.04777050018310547,-0.1759999394416809,-0.05128955841064453
1695713216633468700,29.77346875,-0.3153696060180664,-0.031964123249053955,0.12394869327545166
1695713216643499500,29.78349951171875,-0.06936931610107422,-0.009204506874084473,0.14952600002288818
1695713216653530600,29.793530517578127,0.3801231384277344,0.015651345252990723,0.3592095375061035
1695713216663561000,29.80356103515625,0.5177431106567383,0.15683752298355103,0.2726156711578369
1695713216673591600,29.813591552734376,1.4064669609069824,1.8405888080596924,0.7468719482421875
1695713216683622100,29.8236220703125,-0.4622478485107422,3.035959482192993,4.2263007164001465
1695713216693652700,29.83365283203125,-2.6146888732910156,0.44072234630584717,3.496713876724243
1695713216703683300,29.843683349609375,-1.9527416229248047,-1.1875483989715576,0.04893839359283447
1695713216713714000,29.8537138671875,-0.3172492980957031,-1.7742608785629272,-2.154484510421753
1695713216723744500,29.86374462890625,0.617009162902832,-1.92672598361969,-3.6482834815979004
1695713216733775000,29.873775146484373,0.7851362228393555,-1.7624833583831787,-5.157564163208008
1695713216743805700,29.8838056640625,1.337165355682373,-0.8616077899932861,-4.6186041831970215
1695713216753836300,29.893836181640626,3.0770044326782227,0.6783256530761719,-1.6730678081512451
1695713216763867000,29.903866943359375,2.0258431434631348,2.1297366619110107,1.8529770374298096
1695713216773900000,29.913900146484377,-0.7143115997314453,1.8461241722106934,3.1512465476989746
1695713216783933000,29.923932861328126,-1.745722770690918,1.2680950164794922,3.779356002807617
1695713216793965800,29.9339658203125,-1.9622764587402344,0.4134109616279602,3.708221673965454
1695713216803998700,29.943998779296876,-1.384293556213379,-0.32470250129699707,2.4823570251464844
1695713216814032000,29.954031982421874,-0.45739269256591797,-0.8648885488510132,0.01958310604095459
1695713216824064800,29.964064697265623,0.2536935806274414,-1.0474013090133667,-1.6721590757369995
1695713216834097700,29.97409765625,0.5491571426391602,-0.575656533241272,-2.5336122512817383
1695713216844130600,29.984130615234374,0.5152788162231445,0.2772327661514282,-1.6399728059768677
1695713216854163500,29.99416357421875,0.8597660064697266,0.45323044061660767,0.2661895751953125
1695713216864196600,30.004196533203125,0.18407917022705078,-0.09219741821289062,0.5547058582305908
1695713216874228000,30.01422802734375,0.039524078369140625,-0.6215962171554565,-0.5135833024978638
1695713216884262000,30.024261962890623,-0.13738250732421875,-1.048145055770874,-2.2713623046875
1695713216894296000,30.034296142578125,-0.6683149337768555,-0.8220665454864502,-3.064715623855591
1695713216904330000,30.044330078125,-1.0567922592163086,-0.9194778203964233,-3.0751688480377197
1695713216914364200,30.0543642578125,-1.1313018798828125,-1.0725197792053223,-2.600374221801758
1695713216924398300,30.0643984375,-1.451371192932129,-1.4103134870529175,-1.887808084487915
1695713216934432300,30.074432373046875,-2.2705297470092773,-2.13981032371521,-1.7197344303131104
1695713216944466400,30.084466552734376,-2.594393730163574,-2.869025230407715,-1.765533447265625
1695713216954500400,30.094500244140626,-2.2837820053100586,-3.022073268890381,-2.0202584266662598
1695713216964534500,30.104534423828124,-1.3387842178344727,-2.876800060272217,-2.500575542449951
1695713216974568400,30.114568359375,0.5778112411499023,-2.426987648010254,-3.12637996673584
1695713216984599300,30.124599365234374,3.1520862579345703,-1.9771366119384766,-3.645494222640991
1695713216994627800,30.1346279296875,4.299271106719971,-1.250985860824585,-3.82198429107666
1695713217004656000,30.14465625,3.368485450744629,-0.5963375568389893,-3.6158151626586914
1695713217014684700,30.1546845703125,1.9903807640075684,-0.7428164482116699,-3.9153647422790527
1695713217024713000,30.164712890625,1.3191514015197754,-1.0233662128448486,-3.8289589881896973
1695713217034741200,30.1747412109375,1.3219704627990723,-1.5295815467834473,-3.4324371814727783
1695713217044769800,30.184769775390624,1.587653636932373,-2.3245723247528076,-3.0300133228302
1695713217054798000,30.194798095703124,2.822366714477539,-2.6573634147644043,-1.7156376838684082
1695713217064826600,30.20482666015625,4.5467610359191895,-3.6946489810943604,-0.14538025856018066
1695713217074855000,30.21485498046875,3.8801498413085938,-5.298995018005371,0.5271368026733398
1695713217084886300,30.22488623046875,0.8838872909545898,-7.544740676879883,1.9139357805252075
1695713217094919200,30.234919189453127,-0.22084808349609375,-5.264326095581055,2.3367180824279785
1695713217104952000,30.2449521484375,-1.6986732482910156,-0.2758312225341797,2.576462745666504
1695713217114984700,30.254984619140625,-0.8265037536621094,3.355815887451172,3.5459725856781006
1695713217125017600,30.265017578125,-0.878474235534668,5.673913478851318,2.660182237625122
1695713217135050500,30.275050537109376,-0.4007577896118164,5.905521392822266,0.6896777153015137
1695713217145083400,30.28508349609375,0.5347957611083984,5.586296558380127,-0.39214181900024414
1695713217155116300,30.2951162109375,0.6975317001342773,6.009039878845215,-0.005147695541381836
1695713217165149200,30.305149169921876,0.14021587371826172,6.460237979888916,0.13247179985046387
1695713217175181800,30.315181884765625,0.07129859924316406,8.04893684387207,-0.3152890205383301
1695713217185214200,30.325214111328126,0.820551872253418,7.934600830078125,-1.5888415575027466
1695713217195251000,30.3352509765625,1.5589652061462402,6.6434006690979,-2.752883195877075
1695713217205288000,30.345287841796875,2.7214441299438477,5.552263259887695,-3.223418712615967
1695713217215324700,30.35532470703125,2.2773208618164062,5.5901031494140625,-3.632451057434082
1695713217225361700,30.365361572265623,-0.15983104705810547,5.738910675048828,-4.005947113037109
1695713217235398400,30.3753984375,-2.687228202819824,4.996057987213135,-3.0879392623901367
1695713217245435400,30.385435302734376,-4.174449920654297,2.0051286220550537,-0.5025887489318848
1695713217255472000,30.39547216796875,-3.5900135040283203,0.2150888442993164,1.389967441558838
1695713217265508900,30.4055087890625,-2.7535390853881836,1.0278944969177246,1.719498634338379
1695713217275545900,30.4155458984375,-1.5314550399780273,0.8905889987945557,0.7703118324279785
1695713217285577500,30.425577392578123,0.2624778747558594,2.0097641944885254,0.3777308464050293
1695713217295606500,30.4356064453125,0.5654382705688477,0.6447131633758545,-0.24418425559997559
1695713217305635800,30.4456357421875,0.4428377151489258,-0.08053183555603027,-0.7101840972900391
1695713217315665000,30.455664794921876,0.08653926849365234,0.5940456390380859,-0.026473522186279297
1695713217325694000,30.46569384765625,-0.49700450897216797,0.9382038116455078,-0.0003674030303955078
1695713217335723000,30.475722900390625,1.1537222862243652,2.022500991821289,-0.30173611640930176
1695713217345752000,30.485751953125,1.5512661933898926,2.644932270050049,-0.764409065246582
1695713217355781400,30.495781494140626,1.4755654335021973,1.0070865154266357,-1.2082445621490479
1695713217365810400,30.505810546875,-1.3483352661132812,-2.4145348072052,-0.591240406036377
1695713217375839500,30.515839599609375,0.45157432556152344,-2.045559883117676,0.5543837547302246
1695713217385871600,30.52587158203125,1.1296095848083496,-0.2622718811035156,0.5820109844207764
1695713217395906300,30.53590625,-0.4100360870361328,-0.4396848678588867,0.023681640625
1695713217405941000,30.54594091796875,-2.1862382888793945,-2.3515801429748535,0.48926615715026855
1695713217415975400,30.555975341796874,-1.5741605758666992,-3.116675853729248,-0.1739192008972168
1695713217426010000,30.566010009765623,-1.1888084411621094,-3.6403377056121826,-0.8618947267532349
1695713217436044500,30.57604443359375,-1.2602529525756836,-2.582355499267578,-0.23069000244140625
1695713217446079200,30.586079345703126,-1.562718391418457,-1.8046236038208008,-0.41864681243896484
1695713217456113700,30.59611376953125,-1.9069795608520508,-3.1943464279174805,-1.1497100591659546
1695713217466148400,30.6061484375,-2.3313684463500977,-5.123222351074219,-0.8666789531707764
1695713217476182800,30.616182861328124,-1.4306821823120117,-5.839867115020752,-0.379835844039917
1695713217486217500,30.626217529296873,-0.5034761428833008,-5.680201053619385,-0.6442649364471436
1695713217496249300,30.636249267578126,0.9610934257507324,-5.450763702392578,-2.573129415512085
1695713217506279200,30.646279052734375,1.0759968757629395,-5.855732440948486,-2.7335569858551025
1695713217516309000,30.65630908203125,2.2421932220458984,-4.945375919342041,-1.1425929069519043
1695713217526338600,30.666338623046876,2.029475212097168,-4.013738632202148,-1.7814548015594482
1695713217536368400,30.676368408203125,-0.8273983001708984,-2.9515163898468018,-1.005265474319458
1695713217546398200,30.686398193359373,-0.37720489501953125,-3.0418426990509033,-0.17533540725708008
1695713217556428000,30.696427978515626,3.7326178550720215,-2.384268045425415,0.37348127365112305
1695713217566457900,30.706457763671875,0.5790309906005859,-1.8456374406814575,3.498593807220459
1695713217576487400,30.7164873046875,-1.7928690910339355,-0.7839128971099854,5.083199501037598
1695713217586517200,30.726517333984376,-2.6295628547668457,-0.5332950949668884,5.941577434539795
1695713217596547000,30.736547119140624,-3.9050588607788086,-0.469291090965271,5.403884410858154
1695713217606578700,30.74657861328125,-2.4834532737731934,1.5450191497802734,-0.25466012954711914
1695713217616610000,30.756610107421874,-0.8309841156005859,4.081811904907227,-4.284802436828613
1695713217626641400,30.766641357421875,-4.862453937530518,4.131209850311279,-5.086416244506836
1695713217636672800,30.7766728515625,-7.469790935516357,4.815789222717285,-2.5400185585021973
1695713217646704000,30.7867041015625,-8.088520050048828,4.293394088745117,0.5324516296386719
1695713217656735700,30.79673583984375,-8.527886390686035,3.8875482082366943,2.286586284637451
1695713217666767000,30.80676708984375,-5.897725582122803,4.760513782501221,2.017794609069824
1695713217676798500,30.816798583984376,-4.173599720001221,5.498778343200684,0.838160514831543
1695713217686829800,30.826829833984377,-2.7906360626220703,5.606558322906494,-0.3554658889770508
1695713217696861000,30.83686083984375,-1.1379287242889404,5.410272598266602,-0.6466102600097656
1695713217706899200,30.846899169921876,-0.5596988201141357,4.829410076141357,-0.4332437515258789
1695713217716972300,30.85697216796875,-0.8809232711791992,5.984811305999756,1.7899293899536133
