time,seconds_elapsed,z,y,x
1695712542050217000,0.176217041015625,8.035696983337402,6.466004848480225,-0.8273184299468994
1695712542060258000,0.186258056640625,7.719245910644531,6.437291145324707,-1.0187442302703857
1695712542070258400,0.196258544921875,7.70967435836792,6.662216663360596,-0.9900303483009338
1695712542080332000,0.20633203125,7.6043901443481445,6.796812534332275,-0.875174880027771
1695712542090319600,0.216319580078125,7.63310432434082,6.710072994232178,-0.7070791125297546
1695712542100357600,0.226357666015625,7.901698589324951,6.763313293457031,-0.7501499056816101
1695712542110366500,0.236366455078125,7.747959613800049,6.69571590423584,-0.9326026439666748
1695712542120441000,0.246441162109375,7.326822757720947,6.437291145324707,-1.057029366493225
1695712542130477800,0.256477783203125,7.546962738037109,6.585646152496338,-1.1001001596450806
1695712542140486400,0.266486328125,7.63310432434082,6.80159854888916,-0.7549355626106262
1695712542150511400,0.276511474609375,7.6666035652160645,6.868597507476807,-0.4007977843284607
1695712542160565000,0.28656494140625,7.623532772064209,6.9068827629089355,-0.1423729509115219
1695712542170602000,0.29660205078125,7.441678524017334,6.854240417480469,-0.3481557071208954
1695712542180638700,0.306638671875,7.379465103149414,6.6143598556518555,-0.9373882412910461
1695712542190675500,0.316675537109375,7.345965385437012,6.561717987060547,-1.4111671447753906
1695712542200698400,0.326698486328125,7.661818027496338,6.782455921173096,-1.6313068866729736
1695712542210729200,0.336729248046875,7.882555961608887,6.3463640213012695,-1.1096714735031128
1695712542220761900,0.346761962890625,7.81555700302124,6.4325056076049805,-0.8991031050682068
1695712542230793500,0.35679345703125,7.676175117492676,6.768098831176758,-1.0618150234222412
1695712542240851000,0.366850830078125,7.226324558258057,6.652645111083984,-1.0187442302703857
1695712542250893600,0.3768935546875,7.063612461090088,6.820741176605225,-0.6305087804794312
1695712542260911400,0.386911376953125,6.718447685241699,6.537789821624756,-0.08973085135221481
1695712542270943200,0.396943115234375,6.598806858062744,7.0025954246521,-0.5539384484291077
1695712542280980500,0.40698046875,6.302096843719482,6.690930366516113,-0.778863787651062
1695712542291014700,0.4170146484375,6.067600250244141,5.934798240661621,-0.8321040868759155
1695712542301044500,0.42704443359375,6.3978095054626465,6.475576400756836,-1.2149556875228882
1695712542311076900,0.437076904296875,6.354738712310791,6.126224040985107,-1.033101201057434
1695712542321106400,0.4471064453125,6.570092678070068,6.111867427825928,-0.7070791125297546
1695712542331137500,0.457137451171875,6.766902446746826,6.0400824546813965,-0.5491527915000916
1695712542341136600,0.46713671875,6.867401123046875,6.011368751525879,-0.3768695592880249
1695712542351154000,0.47715380859375,6.661019802093506,5.9300127029418945,-0.1423729509115219
1695712542361206000,0.4872060546875,6.201598167419434,5.699703693389893,0.04905286431312561
1695712542371238400,0.49723828125,5.880959987640381,5.594419479370117,0.4085744619369507
1695712542381263600,0.507263671875,5.995815277099609,5.340780258178711,0.5042873620986938
1695712542391292700,0.517292724609375,6.249454498291016,4.823930263519287,0.2069791555404663
1695712542401364500,0.527364501953125,6.416952133178711,4.268197536468506,-0.4103690981864929
1695712542411398000,0.53739794921875,6.512664794921875,4.17726993560791,-1.028315544128418
1695712542421411300,0.547411376953125,6.829115867614746,2.764906644821167,-0.28115665912628174
1695712542431443000,0.55744287109375,6.675376892089844,2.8319056034088135,-0.38644084334373474
1695712542441475800,0.567475830078125,6.584449768066406,2.6261229515075684,-0.31465616822242737
1695712542451507500,0.577507568359375,6.359524250030518,2.3192434310913086,-0.22372891008853912
1695712542461496300,0.587496337890625,6.177670001983643,3.0999016761779785,-0.3720839321613312
1695712542471523300,0.5975234375,5.296513080596924,2.132603168487549,-0.08973085135221481
1695712542481605400,0.60760546875,4.76530647277832,1.2658032178878784,0.4085744619369507
1695712542491638300,0.61763818359375,4.1282172203063965,0.2745763957500458,0.8297112584114075
1695712542501668600,0.627668701171875,2.998206853866577,-0.8889335989952087,1.5720844268798828
1695712542511701200,0.637701171875,3.888935089111328,0.8542376756668091,-0.137587308883667
1695712542521740500,0.647740478515625,4.204787731170654,1.2849457263946533,-1.0618150234222412
1695712542531774000,0.65777392578125,3.692723512649536,0.0687936544418335,-0.1136590763926506
1695712542541802500,0.667802490234375,3.99900484085083,-0.09391828626394272,0.7770691514015198
1695712542551835400,0.67783544921875,4.76530647277832,-0.2231307178735733,1.2747762203216553
1695712542561876200,0.687876220703125,4.923232555389404,-0.6352944374084473,0.6909275650978088
1695712542571909600,0.69790966796875,4.913661479949951,-0.47676992416381836,0.42771705985069275
1695712542581937400,0.7079375,4.875376224517822,-1.0037890672683716,0.8201399445533752
1695712542591970300,0.71797021484375,4.7126641273498535,-2.2055842876434326,1.1982059478759766
1695712542601998300,0.727998291015625,5.042873859405518,-3.1728827953338623,1.495514154434204
1695712542612030700,0.73803076171875,5.7032928466796875,-4.049253940582275,1.5672988891601562
1695712542622058800,0.748058837890625,6.148955821990967,-4.9399824142456055,2.1367905139923096
1695712542632091000,0.7580908203125,6.292525291442871,-5.710471153259277,3.2620155811309814
1695712542642122800,0.768122802734375,5.880959987640381,-6.084349632263184,4.718048095703125
1695712542652300300,0.77830029296875,4.961517810821533,-6.5389862060546875,6.135197162628174
1695712542662198300,0.7881982421875,4.353142738342285,-7.668996810913086,7.902296543121338
1695712542672217900,0.7982177734375,4.487140655517578,-9.105886459350586,10.12881851196289
1695712542682249200,0.808249267578125,5.344369411468506,-10.671390533447266,12.422338485717773
1695712542692270000,0.81827001953125,7.226324558258057,-11.562119483947754,13.475778579711914
1695712542702290200,0.828290283203125,8.9312105178833,-12.07478141784668,13.667204856872559
1695712542712310800,0.838310791015625,9.960722923278809,-12.744771957397461,14.43350601196289
1695712542722387500,0.848387451171875,9.864411354064941,-11.825329780578613,16.822738647460938
1695712542732414000,0.8584140625,8.883354187011719,-10.475179672241211,20.227725982666016
1695712542742434800,0.868434814453125,6.8004021644592285,-9.058030128479004,24.489343643188477
1695712542752460500,0.87846044921875,4.645066738128662,-7.788637638092041,29.13859748840332
1695712542762504000,0.88850390625,3.5581271648406982,-7.113861560821533,33.74059295654297
1695712542772531500,0.898531494140625,3.1561331748962402,-5.4041900634765625,35.8379020690918
1695712542782564600,0.908564697265625,2.816352367401123,-2.7326035499572754,34.13780212402344
1695712542792592600,0.918592529296875,2.222334146499634,-0.9702895879745483,31.255048751831055
1695712542802632700,0.9286328125,1.1545369625091553,0.1453639715909958,29.33002281188965
1695712542812662000,0.938662109375,-0.607776939868927,1.1413763761520386,27.237499237060547
1695712542822679600,0.948679443359375,-2.221137523651123,2.242672920227051,25.399213790893555
1695712542832707600,0.95870751953125,-3.4277184009552,3.104687452316284,23.885753631591797
1695712542842753500,0.96875341796875,-4.040879249572754,3.511467218399048,21.735803604125977
1695712542852783400,0.978783447265625,-3.59043025970459,3.813561201095581,19.451852798461914
1695712542862808300,0.988808349609375,-3.2793633937835693,3.8566319942474365,17.71825408935547
1695712542872837600,0.998837646484375,-2.8773691654205322,3.7848472595214844,16.770097732543945
1695712542882884900,1.008884765625,-2.9491539001464844,3.3535408973693848,15.659229278564453
1695712542892916000,1.018916015625,-14.489139556884766,1.965105652809143,8.74038314819336
1695712542902948400,1.0289482421875,-32.44548034667969,-2.1433708667755127,-2.9724838733673096
1695712542912979700,1.038979736328125,1.9112670421600342,1.9555343389511108,10.789835929870605
1695712542923017700,1.049017822265625,4.7605204582214355,-0.7740781307220459,7.576872825622559
1695712542933049600,1.059049560546875,1.724626898765564,-4.125824451446533,-3.211766242980957
1695712542943084300,1.069084228515625,-0.2386840581893921,-7.616354465484619,-2.115255117416382
1695712542953116400,1.079116455078125,-4.342374801635742,-4.125824451446533,2.6398816108703613
1695712542963127000,1.089126953125,-2.7433712482452393,-0.8123632669448853,8.481359481811523
1695712542973157000,1.0991572265625,1.0444670915603638,3.741776466369629,13.619348526000977
1695712542983206400,1.109206298828125,8.743971824645996,-0.6113662123680115,14.318650245666504
1695712542993238300,1.11923828125,7.623532772064209,-0.4863412082195282,6.824928283691406
1695712543003270100,1.129270263671875,1.9304096698760986,0.2745763957500458,4.229313850402832
1695712543013302000,1.139302001953125,1.6528422832489014,0.7202396392822266,4.861617565155029
1695712543023333400,1.14933349609375,2.7349963188171387,0.39421752095222473,6.973283290863037
1695712543033365200,1.159365234375,3.462414264678955,0.24107688665390015,8.860024452209473
1695712543043399200,1.169399169921875,1.5278172492980957,-1.578664779663086,9.195018768310547
1695712543053431000,1.17943115234375,0.5276173949241638,-2.68953275680542,8.778668403625488
1695712543063448800,1.18944873046875,0.05802594870328903,-4.705485820770264,9.017950057983398
1695712543073479200,1.199479248046875,-1.1102696657180786,-4.729413986206055,8.582456588745117
1695712543083523800,1.20952392578125,3.586841106414795,-5.73978328704834,11.24925708770752
1695712543093556000,1.219555908203125,2.475973129272461,-8.387441635131836,9.510871887207031
1695712543103585000,1.2295849609375,0.34995031356811523,-10.307682037353516,8.002795219421387
1695712543113617000,1.239616943359375,-0.9619147181510925,-13.759926795959473,7.883154392242432
1695712543123652600,1.249652587890625,-0.018544375896453857,-14.933008193969727,7.322635650634766
1695712543133684700,1.259684814453125,0.6185446381568909,-14.248661041259766,7.29392147064209
1695712543143713800,1.2697138671875,-1.7808582782745361,-10.575677871704102,7.878368377685547
1695712543153745400,1.279745361328125,-2.599203586578369,-6.361917018890381,8.538787841796875
1695712543163786000,1.289785888671875,-1.1581261157989502,-5.456831932067871,7.3848490715026855
1695712543173818600,1.299818603515625,-1.0815558433532715,-4.992624282836914,5.962913990020752
1695712543183847000,1.309846923828125,-0.5407779216766357,-3.910470485687256,5.723631858825684
1695712543193879300,1.31987939453125,-0.851844847202301,-4.1593241691589355,5.742774486541748
1695712543203908400,1.329908447265625,1.317248821258545,-4.949553489685059,5.316253662109375
1695712543213940200,1.339940185546875,2.3706889152526855,-5.322834014892578,5.08654260635376
1695712543223975200,1.34997509765625,2.5764718055725098,-5.385047435760498,4.708476543426514
1695712543234007300,1.36000732421875,0.9535398483276367,-5.629115104675293,5.42153787612915
1695712543244041000,1.370041015625,-0.698704183101654,-6.2327046394348145,5.737988471984863
1695712543254073000,1.380072998046875,-0.7848458290100098,-6.845865726470947,5.560919761657715
1695712543264115200,1.390115234375,1.3363914489746094,-6.084349632263184,4.497908592224121
1695712543274148400,1.4001484375,1.231107234954834,-5.868995666503906,3.64546537399292
1695712543284332500,1.41033251953125,-0.3774677813053131,-6.687341213226318,3.702893018722534
1695712543294366000,1.420365966796875,-0.9427721500396729,-7.774280548095703,4.1623148918151855
1695712543304399000,1.430399169921875,-0.3678964674472809,-9.407382011413574,5.316253662109375
1695712543314247400,1.440247314453125,1.2167502641677856,-11.251051902770996,6.61914587020874
1695712543324265500,1.450265380859375,2.437688112258911,-12.529417991638184,7.4470624923706055
1695712543334336300,1.460336181640625,2.682354211807251,-11.676974296569824,8.199007034301758
1695712543344359700,1.470359619140625,1.6432709693908691,-9.68494987487793,10.14317512512207
1695712543354397000,1.48039697265625,0.46480581164360046,-6.927221775054932,9.91825008392334
1695712543364421600,1.490421630859375,-0.08554340898990631,-5.696114540100098,9.041878700256348
1695712543374461400,1.50046142578125,-0.6269195079803467,-5.691328525543213,7.083353042602539
1695712543384487700,1.51048779296875,0.05802594870328903,-6.874579429626465,5.2731828689575195
1695712543394526200,1.520526123046875,1.5858432054519653,-8.02373218536377,4.004388809204102
1695712543404553700,1.5305537109375,2.107478618621826,-8.919246673583984,2.462812662124634
1695712543414586600,1.540586669921875,0.6664010882377625,-7.76470947265625,1.6247265338897705
1695712543424614700,1.55061474609375,0.34995031356811523,-6.476772785186768,0.8967102766036987
1695712543434655200,1.5606552734375,1.6815561056137085,-5.897709846496582,0.5473581552505493
1695712543444684500,1.5706845703125,1.7772690057754517,-5.902495384216309,0.4372883439064026
1695712543454714400,1.58071435546875,0.5078766345977783,-6.055635929107666,0.5042873620986938
1695712543464743700,1.59074365234375,-0.09511470049619675,-6.639484405517578,2.0889341831207275
1695712543474784500,1.600784423828125,0.2590230405330658,-9.608379364013672,3.4301111698150635
1695712543484814800,1.61081494140625,1.9878374338150024,-13.86521053314209,2.510669231414795
1695712543494845400,1.620845458984375,4.951946258544922,-18.778274536132812,-0.8368897438049316
1695712543504876000,1.6308759765625,2.38983154296875,-21.75674057006836,-3.738187074661255
1695712543514911000,1.640910888671875,-0.4301098585128784,-19.669002532958984,-3.7812578678131104
1695712543524941800,1.65094189453125,-2.2498514652252197,-15.862021446228027,-2.929413080215454
1695712543534965800,1.6609658203125,-1.6085749864578247,-12.462418556213379,-1.339382529258728
1695712543544996000,1.67099609375,1.1880364418029785,-9.982257843017578,-0.6496513485908508
1695712543555035100,1.68103515625,1.4991034269332886,-8.9910306930542,-1.8472590446472168
1695712543565066200,1.691066162109375,1.2454642057418823,-8.3300142288208,-3.116053342819214
1695712543575096600,1.7010966796875,1.5619150400161743,-7.899305820465088,-4.011567115783691
1695712543585127400,1.71112744140625,1.4608181715011597,-7.88494873046875,-4.863411903381348
1695712543595164000,1.721163818359375,1.6719847917556763,-7.027719974517822,-5.045864582061768
1695712543605195300,1.7311953125,1.4368900060653687,-6.21356201171875,-4.825126647949219
1695712543615224800,1.741224853515625,0.8817551732063293,-5.686542987823486,-4.638486862182617
1695712543625256200,1.751256103515625,0.19680966436862946,-5.854638576507568,-4.537988185882568
1695712543635286800,1.761286865234375,-0.4061816334724426,-6.223133563995361,-4.3178486824035645
1695712543645318000,1.77131787109375,-0.27696922421455383,-7.0995049476623535,-4.183850288391113
1695712543655347200,1.78134716796875,0.2111666053533554,-9.958329200744629,-4.427918434143066
1695712543665378300,1.79137841796875,0.9104689955711365,-13.668999671936035,-5.371288776397705
1695712543675414500,1.80141455078125,1.552343726158142,-17.015960693359375,-6.865008354187012
1695712543685446000,1.81144580078125,2.1888344287872314,-15.125031471252441,-9.374481201171875
1695712543695477200,1.821477294921875,2.255833625793457,-9.842875480651855,-7.047461032867432
1695712543705508900,1.8315087890625,0.8721838593482971,-7.707281589508057,-4.011567115783691
1695712543715536600,1.84153662109375,-0.09032905846834183,-7.654639720916748,-2.967698335647583
1695712543725567700,1.851567626953125,0.16809579730033875,-8.310871124267578,-2.675175666809082
1695712543735629300,1.86162939453125,0.9152546525001526,-9.148957252502441,-2.6943182945251465
1695712543745663500,1.87166357421875,1.3507484197616577,-9.512666702270508,-3.0011978149414062
1695712543755658000,1.881657958984375,1.2406785488128662,-9.464810371398926,-3.235694408416748
1695712543765688000,1.89168798828125,0.7190431952476501,-9.393025398254395,-3.259622573852539
1695712543775742500,1.901742431640625,0.29730820655822754,-8.900103569030762,-3.2644083499908447
1695712543785774800,1.91177490234375,0.24945175647735596,-9.072386741638184,-3.2213375568389893
1695712543795789800,1.921789794921875,0.27816563844680786,-9.43609619140625,-2.8522446155548096
1695712543805820400,1.9318203125,0.27337998151779175,-9.474381446838379,-2.8043880462646484
1695712543815853600,1.941853515625,0.4695914387702942,-9.910472869873047,-3.005983352661133
1695712543825884400,1.951884521484375,0.6424728631973267,-10.336395263671875,-3.0586254596710205
1695712543835921700,1.961921630859375,0.5659025311470032,-10.61396312713623,-2.8624141216278076
1695712543845953300,1.971953369140625,0.35473597049713135,-10.40339469909668,-2.60339093208313
1695712543856014600,1.9820146484375,0.3978067636489868,-10.235897064208984,-2.6368906497955322
1695712543866049300,1.99204931640625,0.8913264274597168,-10.05404281616211,-2.9868409633636475
1695712543876070400,2.0020703125,1.4177473783493042,-9.708877563476562,-3.250051259994507
1695712543886103600,2.012103515625,1.6432709693908691,-8.97667407989502,-3.2883365154266357
1695712543896111000,2.022111083984375,1.571486234664917,-8.363512992858887,-3.565903902053833
1695712543906141700,2.0321416015625,1.4225330352783203,-8.181658744812012,-3.9349968433380127
1695712543916181800,2.042181640625,1.537388563156128,-8.263014793395996,-4.303491592407227
1695712543926213400,2.05221337890625,1.662413477897644,-8.416155815124512,-4.600201606750488
1695712543936269300,2.062269287109375,1.638485312461853,-8.626724243164062,-4.983651161193848
1695712543946303500,2.072303466796875,1.389033555984497,-8.665008544921875,-5.136792182922363
1695712543956308500,2.08230859375,1.054038405418396,-8.655437469482422,-5.088935375213623
1695712543966339600,2.092339599609375,0.8099704384803772,-8.779864311218262,-4.796412944793701
1695712543976397000,2.10239697265625,0.6089733839035034,-8.770293235778809,-4.107280254364014
1695712543986430700,2.1124306640625,0.5754738450050354,-8.770293235778809,-3.848257064819336
1695712543996460300,2.122460205078125,0.6041877269744873,-8.712865829467773,-3.6568312644958496
1695712544006493700,2.13249365234375,0.6520441770553589,-8.842676162719727,-3.690330743789673
1695712544016505300,2.14250537109375,0.5515456199645996,-8.842676162719727,-3.5228331089019775
1695712544026536400,2.152536376953125,0.4456632137298584,-9.07717227935791,-4.126422882080078
1695712544036591400,2.16259130859375,0.19680966436862946,-9.034101486206055,-4.021138668060303
1695712544046625000,2.172625,-0.12382857501506805,-9.034101486206055,-3.9589250087738037
1695712544056612900,2.18261279296875,-0.3200400173664093,-9.148957252502441,-3.881756544113159
1695712544066641700,2.1926416015625,-0.28654050827026367,-9.287740707397461,-3.652045488357544
1695712544076704300,2.202704345703125,-0.10468599200248718,-9.04845905303955,-3.4127633571624756
1695712544086736600,2.212736572265625,0.25423741340637207,-8.411369323730469,-3.3505499362945557
1695712544096784600,2.22278466796875,0.46002015471458435,-7.611568927764893,-3.3074791431427
1695712544106818300,2.232818359375,0.4408775866031647,-7.161718368530273,-3.5754752159118652
1695712544116823000,2.242822998046875,0.2350948303937912,-7.089933395385742,-3.8769710063934326
1695712544126854000,2.25285400390625,-0.2386840581893921,-7.520641803741455,-4.265206336975098
1695712544136876300,2.262876220703125,-0.760917603969574,-8.377870559692383,-4.514060020446777
1695712544146906400,2.27290625,-1.2586246728897095,-9.17288589477539,-4.169493675231934
1695712544156977700,2.282977783203125,-1.3495519161224365,-10.307682037353516,-3.9397823810577393
1695712544167011800,2.29301171875,-1.2059825658798218,-10.881958961486816,-2.8426733016967773
1695712544177031700,2.30303173828125,-1.124626636505127,-11.073983192443848,-1.0618150234222412
1695712544187064300,2.313064208984375,-1.0480563640594482,-10.50389289855957,-1.3154542446136475
1695712544197074700,2.32307470703125,-0.17647066712379456,-9.249456405639648,-2.3306093215942383
1695712544207105300,2.333105224609375,-2.134995937347412,-9.397810935974121,-2.9868409633636475
1695712544217139500,2.343139404296875,-0.15254244208335876,-8.636295318603516,-2.881556749343872
1695712544227170300,2.35317041015625,-0.641276478767395,-8.703293800354004,-3.063411235809326
1695712544237237500,2.363237548828125,-0.4061816334724426,-8.712865829467773,-2.3641088008880615
1695712544247272200,2.373272216796875,-0.41096729040145874,-8.69372272491455,-2.2444677352905273
1695712544257273000,2.383273193359375,-0.6699903607368469,-8.578866958618164,-2.445464849472046
1695712544267304200,2.39330419921875,-0.8374879360198975,-8.50708293914795,-2.982055187225342
1695712544277340400,2.40334033203125,-1.2011969089508057,-8.014161109924316,-3.6185460090637207
1695712544287372000,2.4133720703125,-1.062413215637207,-8.248658180236816,-4.059423446655273
1695712544297404000,2.42340380859375,-0.6843472719192505,-9.029315948486328,-3.9349968433380127
1695712544307435500,2.433435546875,-0.9236295223236084,-10.01575756072998,-2.982055187225342
1695712544317454300,2.443454345703125,-1.4117653369903564,-10.609177589416504,-1.7126628160476685
1695712544327484700,2.453484619140625,-1.8813568353652954,-10.762317657470703,-0.7310073375701904
1695712544337538800,2.463538818359375,-2.077568292617798,-10.594820022583008,-0.4534398913383484
1695712544347571500,2.473571533203125,-1.9770697355270386,-10.135398864746094,-0.9708877801895142
1695712544357623000,2.483623046875,-1.7377874851226807,-9.713663101196289,-1.6648063659667969
1695712544367657700,2.49365771484375,-1.6085749864578247,-9.469595909118652,-1.94297194480896
1695712544377652500,2.503652587890625,-1.4500504732131958,-9.388239860534668,-2.062613010406494
1695712544387683000,2.51368310546875,-1.2873386144638062,-9.503094673156738,-1.856830358505249
1695712544397710600,2.523710693359375,-1.2251251935958862,-9.680164337158203,-1.4111671447753906
1695712544407741000,2.533740966796875,-1.3208380937576294,-9.7998046875,-1.3680963516235352
1695712544417808100,2.54380810546875,-1.4500504732131958,-9.608379364013672,-1.8424733877182007
1695712544427842000,2.553842041015625,-1.4021940231323242,-9.163313865661621,-2.0099709033966064
1695712544437864700,2.56386474609375,-1.459621787071228,-8.765507698059082,-2.2540390491485596
1695712544447897600,2.573897705078125,-1.4979069232940674,-8.392227172851562,-2.6560330390930176
1695712544457920500,2.58392041015625,-1.5696916580200195,-8.60758113861084,-2.713460922241211
1695712544467952400,2.593952392578125,-1.7186448574066162,-8.895318031311035,-3.34576416015625
1695712544477991400,2.603991455078125,-1.6755740642547607,-8.684151649475098,-4.667200565338135
1695712544488024000,2.614024169921875,-1.7425731420516968,-8.62193775177002,-3.690330743789673
1695712544498055700,2.6240556640625,-2.0823538303375244,-8.02373218536377,-3.3122646808624268
1695712544508088000,2.634088134765625,-2.048854351043701,-8.143373489379883,-2.5459632873535156
1695712544518090000,2.644090087890625,-1.9579271078109741,-8.569295883178711,-2.368894338607788
1695712544528119300,2.654119384765625,-1.685145378112793,-9.129815101623535,-2.4119651317596436
1695712544538167000,2.6641669921875,-1.6277176141738892,-9.2255277633667,-2.2157537937164307
1695712544548198100,2.6741982421875,-1.6133606433868408,-8.914461135864258,-2.3641088008880615
1695712544558236200,2.684236083984375,-1.5601203441619873,-9.120243072509766,-2.9629125595092773
1695712544568268000,2.69426806640625,-1.83828604221344,-8.86660385131836,-2.7517459392547607
1695712544578291500,2.70429150390625,-2.0201404094696045,-8.59322452545166,-2.713460922241211
1695712544588322600,2.714322509765625,-2.048854351043701,-8.655437469482422,-2.9868409633636475
1695712544598382300,2.72438232421875,-2.268994092941284,-8.904889106750488,-2.7326035499572754
1695712544608416300,2.734416259765625,-2.316850423812866,-9.215956687927246,-2.4837498664855957
1695712544618451000,2.744450927734375,-2.4987051486968994,-9.579665184020996,-1.7174484729766846
1695712544628484900,2.75448486328125,-2.6907291412353516,-9.804591178894043,-0.25722843408584595
1695712544638519000,2.76451904296875,-1.215553879737854,-10.077970504760742,-1.296311616897583
1695712544648673500,2.774673583984375,-1.1820544004440308,-10.37946605682373,-2.0961127281188965
1695712544658719000,2.784718994140625,-2.2067806720733643,-10.441679954528809,-1.7461622953414917
1695712544668753200,2.794753173828125,-2.479562520980835,-10.633105278015137,-1.9573289155960083
1695712544678785300,2.804785400390625,-2.379063844680786,-10.575677871704102,-2.421536445617676
1695712544688819500,2.8148193359375,-2.80558443069458,-9.77109146118164,-1.6360924243927002
1695712544698849800,2.824849853515625,-2.3359930515289307,-9.416953086853027,-1.4877375364303589
1695712544708867000,2.8348671875,-2.5226333141326904,-9.517452239990234,-2.2636101245880127
1695712544718901200,2.8449013671875,-1.5696916580200195,-9.728020668029785,-2.7326035499572754
1695712544728960000,2.8549599609375,-2.101496458053589,-9.349954605102539,-2.4263222217559814
1695712544738966500,2.864966552734375,-2.0105693340301514,-8.679366111755371,-2.4598217010498047
1695712544749000400,2.87500048828125,-1.7377874851226807,-8.34437084197998,-3.0729825496673584
1695712544759034600,2.88503466796875,-1.953141450881958,-8.876175880432129,-3.1686954498291016
1695712544769074400,2.895074462890625,-2.0344974994659424,-9.388239860534668,-2.7038896083831787
1695712544779107800,2.90510791015625,-2.08713960647583,-9.747162818908691,-2.273181438446045
1695712544789134800,2.915134765625,-2.0823538303375244,-10.039685249328613,-1.9525432586669922
1695712544799161900,2.925161865234375,-1.9052850008010864,-10.460822105407715,-2.50289249420166
1695712544809188900,2.93518896484375,-1.6947166919708252,-10.695319175720215,-3.441477060317993
1695712544819222300,2.94522216796875,-1.862214207649231,-9.78544807434082,-3.0107691287994385
1695712544829229800,2.955229736328125,-2.2546372413635254,-7.57806921005249,-1.540379524230957
1695712544839263200,2.96526318359375,-1.8861424922943115,-6.52462911605835,-1.693520188331604
1695712544849157400,2.975157470703125,-1.435693621635437,-6.802794933319092,-2.493321180343628
1695712544859179800,2.9851796875,-1.3830515146255493,-7.357929706573486,-3.273979663848877
1695712544869208800,2.995208740234375,-1.2681959867477417,-7.439285755157471,-4.4614176750183105
1695712544879232000,3.00523193359375,-1.709073543548584,-6.500700950622559,-5.873781204223633
1695712544889271800,3.015271728515625,-2.0679969787597656,-6.615556240081787,-6.080162525177002
1695712544899296500,3.025296630859375,-1.8239290714263916,-7.82273530960083,-4.993222713470459
1695712544909342500,3.035342529296875,-2.077568292617798,-9.239884376525879,-3.116053342819214
1695712544919369200,3.045369140625,-2.0105693340301514,-10.345967292785645,-1.7365909814834595
1695712544929399800,3.05539990234375,-1.7234305143356323,-10.89153003692627,-1.1383854150772095
1695712544939426800,3.0654267578125,-1.2921242713928223,-11.088339805603027,-0.8608179688453674
1695712544949462000,3.0754619140625,-1.0193424224853516,-10.910673141479492,-1.0139585733413696
1695712544959490000,3.085489990234375,-0.8279166221618652,-10.25503921508789,-1.7700905799865723
1695712544969524000,3.09552392578125,-0.4731806814670563,-9.608379364013672,-2.6464617252349854
1695712544979552800,3.105552734375,-0.4061816334724426,-9.239884376525879,-3.125624656677246
1695712544989587500,3.11558740234375,-0.3535395562648773,-9.148957252502441,-3.4510483741760254
1695712544999616800,3.12561669921875,-0.25782662630081177,-8.97667407989502,-3.4606196880340576
1695712545009658000,3.135658203125,-0.2147558331489563,-8.794221878051758,-3.259622573852539
1695712545019849500,3.145849365234375,-0.27696922421455383,-9.010173797607422,-3.211766242980957
1695712545029900800,3.15590087890625,-0.19561325013637543,-9.04845905303955,-3.1064820289611816
1695712545039931100,3.16593115234375,-0.0568295381963253,-9.043673515319824,-2.837887763977051
1695712545049991400,3.175991455078125,0.16809579730033875,-9.259027481079102,-2.775674343109131
1695712545059986700,3.185986572265625,0.2638086974620819,-9.483952522277832,-2.612962245941162
1695712545070017300,3.196017333984375,0.17766708135604858,-9.57487964630127,-2.407179594039917
1695712545080065000,3.20606494140625,0.1585244983434677,-9.57487964630127,-2.4023938179016113
1695712545090121000,3.216120849609375,0.12502498924732208,-9.464810371398926,-2.2683959007263184
1695712545100151300,3.2261513671875,0.129810631275177,-9.393025398254395,-2.2779672145843506
1695712545110182700,3.2361826171875,0.12502498924732208,-9.282955169677734,-2.335394859313965
1695712545120205800,3.246205810546875,0.11545369029045105,-9.177671432495117,-2.4502503871917725
1695712545130236200,3.256236083984375,0.1010967567563057,-9.168100357055664,-2.5938198566436768
1695712545140267000,3.26626708984375,0.1824527233839035,-9.330811500549316,-2.7038896083831787
1695712545150297300,3.27629736328125,0.3451646566390991,-9.393025398254395,-2.9006991386413574
1695712545160328200,3.286328125,0.47916272282600403,-9.321240425109863,-3.0490541458129883
1695712545170358800,3.29635888671875,0.5802595019340515,-9.259027481079102,-3.178266763687134
1695712545180389400,3.306389404296875,0.5994020700454712,-9.153742790222168,-3.250051259994507
1695712545190420000,3.316419921875,0.5467599630355835,-9.096315383911133,-3.2644083499908447
1695712545200450300,3.3264501953125,0.5754738450050354,-9.053244590759277,-3.3026933670043945
1695712545210425600,3.336425537109375,0.5946164131164551,-9.072386741638184,-3.36969256401062
1695712545220361200,3.346361328125,0.589830756187439,-9.139386177062988,-3.494119167327881
1695712545230382300,3.35638232421875,0.5078766345977783,-9.20159912109375,-3.685544967651367
1695712545240419000,3.366419189453125,0.3595215976238251,-9.273384094238281,-3.776472330093384
1695712545250441700,3.376441650390625,0.10588239878416061,-9.239884376525879,-3.762115478515625
1695712545260460500,3.38646044921875,0.04366901144385338,-9.153742790222168,-3.685544967651367
1695712545270483000,3.39648291015625,0.16809579730033875,-9.024530410766602,-3.604189157485962
1695712545280525800,3.40652587890625,0.2877369225025177,-8.909674644470215,-3.5132617950439453
1695712545290550300,3.41655029296875,0.3930211067199707,-8.808578491210938,-3.441477060317993
1695712545300750300,3.426750244140625,0.4743770956993103,-8.909674644470215,-3.3505499362945557
1695712545310774500,3.4367744140625,0.5563312768936157,-9.024530410766602,-3.2931220531463623
1695712545320826400,3.446826416015625,0.6329016089439392,-9.263813018798828,-3.273979663848877
1695712545330844400,3.456844482421875,0.6999006271362305,-9.522237777709961,-3.297907829284668
1695712545340868900,3.466868896484375,0.6616154313087463,-9.708877563476562,-3.34576416015625
1695712545350930400,3.476930419921875,0.5611169338226318,-9.694520950317383,-3.360121250152588
1695712545360971300,3.48697119140625,0.40259242057800293,-9.469595909118652,-3.331407308578491
1695712545370995700,3.49699560546875,0.38344982266426086,-9.215956687927246,-3.3170504570007324
1695712545381020200,3.507020263671875,0.6520441770553589,-8.924032211303711,-3.2931220531463623
1695712545391050800,3.51705078125,1.1210373640060425,-8.684151649475098,-3.3170504570007324
1695712545401073400,3.527073486328125,1.5134602785110474,-8.578866958618164,-3.393620729446411
1695712545411089700,3.537089599609375,1.7150555849075317,-8.578866958618164,-3.5324044227600098
1695712545421106000,3.54710595703125,1.6671991348266602,-8.655437469482422,-3.7094733715057373
1695712545431122200,3.5571220703125,1.4943177700042725,-8.7176513671875,-3.7716867923736572
1695712545441138400,3.567138427734375,1.4177473783493042,-8.722436904907227,-3.857828378677368
1695712545451154700,3.57715478515625,1.470389485359192,-8.684151649475098,-3.9828531742095947
1695712545461171000,3.5871708984375,1.5571293830871582,-8.650651931762695,-4.121636867523193
1695712545471187200,3.597187255859375,1.6671991348266602,-8.564510345458984,-4.327419757843018
1695712545481203500,3.607203369140625,1.5954145193099976,-8.483154296875,-4.4614176750183105
1695712545491219700,3.6172197265625,1.456032633781433,-8.483154296875,-4.5236310958862305
1695712545501236000,3.627236083984375,1.1545369625091553,-8.473583221435547,-4.514060020446777
1695712545511260400,3.637260498046875,0.9678967595100403,-8.626724243164062,-4.427918434143066
1695712545521294300,3.64729443359375,0.9248259663581848,-8.779864311218262,-4.207778453826904
1695712545531328300,3.657328369140625,0.9918249845504761,-8.971888542175293,-4.121636867523193
1695712545541362200,3.667362060546875,1.0683952569961548,-9.034101486206055,-4.169493675231934
1695712545551395800,3.677395751953125,1.0683952569961548,-9.034101486206055,-4.25084924697876
1695712545561429800,3.6874296875,0.9583254456520081,-9.024530410766602,-4.284348964691162
1695712545571463700,3.697463623046875,0.9248259663581848,-9.029315948486328,-4.246063709259033
1695712545581497600,3.70749755859375,0.9343972206115723,-9.04845905303955,-4.131208419799805
1695712545591531500,3.717531494140625,1.0109676122665405,-9.110671997070312,-4.035495281219482
1695712545601565200,3.727565185546875,1.1784651279449463,-9.134600639343262,-3.8913278579711914
1695712545611591700,3.737591796875,1.29810631275177,-9.17288589477539,-3.7669010162353516
1695712545621625900,3.7476259765625,1.2215359210968018,-9.134600639343262,-3.8147575855255127
1695712545631660000,3.757659912109375,0.98703932762146,-9.010173797607422,-3.809971809387207
1695712545641694200,3.767694091796875,0.8578268885612488,-8.842676162719727,-3.7190446853637695
1695712545651728400,3.777728271484375,0.900897741317749,-8.765507698059082,-3.527618885040283
1695712545661762600,3.787762451171875,0.9966106414794922,-8.688937187194824,-3.4127633571624756
1695712545671796700,3.797796630859375,1.164108157157898,-8.755936622619629,-3.36969256401062
1695712545681831000,3.807830810546875,1.3411771059036255,-8.909674644470215,-3.360121250152588
1695712545691864800,3.81786474609375,1.4656038284301758,-9.129815101623535,-3.2644083499908447
1695712545701899000,3.82789892578125,1.662413477897644,-9.321240425109863,-3.149552822113037
1695712545711931000,3.837930908203125,2.0644078254699707,-9.33559799194336,-2.9150562286376953
1695712545721989400,3.8479892578125,2.241476535797119,-9.584450721740723,-2.6847469806671143
1695712545732047600,3.858047607421875,2.207977056503296,-9.603593826293945,-2.526820659637451
1695712545742106000,3.868106201171875,2.1122641563415527,-9.426525115966797,-2.287538528442383
1695712545752164400,3.878164306640625,1.973480463027954,-9.129815101623535,-2.0338993072509766
1695712545762222800,3.888222900390625,1.815554141998291,-8.837292671203613,-1.828116536140442
1695712545772281000,3.898281005859375,1.72941255569458,-8.789435386657715,-1.832902193069458
1695712545782309400,3.908309326171875,1.8634105920791626,-9.096315383911133,-2.148754835128784
1695712545792322300,3.918322265625,1.7581263780593872,-9.440881729125977,-3.259622573852539
1695712545802335000,3.9283349609375,1.3076776266098022,-9.29731273651123,-4.3178486824035645
1695712545812348000,3.938347900390625,0.5228317379951477,-9.18724250793457,-4.925625324249268
1695712545822360600,3.948360595703125,-0.14297115802764893,-9.230313301086426,-5.246861934661865
1695712545832373500,3.95837353515625,-0.97148597240448,-9.18724250793457,-5.0602216720581055
1695712545842386400,3.968386474609375,-1.5649060010910034,-9.32602596282959,-4.351347923278809
1695712545852399000,3.978399169921875,-1.83828604221344,-9.920044898986816,-3.2404799461364746
1695712545862412000,3.988412109375,-1.4452649354934692,-10.221540451049805,-2.3641088008880615
1695712545872425000,3.998425048828125,-0.7130611538887024,-10.398609161376953,-1.2675977945327759
1695712545882454000,4.0084541015625,0.27816563844680786,-10.259825706481934,-0.38644084334373474
1695712545892487000,4.01848681640625,0.7046862840652466,-9.818947792053223,0.1495514214038849
1695712545902519800,4.028519775390625,1.0636097192764282,-9.321240425109863,0.5234299302101135
1695712545912552700,4.038552734375,1.0875378847122192,-8.789435386657715,0.5569294691085815
1695712545922585900,4.0485859375,0.5419743061065674,-8.535796165466309,0.2548356056213379
1695712545932618800,4.05861865234375,0.024526432156562805,-8.554939270019531,-0.5108676552772522
1695712545942651600,4.068651611328125,-0.24825534224510193,-8.69372272491455,-1.755733609199524
1695712545952684500,4.0786845703125,-0.5455635786056519,-8.550153732299805,-2.881556749343872
1695712545962717400,4.088717529296875,-0.8422735929489136,-8.301300048828125,-3.652045488357544
1695712545972750600,4.09875048828125,-1.0671988725662231,-7.985447406768799,-4.265206336975098
1695712545982780400,4.108780517578125,-1.0145567655563354,-7.8658061027526855,-4.595416069030762
1695712545992815000,4.118815185546875,-0.7800601720809937,-7.82273530960083,-4.604987144470215
1695712546002849500,4.128849609375,-0.32961133122444153,-7.956733703613281,-4.475774765014648
1695712546012884000,4.138884033203125,0.2590230405330658,-8.35872745513916,-4.04985237121582
1695712546022918400,4.14891845703125,0.9248259663581848,-8.803792953491211,-3.527618885040283
1695712546032952800,4.158952880859375,1.571486234664917,-9.354740142822266,-2.982055187225342
1695712546042987300,4.1689873046875,2.0548365116119385,-9.866804122924805,-2.3736801147460938
1695712546053022000,4.17902197265625,2.3467607498168945,-10.226325988769531,-1.8083757162094116
1695712546063056400,4.189056396484375,2.4089741706848145,-10.479965209960938,-1.358525037765503
1695712546073090800,4.1990908203125,2.1984057426452637,-10.633105278015137,-1.1575279235839844
1695712546083121000,4.209120849609375,1.8059829473495483,-10.7766752243042,-1.1670992374420166
1695712546093152300,4.21915234375,1.3316057920455933,-10.89153003692627,-1.3920245170593262
1695712546103183400,4.229183349609375,0.833898663520813,-11.145768165588379,-1.8951154947280884
1695712546113214700,4.239214599609375,0.27816563844680786,-11.586047172546387,-2.526820659637451
1695712546123245800,4.249245849609375,-0.3678964674472809,-11.988639831542969,-3.053839921951294
1695712546133277200,4.259277099609375,-1.0815558433532715,-12.189637184143066,-3.34576416015625
1695712546143308300,4.269308349609375,-1.7377874851226807,-12.208779335021973,-3.3553354740142822
1695712546153339600,4.279339599609375,-1.9435701370239258,-12.103495597839355,-3.0681967735290527
1695712546163370800,4.289370849609375,-1.622931957244873,-12.069995880126953,-2.407179594039917
1695712546173402000,4.299402099609375,-0.8614161610603333,-12.43848991394043,-1.4350954294204712
1695712546183435500,4.309435546875,-0.11425728350877762,-13.47757339477539,-0.8081758618354797
1695712546193483800,4.31948388671875,0.6711867451667786,-14.6937255859375,-0.4630111753940582
1695712546203532000,4.329531982421875,1.4799607992172241,-14.976078987121582,-0.17108681797981262
1695712546213580300,4.339580322265625,1.293320655822754,-14.334802627563477,-0.22851456701755524
1695712546223628500,4.349628662109375,-0.6269195079803467,-13.697712898254395,-0.49172505736351013
1695712546233677000,4.359677001953125,-2.8151557445526123,-13.372289657592773,-0.8273184299468994
1695712546243725300,4.369725341796875,-3.3655049800872803,-12.754343032836914,-1.090528964996338
1695712546253773600,4.379773681640625,-2.9970104694366455,-12.046067237854004,-1.5260226726531982
1695712546263821800,4.38982177734375,-3.576073408126831,-11.45683479309082,-2.0721843242645264
1695712546273870000,4.3998701171875,-3.4755749702453613,-10.896316528320312,-3.2069804668426514
1695712546283900400,4.409900390625,-1.3351950645446777,-10.676176071166992,-4.226921081542969
1695712546293918700,4.419918701171875,1.4273186922073364,-10.446465492248535,-5.175076961517334
1695712546303936800,4.429936767578125,3.7405800819396973,-10.685748100280762,-6.329015731811523
1695712546313954800,4.439954833984375,4.022933006286621,-11.385049819946289,-7.181458950042725
1695712546323972900,4.449972900390625,4.190430641174316,-11.753544807434082,-7.645666599273682
1695712546333991000,4.459990966796875,3.6783666610717773,-11.810972213745117,-7.966304779052734
1695712546344009200,4.47000927734375,1.7581263780593872,-11.270195007324219,-7.9040913581848145
1695712546354027300,4.48002734375,1.0157532691955566,-10.838888168334961,-6.845865726470947
1695712546364045300,4.49004541015625,1.7581263780593872,-10.494321823120117,-6.1328043937683105
1695712546374063400,4.5000634765625,1.0971091985702515,-10.374680519104004,-5.194219589233398
1695712546384094200,4.51009423828125,-0.023330021649599075,-10.202397346496582,-4.202992916107178
1695712546394126800,4.520126953125,0.13459627330303192,-10.068399429321289,-3.3074791431427
1695712546404159500,4.530159423828125,1.0013962984085083,-10.130613327026367,-2.6081767082214355
1695712546414191900,4.54019189453125,2.073979139328003,-10.384251594543457,-2.1104695796966553
1695712546424224500,4.550224609375,2.270190477371216,-10.231111526489258,-1.6121642589569092
1695712546434257200,4.560257080078125,2.4951157569885254,-9.886545181274414,-1.277169108390808
1695712546444289800,4.570289794921875,2.466402053833008,-8.69372272491455,-1.0618150234222412
1695712546454322400,4.580322509765625,2.0548365116119385,-7.372286796569824,-1.3728820085525513
1695712546464354800,4.590354736328125,1.7389838695526123,-6.333203315734863,-1.7078771591186523
1695712546474387500,4.600387451171875,1.633699655532837,-5.274977684020996,-2.139183521270752
1695712546484418000,4.61041796875,1.6193426847457886,-4.532604217529297,-2.3545374870300293
1695712546494447900,4.62044775390625,1.5906288623809814,-4.121038913726807,-2.4981069564819336
1695712546504477700,4.630477783203125,1.384247899055481,-3.920041799545288,-2.8767709732055664
1695712546514507500,4.640507568359375,1.077966570854187,-3.6424741744995117,-3.235694408416748
1695712546524537300,4.650537353515625,0.7046862840652466,-3.6711881160736084,-3.652045488357544
1695712546534567400,4.6605673828125,0.43130627274513245,-3.3308091163635254,-3.9254255294799805
1695712546544597200,4.67059716796875,0.09631111472845078,-2.8043880462646484,-4.25084924697876
1695712546554627000,4.680626953125,-0.24825534224510193,-2.334796667098999,-4.494917392730713
1695712546564657000,4.690656982421875,-0.4875376224517822,-2.2342982292175293,-4.676771640777588
1695712546574686700,4.700686767578125,-0.5694918036460876,-2.406581401824951,-4.485345840454102
1695712546584717600,4.710717529296875,-0.8422735929489136,-2.919243574142456,-4.164707660675049
1695712546594749700,4.720749755859375,-1.4691931009292603,-3.5461630821228027,-3.6807594299316406
1695712546604782000,4.730781982421875,-2.551347255706787,-4.106681823730469,-2.929413080215454
1695712546614814200,4.740814208984375,-4.026522159576416,-4.441677093505859,-2.1439690589904785
1695712546624846600,4.7508466796875,-4.768895626068115,-4.729413986206055,-1.7509479522705078
1695712546634878700,4.760878662109375,-5.242674350738525,-5.093122959136963,-1.7509479522705078
1695712546644910800,4.770910888671875,-7.689335346221924,-6.15134859085083,-1.9908283948898315
1695712546654943200,4.780943115234375,-15.576079368591309,-8.167302131652832,-2.383251428604126
1695712546664975400,4.790975341796875,-19.866409301757812,-10.843673706054688,-3.0203404426574707
1695712546675007500,4.801007568359375,-19.080965042114258,-13.58764362335205,-4.4135613441467285
1695712546685041700,4.811041748046875,-17.606388092041016,-17.71526336669922,-5.4526448249816895
1695712546695090000,4.82108984375,-10.581660270690918,-21.924238204956055,-5.041079044342041
1695712546705138400,4.831138427734375,-6.521039962768555,-22.283161163330078,-3.8530426025390625
1695712546715186700,4.841186767578125,-5.7792649269104,-18.11725616455078,-2.1822543144226074
1695712546725235000,4.85123486328125,-5.319244861602783,-12.4480619430542,-1.3728820085525513
1695712546735283500,4.861283447265625,-5.271388053894043,-7.424928665161133,-1.6600207090377808
1695712546745331700,4.871331787109375,-5.300102233886719,-4.767699241638184,-4.590630054473877
1695712546755380200,4.881380126953125,-5.577669620513916,-4.570889472961426,-6.91765022277832
1695712546765428500,4.891428466796875,-4.672584533691406,-5.768496990203857,-6.472585201263428
1695712546775476700,4.901476806640625,1.1736794710159302,-7.769495010375977,-4.384847640991211
1695712546785508000,4.911508056640625,7.6666035652160645,-9.144171714782715,-3.235694408416748
1695712546795527200,4.921527099609375,8.590831756591797,-10.04447078704834,-3.3744781017303467
1695712546805546200,4.931546142578125,6.522236347198486,-10.709675788879395,-4.3896331787109375
1695712546815565300,4.9415654296875,2.5914268493652344,-11.112268447875977,-5.955137252807617
1695712546825584600,4.951584716796875,-0.4492524564266205,-10.302896499633789,-8.622536659240723
1695712546835603700,4.961603759765625,0.32602208852767944,-8.62193775177002,-11.500503540039062
1695712546845622800,4.971622802734375,2.940778970718384,-6.625127792358398,-11.457432746887207
1695712546855641900,4.981641845703125,5.02851676940918,-4.777270317077637,-9.101698875427246
1695712546865661200,4.9916611328125,4.467998027801514,-3.800400495529175,-6.874579429626465
1695712546875680300,5.00168017578125,2.950350284576416,-3.972683906555176,-4.868197441101074
1695712546885711400,5.01171142578125,2.3084757328033447,-5.931209087371826,-2.6943182945251465
1695712546895742700,5.02174267578125,2.303689956665039,-8.97667407989502,-1.3968101739883423
1695712546905773800,5.03177392578125,2.011765718460083,-11.093125343322754,-1.052243709564209
1695712546915805000,5.041804931640625,1.705484390258789,-11.676974296569824,-1.7126628160476685
1695712546925836000,5.0518359375,1.3268201351165771,-11.217552185058594,-1.693520188331604
1695712546935867400,5.061867431640625,1.3411771059036255,-10.872387886047363,-1.2005987167358398
1695712546945898500,5.0718984375,1.8921245336532593,-10.546963691711426,-1.1479566097259521
1695712546955929600,5.0819296875,2.5764718055725098,-10.41775131225586,-1.2005987167358398
1695712546965961000,5.0919609375,3.0173492431640625,-10.101899147033691,-0.966102123260498
1695712546975992000,5.101991943359375,2.816352367401123,-9.445667266845703,-1.057029366493225
1695712546986023200,5.112023193359375,2.41375994682312,-8.741579055786133,-1.0235298871994019
1695712546996054000,5.122053955078125,2.2989044189453125,-8.085946083068848,-0.7890332937240601
1695712547006085000,5.132085205078125,1.8442680835723877,-7.712067604064941,-0.9565308690071106
1695712547016116000,5.142115966796875,0.7525427341461182,-7.712067604064941,-1.5930216312408447
1695712547026146800,5.152146728515625,-0.7800601720809937,-7.7838521003723145,-2.550748825073242
1695712547036178000,5.162177978515625,-1.3878371715545654,-7.9280195236206055,-3.2883365154266357
1695712547046208800,5.172208740234375,-1.622931957244873,-8.02373218536377,-3.47019100189209
1695712547056239900,5.182239990234375,-2.2019951343536377,-8.263014793395996,-3.417548894882202
1695712547066270700,5.192270751953125,-2.02492618560791,-8.435297966003418,-3.2213375568389893
1695712547076301600,5.202301513671875,-0.8470591902732849,-8.464012145996094,-2.60339093208313
1695712547086333200,5.212333251953125,0.6185446381568909,-8.224729537963867,-2.287538528442383
1695712547096367000,5.2223671875,1.7150555849075317,-7.8418779373168945,-2.273181438446045
1695712547106401000,5.232401123046875,2.3706889152526855,-7.472784996032715,-2.416750907897949
1695712547116434700,5.2424345703125,2.682354211807251,-7.539783954620361,-2.905484914779663
1695712547126468600,5.252468505859375,2.3324038982391357,-8.13380241394043,-3.4654054641723633
1695712547136502500,5.26250244140625,1.456032633781433,-8.909674644470215,-3.723830223083496
1695712547146536200,5.2725361328125,0.3595215976238251,-9.613164901733398,-3.5084762573242188
1695712547156570000,5.282570068359375,-1.0671988725662231,-10.446465492248535,-2.7086751461029053
1695712547166604000,5.29260400390625,-2.748156785964966,-11.380264282226562,-1.7030915021896362
1695712547176637700,5.3026376953125,-3.835096597671509,-12.586845397949219,-0.4821537733078003
1695712547186672600,5.312672607421875,-3.040081262588501,-13.539787292480469,0.5760720372200012
1695712547196722700,5.32272265625,-1.1581261157989502,-13.295719146728516,1.059422254562378
1695712547206772700,5.332772705078125,0.5132604837417603,-12.462418556213379,1.1168500185012817
1695712547216822500,5.342822509765625,1.1736794710159302,-12.29970645904541,0.9541380405426025
1695712547226872600,5.35287255859375,0.537188708782196,-12.940982818603516,0.5617151260375977
1695712547236922600,5.362922607421875,-0.7752745151519775,-13.668999671936035,-0.3481557071208954
1695712547246972400,5.372972412109375,-2.8677978515625,-13.889139175415039,-1.7940187454223633
1695712547257022500,5.3830224609375,-5.032105922698975,-14.3060884475708,-3.0586254596710205
1695712547267072300,5.393072265625,-4.54337215423584,-14.492728233337402,-3.36969256401062
1695712547277122300,5.403122314453125,-3.9595232009887695,-13.798212051391602,-3.3170504570007324
1695712547287153700,5.413153564453125,-5.558526992797852,-13.525429725646973,-2.7278177738189697
1695712547297169200,5.423169189453125,-4.127020835876465,-13.40578842163086,-1.8233308792114258
1695712547307185000,5.433184814453125,0.6329016089439392,-12.88355541229248,-1.8711873292922974
1695712547317200400,5.443200439453125,2.9694929122924805,-12.6347017288208,-3.0107691287994385
1695712547327215900,5.4532158203125,3.3619158267974854,-13.00379467010498,-4.25084924697876
1695712547337231400,5.4632314453125,3.136990547180176,-13.884353637695312,-5.529214859008789
1695712547347247000,5.4732470703125,2.8498518466949463,-14.81815242767334,-6.860222339630127
1695712547357262600,5.4832626953125,2.9312076568603516,-15.31167221069336,-7.214958667755127
1695712547367278000,5.493278076171875,2.801995277404785,-15.25903034210205,-7.258029460906982
1695712547377293800,5.5032939453125,2.7828526496887207,-14.655440330505371,-7.186244487762451
1695712547387325000,5.513324951171875,2.6057839393615723,-13.692927360534668,-6.908079147338867
1695712547397354800,5.523354736328125,0.9631111025810242,-13.195219993591309,-6.759724140167236
1695712547407384600,5.533384521484375,-0.8422735929489136,-12.802199363708496,-6.419943332672119
1695712547417414400,5.543414306640625,-1.1150553226470947,-12.371491432189941,-5.873781204223633
1695712547427444200,5.5534443359375,-0.14775680005550385,-11.34676456451416,-5.20379114151001
1695712547437474000,5.56347412109375,0.6855437159538269,-10.087542533874512,-4.217350006103516
1695712547447504000,5.57350390625,1.7629120349884033,-8.97667407989502,-2.9868409633636475
1695712547457533700,5.58353369140625,2.586043119430542,-8.10987377166748,-1.8903298377990723
1695712547467563500,5.5935634765625,2.9312076568603516,-7.118647575378418,-1.1766705513000488
1695712547477593300,5.60359326171875,3.0317063331604004,-6.026922225952148,-0.6783652305603027
1695712547487625000,5.613625,3.19441819190979,-4.9160542488098145,-0.4295116662979126
1695712547497658600,5.62365869140625,3.342773199081421,-4.221537113189697,-0.50129634141922
1695712547507692300,5.6336923828125,3.3858439922332764,-3.6711881160736084,-0.8847461938858032
1695712547517726000,5.643725830078125,3.3714871406555176,-3.0484559535980225,-1.0761719942092896
1695712547527759400,5.65375927734375,3.0029923915863037,-2.8043880462646484,-1.3298112154006958
1695712547537793000,5.66379296875,2.4951157569885254,-2.943171739578247,-1.7988044023513794
1695712547547826700,5.67382666015625,1.968694806098938,-3.0963125228881836,-2.2923240661621094
1695712547557860400,5.6838603515625,1.4225330352783203,-3.3547372817993164,-2.8043880462646484
1695712547567894000,5.69389404296875,1.2406785488128662,-3.3547372817993164,-3.250051259994507
1695712547577927700,5.703927734375,1.168893814086914,-3.177668571472168,-3.776472330093384
1695712547587959000,5.713958984375,1.0492527484893799,-2.9001009464263916,-4.427918434143066
1695712547597990000,5.723989990234375,0.9918249845504761,-2.6560330390930176,-4.887340068817139
1695712547608021000,5.73402099609375,0.7190431952476501,-2.4735803604125977,-5.160720348358154
1695712547618051800,5.7440517578125,0.3164508044719696,-2.521436929702759,-5.002793788909912
1695712547628082700,5.754082763671875,-0.23389841616153717,-2.943171739578247,-4.58584451675415
1695712547638113500,5.764113525390625,-1.0336993932724,-3.383451223373413,-3.9589250087738037
1695712547648144400,5.774144287109375,-2.455634355545044,-3.800400495529175,-3.331407308578491
1695712547658175500,5.784175537109375,-3.940380573272705,-4.355535507202148,-2.7038896083831787
1695712547668206300,5.794206298828125,-5.304887771606445,-4.95912504196167,-2.335394859313965
1695712547678237200,5.8042373046875,-9.236295700073242,-6.1465630531311035,-2.7086751461029053
1695712547688272100,5.814272216796875,-19.387845993041992,-8.521439552307129,-4.509274482727051
1695712547698325000,5.824324951171875,-21.973289489746094,-11.758330345153809,-6.812366008758545
1695712547708377600,5.834377685546875,-19.219749450683594,-17.121244430541992,-8.646464347839355
1695712547718430500,5.844430419921875,-19.31606101989746,-24.16990089416504,-10.097113609313965
1695712547728483000,5.854483154296875,-12.023335456848145,-27.081369400024414,-7.664809226989746
1695712547738536000,5.864535888671875,-4.945964336395264,-22.858036041259766,-3.6089746952056885
1695712547748588500,5.874588623046875,-3.0448668003082275,-16.015161514282227,-1.3250255584716797
1695712547758641400,5.884641357421875,-4.658227443695068,-9.818947792053223,-0.7692924737930298
1695712547768694000,5.894694091796875,-6.904489517211914,-5.676971912384033,-2.311466693878174
1695712547778724400,5.904724365234375,-6.880561351776123,-3.8386857509613037,-4.131208419799805
1695712547788736500,5.914736572265625,-4.217947959899902,-4.782055854797363,-4.293920040130615
1695712547798748400,5.92474853515625,2.169692039489746,-6.663413047790527,-2.8283164501190186
1695712547808760600,5.934760498046875,9.223134994506836,-8.387441635131836,-2.2683959007263184
1695712547818772500,5.9447724609375,11.320444107055664,-9.641879081726074,-3.800400495529175
1695712547828784600,5.95478466796875,7.09711217880249,-11.040483474731445,-4.993222713470459
1695712547838796500,5.964796630859375,-0.8422735929489136,-12.491132736206055,-5.457430362701416
1695712547848808700,5.97480859375,-1.521835207939148,-11.523834228515625,-8.004590034484863
1695712547858820600,5.984820556640625,1.8634105920791626,-9.665806770324707,-9.833903312683105
1695712547868832800,5.994832763671875,4.573282241821289,-7.482356548309326,-9.719047546386719
1695712547878863600,6.004863525390625,5.267798900604248,-5.351547718048096,-8.23011302947998
1695712547888897300,6.014897216796875,3.7980077266693115,-4.077968120574951,-6.946363925933838
1695712547898931200,6.02493115234375,2.246262311935425,-3.9631125926971436,-5.5962138175964355
1695712547908964900,6.03496484375,2.059622049331665,-5.251049518585205,-4.006781578063965
1695712547918998500,6.04499853515625,2.437688112258911,-7.654639720916748,-2.6703901290893555
1695712547929032400,6.055032470703125,2.131406784057617,-10.097113609313965,-2.043470621109009
1695712547939066000,6.065066162109375,1.4368900060653687,-11.341979026794434,-1.9669002294540405
1695712547949100000,6.07510009765625,0.9966106414794922,-11.48076343536377,-1.7796618938446045
1695712547959133700,6.0851337890625,1.4081761837005615,-11.418549537658691,-1.454237937927246
1695712547969167400,6.09516748046875,2.0691933631896973,-11.490334510803223,-1.5212370157241821
1695712547979198200,6.1051982421875,2.610569477081299,-11.117053985595703,-1.6600207090377808
1695712547989229000,6.11522900390625,2.964707374572754,-10.221540451049805,-1.6791633367538452
1695712547999259600,6.125259765625,2.7349963188171387,-9.058030128479004,-1.3776676654815674
1695712548009290500,6.13529052734375,2.0309081077575684,-7.880163192749023,-1.2436695098876953
1695712548019321000,6.145321044921875,1.576271891593933,-7.027719974517822,-1.2675977945327759
1695712548029352000,6.15535205078125,0.6137589812278748,-6.6490559577941895,-1.7988044023513794
1695712548039382500,6.165382568359375,-0.372682124376297,-6.639484405517578,-2.6703901290893555
1695712548049413400,6.175413330078125,-0.8662018179893494,-6.874579429626465,-3.3744781017303467
1695712548059444000,6.18544384765625,-1.1437692642211914,-7.420143127441406,-3.920639991760254
1695712548069474800,6.195474853515625,-1.7377874851226807,-7.7838521003723145,-3.857828378677368
1695712548079506200,6.205506103515625,-1.8478572368621826,-8.282156944274902,-3.446262836456299
1695712548089540600,6.21554052734375,-0.8997012972831726,-8.27258586883545,-3.0011978149414062
1695712548099575000,6.225574951171875,0.268594354391098,-7.971090316772461,-2.7278177738189697
1695712548109609200,6.235609130859375,1.23589289188385,-7.692924976348877,-2.4885356426239014
1695712548119643600,6.2456435546875,1.9208383560180664,-7.420143127441406,-2.445464849472046
1695712548129678000,6.255677978515625,2.461616277694702,-7.45364236831665,-2.905484914779663
1695712548139712300,6.265712158203125,2.6632115840911865,-8.181658744812012,-3.178266763687134
1695712548149746700,6.27574658203125,2.145763635635376,-9.249456405639648,-3.3505499362945557
1695712548159781000,6.285781005859375,0.9966106414794922,-10.274182319641113,-3.0442686080932617
1695712548169815600,6.295815673828125,-0.4205385744571686,-10.829317092895508,-2.2923240661621094
1695712548179850500,6.3058505859375,-2.1828525066375732,-11.279766082763672,-1.181456208229065
1695712548189902000,6.315902099609375,-3.4755749702453613,-11.815757751464844,0.11126625537872314
1695712548199953700,6.32595361328125,-3.0065815448760986,-12.696915626525879,1.3806586265563965
1695712548210005200,6.336005126953125,-1.1676974296569824,-13.305290222167969,1.5098711252212524
1695712548220057000,6.34605712890625,0.24945175647735596,-12.816555976867676,0.8871390223503113
1695712548230108700,6.356108642578125,1.2885349988937378,-12.127423286437988,0.32243284583091736
1695712548240160300,6.36616015625,1.4368900060653687,-12.620345115661621,-0.037088751792907715
1695712548250211800,6.3762119140625,0.867398202419281,-13.812568664550781,-0.7070791125297546
1695712548260263400,6.386263427734375,-0.24825534224510193,-14.459229469299316,-1.7509479522705078
1695712548270315300,6.396315185546875,-2.4747767448425293,-14.885151863098145,-3.197409152984619
1695712548280344800,6.4063447265625,-4.706682205200195,-14.755939483642578,-4.619344234466553
1695712548290352600,6.4163525390625,-5.736194133758545,-13.707284927368164,-5.213362216949463
1695712548300360400,6.4263603515625,-5.505885124206543,-13.23829174041748,-3.906282901763916
1695712548310368500,6.436368408203125,-3.647858142852783,-13.367504119873047,-2.799602508544922
1695712548320376300,6.446376220703125,-1.795215129852295,-13.25264835357666,-2.4358935356140137
1695712548330384100,6.456384033203125,0.6185446381568909,-12.495918273925781,-2.407179594039917
1695712548340392000,6.466391845703125,2.586043119430542,-12.098709106445312,-3.3074791431427
1695712548350400000,6.47639990234375,3.7980077266693115,-12.505489349365234,-4.5475592613220215
1695712548360407800,6.48640771484375,3.9224345684051514,-13.3770751953125,-6.233303070068359
1695712548370415600,6.49641552734375,3.6155550479888916,-13.826925277709961,-7.023532867431641
1695712548380446700,6.50644677734375,3.1178479194641113,-13.879568099975586,-7.616952896118164
1695712548390484000,6.51648388671875,1.7150555849075317,-13.788640022277832,-7.516454219818115
1695712548400521200,6.526521240234375,-0.047258246690034866,-12.993624687194824,-7.205387115478516
1695712548410558700,6.536558837890625,0.32602208852767944,-11.810972213745117,-6.97986364364624
1695712548420596000,6.546595947265625,0.8817551732063293,-11.251051902770996,-6.764509677886963
1695712548430633200,6.55663330078125,0.3451646566390991,-11.298908233642578,-6.2189459800720215
1695712548440670500,6.56667041015625,-0.2961117923259735,-11.011770248413086,-5.361717224121094
1695712548450707700,6.576707763671875,0.010169495828449726,-10.149755477905273,-4.576273441314697
1695712548460745200,6.5867451171875,1.1593226194381714,-9.555737495422363,-3.5132617950439453
1695712548470782500,6.596782470703125,1.9256240129470825,-9.067601203918457,-2.3401806354522705
1695712548480813300,6.606813232421875,2.131406784057617,-8.70807933807373,-1.3106685876846313
1695712548490844000,6.616843994140625,2.3850460052490234,-8.105088233947754,-0.8703892230987549
1695712548500874200,6.626874267578125,2.3132612705230713,-7.439285755157471,-0.7597211599349976
1695712548510904600,6.636904541015625,2.3946173191070557,-6.591628074645996,-0.7597211599349976
1695712548520935200,6.64693505859375,2.2606191635131836,-4.518247127532959,-1.6265212297439575
1695712548530965500,6.656965576171875,2.1984057426452637,-4.925625324249268,-0.4486542344093323
1695712548540996000,6.66699609375,2.3132612705230713,-3.8195431232452393,-2.3880369663238525
1695712548551026400,6.6770263671875,2.1744775772094727,-3.3403804302215576,-2.3306093215942383
1695712548561057000,6.68705712890625,1.8203397989273071,-2.933600664138794,-2.249253273010254
1695712548571087400,6.69708740234375,1.451246976852417,-2.5740790367126465,-2.555534601211548
1695712548581118700,6.70711865234375,1.2693923711776733,-2.373081922531128,-3.116053342819214
1695712548591151900,6.71715185546875,1.1545369625091553,-2.162513494491577,-3.580260992050171
1695712548601185300,6.727185302734375,1.058824062347412,-1.975873351097107,-4.045066833496094
1695712548611218400,6.737218505859375,0.9774680733680725,-1.784447431564331,-4.322634220123291
1695712548621251800,6.747251953125,0.9152546525001526,-1.7030915021896362,-4.269991874694824
1695712548631285000,6.757284912109375,0.747757077217102,-1.82273268699646,-4.001996040344238
1695712548641318400,6.767318359375,0.3116651475429535,-2.191227436065674,-3.5132617950439453
1695712548651351600,6.7773515625,-0.6173482537269592,-2.713460922241211,-3.1447670459747314
1695712548661384700,6.787384765625,-1.9148563146591187,-3.263810157775879,-2.9341988563537598
1695712548671418000,6.797418212890625,-3.55214524269104,-4.092324733734131,-2.5076780319213867
1695712548681452000,6.8074521484375,-5.2283172607421875,-5.198407173156738,-2.392822742462158
1695712548691499300,6.817499267578125,-9.748359680175781,-6.644270420074463,-3.029911756515503
1695712548701546500,6.82754638671875,-20.0626220703125,-9.019744873046875,-5.0362935066223145
1695712548711593700,6.83759375,-22.605594635009766,-12.65863037109375,-7.104888439178467
1695712548721641000,6.847640869140625,-20.374286651611328,-18.601205825805664,-9.972686767578125
1695712548731688200,6.857688232421875,-17.79302978515625,-25.54936408996582,-11.787642478942871
1695712548741735400,6.8677353515625,-9.494720458984375,-26.142784118652344,-9.283554077148438
1695712548751782700,6.87778271484375,-5.170889854431152,-20.708086013793945,-5.749354839324951
1695712548761830000,6.887829833984375,-4.404588222503662,-13.817354202270508,-3.3409786224365234
1695712548771877000,6.897877197265625,-4.653441905975342,-7.664210796356201,-2.1583259105682373
1695712548781908000,6.907907958984375,-5.812764644622803,-3.081955671310425,-3.202194929122925
1695712548791925200,6.91792529296875,-5.300102233886719,-1.2095718383789062,-5.667998790740967
1695712548801942800,6.92794287109375,-3.8398821353912354,-2.4975085258483887,-6.984649181365967
1695712548811960000,6.9379599609375,0.43609192967414856,-4.513461589813232,-5.543571949005127
1695712548821977300,6.947977294921875,6.034100532531738,-6.414559364318848,-4.116851329803467
1695712548831994600,6.95799462890625,7.825128078460693,-8.679366111755371,-4.11206579208374
1695712548842012200,6.96801220703125,6.4456658363342285,-11.466405868530273,-3.5946178436279297
1695712548852029400,6.978029541015625,1.4273186922073364,-13.83649730682373,-3.7812578678131104
1695712548862046700,6.988046630859375,0.14895321428775787,-14.167304992675781,-5.400002479553223
1695712548872064300,6.998064208984375,2.7828526496887207,-12.610773086547852,-6.970292568206787
1695712548882094800,7.0080947265625,4.746163845062256,-10.594820022583008,-7.2197442054748535
1695712548892124700,7.018124755859375,5.349154949188232,-8.511868476867676,-6.994220733642578
1695712548902154500,7.028154541015625,4.252644062042236,-6.103492259979248,-7.066603660583496
1695712548912184300,7.038184326171875,2.2654049396514893,-4.508676052093506,-6.281159400939941
1695712548922214100,7.048214111328125,1.1066805124282837,-4.609174728393555,-4.657629489898682
1695712548932244000,7.058243896484375,1.571486234664917,-6.333203315734863,-2.953341245651245
1695712548942273500,7.0682734375,2.0165512561798096,-8.660223007202148,-2.0003998279571533
1695712548952303600,7.0783037109375,2.107478618621826,-10.40339469909668,-1.784447431564331
1695712548962333400,7.08833349609375,1.8203397989273071,-11.164910316467285,-1.9716858863830566
1695712548972363000,7.098363037109375,1.1736794710159302,-11.499905586242676,-2.0003998279571533
1695712548982394400,7.108394287109375,1.2741780281066895,-11.519047737121582,-1.9764715433120728
1695712548992428800,7.1184287109375,1.7485551834106445,-10.978270530700684,-2.1296122074127197
1695712549002463000,7.128462890625,2.0069799423217773,-10.317253112792969,-2.0673987865448
1695712549012497400,7.138497314453125,2.4233310222625732,-9.259027481079102,-1.7892330884933472
1695712549022531600,7.148531494140625,2.270190477371216,-8.018946647644043,-1.4015958309173584
1695712549032566000,7.15856591796875,1.571486234664917,-7.386643409729004,-1.4207384586334229
1695712549042600400,7.168600341796875,0.6185446381568909,-6.798008918762207,-2.0578274726867676
1695712549052634600,7.178634521484375,0.053240302950143814,-6.596413612365723,-2.8522446155548096
1695712549062668800,7.188668701171875,-0.46839502453804016,-6.500700950622559,-3.637688636779785
1695712549072703200,7.198703125,-1.0289137363433838,-6.7932233810424805,-4.04985237121582
1695712549082734800,7.20873486328125,-1.3639088869094849,-7.343572616577148,-3.920639991760254
1695712549092768300,7.218768310546875,-1.2346965074539185,-7.8418779373168945,-3.283550977706909
1695712549102801700,7.2288017578125,-0.38225340843200684,-8.286943435668945,-2.7278177738189697
1695712549112835000,7.2388349609375,0.6281159520149231,-8.492725372314453,-2.5459632873535156
1695712549122868500,7.248868408203125,1.322034478187561,-8.473583221435547,-2.3736801147460938
1695712549132902000,7.25890185546875,1.6241283416748047,-8.363512992858887,-2.225325107574463
1695712549142935300,7.268935302734375,1.6241283416748047,-8.143373489379883,-2.4837498664855957
1695712549152968700,7.27896875,1.6145570278167725,-8.497511863708496,-2.60339093208313
1695712549163002000,7.289002197265625,1.3938192129135132,-9.493523597717285,-2.4598217010498047
1695712549173035500,7.299035400390625,0.714257538318634,-10.456036567687988,-2.0961127281188965
1695712549183070200,7.3090703125,-0.19561325013637543,-10.963912963867188,-1.7748762369155884
1695712549193119200,7.319119140625,-1.4979069232940674,-11.423335075378418,-1.1431710720062256
1695712549203168300,7.329168212890625,-2.9587252140045166,-11.633903503417969,-0.36251261830329895
1695712549213217300,7.33921728515625,-3.7298123836517334,-12.122637748718262,0.389431893825531
1695712549223266300,7.349266357421875,-2.8965117931365967,-12.960125923156738,1.1072787046432495
1695712549233315300,7.3593154296875,-1.1102696657180786,-13.448859214782715,1.083350419998169
1695712549243364400,7.3693642578125,0.6616154313087463,-12.821341514587402,0.39900317788124084
1695712549253413400,7.379413330078125,1.8490537405014038,-11.672188758850098,-0.4486542344093323
1695712549263462400,7.38946240234375,2.3802602291107178,-10.743175506591797,-1.0139585733413696
1695712549273511400,7.399511474609375,1.8586249351501465,-11.097911834716797,-1.205384373664856
1695712549283546000,7.409546142578125,0.867398202419281,-12.486347198486328,-1.540379524230957
1695712549293577000,7.419576904296875,-0.550349235534668,-13.35314655303955,-2.2683959007263184
1695712549303591200,7.429591064453125,-2.6039891242980957,-14.003994941711426,-3.0203404426574707
1695712549313605400,7.43960546875,-4.4380879402160645,-14.21994686126709,-3.661616802215576
1695712549323619600,7.44961962890625,-5.755336761474609,-13.611571311950684,-3.259622573852539
1695712549333633500,7.459633544921875,-5.5968122482299805,-12.711272239685059,-1.7509479522705078
1695712549343648000,7.46964794921875,-3.916452407836914,-12.352348327636719,-0.99481600522995
1695712549353662000,7.479661865234375,-1.4117653369903564,-11.882757186889648,-1.2532408237457275
1695712549363676200,7.48967626953125,0.7190431952476501,-11.22233772277832,-2.187039852142334
1695712549373690400,7.4996904296875,1.882553219795227,-11.145768165588379,-3.8673996925354004
1695712549383704600,7.50970458984375,2.988635540008545,-11.906685829162598,-5.395216941833496
1695712549393718800,7.51971875,3.060420274734497,-13.008580207824707,-6.759724140167236
1695712549403750100,7.529750244140625,2.950350284576416,-13.779068946838379,-7.69830846786499
1695712549413783800,7.53978369140625,2.730210542678833,-14.377873420715332,-7.932805061340332
1695712549423817700,7.549817626953125,2.121835470199585,-14.32044506072998,-7.999804496765137
1695712549433851400,7.559851318359375,1.6193426847457886,-13.324433326721191,-7.6600236892700195
1695712549443885000,7.569885009765625,2.4568307399749756,-12.376276969909668,-6.721438884735107
1695712549453919000,7.5799189453125,0.9918249845504761,-12.361920356750488,-6.056233882904053
1695712549463952600,7.58995263671875,-0.5934200286865234,-12.404991149902344,-5.514857769012451
1695712549473986300,7.599986328125,-1.0097711086273193,-12.151351928710938,-4.667200565338135
1695712549484020200,7.610020263671875,-0.4205385744571686,-11.198410034179688,-4.131208419799805
1695712549494054000,7.620053955078125,0.7812566161155701,-10.058828353881836,-3.4749767780303955
1695712549504087600,7.630087646484375,2.0548365116119385,-9.364311218261719,-2.4119651317596436
1695712549514119200,7.640119140625,2.6297121047973633,-8.784649848937988,-1.6121642589569092
1695712549524152000,7.650152099609375,2.7732813358306885,-7.9280195236206055,-1.272383451461792
1695712549534185000,7.66018505859375,2.6153552532196045,-7.070790767669678,-1.3250255584716797
1695712549544217900,7.6702177734375,2.7110681533813477,-6.026922225952148,-1.454237937927246
1695712549554250500,7.68025048828125,2.998206853866577,-5.08355188369751,-1.430309772491455
1695712549564283400,7.690283447265625,3.232703447341919,-4.374678134918213,-1.4829518795013428
1695712549574316300,7.70031640625,3.0891339778900146,-3.824328899383545,-1.7796618938446045
1695712549584349200,7.71034912109375,2.801995277404785,-3.2590243816375732,-1.9908283948898315
1695712549594382000,7.720382080078125,2.2510478496551514,-3.0484559535980225,-2.297109842300415
1695712549604414700,7.730414794921875,1.8011972904205322,-3.0628130435943604,-2.517249345779419
1695712549614446600,7.740446533203125,1.700698733329773,-3.019742250442505,-2.809173822402954
1695712549624478700,7.750478759765625,1.5810575485229492,-2.823530673980713,-3.1208388805389404
1695712549634510800,7.7605107421875,1.5667005777359009,-2.5597219467163086,-3.5850465297698975
1695712549644542700,7.770542724609375,1.5182459354400635,-2.334796667098999,-4.054637908935547
1695712549654574800,7.780574951171875,1.2885349988937378,-2.1194427013397217,-4.303491592407227
1695712549664607000,7.79060693359375,0.8626125454902649,-2.052443504333496,-4.2987060546875
1695712549674639000,7.80063916015625,0.40259242057800293,-2.1337995529174805,-4.217350006103516
1695712549684671200,7.810671142578125,-0.4301098585128784,-2.4017956256866455,-4.17427921295166
1695712549694703400,7.820703369140625,-1.771286964416504,-2.9718856811523438,-4.016352653503418
1695712549704735500,7.830735595703125,-3.236292600631714,-3.929612874984741,-3.565903902053833
1695712549714771500,7.840771484375,-4.898108005523682,-5.078765869140625,-3.2931220531463623
1695712549724827400,7.850827392578125,-11.24746322631836,-7.171289443969727,-4.030709743499756
1695712549734883300,7.86088330078125,-23.525035858154297,-10.700104713439941,-6.128018856048584
1695712549744939300,7.870939208984375,-22.892732620239258,-15.479169845581055,-7.392027378082275
1695712549754995200,7.8809951171875,-19.560129165649414,-21.94338035583496,-9.45583724975586
1695712549765051100,7.891051025390625,-16.39023780822754,-27.349365234375,-9.848259925842285
1695712549775107000,7.901107177734375,-8.757132530212402,-24.692134857177734,-6.63051176071167
1695712549785139500,7.911139404296875,-4.208376884460449,-18.653846740722656,-3.1686954498291016
1695712549795155200,7.9211552734375,-3.768097400665283,-12.567702293395996,-1.602592945098877
1695712549805171000,7.9311708984375,-5.769693374633789,-7.6737823486328125,-1.583450436592102
1695712549815187000,7.94118701171875,-7.4739813804626465,-4.197608947753906,-2.50289249420166
1695712549825202700,7.95120263671875,-6.914061069488525,-2.847458839416504,-3.0490541458129883
1695712549835218400,7.961218505859375,-3.016152858734131,-4.456034183502197,-1.8472590446472168
1695712549845234200,7.971234130859375,5.085944652557373,-6.223133563995361,-0.49651068449020386
1695712549855250200,7.981250244140625,11.210373878479004,-6.888936519622803,-1.8131613731384277
1695712549865266000,7.991265869140625,11.58843994140625,-8.315656661987305,-3.9876389503479004
1695712549875281700,8.00128173828125,6.426523208618164,-10.585248947143555,-5.581857204437256
1695712549885313800,8.011313720703125,-2.235494613647461,-12.854841232299805,-7.310671329498291
1695712549895345200,8.02134521484375,-1.5122638940811157,-12.936197280883789,-9.07717227935791
1695712549905376500,8.03137646484375,3.1034910678863525,-11.586047172546387,-9.187840461730957
1695712549915408000,8.041407958984376,5.459224700927734,-9.503094673156738,-8.139185905456543
1695712549925439200,8.051439208984375,5.018945693969727,-6.845865726470947,-7.22452974319458
1695712549935470600,8.061470703125,3.136990547180176,-4.839483737945557,-6.419943332672119
1695712549945502000,8.071501953125,1.882553219795227,-4.336392879486084,-5.146363258361816
1695712549955533300,8.081533203125,1.6480566263198853,-5.08355188369751,-3.824328899383545
1695712549965564700,8.091564697265625,1.6815561056137085,-7.046862602233887,-2.770888566970825
1695712549975596000,8.101595947265626,1.8442680835723877,-9.014959335327148,-2.249253273010254
1695712549985632500,8.111632568359376,1.4321043491363525,-10.188040733337402,-2.1822543144226074
1695712549995690800,8.121690673828125,1.211964726448059,-10.676176071166992,-2.014756679534912
1695712550005749200,8.131749267578124,1.412961721420288,-11.12183952331543,-1.9286150932312012
1695712550015807500,8.141807373046875,1.5278172492980957,-10.99741268157959,-2.2061824798583984
1695712550025865700,8.15186572265625,1.609771490097046,-10.676176071166992,-2.258824586868286
1695712550035924000,8.161924072265625,1.882553219795227,-9.718449592590332,-2.00518536567688
1695712550045982200,8.171982177734375,1.9256240129470825,-8.857032775878906,-1.5499508380889893
1695712550055984600,8.181984619140625,1.3986048698425293,-8.248658180236816,-1.3298112154006958
1695712550066021000,8.192021240234375,0.7956135272979736,-7.923233985900879,-1.425524115562439
1695712550076049700,8.202049560546875,-0.01375873014330864,-7.880163192749023,-2.053041934967041
1695712550086086000,8.2120859375,-0.6173482537269592,-7.573283672332764,-2.7086751461029053
1695712550096118800,8.222118896484375,-1.210768222808838,-7.7216386795043945,-2.881556749343872
1695712550106155000,8.232155029296875,-1.8287147283554077,-7.688138961791992,-3.0251259803771973
1695712550116192300,8.242192138671875,-2.134995937347412,-7.966304779052734,-3.015554666519165
1695712550126228500,8.252228515625,-1.771286964416504,-8.066802978515625,-2.8522446155548096
1695712550136273000,8.26227294921875,-0.7513462901115417,-7.971090316772461,-2.8522446155548096
1695712550146275600,8.272275634765625,0.7238288521766663,-7.798209190368652,-3.0011978149414062
1695712550156311600,8.2823115234375,1.7916259765625,-7.683353424072266,-3.0011978149414062
1695712550166347300,8.29234716796875,2.2893331050872803,-7.573283672332764,-3.0346972942352295
1695712550176375600,8.30237548828125,2.63449764251709,-7.774280548095703,-3.211766242980957
1695712550186411800,8.312411865234376,2.9216363430023193,-8.392227172851562,-3.2691938877105713
1695712550196437200,8.322437255859375,2.667997360229492,-9.32602596282959,-3.2452657222747803
1695712550206479600,8.332479736328125,1.7581263780593872,-10.460822105407715,-2.9006991386413574
1695712550216515800,8.342515869140625,0.3978067636489868,-11.078768730163574,-2.359323024749756
1695712550226519300,8.352519287109375,-1.4739787578582764,-11.394621849060059,-1.5595221519470215
1695712550236571100,8.362571044921875,-3.854238986968994,-11.629117965698242,-0.7070791125297546
1695712550246609000,8.37260888671875,-5.319244861602783,-12.069995880126953,-0.08015955984592438
1695712550256625200,8.382625244140625,-3.768097400665283,-12.500703811645508,0.26500511169433594
1695712550266641700,8.3926416015625,-0.8327022790908813,-12.749557495117188,0.2602194547653198
1695712550276678700,8.4026787109375,1.3411771059036255,-12.381062507629395,-0.04187439754605293
1695712550286712600,8.412712646484374,2.1409780979156494,-12.333206176757812,-0.2907279431819916
1695712550296746500,8.42274658203125,1.7341982126235962,-12.802199363708496,-0.2763710021972656
1695712550306780400,8.432780517578125,0.6616154313087463,-13.008580207824707,-0.5060819983482361
1695712550316814300,8.442814453125,-1.0959128141403198,-12.725628852844238,-1.205384373664856
1695712550326848300,8.45284814453125,-3.6047873497009277,-12.653843879699707,-2.392822742462158
1695712550336882200,8.462882080078124,-4.768895626068115,-13.60200023651123,-3.503690481185913
1695712550346916000,8.472916015625,-3.8398821353912354,-14.339588165283203,-3.589832067489624
1695712550356950000,8.482949951171875,-3.566502094268799,-13.970495223999023,-2.469393014907837
1695712550366984000,8.49298388671875,-3.820739507675171,-13.190434455871582,-1.5547364950180054
1695712550377021000,8.50302099609375,-2.2498514652252197,-12.194422721862793,-1.3680963516235352
1695712550387047400,8.51304736328125,0.005383851006627083,-11.37069320678711,-1.8999011516571045
1695712550396906500,8.522906494140624,1.0157532691955566,-10.838888168334961,-3.077768087387085
1695712550406925800,8.53292578125,1.5571293830871582,-11.064412117004395,-4.77248477935791
1695712550417123600,8.54312353515625,2.466402053833008,-11.753544807434082,-6.0610198974609375
1695712550427189800,8.553189697265625,2.8211379051208496,-12.495918273925781,-7.344171047210693
1695712550437200100,8.5632001953125,2.8498518466949463,-13.348361015319824,-8.028517723083496
1695712550447219500,8.573219482421875,2.341975212097168,-13.855639457702637,-8.096115112304688
1695712550457264000,8.58326416015625,2.0452651977539062,-13.98963737487793,-8.407182693481445
1695712550467322000,8.593322021484376,2.2031915187835693,-13.013365745544434,-7.861020565032959
1695712550477341400,8.603341552734374,1.8442680835723877,-12.495918273925781,-7.186244487762451
1695712550487372300,8.613372314453125,0.47916272282600403,-12.495918273925781,-6.386443614959717
1695712550497394200,8.623394287109376,-0.8327022790908813,-12.682558059692383,-5.342574596405029
1695712550507416000,8.633416015625,-0.9954141974449158,-12.208779335021973,-4.346562385559082
1695712550517454800,8.643454833984375,0.06281159073114395,-11.485548973083496,-3.1926236152648926
1695712550527494000,8.653493896484376,1.058824062347412,-10.666604995727539,-2.0003998279571533
1695712550537532700,8.66353271484375,1.8729819059371948,-9.94397258758545,-1.0474581718444824
1695712550547554800,8.673554931640625,2.428116798400879,-8.93838882446289,-0.5395814776420593
1695712550557568300,8.683568359375,2.562114953994751,-7.894520282745361,-0.5778666734695435
1695712550567590100,8.693590087890625,2.8498518466949463,-6.629913330078125,-0.7166503667831421
1695712550577500400,8.70350048828125,3.13220477104187,-5.313262462615967,-0.8512466549873352
1695712550587512800,8.713512939453125,3.304488182067871,-4.508676052093506,-1.0378868579864502
1695712550597566700,8.723566650390625,3.304488182067871,-3.690330743789673,-1.339382529258728
1695712550607583500,8.73358349609375,3.012563705444336,-3.3930225372314453,-1.7461622953414917
1695712550617630000,8.7436298828125,2.7637102603912354,-2.9048867225646973,-2.3018953800201416
1695712550627649800,8.75364990234375,2.1122641563415527,-2.847458839416504,-2.7900311946868896
1695712550637687300,8.763687255859375,1.6911274194717407,-2.909672260284424,-3.173480987548828
1695712550647708700,8.773708740234374,1.4464613199234009,-2.847458839416504,-3.503690481185913
1695712550657732400,8.783732421875,1.1018948554992676,-2.6177480220794678,-3.8147575855255127
1695712550667754200,8.793754150390624,0.98703932762146,-2.4257240295410156,-4.222135543823242
1695712550677837800,8.803837890625,0.9439685344696045,-2.2199411392211914,-4.475774765014648
1695712550687865900,8.813865966796875,0.7381857633590698,-2.1720848083496094,-4.600201606750488
1695712550697894400,8.823894287109376,0.3978067636489868,-2.310868501663208,-4.581058979034424
1695712550707922200,8.833922119140626,-0.11904292553663254,-2.5884358882904053,-4.418346881866455
1695712550717942800,8.84394287109375,-0.8566305041313171,-3.0723843574523926,-4.265206336975098
1695712550727970000,8.853969970703124,-2.1397817134857178,-3.6370904445648193,-4.150351047515869
1695712550737997800,8.863997802734374,-3.854238986968994,-4.508676052093506,-3.848257064819336
1695712550748025000,8.874025146484374,-5.760122299194336,-5.5381879806518555,-3.7956149578094482
1695712550758217000,8.884217041015624,-12.497114181518555,-7.41535758972168,-4.11206579208374
1695712550768264000,8.894263916015625,-21.76272201538086,-11.102697372436523,-5.294718265533447
1695712550778291500,8.90429150390625,-22.447668075561523,-16.000804901123047,-6.625725746154785
1695712550788316400,8.91431640625,-20.110477447509766,-21.790239334106445,-8.120043754577637
1695712550798345500,8.924345458984375,-16.47159194946289,-26.19063949584961,-7.94716215133667
1695712550808390000,8.934389892578125,-8.680562019348145,-23.720050811767578,-5.754140377044678
1695712550818417200,8.944417236328125,-3.758526086807251,-18.01675796508789,-2.8863422870635986
1695712550828468500,8.954468505859374,-2.599203586578369,-12.67298698425293,-0.534795880317688
1695712550838493000,8.964492919921875,-3.150151014328003,-8.052446365356445,0.37507495284080505
1695712550848507000,8.9745068359375,-6.506682872772217,-4.432105541229248,-1.0713863372802734
1695712550858534400,8.984534423828125,-7.833503246307373,-3.3786656856536865,-2.6703901290893555
1695712550868561700,8.994561767578125,-3.2027931213378906,-5.188836097717285,-2.115255117416382
1695712550878590700,9.0045908203125,4.3483567237854,-6.381059646606445,-1.3250255584716797
1695712550888631000,9.014631103515624,9.558130264282227,-6.615556240081787,-2.6608188152313232
1695712550898671600,9.024671630859375,10.066006660461426,-8.3300142288208,-4.700700283050537
1695712550908712000,9.0347119140625,5.181657314300537,-12.055638313293457,-5.811567783355713
1695712550918752300,9.044752197265625,-6.128616809844971,-15.302101135253906,-7.4015984535217285
1695712550928792800,9.054792724609374,-4.141377925872803,-14.650654792785645,-9.254839897155762
1695712550938822000,9.06482177734375,1.6863417625427246,-11.787044525146484,-9.436694145202637
1695712550948809000,9.07480908203125,4.8466620445251465,-8.459226608276367,-8.225327491760254
1695712550958706000,9.084705810546875,4.875376224517822,-5.270191669464111,-7.186244487762451
1695712550968720000,9.094719970703125,3.9702908992767334,-3.4025938510894775,-6.094519138336182
1695712550978840000,9.104840087890626,3.31884503364563,-3.067598581314087,-5.371288776397705
1695712550988960300,9.114960205078125,2.428116798400879,-3.972683906555176,-4.691128730773926
1695712550999029500,9.125029541015625,1.8969101905822754,-6.031707763671875,-3.800400495529175
1695712551009066800,9.135066650390625,1.389033555984497,-8.665008544921875,-3.0107691287994385
1695712551019081000,9.1450810546875,1.3938192129135132,-10.75274658203125,-2.4119651317596436
1695712551029093600,9.15509375,1.3507484197616577,-11.801401138305664,-2.0673987865448
1695712551039147000,9.16514697265625,1.4656038284301758,-11.686545372009277,-1.923829436302185
1695712551049177000,9.175177001953125,1.4464613199234009,-11.557332992553711,-1.7796618938446045
1695712551059191000,9.18519091796875,1.8203397989273071,-11.59561824798584,-2.0961127281188965
1695712551069241300,9.195241455078126,1.8729819059371948,-11.164910316467285,-1.8807586431503296
1695712551079259100,9.205259033203125,1.973480463027954,-9.866804122924805,-1.7796618938446045
1695712551089293300,9.215293212890625,1.9782661199569702,-8.722436904907227,-1.5499508380889893
1695712551099327500,9.225327392578125,1.3316057920455933,-7.735995769500732,-1.430309772491455
1695712551109361700,9.235361572265624,0.6999006271362305,-7.176074981689453,-1.5978072881698608
1695712551119395800,9.245395751953126,-0.08554340898990631,-7.133004188537598,-2.0578274726867676
1695712551129430000,9.255429931640625,-0.8039883971214294,-7.04207706451416,-2.6177480220794678
1695712551139464400,9.26546435546875,-1.2203395366668701,-7.314858913421631,-2.958127021789551
1695712551149475000,9.27547509765625,-1.7186448574066162,-7.8179497718811035,-3.0825538635253906
1695712551159492600,9.28549267578125,-1.929213285446167,-8.349156379699707,-2.905484914779663
1695712551169401300,9.2954013671875,-1.6995022296905518,-8.679366111755371,-2.60339093208313
1695712551179592000,9.305592041015625,-0.8662018179893494,-8.665008544921875,-2.5124638080596924
1695712551189623600,9.31562353515625,0.43130627274513245,-8.464012145996094,-2.359323024749756
1695712551199666400,9.32566650390625,1.5954145193099976,-8.157731056213379,-2.1678972244262695
1695712551209674200,9.33567431640625,2.2031915187835693,-7.750352382659912,-2.1678972244262695
1695712551219735600,9.345735595703125,2.2893331050872803,-7.587640762329102,-2.4263222217559814
1695712551229753000,9.355753173828125,2.0787646770477295,-7.8418779373168945,-2.833101987838745
1695712551239760600,9.3657607421875,1.571486234664917,-8.521439552307129,-3.1304101943969727
1695712551249826600,9.37582666015625,0.8482556343078613,-9.32602596282959,-2.9772696495056152
1695712551259845600,9.385845703125,0.014955141581594944,-10.025328636169434,-2.2683959007263184
1695712551269883400,9.39588330078125,-1.0767701864242554,-10.546963691711426,-1.4638092517852783
1695712551279891000,9.405890869140626,-2.2307088375091553,-11.140982627868652,-0.6975077986717224
1695712551289898800,9.415898681640625,-2.8869404792785645,-12.05085277557373,0.02512463741004467
1695712551299939600,9.425939697265624,-2.455634355545044,-13.276576042175293,0.4995017349720001
1695712551309980200,9.435980224609375,-1.435693621635437,-13.946566581726074,0.5186443328857422
1695712551320021000,9.44602099609375,-0.41096729040145874,-13.539787292480469,0.1256231814622879
1695712551330061800,9.456061767578126,0.4504488706588745,-12.266206741333008,-0.5300102233886719
1695712551340102400,9.466102294921875,0.9104689955711365,-11.734402656555176,-0.9373882412910461
1695712551350143200,9.476143310546876,0.6616154313087463,-11.921042442321777,-1.5355939865112305
1695712551360184000,9.48618408203125,-0.6843472719192505,-12.19920825958252,-2.531606435775757
1695712551370224600,9.496224609375,-2.99222469329834,-12.711272239685059,-3.6568312644958496
1695712551380237800,9.50623779296875,-4.361517429351807,-13.573286056518555,-4.671986103057861
1695712551390225000,9.516224853515626,-3.868596076965332,-13.798212051391602,-4.901697158813477
1695712551400237800,9.52623779296875,-4.624728202819824,-12.893126487731934,-3.906282901763916
1695712551410328300,9.536328369140625,-4.653441905975342,-12.467204093933105,-2.1583259105682373
1695712551420358000,9.54635791015625,-2.08713960647583,-12.390633583068848,-1.1335997581481934
1695712551430411300,9.556411376953125,1.140179991722107,-12.103495597839355,-0.9996016621589661
1695712551440424400,9.566424560546874,2.8594231605529785,-11.820544242858887,-1.8951154947280884
1695712551450470400,9.576470458984375,3.989433526992798,-12.141779899597168,-2.967698335647583
1695712551460483600,9.586483642578125,4.645066738128662,-13.195219993591309,-4.159922122955322
1695712551470496800,9.596496826171874,4.18564510345459,-14.21994686126709,-5.730212211608887
1695712551480538600,9.60653857421875,2.950350284576416,-14.607583999633789,-6.558726787567139
1695712551490602000,9.61660205078125,1.4368900060653687,-14.59322738647461,-7.028318405151367
1695712551500629800,9.626629638671876,0.14895321428775787,-14.038092613220215,-7.301100254058838
1695712551510642700,9.636642578125,0.014955141581594944,-13.156935691833496,-6.836294174194336
1695712551520655600,9.646655517578125,1.3603196144104004,-12.318849563598633,-6.63051176071167
1695712551530669800,9.656669921875,1.054038405418396,-12.017353057861328,-7.176673412322998
1695712551540690200,9.666690185546875,0.08673982322216034,-11.868400573730469,-6.486942291259766
1695712551550710500,9.67671044921875,-0.6508477330207825,-11.145768165588379,-5.672784328460693
1695712551560730600,9.686730712890625,-0.22432711720466614,-9.866804122924805,-4.791627407073975
1695712551570751000,9.6967509765625,0.8482556343078613,-8.943174362182617,-3.422334671020508
1695712551580771300,9.706771240234374,2.0452651977539062,-8.373085021972656,-2.258824586868286
1695712551590791700,9.716791748046875,2.428116798400879,-7.875377655029297,-1.4446666240692139
1695712551600812000,9.72681201171875,2.4807589054107666,-7.137789726257324,-1.1001001596450806
1695712551610832100,9.73683203125,2.7828526496887207,-6.2566328048706055,-0.99481600522995
1695712551620852500,9.7468525390625,3.0317063331604004,-5.504688262939453,-1.0139585733413696
1695712551630870000,9.7568701171875,3.13220477104187,-4.930410861968994,-1.1479566097259521
1695712551640901600,9.766901611328125,3.036491870880127,-4.4512481689453125,-1.334596872329712
1695712551650933200,9.776933349609376,2.720639228820801,-4.034897327423096,-1.5690934658050537
1695712551660964900,9.78696484375,2.255833625793457,-3.6370904445648193,-2.0003998279571533
1695712551670996500,9.79699658203125,1.8442680835723877,-3.4648072719573975,-2.383251428604126
1695712551681028000,9.807028076171875,1.3651052713394165,-3.5605201721191406,-2.761317253112793
1695712551691059700,9.817059814453126,1.0923235416412354,-3.4743785858154297,-3.092125177383423
1695712551701091300,9.82709130859375,0.9296116232872009,-3.2446675300598145,-3.565903902053833
1695712551711122700,9.837122802734376,0.7860422134399414,-3.0340991020202637,-4.030709743499756
1695712551721154300,9.847154296875,0.714257538318634,-2.699103832244873,-4.5236310958862305
1695712551731181300,9.857181396484375,0.4983053207397461,-2.48315167427063,-4.849055290222168
1695712551741256000,9.867255859375,0.14416755735874176,-2.444866418838501,-4.9160542488098145
1695712551751330600,9.87733056640625,-0.3966103494167328,-2.6799614429473877,-4.64805793762207
1695712551761405200,9.8874052734375,-1.191625714302063,-3.0628130435943604,-4.140779495239258
1695712551771479800,9.897479736328124,-2.345564365386963,-3.589233875274658,-3.5994033813476562
1695712551781506300,9.90750634765625,-3.940380573272705,-4.3794636726379395,-3.0107691287994385
1695712551791531500,9.917531494140626,-5.295316696166992,-5.241477966308594,-2.6081767082214355
1695712551801556700,9.927556640625,-8.637491226196289,-6.27577543258667,-3.005983352661133
1695712551811582000,9.93758203125,-17.79302978515625,-8.871390342712402,-4.734199523925781
1695712551821607200,9.947607177734374,-21.939790725708008,-12.706486701965332,-7.234101295471191
1695712551831632400,9.95763232421875,-18.76032829284668,-17.787046432495117,-9.68076229095459
1695712551841659100,9.9676591796875,-17.54417610168457,-23.7056941986084,-11.035697937011719
1695712551851693600,9.977693603515625,-11.060822486877441,-24.385255813598633,-8.469395637512207
1695712551861752000,9.987751953125,-5.458028316497803,-19.946569442749023,-3.7956149578094482
1695712551871788300,9.997788330078125,-4.778466701507568,-14.741581916809082,-1.0809576511383057
1695712551881818000,10.007818115234375,-5.726024627685547,-9.77109146118164,0.2021935135126114
1695712551891844900,10.017844970703125,-7.081558704376221,-5.303691387176514,-0.10408778488636017
1695712551901907500,10.027907470703125,-6.928418159484863,-3.211168050765991,-1.852044701576233
1695712551911910400,10.037910400390626,-4.466801643371582,-4.820341110229492,-2.785245656967163
1695712551921937000,10.04793701171875,0.40737804770469666,-7.094718933105469,-2.4885356426239014
1695712551931983600,10.057983642578124,6.460022926330566,-8.712865829467773,-2.9629125595092773
1695712551942016000,10.06801611328125,7.657032489776611,-10.40339469909668,-4.552345275878906
1695712551952039700,10.078039794921875,6.148955821990967,-12.419347763061523,-5.720640659332275
1695712551962066400,10.08806640625,3.0317063331604004,-13.343575477600098,-6.209374904632568
1695712551972093000,10.098093017578124,0.5180460810661316,-11.998210906982422,-6.946363925933838
1695712551982121500,10.10812158203125,0.5611169338226318,-9.431310653686523,-7.4877400398254395
1695712551992166400,10.11816650390625,2.107478618621826,-6.390631198883057,-7.593024253845215
1695712552002211300,10.12821142578125,3.2135608196258545,-4.149752616882324,-6.687939167022705
1695712552012256000,10.138256103515625,3.0269205570220947,-3.211168050765991,-5.912066459655762
1695712552022284800,10.148284912109375,2.8689942359924316,-3.4265220165252686,-5.495715618133545
1695712552032268800,10.158268798828125,3.1752755641937256,-4.8059844970703125,-4.671986103057861
1695712552042189000,10.16818896484375,2.964707374572754,-7.501499176025391,-3.6424741744995117
1695712552052207600,10.17820751953125,1.8251254558563232,-10.37946605682373,-3.0251259803771973
1695712552062406100,10.18840625,1.2598211765289307,-12.32363510131836,-2.6464617252349854
1695712552072424400,10.198424560546876,1.7868403196334839,-12.854841232299805,-2.0817556381225586
1695712552082479000,10.20847900390625,2.4711875915527344,-12.242279052734375,-1.5978072881698608
1695712552092499700,10.218499755859375,2.926422119140625,-11.743973731994629,-1.358525037765503
1695712552102518000,10.22851806640625,2.5764718055725098,-11.174481391906738,-1.6791633367538452
1695712552112566800,10.23856689453125,1.8681962490081787,-10.37946605682373,-1.9956140518188477
1695712552122618600,10.24861865234375,1.7341982126235962,-9.416953086853027,-2.0243279933929443
1695712552132655000,10.258655029296875,1.8394824266433716,-8.847461700439453,-1.6791633367538452
1695712552142673400,10.26867333984375,1.7150555849075317,-8.076375007629395,-1.3968101739883423
1695712552152684300,10.278684326171875,1.3316057920455933,-7.611568927764893,-1.4111671447753906
1695712552162705200,10.288705078125,0.10588239878416061,-7.295716285705566,-2.2636101245880127
1695712552172740600,10.29874072265625,-1.1485549211502075,-6.774080753326416,-3.1208388805389404
1695712552182776000,10.308776123046876,-1.7569299936294556,-6.658627033233643,-3.7190446853637695
1695712552192811500,10.3188115234375,-1.9148563146591187,-6.965506553649902,-4.193421840667725
1695712552202847000,10.328846923828126,-2.211566209793091,-7.271788120269775,-4.068994998931885
1695712552212882400,10.33888232421875,-2.1828525066375732,-7.5637125968933105,-3.7908291816711426
1695712552222890500,10.348890380859375,-1.526620864868164,-7.769495010375977,-3.666402578353882
1695712552232911000,10.3589111328125,-0.38225340843200684,-8.210372924804688,-3.5084762573242188
1695712552242978800,10.368978759765625,0.6903293132781982,-8.631509780883789,-3.1591241359710693
1695712552252999400,10.37899951171875,1.571486234664917,-8.688937187194824,-3.087339401245117
1695712552263051800,10.3890517578125,2.026122570037842,-8.684151649475098,-3.1351959705352783
1695712552273072400,10.399072265625,2.035693883895874,-8.81814956665039,-3.3074791431427
1695712552283124200,10.409124267578125,1.537388563156128,-9.019744873046875,-3.2644083499908447
1695712552293133800,10.4191337890625,0.43609192967414856,-9.306883811950684,-2.9150562286376953
1695712552303154400,10.429154541015626,-0.97148597240448,-9.637093544006348,-2.1918256282806396
1695712552313181000,10.439180908203125,-2.321636199951172,-10.360323905944824,-1.0474581718444824
1695712552323228200,10.449228271484374,-2.8103702068328857,-11.547761917114258,0.19262222945690155
1695712552333254100,10.459254150390626,-2.2642083168029785,-13.056436538696289,0.9876375198364258
1695712552343275000,10.46927490234375,-1.0193424224853516,-13.759926795959473,1.1024930477142334
1695712552353295600,10.479295654296875,0.005383851006627083,-13.04207992553711,0.7722834944725037
1695712552363316500,10.48931640625,0.6472585201263428,-11.810972213745117,0.29371899366378784
1695712552373397500,10.4993974609375,0.623330295085907,-11.255837440490723,-0.10408778488636017
1695712552383282200,10.5092822265625,0.06281159073114395,-11.887542724609375,-0.7986045479774475
1695712552393289700,10.519289794921875,-1.0145567655563354,-12.328420639038086,-1.6504493951797485
1695712552403326500,10.529326416015625,-3.4372897148132324,-12.247064590454102,-2.550748825073242
1695712552413336800,10.5393369140625,-5.6925249099731445,-12.826128005981445,-2.9102704524993896
1695712552423413000,10.5494130859375,-4.831109046936035,-14.449657440185547,-2.7038896083831787
1695712552433430300,10.55943017578125,-3.298506021499634,-14.698511123657227,-2.1678972244262695
1695712552443456000,10.5694560546875,-3.2793633937835693,-13.75035572052002,-1.2819547653198242
1695712552453474000,10.57947412109375,-2.6763720512390137,-12.706486701965332,-0.7890332937240601
1695712552463512800,10.589512939453124,-0.8949156403541565,-12.03649616241455,-0.9517452120780945
1695712552473533000,10.599532958984375,2.231905221939087,-11.710474014282227,-1.8807586431503296
1695712552483588400,10.60958837890625,3.903291940689087,-11.969496726989746,-3.2213375568389893
1695712552493612000,10.619612060546874,3.108276605606079,-12.816555976867676,-4.533202648162842
1695712552503648500,10.6296484375,1.8586249351501465,-13.793426513671875,-5.840281963348389
1695712552513673500,10.639673583984376,1.293320655822754,-14.531013488769531,-7.138388156890869
1695712552523702500,10.64970263671875,1.4464613199234009,-14.746367454528809,-7.923233985900879
1695712552533728000,10.65972802734375,1.8681962490081787,-15.009578704833984,-8.656036376953125
1695712552543796000,10.6697958984375,1.6145570278167725,-14.19601821899414,-8.660821914672852
1695712552553825800,10.67982568359375,1.475175142288208,-13.075579643249512,-8.297112464904785
1695712552563834400,10.68983447265625,-0.31046873331069946,-12.07478141784668,-8.167900085449219
1695712552573862100,10.699862060546875,-1.2969099283218384,-11.571690559387207,-7.392027378082275
1695712552584081700,10.71008154296875,-1.5170495510101318,-11.184053421020508,-5.907280921936035
1695712552594107400,10.720107421875,-0.6556333899497986,-10.17846965789795,-4.8777689933776855
1695712552604119300,10.730119384765626,0.7812566161155701,-9.431310653686523,-3.494119167327881
1695712552614146800,10.740146728515626,1.6911274194717407,-9.019744873046875,-1.9142581224441528
1695712552624201700,10.75020166015625,2.121835470199585,-8.315656661987305,-1.0187442302703857
1695712552634233000,10.760233154296875,2.341975212097168,-7.027719974517822,-0.7986045479774475
1695712552644260900,10.7702607421875,2.4807589054107666,-5.969494342803955,-0.6927221417427063
1695712552654274000,10.780274169921874,2.538186550140381,-5.006981372833252,-0.7938188910484314
1695712552664329700,10.790329833984375,2.5764718055725098,-4.355535507202148,-1.033101201057434
1695712552674355000,10.80035498046875,2.59621262550354,-4.05403995513916,-1.3250255584716797
1695712552684370000,10.810369873046875,2.4329023361206055,-4.168895244598389,-1.6839489936828613
1695712552694385000,10.820385009765625,1.8442680835723877,-4.398606300354004,-2.2540390491485596
1695712552704400000,10.83039990234375,1.140179991722107,-4.302893161773682,-2.8624141216278076
1695712552714414800,10.840414794921875,0.7860422134399414,-3.991826295852661,-3.1447670459747314
1695712552724429800,10.850429931640624,0.6329016089439392,-3.6472599506378174,-3.2931220531463623
1695712552734444800,10.86044482421875,0.656829833984375,-3.1680972576141357,-3.5132617950439453
1695712552744459800,10.870459716796875,0.7956135272979736,-2.5884358882904053,-3.7956149578094482
1695712552754474800,10.880474853515626,0.7668996453285217,-1.9567307233810425,-4.016352653503418
1695712552764489700,10.89048974609375,0.537188708782196,-1.5978072881698608,-4.217350006103516
1695712552774514700,10.9005146484375,0.11066804826259613,-1.674377679824829,-4.327419757843018
1695712552784541400,10.91054150390625,-0.33439695835113525,-1.9663020372390747,-4.308277130126953
1695712552794576000,10.920575927734374,-0.7657032608985901,-2.3156540393829346,-4.064209461212158
1695712552804610000,10.930610107421876,-1.550549030303955,-2.6703901290893555,-3.8051862716674805
1695712552814644500,10.94064453125,-2.843869686126709,-3.1585259437561035,-3.3122646808624268
1695712552824679000,10.950678955078125,-4.136591911315918,-3.9631125926971436,-2.794816732406616
1695712552834713000,10.960713134765625,-6.8997039794921875,-5.279763221740723,-2.9485557079315186
1695712552844747500,10.97074755859375,-14.986845970153809,-7.64028263092041,-4.169493675231934
1695712552854781700,10.98078173828125,-22.19821548461914,-11.050054550170898,-5.902495384216309
1695712552864816000,10.990816162109375,-19.689340591430664,-15.790236473083496,-7.372884750366211
1695712552874850300,11.000850341796875,-19.603199005126953,-22.470399856567383,-9.54197883605957
1695712552884878000,11.010878173828125,-14.465210914611816,-27.038297653198242,-8.316255569458008
1695712552894909400,11.020909423828124,-5.84147834777832,-24.19861602783203,-4.135993957519531
1695712552904940500,11.0309404296875,-2.9730820655822754,-18.37149429321289,-1.1240284442901611
1695712552914972000,11.040971923828126,-3.5234313011169434,-12.342777252197266,-0.18065811693668365
1695712552925003300,11.051003173828125,-6.262615203857422,-7.310073375701904,-0.9469595551490784
1695712552935034600,11.06103466796875,-7.153343200683594,-4.456034183502197,-2.3736801147460938
1695712552945065700,11.071065673828125,-5.0225348472595215,-3.929612874984741,-3.3792638778686523
1695712552955097000,11.08109716796875,-0.20997019112110138,-4.2454657554626465,-3.0729825496673584
1695712552965128400,11.09112841796875,6.699305057525635,-4.59003210067749,-4.217350006103516
1695712552975159800,11.101159912109376,8.912068367004395,-5.830710411071777,-6.6113691329956055
1695712552985188900,11.11118896484375,5.234299659729004,-8.847461700439453,-7.731808185577393
1695712552995224000,11.12122412109375,-2.111067771911621,-12.964911460876465,-7.425527095794678
1695712553005259500,11.131259521484376,-0.641276478767395,-14.621940612792969,-6.869793891906738
1695712553015295000,11.141294921875,3.745365619659424,-13.04207992553711,-6.597012042999268
1695712553025330400,11.151330322265625,5.186442852020264,-10.532607078552246,-5.644070625305176
1695712553035365600,11.16136572265625,5.162514686584473,-7.937591075897217,-5.055436134338379
1695712553045401000,11.171401123046875,4.405784606933594,-5.590830326080322,-5.242076396942139
1695712553055436500,11.1814365234375,2.7254250049591064,-4.168895244598389,-5.55314302444458
1695712553065472000,11.191471923828125,1.4464613199234009,-4.039682865142822,-5.280361175537109
1695712553075507200,11.201507080078125,1.2885349988937378,-5.715256690979004,-4.202992916107178
1695712553085536500,11.21153662109375,1.9782661199569702,-8.483154296875,-3.1351959705352783
1695712553095566300,11.22156640625,2.145763635635376,-10.475179672241211,-2.579462766647339
1695712553105596200,11.23159619140625,1.6480566263198853,-11.557332992553711,-2.139183521270752
1695712553115626000,11.2416259765625,1.1736794710159302,-12.400205612182617,-1.51166570186615
1695712553125655800,11.25165576171875,0.589830756187439,-11.820544242858887,-1.731805443763733
1695712553135686000,11.261685791015625,0.8003991842269897,-11.054841041564941,-1.9812572002410889
1695712553145715700,11.2717158203125,1.1880364418029785,-9.915258407592773,-2.139183521270752
1695712553155745500,11.28174560546875,1.6241283416748047,-8.85224723815918,-1.9669002294540405
1695712553165775400,11.291775390625,1.9830517768859863,-8.066802978515625,-1.693520188331604
1695712553175805200,11.30180517578125,1.6002001762390137,-7.3675007820129395,-1.7222341299057007
1695712553185838000,11.311838134765624,1.0348957777023315,-7.032505512237549,-1.94297194480896
1695712553195887900,11.321887939453125,0.43609192967414856,-6.970292568206787,-2.5363919734954834
1695712553205937400,11.3319375,-0.19561325013637543,-6.884150981903076,-3.2644083499908447
1695712553215987200,11.3419873046875,-0.9571290612220764,-7.037291526794434,-3.723830223083496
1695712553226036700,11.35203662109375,-1.594218134880066,-7.405786037445068,-3.9014973640441895
1695712553236086500,11.36208642578125,-2.0823538303375244,-7.889734268188477,-3.5994033813476562
1695712553246136300,11.37213623046875,-1.7186448574066162,-8.38265609741211,-3.1304101943969727
1695712553256185900,11.382185791015624,-0.8135597109794617,-8.492725372314453,-2.837887763977051
1695712553266235600,11.392235595703125,0.34995031356811523,-8.387441635131836,-2.823530673980713
1695712553276285200,11.40228515625,1.140179991722107,-8.229515075683594,-2.770888566970825
1695712553286314800,11.412314697265625,1.3603196144104004,-7.932805061340332,-2.6703901290893555
1695712553296330000,11.422330078125,1.6193426847457886,-7.7455668449401855,-2.9629125595092773
1695712553306345200,11.43234521484375,1.9591234922409058,-7.956733703613281,-3.259622573852539
1695712553316360400,11.4423603515625,2.121835470199585,-8.641080856323242,-3.273979663848877
1695712553326375700,11.452375732421874,1.724626898765564,-9.455238342285156,-3.0203404426574707
1695712553336391000,11.462390869140625,0.9678967595100403,-9.953543663024902,-2.60339093208313
1695712553346406100,11.47240625,-0.14775680005550385,-10.374680519104004,-1.9142581224441528
1695712553356421400,11.48242138671875,-1.2203395366668701,-10.666604995727539,-1.090528964996338
1695712553366436600,11.4924365234375,-2.0105693340301514,-11.37069320678711,-0.22851456701755524
1695712553376451800,11.502451904296874,-2.039283037185669,-12.400205612182617,0.389431893825531
1695712553386482000,11.51248193359375,-1.215553879737854,-13.142578125,0.6143572330474854
1695712553396514600,11.5225146484375,-0.2721835672855377,-13.046865463256836,0.2021935135126114
1695712553406547200,11.532547119140625,0.589830756187439,-12.309277534484863,-0.44386860728263855
1695712553416579800,11.542579833984375,1.077966570854187,-12.146566390991211,-0.9852447509765625
1695712553426612500,11.552612548828124,0.7381857633590698,-12.725628852844238,-1.5260226726531982
1695712553436645000,11.56264501953125,-0.5162515044212341,-13.152149200439453,-2.1200408935546875
1695712553446677800,11.572677734375,-2.8103702068328857,-13.893924713134766,-2.943770170211792
1695712553456710400,11.58271044921875,-4.29451847076416,-14.985650062561035,-3.723830223083496
1695712553466743000,11.592742919921875,-4.3519463539123535,-14.971293449401855,-3.652045488357544
1695712553476775700,11.602775634765624,-5.108676433563232,-13.913066864013672,-2.7182464599609375
1695712553486806300,11.61280615234375,-5.932405471801758,-13.50150203704834,-1.7126628160476685
1695712553496839000,11.6228388671875,-4.845465660095215,-13.290933609008789,-1.5643078088760376
1695712553506871300,11.632871337890625,-1.2251251935958862,-12.577274322509766,-1.9381862878799438
1695712553516904000,11.642904052734375,2.0165512561798096,-11.600403785705566,-2.713460922241211
1695712553526936600,11.6529365234375,4.506283283233643,-11.375478744506836,-3.565903902053833
1695712553536969200,11.66296923828125,5.066802024841309,-12.108281135559082,-4.638486862182617
1695712553547001900,11.673001953125,3.731008768081665,-13.094721794128418,-5.907280921936035
1695712553557034500,11.683034423828126,2.3802602291107178,-13.692927360534668,-6.577869415283203
1695712553567067000,11.69306689453125,1.3411771059036255,-14.315659523010254,-6.869793891906738
1695712553577099500,11.703099609375,0.8003991842269897,-14.085948944091797,-7.22452974319458
1695712553587130000,11.713130126953125,1.6480566263198853,-12.864412307739258,-6.759724140167236
1695712553597160700,11.72316064453125,2.6249263286590576,-11.657832145690918,-6.295516490936279
1695712553607191000,11.73319091796875,1.9256240129470825,-11.3180513381958,-5.495715618133545
1695712553617221600,11.7432216796875,0.16809579730033875,-11.193624496459961,-4.64805793762207
1695712553627252200,11.753252197265626,-0.5934200286865234,-10.65224838256836,-4.088137626647949
1695712553637282600,11.763282470703125,-0.06640082597732544,-9.857233047485352,-3.6329028606414795
1695712553647313200,11.773313232421875,0.9248259663581848,-9.105886459350586,-2.991626501083374
1695712553657343500,11.783343505859374,2.1409780979156494,-8.535796165466309,-2.2444677352905273
1695712553667374000,11.7933740234375,2.6632115840911865,-8.062017440795898,-1.7270197868347168
1695712553677404700,11.80340478515625,2.3946173191070557,-7.348358154296875,-1.674377679824829
1695712553687439000,11.813439208984375,2.169692039489746,-6.510272026062012,-1.7078771591186523
1695712553697492700,11.82349267578125,2.179263114929199,-5.4951171875,-1.856830358505249
1695712553707546400,11.83354638671875,2.3467607498168945,-4.532604217529297,-1.9716858863830566
1695712553717600000,11.84360009765625,2.4951157569885254,-4.111467361450195,-2.1918256282806396
1695712553727653600,11.853653564453126,2.41375994682312,-3.848257064819336,-2.431107759475708
1695712553737707300,11.863707275390626,2.059622049331665,-4.034897327423096,-2.5459632873535156
1695712553747761000,11.873760986328126,1.542174220085144,-4.240679740905762,-2.6321048736572266
1695712553757814800,11.883814697265626,1.077966570854187,-4.140181541442871,-2.7278177738189697
1695712553767868400,11.893868408203126,0.8530412912368774,-3.8195431232452393,-2.9389843940734863
1695712553777898500,11.9038984375,0.9535398483276367,-3.34995174407959,-3.197409152984619
1695712553787912400,11.913912353515625,0.8530412912368774,-2.981456995010376,-3.652045488357544
1695712553797926400,11.923926513671875,0.7956135272979736,-2.7182464599609375,-4.054637908935547
1695712553807940600,11.933940673828126,0.5994020700454712,-2.6703901290893555,-4.475774765014648
1695712553817954600,11.94395458984375,0.23030917346477509,-2.9479575157165527,-4.681557655334473
1695712553827968500,11.953968505859375,-0.14297115802764893,-3.2303106784820557,-4.561916351318359
1695712553837982500,11.963982421875,-0.7178468108177185,-3.570091485977173,-4.217350006103516
1695712553847996400,11.973996337890625,-1.8717855215072632,-3.9487555027008057,-3.8195431232452393
1695712553858010400,11.98401025390625,-3.600001573562622,-4.647459983825684,-3.3505499362945557
1695712553868024600,11.994024658203125,-5.817550182342529,-5.73978328704834,-3.321835994720459
1695712553878055400,12.004055419921874,-9.853643417358398,-7.267002582550049,-3.4989049434661865
1695712553888089000,12.014089111328126,-16.667804718017578,-10.192826271057129,-3.747758388519287
1695712553898122500,12.02412255859375,-21.001205444335938,-14.018351554870605,-3.824328899383545
1695712553908156200,12.03415625,-20.273189544677734,-18.601205825805664,-4.332205295562744
1695712553918189800,12.04418994140625,-16.801801681518555,-23.078176498413086,-5.299503803253174
1695712553928223500,12.054223388671875,-9.375079154968262,-23.269601821899414,-5.342574596405029
1695712553938257200,12.064257080078125,-4.744967460632324,-18.644275665283203,-4.738985061645508
1695712553948290800,12.074290771484375,-4.0217366218566895,-13.214363098144531,-3.2213375568389893
1695712553958324500,12.084324462890624,-3.6532418727874756,-8.105088233947754,-1.3441680669784546
1695712553968358100,12.094358154296875,-3.9690945148468018,-3.9487555027008057,-0.7645068168640137
1695712553978389200,12.10438916015625,-3.5952160358428955,-1.9280169010162354,-2.7086751461029053
1695712553988421600,12.114421630859376,-2.5226333141326904,-2.7086751461029053,-4.988437175750732
1695712553998453800,12.124453857421875,-0.1908276081085205,-4.389034748077393,-6.013163089752197
1695712554008486100,12.134486083984376,3.5916268825531006,-7.3292155265808105,-6.798008918762207
1695712554018518300,12.144518310546875,7.355536937713623,-11.016555786132812,-7.573882102966309
1695712554028550700,12.154550537109374,4.066003799438477,-15.25903034210205,-7.937591075897217
1695712554038582800,12.164582763671875,-3.3272199630737305,-17.700904846191406,-6.601797580718994
1695712554048615200,12.174615234375,-2.6907291412353516,-16.005590438842773,-5.534000396728516
1695712554058647300,12.184647216796876,1.9208383560180664,-11.935399055480957,-4.9501519203186035
1695712554068679400,12.194679443359375,5.071587562561035,-8.157731056213379,-5.309075355529785
1695712554078711000,12.2047109375,4.894518852233887,-4.393820762634277,-6.099305152893066
1695712554088744700,12.21474462890625,3.7118661403656006,-2.176870346069336,-6.008377552032471
1695712554098778400,12.2247783203125,3.0891339778900146,-1.9280169010162354,-5.170291423797607
1695712554108812000,12.23481201171875,3.4719855785369873,-3.0867412090301514,-4.351347923278809
1695712554118845700,12.244845703125,4.381856441497803,-5.203192710876465,-3.613760471343994
1695712554128879000,12.254879150390625,4.257429599761963,-8.368298530578613,-2.794816732406616
1695712554138912800,12.264912841796875,1.9016958475112915,-11.72004508972168,-2.7421748638153076
1695712554148946400,12.274946533203124,0.14416755735874176,-13.812568664550781,-2.9150562286376953
1695712554158980000,12.28497998046875,0.268594354391098,-13.860424995422363,-2.809173822402954
1695712554169013800,12.295013671875,1.144965648651123,-13.35314655303955,-2.3018953800201416
1695712554179048400,12.30504833984375,1.8634105920791626,-12.2135648727417,-1.9764715433120728
1695712554189098000,12.315097900390626,2.1170499324798584,-10.72403335571289,-1.828116536140442
1695712554199147500,12.3251474609375,1.9208383560180664,-9.029315948486328,-1.5882359743118286
1695712554209197000,12.335197021484374,1.705484390258789,-7.683353424072266,-1.2675977945327759
1695712554219246600,12.34524658203125,1.168893814086914,-6.7208404541015625,-1.3680963516235352
1695712554229296000,12.355296142578124,0.5419743061065674,-6.32363224029541,-1.9621145725250244
1695712554239345700,12.365345703125,-0.267397940158844,-6.328417778015137,-2.6368906497955322
1695712554249395200,12.375395263671875,-0.885344386100769,-6.38584566116333,-3.5084762573242188
1695712554259444700,12.38544482421875,-1.4452649354934692,-6.869793891906738,-3.6807594299316406
1695712554269494300,12.395494384765625,-1.709073543548584,-7.582854747772217,-3.4127633571624756
1695712554279524600,12.405524658203126,-1.77607262134552,-8.196015357971191,-2.9629125595092773
1695712554289538000,12.4155380859375,-1.4931213855743408,-8.813364028930664,-2.4981069564819336
1695712554299551200,12.42555126953125,-0.4875376224517822,-9.005388259887695,-2.076970100402832
1695712554309564400,12.435564453125,0.7190431952476501,-8.900103569030762,-1.9046868085861206
1695712554319577900,12.445577880859375,1.8059829473495483,-8.60758113861084,-1.76051926612854
1695712554329591000,12.455591064453126,2.193620204925537,-8.172087669372559,-1.8664016723632812
1695712554339604200,12.465604248046875,2.083550214767456,-7.9040913581848145,-2.225325107574463
1695712554349617700,12.47561767578125,1.537388563156128,-8.014161109924316,-2.7900311946868896
1695712554359630800,12.485630859375,0.7860422134399414,-8.545368194580078,-3.087339401245117
1695712554369644000,12.49564404296875,-0.12861421704292297,-9.259027481079102,-2.9006991386413574
1695712554379674000,12.505674072265625,-1.062413215637207,-9.967901229858398,-2.359323024749756
1695712554389702400,12.515702392578126,-1.953141450881958,-10.771889686584473,-1.6504493951797485
1695712554399731000,12.52573095703125,-2.431705951690674,-11.648261070251465,-0.8608179688453674
1695712554409759200,12.53575927734375,-1.933998942375183,-12.787842750549316,0.02512463741004467
1695712554419787500,12.54578759765625,-1.129412293434143,-13.334004402160645,0.35114672780036926
1695712554429816000,12.555816162109375,-0.5018945336341858,-12.629916191101074,0.1256231814622879
1695712554439844400,12.56584423828125,0.09152546525001526,-11.60519027709961,-0.26201409101486206
1695712554449872600,12.57587255859375,0.589830756187439,-11.423335075378418,-0.5491527915000916
1695712554459901000,12.58590087890625,0.8099704384803772,-12.419347763061523,-1.0235298871994019
1695712554469929200,12.59592919921875,0.4504488706588745,-13.96092414855957,-1.5978072881698608
1695712554479960300,12.605960205078125,-0.33439695835113525,-15.254244804382324,-2.3880369663238525
1695712554489995500,12.61599560546875,-1.4931213855743408,-15.316457748413086,-3.331407308578491
1695712554500030700,12.62603076171875,-3.269792079925537,-14.129019737243652,-3.723830223083496
1695712554510066200,12.636066162109374,-4.280161380767822,-13.381860733032227,-2.5459632873535156
1695712554520101400,12.646101318359374,-3.6047873497009277,-13.60200023651123,-1.3920245170593262
1695712554530136600,12.656136474609376,-2.6141586303710938,-13.415360450744629,-1.516451358795166
1695712554540171800,12.666171875,-1.129412293434143,-12.692129135131836,-2.249253273010254
1695712554550207000,12.67620703125,0.29730820655822754,-11.935399055480957,-3.259622573852539
1695712554560242400,12.686242431640625,1.7150555849075317,-12.16092300415039,-4.844269275665283
1695712554570277600,12.696277587890625,2.7014968395233154,-12.64905834197998,-6.515655994415283
1695712554580309000,12.70630908203125,2.792423963546753,-12.964911460876465,-8.062616348266602
1695712554590342100,12.716342041015626,2.059622049331665,-12.950553894042969,-8.684749603271484
1695712554600375300,12.726375244140625,1.0205388069152832,-12.974482536315918,-8.9910306930542
1695712554610408400,12.736408447265624,-0.11904292553663254,-12.414562225341797,-8.81396198272705
1695712554620441600,12.746441650390626,0.14416755735874176,-11.279766082763672,-7.798807144165039
1695712554630474500,12.756474609375,2.59621262550354,-10.52782154083252,-6.324230194091797
1695712554640507600,12.766507568359375,2.0165512561798096,-10.771889686584473,-5.103292465209961
1695712554650540800,12.776540771484376,0.10588239878416061,-11.073983192443848,-3.7812578678131104
1695712554660574000,12.786573974609375,-0.5306084156036377,-10.829317092895508,-2.867199659347534
1695712554670607000,12.796607177734375,-0.20997019112110138,-10.475179672241211,-2.091326951980591
1695712554680641300,12.806641357421874,0.9966106414794922,-10.077970504760742,-1.272383451461792
1695712554690689000,12.81668896484375,2.1984057426452637,-9.546165466308594,-1.033101201057434
1695712554700736800,12.82673681640625,2.6057839393615723,-8.799007415771484,-1.0426725149154663
1695712554710784500,12.836784423828124,2.706282377243042,-7.971090316772461,-1.210170030593872
