time,seconds_elapsed,z,y,x
1695712947540800500,0.231800537109375,0.03169159218668938,0.06258423626422882,0.04833633825182915
1695712947550812000,0.24181201171875,0.11478215456008911,0.14447638392448425,-0.0017310534603893757
1695712947560823300,0.2518232421875,0.14567480981349945,0.26165539026260376,-0.09121319651603699
1695712947570834700,0.261834716796875,0.12223900109529495,0.34155014157295227,-0.1784316599369049
1695712947580931800,0.271931884765625,0.08175898343324661,0.36179015040397644,-0.22423799335956573
1695712947590943200,0.281943115234375,0.023169483989477158,0.34261542558670044,-0.22849905490875244
1695712947600850700,0.2918505859375,-0.011984216049313545,0.2914827764034271,-0.1454084813594818
1695712947610814700,0.301814697265625,-0.05779055133461952,0.15725953876972198,-0.05392897129058838
1695712947620901000,0.311901123046875,-0.11105373501777649,-0.09294424951076508,0.04727107286453247
1695712947630916900,0.321916748046875,-0.12277163565158844,-0.1909485012292862,0.1825595498085022
1695712947640964000,0.331964111328125,-0.12809795141220093,-0.26764747500419617,0.26032379269599915
1695712947650993000,0.341992919921875,-0.10146636515855789,-0.30493173003196716,0.2475406378507614
1695712947660991500,0.351991455078125,-0.06950845569372177,-0.2516685426235199,0.16018901765346527
1695712947671007500,0.362007568359375,-0.06950845569372177,-0.10359688848257065,0.04833633825182915
1695712947681085400,0.37208544921875,-0.08122635632753372,0.04767054691910744,-0.06671213358640671
1695712947691127600,0.38212744140625,-0.105727419257164,0.12756532430648804,-0.14860427379608154
1695712947701139500,0.392139404296875,-0.13981585204601288,0.16684691607952118,-0.14966954290866852
1695712947711168800,0.402168701171875,-0.14514216780662537,0.1945437788963318,-0.07523424178361893
1695712947721214500,0.41221435546875,-0.11318425834178925,0.15832480788230896,0.04833633825182915
1695712947731250700,0.422250732421875,-0.07590003311634064,0.07536740601062775,0.18362481892108917
1695712947741281500,0.432281494140625,-0.040746334940195084,-0.03755054250359535,0.25499749183654785
1695712947751315500,0.4423154296875,0.0018642114009708166,-0.17816534638404846,0.22303956747055054
1695712947761350700,0.4523505859375,-0.006657897960394621,-0.1771000772714615,0.11012163013219833
1695712947771384800,0.462384765625,-0.08548741042613983,-0.060986343771219254,-0.02516685426235199
1695712947781394700,0.472394775390625,-0.18775272369384766,0.0732368752360344,-0.14860427379608154
1695712947791418600,0.482418701171875,-0.21971063315868378,0.08815056830644608,-0.21571588516235352
1695712947801475800,0.492475830078125,-0.16857796907424927,0.008255792781710625,-0.19867166876792908
1695712947811513900,0.502513916015625,-0.10253162682056427,-0.07483477145433426,-0.14008216559886932
1695712947821549000,0.512549072265625,-0.13981585204601288,-0.12809795141220093,-0.07097318768501282
1695712947831586000,0.5225859375,-0.3016027808189392,-0.0002663159102667123,0.0600542388856411
1695712947841608200,0.532608154296875,-0.47417548298835754,0.10519478470087051,0.18575534224510193
1695712947851638500,0.542638427734375,-0.604137659072876,0.05832318589091301,0.17829850316047668
1695712947861664000,0.5526640625,-0.755405068397522,0.04234423115849495,0.06644582003355026
1695712947871692300,0.5626923828125,-0.8724509477615356,0.10199899226427078,-0.1411474347114563
1695712947881738200,0.57273828125,-0.9139962196350098,0.2637858986854553,-0.33609068393707275
1695712947891774000,0.58277392578125,-0.8894951343536377,0.29467856884002686,-0.4745749533176422
1695712947901805600,0.5928056640625,-0.7564703226089478,0.20945745706558228,-0.5289034247398376
1695712947911840800,0.6028408203125,-0.6328997611999512,0.09028109163045883,-0.4554001986980438
1695712947921869300,0.612869384765625,-0.5796365737915039,-0.015180006623268127,-0.28495803475379944
1695712947931904000,0.622904052734375,-0.5647228956222534,-0.13342426717281342,-0.10186583548784256
1695712947941937000,0.63293701171875,-0.5775060653686523,-0.22610220313072205,-0.0006657897611148655
1695712947951971300,0.642971435546875,-0.5817670822143555,-0.24421168863773346,0.0153131652623415
1695712947962004700,0.653004638671875,-0.5743102431297302,-0.22184115648269653,-0.04221107065677643
1695712947972039200,0.6630390625,-0.5466133952140808,-0.1856221854686737,-0.16671375930309296
1695712947982089700,0.67308984375,-0.49228495359420776,-0.10785794258117676,-0.28921908140182495
1695712947992125700,0.683125732421875,-0.44541335105895996,-0.11211899667978287,-0.3723096549510956
1695712948002146000,0.69314599609375,-0.4571312665939331,-0.3592601716518402,-0.4277033507823944
1695712948012180500,0.703180419921875,-0.41239017248153687,-0.44647863507270813,-0.36059173941612244
1695712948022190600,0.713190673828125,-0.3825628161430359,-0.49228495359420776,-0.21358536183834076
1695712948032222500,0.723222412109375,-0.3953459560871124,-0.6371608376502991,-0.05392897129058838
1695712948042290400,0.73329052734375,-0.4006722867488861,-0.8874977827072144,0.13249216973781586
1695712948052326000,0.743325927734375,-0.3761712312698364,-1.2676637172698975,0.3561975359916687
1695712948062324000,0.753323974609375,-0.3452785909175873,-1.7852487564086914,0.6202497482299805
1695712948072355600,0.76335546875,-0.2973417043685913,-2.3252041339874268,0.8364982604980469
1695712948082418200,0.773418212890625,-0.14940322935581207,-2.810831308364868,0.9876325726509094
1695712948092452900,0.783452880859375,0.11478215456008911,-3.1462562084198,1.0867021083831787
1695712948102471400,0.793471435546875,0.5066660046577454,-3.4264204502105713,1.1048115491867065
1695712948112504600,0.803504638671875,0.9049414396286011,-3.6649065017700195,1.0536788702011108
1695712948122561300,0.813561279296875,1.2586089372634888,-3.8481316566467285,0.968457818031311
1695712948132596700,0.8235966796875,1.6259918212890625,-3.9866161346435547,0.8386288285255432
1695712948142610000,0.83360986328125,2.0327892303466797,-4.125100135803223,0.6713824272155762
1695712948152643000,0.84364306640625,2.534395456314087,-4.3603901863098145,0.4956139028072357
1695712948162654200,0.853654296875,2.9274775981903076,-4.711794376373291,0.3934817612171173
1695712948172685000,0.86368505859375,3.2075088024139404,-5.269859313964844,0.32104381918907166
1695712948182750200,0.873750244140625,3.632415771484375,-5.746032238006592,0.12397005409002304
1695712948192784600,0.88378466796875,4.0679755210876465,-5.713008880615234,-0.2775011658668518
1695712948202807600,0.8938076171875,4.377967357635498,-5.075048923492432,-0.8068040609359741
1695712948212840700,0.9038408203125,4.578103542327881,-3.806586503982544,-1.4021532535552979
1695712948222877000,0.913876953125,4.830571174621582,-2.9386630058288574,-2.00282883644104
1695712948232910300,0.923910400390625,5.06919002532959,-2.756502866744995,-2.161553144454956
1695712948242898700,0.933898681640625,5.168126583099365,-3.6840810775756836,-1.8920413255691528
1695712948252927500,0.943927490234375,5.446160316467285,-5.262402534484863,-1.146623134613037
1695712948263013600,0.954013671875,5.8923726081848145,-6.831269264221191,-0.08482161909341812
1695712948273048300,0.96404833984375,6.409957408905029,-7.871765613555908,0.9663273096084595
1695712948283060000,0.97406005859375,6.863626956939697,-8.126230239868164,1.6799207925796509
1695712948293246200,0.98424609375,7.094789028167725,-7.737542629241943,2.1421120166778564
1695712948303278600,0.994278564453125,7.103311061859131,-7.0953216552734375,2.51175856590271
1695712948313166600,1.00416650390625,6.989327907562256,-6.385989189147949,2.9707539081573486
1695712948323187200,1.014187255859375,6.510092258453369,-5.8130106925964355,3.5969958305358887
1695712948333231900,1.02423193359375,5.652688503265381,-5.280511856079102,4.2348222732543945
1695712948343254800,1.0342548828125,4.622844696044922,-4.602205276489258,4.747081279754639
1695712948353296400,1.04429638671875,3.598327398300171,-3.61710262298584,5.0655951499938965
1695712948363321300,1.0543212890625,2.542917490005493,-2.4306652545928955,5.016592979431152
1695712948373369300,1.064369384765625,1.4534190893173218,-1.4551501274108887,4.5426836013793945
1695712948383396600,1.074396728515625,0.48749127984046936,-0.885367214679718,3.8770270347595215
1695712948393425400,1.08442529296875,-0.3388870060443878,-0.9418262243270874,3.217761993408203
1695712948403453000,1.094452880859375,-0.7756450772285461,-1.3763206005096436,2.7917897701263428
1695712948413496600,1.10449658203125,-0.8916256427764893,-1.6616780757904053,2.6490442752838135
1695712948423525600,1.114525634765625,-0.951280415058136,-1.7245286703109741,2.550107955932617
1695712948433558000,1.12455810546875,-1.148354172706604,-1.6243939399719238,2.391383647918701
1695712948443587300,1.13458740234375,-1.4038842916488647,-1.501888632774353,2.114415168762207
1695712948453636400,1.14463623046875,-1.595631718635559,-1.3752553462982178,1.654354453086853
1695712948463667700,1.154667724609375,-1.5892401933670044,-1.198421597480774,1.052613615989685
1695712948473684200,1.164684326171875,-1.205878496170044,-0.967259407043457,0.3242396116256714
1695712948483714000,1.174714111328125,-0.0023968431632965803,0.21158799529075623,-2.1104204654693604
1695712948493750500,1.18475048828125,0.5780386924743652,1.1872363090515137,-3.5971291065216064
1695712948503780900,1.19478076171875,0.003994738683104515,0.6897581815719604,-3.0337376594543457
1695712948513816300,1.20481640625,-0.8149266839027405,-0.46565335988998413,-1.6801871061325073
1695712948523847400,1.214847412109375,-0.8064045906066895,-1.784183382987976,-0.16138744354248047
1695712948533881000,1.224881103515625,-0.41239017248153687,-2.6851301193237305,0.7747129797935486
1695712948543912400,1.234912353515625,-0.09294424951076508,-2.9482502937316895,1.136769413948059
1695712948553945900,1.24494580078125,0.13289164006710052,-2.637193202972412,1.139965295791626
1695712948563977200,1.254977294921875,0.33196279406547546,-2.0631494522094727,0.9492830634117126
1695712948574011000,1.265010986328125,0.6057355403900146,-1.6744612455368042,0.6958834528923035
1695712948584042500,1.27504248046875,0.7122619152069092,-1.4199963808059692,0.7960182428359985
1695712948594079700,1.285079833984375,0.7143924236297607,-1.1898994445800781,1.1005505323410034
1695712948604112100,1.295112060546875,0.6643250584602356,-0.68829345703125,1.1836410760879517
1695712948614143700,1.305143798828125,0.8367645740509033,-0.2942790687084198,0.9865673184394836
1695712948624175900,1.31517578125,0.7740471959114075,-0.06631266325712204,0.860999345779419
1695712948634209300,1.325209228515625,0.8484824895858765,0.14767217636108398,0.802409827709198
1695712948644241700,1.33524169921875,1.0338383913040161,0.31385329365730286,0.8141277432441711
1695712948654275600,1.345275634765625,1.056208848953247,0.608931303024292,0.9142625331878662
1695712948664308200,1.35530810546875,0.7633945345878601,1.0732531547546387,1.1591399908065796
1695712948674509000,1.365509033203125,0.4619249403476715,1.5034865140914917,1.3977590799331665
1695712948684541700,1.375541748046875,0.39800912141799927,1.6856465339660645,1.3317127227783203
1695712948694574000,1.385573974609375,0.33196279406547546,1.5546190738677979,1.0419609546661377
1695712948704440000,1.395440185546875,0.2575274705886841,1.3053474426269531,0.6021402478218079
1695712948714458400,1.405458251953125,0.3862912356853485,1.0679267644882202,0.0930774137377739
1695712948724512500,1.415512451171875,0.6845650672912598,0.8101329803466797,-0.3904191255569458
1695712948734534700,1.42553466796875,1.2096068859100342,0.5173186659812927,-0.8930904269218445
1695712948744577300,1.435577392578125,1.6430360078811646,0.5727123618125916,-1.1572757959365845
1695712948754601200,1.445601318359375,1.8868482112884521,0.4384891390800476,-1.510810136795044
1695712948764615400,1.455615478515625,2.071138858795166,0.314918577671051,-1.6961660385131836
1695712948774638300,1.465638427734375,2.260755777359009,0.34687647223472595,-1.6386418342590332
1695712948784678400,1.475678466796875,2.3821957111358643,0.6589987277984619,-1.4692648649215698
1695712948794703000,1.485703125,2.4152190685272217,1.2148000001907349,-1.1860378980636597
1695712948804745200,1.4957451171875,2.3470420837402344,1.368198037147522,-0.9111998677253723
1695712948814771700,1.505771728515625,2.1137492656707764,0.9805752038955688,-0.6715155839920044
1695712948824836900,1.5158369140625,1.7399749755859375,0.7462171912193298,-0.33609068393707275
1695712948834867200,1.5258671875,1.57912015914917,0.6142576336860657,-0.2018674612045288
1695712948844906000,1.535906005859375,1.8017603158950806,-0.001331579522229731,-0.5917539596557617
1695712948854937000,1.54593701171875,2.377934694290161,-0.7660577297210693,-1.2210584878921509
1695712948864966400,1.55596630859375,2.930673360824585,-1.4466279745101929,-1.5693997144699097
1695712948874997500,1.56599755859375,3.213900327682495,-1.4721943140029907,-1.3680648803710938
1695712948885003800,1.576003662109375,2.9987170696258545,-1.324122667312622,-1.0411620140075684
1695712948895032300,1.5860322265625,2.0977704524993896,-1.312404751777649,-0.7034734487533569
1695712948905071900,1.59607177734375,0.7495461106300354,-1.0578068494796753,-0.13169321417808533
1695712948915101700,1.606101806640625,-0.311190128326416,-0.5796365737915039,0.4956139028072357
1695712948925130200,1.616130126953125,-0.5359607934951782,-0.5253081321716309,0.7171887755393982
1695712948935159800,1.626159912109375,-0.3740406930446625,-0.6020070910453796,0.5797697305679321
1695712948945237800,1.63623779296875,-0.237820103764534,-0.2985401451587677,0.20173430442810059
1695712948955272200,1.646272216796875,-0.1579253375530243,0.35113751888275146,-0.221042200922966
1695712948965277000,1.65627685546875,0.18722008168697357,0.6897581815719604,-0.7247787714004517
1695712948975308300,1.666308349609375,0.7410240173339844,0.976314127445221,-0.8462188243865967
1695712948985346800,1.676346923828125,0.9198551774024963,1.6899075508117676,-0.8313050866127014
1695712948995379000,1.68637890625,1.2042804956436157,1.992309331893921,-0.9325051307678223
1695712949005411600,1.69641162109375,1.690972924232483,1.9209367036819458,-1.1370357275009155
1695712949015443700,1.706443603515625,1.9283934831619263,1.9283934831619263,-0.9964209794998169
1695712949025474800,1.716474853515625,2.0327892303466797,1.3841769695281982,-0.7354313731193542
1695712949035507000,1.7265068359375,2.244776725769043,0.7014760971069336,-0.31265488266944885
1695712949045541000,1.736541015625,3.2607719898223877,0.4022701680660248,0.2986733019351959
1695712949055573200,1.7465732421875,4.82098388671875,1.051947832107544,1.2326432466506958
1695712949065603800,1.756603759765625,5.830587387084961,0.9294425249099731,1.370062232017517
1695712949075636000,1.766635986328125,6.301300525665283,0.19667430222034454,0.9376983046531677
1695712949085675800,1.77667578125,6.24697208404541,-0.6819018721580505,0.34447962045669556
1695712949095708400,1.78670849609375,5.050015449523926,-1.6190675497055054,-0.23915168642997742
1695712949105760300,1.79676025390625,3.3449277877807617,-2.6361279487609863,-0.3755054473876953
1695712949115795000,1.806794921875,2.7602312564849854,-3.1377339363098145,-0.6779071688652039
1695712949125822700,1.81682275390625,2.806037664413452,-3.035601854324341,-0.5523391962051392
1695712949135857000,1.82685693359375,2.529068946838379,-2.2378525733947754,-0.009187898598611355
1695712949145894100,1.83689404296875,2.159555673599243,-1.4210617542266846,0.10266478359699249
1695712949155928600,1.846928466796875,1.3660674095153809,-0.8480830192565918,-0.14221268892288208
1695712949165942000,1.85694189453125,0.48429548740386963,-0.3358243703842163,-0.42663809657096863
1695712949175974400,1.866974365234375,-0.39854174852371216,0.1201084777712822,-0.6002760529518127
1695712949186023000,1.87702294921875,-0.43582597374916077,-0.11424952745437622,-0.5214465260505676
1695712949196056800,1.887056884765625,0.1712411344051361,-0.8161250948905945,-0.3478085696697235
1695712949206058500,1.89705859375,0.8516782522201538,-1.9077540636062622,-0.2828274965286255
1695712949216089300,1.90708935546875,1.4299832582473755,-3.02068829536438,-0.26578328013420105
1695712949226154500,1.917154541015625,1.846501350402832,-3.551056385040283,-0.27963170409202576
1695712949236188700,1.927188720703125,2.263951539993286,-4.0217695236206055,-0.2402169555425644
1695712949246217500,1.937217529296875,2.6153554916381836,-5.283707618713379,0.053662657737731934
1695712949256251000,1.9472509765625,2.815624952316284,-6.363618850708008,0.3988080620765686
1695712949266285300,1.957285400390625,2.925347089767456,-6.307292938232422,0.4881570637226105
1695712949276319000,1.967319091796875,3.0679593086242676,-5.252815246582031,0.26991117000579834
1695712949286354400,1.9773544921875,3.0690245628356934,-3.4988584518432617,-0.10186583548784256
1695712949296388400,1.987388427734375,3.046653985977173,-1.3166658878326416,-0.3957454562187195
1695712949306388200,1.99738818359375,3.140397310256958,0.7643266916275024,-0.5459476113319397
1695712949316418600,2.00741845703125,3.288468837738037,2.4662184715270996,-0.4330296814441681
1695712949326481200,2.017481201171875,3.085003614425659,5.134037971496582,0.21877852082252502
1695712949336515000,2.02751513671875,1.9156103134155273,4.635627746582031,-0.2636527419090271
1695712949346547200,2.037547119140625,-0.09400951862335205,2.439586877822876,-0.039015281945466995
1695712949356580600,2.04758056640625,-0.9289098978042603,0.4917523264884949,0.41465386748313904
1695712949366613500,2.057613525390625,-0.7010766267776489,0.16471639275550842,0.6617950201034546
1695712949376647000,2.06764697265625,-0.5625923871994019,0.7643266916275024,0.6628602743148804
1695712949386689500,2.077689453125,-0.39428070187568665,1.6046864986419678,0.6532729268074036
1695712949396724000,2.087723876953125,-0.22929799556732178,2.021071434020996,0.5882918238639832
1695712949406749400,2.09774951171875,-0.10892320424318314,1.5056170225143433,0.2613890767097473
1695712949416782800,2.107782958984375,-0.013049479573965073,0.4960133731365204,-0.06671213358640671
1695712949426812400,2.1178125,0.110521100461483,-0.21331904828548431,-0.335025429725647
1695712949436845600,2.127845458984375,0.148870587348938,-0.3741738498210907,-0.43089914321899414
1695712949446874000,2.1378740234375,0.08921582996845245,-0.38589176535606384,-0.30306750535964966
1695712949456906800,2.14790673828125,-0.07057371735572815,-0.5508744716644287,-0.1645832359790802
1695712949466944300,2.1579443359375,-0.1664474457502365,-0.6371608376502991,-0.07310371845960617
1695712949476977400,2.167977294921875,-0.13235901296138763,-0.5870934128761292,-0.003861580742523074
1695712949487011600,2.178011474609375,-0.105727419257164,-0.6808366179466248,0.049401599913835526
1695712949497044700,2.188044677734375,-0.10359688848257065,-0.582832396030426,0.1165132075548172
1695712949507068000,2.19806787109375,-0.13555480539798737,-0.3752391040325165,0.17403744161128998
1695712949517100000,2.20810009765625,-0.14620743691921234,-0.18775272369384766,0.17084164917469025
1695712949527151000,2.218151123046875,-0.13022847473621368,-0.12277163565158844,0.1261005848646164
1695712949537185300,2.228185302734375,-0.09400951862335205,-0.13022847473621368,0.04833633825182915
1695712949547210200,2.238210205078125,-0.06737792491912842,-0.12703268229961395,-0.052863709628582
1695712949557243400,2.248243408203125,-0.05566002428531647,-0.0822916179895401,-0.13475584983825684
1695712949567278000,2.258278076171875,-0.04394212365150452,-0.0588558167219162,-0.18482324481010437
1695712949577311500,2.2683115234375,-0.03861580789089203,-0.09081372618675232,-0.20825904607772827
1695712949587320300,2.2783203125,-0.026897907257080078,-0.18029586970806122,-0.17949692904949188
1695712949597351000,2.288350830078125,-0.0141147430986166,-0.3368896245956421,-0.14327795803546906
1695712949607354400,2.298354248046875,0.014647374860942364,-0.30493173003196716,-0.12210584431886673
1695712949617382400,2.30838232421875,0.025300011038780212,-0.2708432674407959,-0.14327795803546906
1695712949627457800,2.318457763671875,0.03382211923599243,-0.3273022472858429,-0.18482324481010437
1695712949637490400,2.328490478515625,0.05299686640501022,-0.4294344186782837,-0.2348906397819519
1695712949647528400,2.338528564453125,0.03914843872189522,-0.4251733422279358,-0.2721748650074005
1695712949657561900,2.348561767578125,0.023169483989477158,-0.3358243703842163,-0.26471802592277527
1695712949667570700,2.35857080078125,0.010386320762336254,-0.23036326467990875,-0.25086960196495056
1695712949677601500,2.3686015625,-0.016245270147919655,-0.21971063315868378,-0.26578328013420105
1695712949687630800,2.378630859375,-0.029028434306383133,-0.18242639303207397,-0.19654114544391632
1695712949697661400,2.388661376953125,-0.04394212365150452,-0.036485280841588974,-0.11677952855825424
1695712949707712800,2.398712646484375,-0.04607265070080757,0.07217161357402802,-0.08056056499481201
1695712949717745700,2.40874560546875,-0.04287686198949814,0.15086796879768372,-0.0006657897611148655
1695712949727775500,2.418775390625,-0.00985368900001049,0.26272064447402954,0.06964161247015
1695712949737808000,2.428807861328125,0.024234747514128685,0.34581121802330017,0.07603318989276886
1695712949747853300,2.438853271484375,0.05086633935570717,0.344745934009552,0.03874896466732025
1695712949757887000,2.448886962890625,0.0966726765036583,0.30533120036125183,-0.04434159770607948
1695712949767899400,2.4588994140625,0.1201084777712822,0.26272064447402954,-0.10399636626243591
1695712949777931000,2.468930908203125,0.09560741484165192,0.2179795652627945,-0.11464899778366089
1695712949787961900,2.4789619140625,0.06897582113742828,0.21052272617816925,-0.12423637509346008
1695712949797993200,2.4889931640625,0.08069372177124023,0.2968090772628784,-0.08482161909341812
1695712949808041000,2.499041015625,0.05193160101771355,0.30959224700927734,-0.04860265180468559
1695712949818074000,2.50907421875,0.04234423115849495,0.269112229347229,-0.035819489508867264
1695712949828103400,2.519103515625,0.03275685757398605,0.1700427085161209,-0.06564687192440033
1695712949838136000,2.529135986328125,0.023169483989477158,0.09241162240505219,-0.10825742036104202
1695712949848150300,2.539150390625,0.018908429890871048,0.011451584286987782,-0.13475584983825684
1695712949858181000,2.54918115234375,-0.0002663159102667123,0.027430538088083267,-0.13062795996665955
1695712949868222200,2.55922216796875,-0.024767380207777023,0.03488738462328911,-0.12423637509346008
1695712949878254000,2.569254150390625,-0.024767380207777023,-0.019441060721874237,-0.12104058265686035
1695712949888327400,2.579327392578125,-0.007723161485046148,-0.09827057272195816,-0.10719215124845505
1695712949898363400,2.58936328125,0.015712639316916466,-0.11318425834178925,-0.0858868807554245
1695712949908374300,2.599374267578125,0.03169159218668938,-0.09294424951076508,-0.07203845679759979
1695712949918408000,2.609407958984375,0.025300011038780212,-0.09933583438396454,-0.06564687192440033
1695712949928436000,2.61943603515625,0.027430538088083267,-0.05459476262331009,-0.06138581782579422
1695712949938468900,2.62946875,0.04127896577119827,-0.07803056389093399,-0.054994236677885056
1695712949948493000,2.6394931640625,0.044474758207798004,-0.09614004194736481,-0.043276336044073105
1695712949958525200,2.649525146484375,0.030626330524683,-0.09933583438396454,-0.050733182579278946
1695712949968554200,2.65955419921875,0.023169483989477158,-0.08548741042613983,-0.06032055243849754
1695712949978585900,2.6695859375,0.012516847811639309,-0.07376950979232788,-0.054994236677885056
1695712949988626700,2.679626708984375,0.013582111336290836,-0.04607265070080757,-0.039015281945466995
1695712949998659000,2.6896591796875,0.00612526573240757,-0.03861580789089203,-0.015579480677843094
1695712950008701200,2.699701171875,-0.0002663159102667123,-0.005592633970081806,0.011052110232412815
1695712950018734800,2.70973486328125,-0.015180006623268127,0.03488738462328911,0.03129211813211441
1695712950028772600,2.719772705078125,-0.015180006623268127,0.06684529036283493,0.045140545815229416
1695712950038806500,2.729806640625,-0.032224226742982864,0.10519478470087051,0.040879491716623306
1695712950048828000,2.739827880859375,-0.04287686198949814,0.08282424509525299,0.014247900806367397
1695712950058860500,2.749860595703125,0.007190529722720385,0.07110634446144104,0.030226856470108032
1695712950068879600,2.759879638671875,0.016777902841567993,0.0913463607430458,0.05792371183633804
1695712950078911000,2.769910888671875,0.014647374860942364,0.10732531547546387,0.0739026665687561
1695712950088976400,2.779976318359375,0.016777902841567993,0.12223900109529495,0.08029424399137497
1695712950099011000,2.790010986328125,0.019973693415522575,0.12330426275730133,0.07709845900535583
1695712950109043700,2.800043701171875,0.019973693415522575,0.09773793816566467,0.05153212696313858
1695712950119078400,2.810078369140625,0.02210422046482563,0.021038956940174103,-0.002796316985040903
1695712950129113600,2.820113525390625,0.03808317333459854,-0.05139897018671036,-0.056059498339891434
1695712950139148300,2.830148193359375,0.03169159218668938,-0.06524740159511566,-0.09121319651603699
1695712950149173500,2.840173583984375,0.02636527456343174,-0.06950845569372177,-0.11145320534706116
1695712950159207200,2.850207275390625,0.023169483989477158,-0.04181159660220146,-0.09227846562862396
1695712950169239300,2.8602392578125,-0.004527370445430279,-0.02263685315847397,-0.06564687192440033
1695712950179272700,2.870272705078125,-0.03009369783103466,0.008255792781710625,-0.05819002538919449
1695712950189302300,2.88030224609375,-0.040746334940195084,0.028495801612734795,-0.054994236677885056
1695712950199335400,2.89033544921875,-0.04500738903880119,0.04980107396841049,-0.056059498339891434
1695712950209365500,2.900365478515625,-0.048203181475400925,0.08069372177124023,-0.052863709628582
1695712950219398400,2.9103984375,-0.05459476262331009,0.0966726765036583,-0.056059498339891434
1695712950229435000,2.920434814453125,-0.0588558167219162,0.10199899226427078,-0.05392897129058838
1695712950239468000,2.930468017578125,-0.05779055133461952,0.10626004636287689,-0.04540686309337616
1695712950249476600,2.9404765625,-0.06950845569372177,0.07004108279943466,-0.06138581782579422
1695712950259507500,2.950507568359375,-0.029028434306383133,0.11797794699668884,-0.04114580899477005
1695712950269568300,2.960568359375,-0.0034621069207787514,0.14341111481189728,-0.010253162123262882
1695712950279602000,2.970601806640625,0.0050600022077560425,0.10519478470087051,-0.010253162123262882
1695712950289625900,2.9806259765625,0.0007989477599039674,0.0540621280670166,-0.03688475489616394
1695712950299658800,2.99065869140625,-0.001331579522229731,0.035952646285295486,-0.05712476372718811
1695712950309695000,3.000695068359375,0.010386320762336254,0.04980107396841049,-0.04860265180468559
1695712950319728000,3.01072802734375,0.010386320762336254,0.04980107396841049,-0.035819489508867264
1695712950329736700,3.02073681640625,0.00612526573240757,0.018908429890871048,-0.034754227846860886
1695712950339767300,3.030767333984375,0.03169159218668938,0.0050600022077560425,-0.04114580899477005
1695712950349816000,3.040816162109375,0.019973693415522575,-0.04287686198949814,-0.0762995108962059
1695712950359848400,3.050848388671875,0.03808317333459854,-0.017310533672571182,-0.11038794368505478
1695712950369859300,3.060859375,0.05725792050361633,-0.010918952524662018,-0.11997532099485397
1695712950379889700,3.0708896484375,0.10306425392627716,0.011451584286987782,-0.09121319651603699
1695712950389945900,3.08094580078125,0.06151897460222244,-0.02263685315847397,-0.0858868807554245
1695712950399978800,3.090978759765625,0.021038956940174103,-0.06311687082052231,-0.09867004305124283
1695712950410009300,3.10100927734375,0.01784316636621952,-0.06631266325712204,-0.0997353047132492
1695712950420042000,3.1110419921875,0.07643266767263412,0.023169483989477158,-0.0294279083609581
1695712950430084600,3.121084716796875,0.1435442715883255,0.14128059148788452,0.0600542388856411
1695712950440118300,3.1311181640625,0.05299686640501022,0.04660528525710106,0.024900536984205246
1695712950450157600,3.141157470703125,0.0018642114009708166,-0.07163897901773453,-0.06032055243849754
1695712950460191700,3.151191650390625,-0.013049479573965073,-0.13981585204601288,-0.10080057382583618
1695712950470191900,3.16119189453125,-0.04607265070080757,-0.23995064198970795,-0.11145320534706116
1695712950480222700,3.17122265625,0.05299686640501022,-0.10359688848257065,0.0035952648613601923
1695712950490285800,3.181285888671875,0.056192658841609955,-0.05459476262331009,0.06857634335756302
1695712950500319500,3.191319580078125,-0.013049479573965073,-0.15153375267982483,0.004660528618842363
1695712950510346000,3.201345947265625,-0.005592633970081806,-0.19734008610248566,-0.05819002538919449
1695712950520379000,3.21137890625,-0.00985368900001049,-0.29640960693359375,-0.09760478138923645
1695712950530406700,3.22140673828125,-0.08122635632753372,-0.4102596640586853,-0.154995858669281
1695712950540439000,3.23143896484375,-0.08335687965154648,-0.3784348964691162,-0.12210584431886673
1695712950550453800,3.241453857421875,-0.11638005077838898,-0.3368896245956421,-0.03688475489616394
1695712950560484400,3.251484375,-0.13555480539798737,-0.3326285779476166,-0.002796316985040903
1695712950570535000,3.261534912109375,-0.12277163565158844,-0.36245596408843994,-0.010253162123262882
1695712950580567800,3.27156787109375,-0.10040109604597092,-0.3688475489616394,-0.02197106182575226
1695712950590603300,3.281603271484375,-0.13235901296138763,-0.3741738498210907,-0.06138581782579422
1695712950600636400,3.291636474609375,-0.14407691359519958,-0.3699128031730652,-0.1093226820230484
1695712950610672600,3.301672607421875,-0.1153147891163826,-0.38163068890571594,-0.12104058265686035
1695712950620706300,3.311706298828125,-0.07376950979232788,-0.44541335105895996,-0.12210584431886673
1695712950630730000,3.32172998046875,-0.03328948840498924,-0.5253081321716309,-0.12210584431886673
1695712950640762400,3.331762451171875,-0.04607265070080757,-0.6669881939888,-0.1741705983877182
1695712950650813400,3.3418134765625,-0.026897907257080078,-0.8022766709327698,-0.21358536183834076
1695712950660847900,3.351847900390625,0.027430538088083267,-0.8629966974258423,-0.17949692904949188
1695712950670832000,3.36183203125,0.06578002870082855,-0.9523456692695618,-0.13475584983825684
1695712950680861700,3.37186181640625,0.08388951420783997,-1.076981544494629,-0.16564849019050598
1695712950690927000,3.381927001953125,0.09454214572906494,-0.9629983305931091,-0.19547587633132935
1695712950700959700,3.391959716796875,0.14141374826431274,-0.6691187024116516,-0.16351796686649323
1695712950710981400,3.4019814453125,0.17976324260234833,-0.39547911286354065,-0.07949529588222504
1695712950721013000,3.412012939453125,0.16058848798274994,-0.15472954511642456,0.08455529808998108
1695712950731060700,3.422060791015625,0.10519478470087051,-0.14727269113063812,0.23582273721694946
1695712950741094000,3.432093994140625,0.1669800728559494,-0.31025803089141846,0.41358861327171326
1695712950751117800,3.442117919921875,0.22024326026439667,-0.46032705903053284,0.529702365398407
1695712950761150200,3.452150146484375,0.17869797348976135,-0.4251733422279358,0.5360939502716064
1695712950771189000,3.46218896484375,0.14034847915172577,-0.2516685426235199,0.47430863976478577
1695712950781222100,3.47222216796875,0.1201084777712822,-0.05459476262331009,0.37324175238609314
1695712950791248600,3.48224853515625,0.110521100461483,0.021038956940174103,0.294412225484848
1695712950801281000,3.492281005859375,0.09560741484165192,-0.0023968431632965803,0.24647536873817444
1695712950811325400,3.502325439453125,0.09028109163045883,-0.09827057272195816,0.2432795912027359
1695712950821359000,3.512359130859375,0.11158636957406998,-0.21971063315868378,0.2848248779773712
1695712950831394800,3.522394775390625,0.09773793816566467,-0.27403905987739563,0.3327617347240448
1695712950841428700,3.5324287109375,0.08175898343324661,-0.2655169665813446,0.35832804441452026
1695712950851437300,3.542437255859375,0.07110634446144104,-0.26871275901794434,0.37217649817466736
1695712950861468200,3.55246826171875,0.04767054691910744,-0.28256118297576904,0.3796333372592926
1695712950871511300,3.56251123046875,0.03382211923599243,-0.3177148699760437,0.38815543055534363
1695712950881543400,3.57254345703125,0.03169159218668938,-0.3752391040325165,0.3977428078651428
1695712950891568000,3.582568115234375,0.03275685757398605,-0.44967442750930786,0.4041343927383423
1695712950901599500,3.592599609375,0.04767054691910744,-0.5253081321716309,0.39667755365371704
1695712950911657700,3.60265771484375,0.08495477586984634,-0.5807018280029297,0.37324175238609314
1695712950921691600,3.612691650390625,0.07536740601062775,-0.5870934128761292,0.342349112033844
1695712950931713000,3.622713134765625,0.07004108279943466,-0.5764408111572266,0.3370227813720703
1695712950941745700,3.63274560546875,0.05938844755291939,-0.5625923871994019,0.3561975359916687
1695712950951793400,3.64279345703125,0.05832318589091301,-0.5721797347068787,0.39667755365371704
1695712950961827600,3.65282763671875,0.056192658841609955,-0.5870934128761292,0.4263717830181122
1695712950971818800,3.66281884765625,0.05938844755291939,-0.6137250065803528,0.44128546118736267
1695712950981848000,3.67284814453125,0.040213704109191895,-0.6467481851577759,0.4444812536239624
1695712950991900000,3.68289990234375,0.03275685757398605,-0.7127945423126221,0.4551338851451874
1695712951001931800,3.692931884765625,0.021038956940174103,-0.7490134835243225,0.45087283849716187
1695712951011961300,3.70296142578125,0.030626330524683,-0.7617966532707214,0.44235071539878845
1695712951021992700,3.71299267578125,0.04767054691910744,-0.763927161693573,0.41784965991973877
1695712951032064000,3.72306396484375,0.056192658841609955,-0.8022766709327698,0.37750279903411865
1695712951042099700,3.733099609375,0.0636495053768158,-0.8427566885948181,0.32530489563941956
1695712951052092200,3.743092041015625,0.0636495053768158,-0.8374303579330444,0.26991117000579834
1695712951062123000,3.753123046875,0.04127896577119827,-0.8086682558059692,0.23262694478034973
1695712951072183600,3.76318359375,0.029561065137386322,-0.7649924755096436,0.21345220506191254
1695712951082217200,3.77321728515625,0.03382211923599243,-0.7309040427207947,0.20279955863952637
1695712951092237000,3.783237060546875,0.04340949282050133,-0.6914892792701721,0.1687111258506775
1695712951102269400,3.79326953125,0.04660528525710106,-0.6552702784538269,0.11970899999141693
1695712951112298000,3.803298095703125,0.04234423115849495,-0.6297039985656738,0.07496792823076248
1695712951122330000,3.813330078125,0.035952646285295486,-0.621181845664978,0.04833633825182915
1695712951132354300,3.823354248046875,0.027430538088083267,-0.5892239809036255,0.025965800508856773
1695712951142385700,3.8333857421875,0.021038956940174103,-0.5231776237487793,0.014247900806367397
1695712951152429600,3.8434296875,0.011451584286987782,-0.42730388045310974,0.006791055668145418
1695712951162462200,3.853462158203125,0.003994738683104515,-0.33795487880706787,-0.0006657897611148655
1695712951172499700,3.863499755859375,0.003994738683104515,-0.2761695981025696,-0.0070573715493083
1695712951182532900,3.873532958984375,0.011451584286987782,-0.23462431132793427,-0.005992108024656773
1695712951192596500,3.883596435546875,0.027430538088083267,-0.21651484072208405,0.006791055668145418
1695712951202632700,3.8936328125,0.04980107396841049,-0.20586219429969788,0.028096329420804977
1695712951212646700,3.903646728515625,0.07110634446144104,-0.17070849239826202,0.04301001876592636
1695712951222680800,3.913680908203125,0.08815056830644608,-0.10679268091917038,0.05792371183633804
1695712951232697000,3.923697021484375,0.09454214572906494,-0.020506324246525764,0.07603318989276886
1695712951242729200,3.933729248046875,0.09347688406705856,0.04127896577119827,0.09520793706178665
1695712951252750300,3.943750244140625,0.08495477586984634,0.0636495053768158,0.11012163013219833
1695712951262781200,3.95378125,0.07856319099664688,0.05938844755291939,0.11225215345621109
1695712951272851000,3.963850830078125,0.07643266767263412,0.04980107396841049,0.10053425282239914
1695712951282886000,3.973885986328125,0.0774979293346405,0.03914843872189522,0.08775109052658081
1695712951292879600,3.983879638671875,0.0732368752360344,0.014647374860942364,0.07496792823076248
1695712951302910500,3.993910400390625,0.07004108279943466,-0.02157158963382244,0.06538055837154388
1695712951312947200,4.003947265625,0.0636495053768158,-0.05139897018671036,0.053662657737731934
1695712951322978600,4.013978515625,0.05725792050361633,-0.06631266325712204,0.03874896466732025
1695712951333032200,4.0240322265625,0.05193160101771355,-0.06737792491912842,0.029161592945456505
1695712951343065900,4.03406591796875,0.05086633935570717,-0.06737792491912842,0.03129211813211441
1695712951353110800,4.04411083984375,0.05193160101771355,-0.07909582555294037,0.029161592945456505
1695712951363145500,4.0541455078125,0.044474758207798004,-0.09827057272195816,0.01318263728171587
1695712951373151500,4.0641513671875,0.044474758207798004,-0.10359688848257065,0.012117373757064342
1695712951383183000,4.07418310546875,0.05299686640501022,-0.08548741042613983,0.02383527345955372
1695712951393221400,4.084221435546875,0.06471476703882217,-0.060986343771219254,0.03555317223072052
1695712951403253500,4.09425341796875,0.08175898343324661,-0.06950845569372177,0.04833633825182915
1695712951413310500,4.104310546875,0.09880319982767105,-0.10998847335577011,0.0600542388856411
1695712951423345200,4.11434521484375,0.11584742367267609,-0.1249021589756012,0.07070687413215637
1695712951433340700,4.124340576171875,0.12330426275730133,-0.07483477145433426,0.07709845900535583
1695712951443371300,4.134371337890625,0.12223900109529495,0.009321057237684727,0.09094688296318054
1695712951453441300,4.144441162109375,0.11904320865869522,0.06897582113742828,0.11331742256879807
1695712951463476500,4.1544765625,0.1201084777712822,0.09347688406705856,0.13249216973781586
1695712951473475300,4.164475341796875,0.1243695318698883,0.08388951420783997,0.1442100703716278
1695712951483507000,4.1745068359375,0.12863057851791382,0.05832318589091301,0.14847111701965332
1695712951493570300,4.1845703125,0.13608743250370026,0.015712639316916466,0.1537974327802658
1695712951503605200,4.194605224609375,0.1435442715883255,-0.032224226742982864,0.16018901765346527
1695712951513608700,4.204608642578125,0.1435442715883255,-0.06311687082052231,0.1591237634420395
1695712951523640600,4.214640625,0.13715268671512604,-0.07590003311634064,0.15486270189285278
1695712951533675800,4.22467578125,0.12223900109529495,-0.06631266325712204,0.15273217856884003
1695712951543708200,4.234708251953125,0.10732531547546387,-0.04181159660220146,0.1495363861322403
1695712951553756700,4.244756591796875,0.09880319982767105,-0.03755054250359535,0.14207953214645386
1695712951563790600,4.25479052734375,0.0966726765036583,-0.09081372618675232,0.12503531575202942
1695712951573796400,4.26479638671875,0.10519478470087051,-0.17070849239826202,0.09520793706178665
1695712951583827500,4.274827392578125,0.11265163123607635,-0.24527695775032043,0.04620581120252609
1695712951593869800,4.284869873046875,0.10199899226427078,-0.3123885691165924,0.0035952648613601923
1695712951603902200,4.294902099609375,0.05299686640501022,-0.3507380485534668,0.020639482885599136
1695712951613949000,4.304948974609375,0.02210422046482563,-0.29640960693359375,0.06325002759695053
1695712951623982600,4.314982666015625,0.03382211923599243,-0.20692746341228485,0.040879491716623306
1695712951634015500,4.325015380859375,0.03382211923599243,-0.16431692242622375,-0.01664474420249462
1695712951644049200,4.335049072265625,0.03169159218668938,-0.15366427600383759,-0.03368896245956421
1695712951654077200,4.3450771484375,0.04234423115849495,-0.1291632205247879,0.0025300011038780212
1695712951664110300,4.3551103515625,0.0540621280670166,-0.07590003311634064,0.05579318478703499
1695712951674155300,4.3651552734375,0.0679105594754219,-0.016245270147919655,0.10799109935760498
1695712951684189400,4.375189453125,0.06151897460222244,0.012516847811639309,0.11757847666740417
1695712951694200800,4.385200927734375,0.05512739345431328,-0.08655267208814621,0.09627319872379303
1695712951704232700,4.395232666015625,0.07430213689804077,-0.24527695775032043,0.06644582003355026
1695712951714269000,4.40526904296875,0.07110634446144104,-0.3635212182998657,0.004660528618842363
1695712951724301300,4.41530126953125,0.0732368752360344,-0.4294344186782837,-0.034754227846860886
1695712951734342400,4.42534228515625,0.07110634446144104,-0.4486091434955597,-0.052863709628582
1695712951744375600,4.43537548828125,0.0636495053768158,-0.4304996728897095,-0.07416898012161255
1695712951754393600,4.4453935546875,0.05725792050361633,-0.3837612271308899,-0.11677952855825424
1695712951764425200,4.45542529296875,0.05832318589091301,-0.31984540820121765,-0.19547587633132935
1695712951774468900,4.46546875,0.056192658841609955,-0.2623211741447449,-0.3051980435848236
1695712951784501800,4.475501708984375,0.05512739345431328,-0.21971063315868378,-0.4330296814441681
1695712951794546000,4.4855458984375,0.05512739345431328,-0.1952095627784729,-0.5832318663597107
1695712951804579800,4.495579833984375,0.0540621280670166,-0.13981585204601288,-0.7812377214431763
1695712951814609700,4.505609619140625,0.04767054691910744,0.009321057237684727,-1.0177263021469116
1695712951824643300,4.515643310546875,0.030626330524683,0.2882869839668274,-1.2647342681884766
1695712951834658300,4.525658203125,-0.01837579719722271,0.683366596698761,-1.4820480346679688
1695712951844690000,4.53568994140625,-0.10146636515855789,1.100950002670288,-1.6578165292739868
1695712951854721800,4.5457216796875,-0.21651484072208405,1.4544843435287476,-1.806820273399353
1695712951864753700,4.555753662109375,-0.34208279848098755,1.7218655347824097,-1.9879151582717896
1695712951874789000,4.5657890625,-0.44647863507270813,1.8303892612457275,-2.2329256534576416
1695712951884821200,4.5758212890625,-0.5316997170448303,1.725061297416687,-2.495912790298462
1695712951894878700,4.585878662109375,-0.5881586670875549,1.3415664434432983,-2.6525063514709473
1695712951904913400,4.595913330078125,-0.6360955238342285,0.7238466143608093,-2.7963171005249023
1695712951914943500,4.605943603515625,-0.6819018721580505,0.08388951420783997,-3.0252156257629395
1695712951924977700,4.615977783203125,-0.6520745158195496,-0.5103944540023804,-3.210571527481079
1695712951935011800,4.62601171875,-0.5178512930870056,-0.855539858341217,-3.2031145095825195
1695712951945046000,4.6360458984375,-0.4059986174106598,-1.0950909852981567,-3.095522880554199
1695712951955060000,4.64606005859375,-0.31864699721336365,-1.135571002960205,-2.9804744720458984
1695712951965092400,4.65609228515625,-0.2559295892715454,-1.2580763101577759,-2.8197529315948486
1695712951975110700,4.666110595703125,-0.21012325584888458,-1.5050843954086304,-2.6514410972595215
1695712951985141500,4.6761416015625,-0.10998847335577011,-1.5285202264785767,-2.4373230934143066
1695712951995192800,4.68619287109375,-0.052464235574007034,-1.4444974660873413,-2.2903168201446533
1695712952005225500,4.6962255859375,-0.005592633970081806,-1.2612721920013428,-2.175401449203491
1695712952015253200,4.706253173828125,0.012516847811639309,-1.1504846811294556,-2.0987024307250977
1695712952025285400,4.716285400390625,0.021038956940174103,-1.1323752403259277,-2.016677141189575
1695712952035343600,4.726343505859375,0.002929474925622344,-1.1664637327194214,-1.9314560890197754
1695712952045378600,4.736378662109375,-0.015180006623268127,-1.1632678508758545,-1.8377128839492798
1695712952055379500,4.74637939453125,-0.04713791608810425,-1.1142657995224,-1.7014923095703125
1695712952065410600,4.75641064453125,-0.05459476262331009,-1.0876342058181763,-1.5342459678649902
1695712952075441000,4.76644091796875,-0.05779055133461952,-1.0705899000167847,-1.3286501169204712
1695712952085472000,4.776471923828125,-0.0492684431374073,-1.0183920860290527,-1.0837725400924683
1695712952095526400,4.7865263671875,-0.036485280841588974,-0.9098682999610901,-0.8302398324012756
1695712952105559800,4.796559814453125,-0.03009369783103466,-0.755405068397522,-0.5832318663597107
1695712952115587800,4.806587890625,-0.052464235574007034,-0.5902892351150513,-0.3286338448524475
1695712952125620500,4.816620361328125,-0.052464235574007034,-0.37630438804626465,-0.0997353047132492
1695712952135650800,4.82665087890625,0.028495801612734795,-0.27403905987739563,0.017443692311644554
1695712952145683500,4.836683349609375,0.11158636957406998,-0.29108327627182007,0.049401599913835526
1695712952155722800,4.84672265625,0.15100112557411194,-0.27723485231399536,0.040879491716623306
1695712952165756000,4.856755859375,0.17976324260234833,-0.27190855145454407,0.049401599913835526
1695712952175776500,4.866776611328125,0.17550218105316162,-0.2559295892715454,0.05685844644904137
1695712952185808600,4.87680859375,0.16378428041934967,-0.23995064198970795,0.05792371183633804
1695712952195863000,4.886863037109375,0.14034847915172577,-0.27190855145454407,0.08775109052658081
1695712952205897200,4.896897216796875,0.11371689289808273,-0.3304980397224426,0.17190691828727722
1695712952215913000,4.906912841796875,0.09880319982767105,-0.38589176535606384,0.3103911876678467
1695712952225945300,4.9169453125,0.08388951420783997,-0.45073968172073364,0.47111284732818604
1695712952235970300,4.92697021484375,0.04980107396841049,-0.4763059914112091,0.5669865608215332
1695712952246002000,4.937001953125,0.00612526573240757,-0.47417548298835754,0.5307676196098328
1695712952256063500,4.9470634765625,-0.03435475379228592,-0.48376286029815674,0.40200385451316833
1695712952266098200,4.95709814453125,-0.04713791608810425,-0.48695865273475647,0.19534271955490112
1695712952276130000,4.967130126953125,-0.027963170781731606,-0.480567067861557,-0.04860265180468559
1695712952286164500,4.97716455078125,-0.004527370445430279,-0.5040028691291809,-0.24554327130317688
1695712952296164900,4.987164794921875,-0.011984216049313545,-0.5040028691291809,-0.35100436210632324
1695712952306196000,4.997196044921875,-0.05779055133461952,-0.3976096510887146,-0.3488738536834717
1695712952316255200,5.007255126953125,-0.10466215014457703,-0.3592601716518402,-0.2583264410495758
1695712952326289400,5.017289306640625,-0.14194637537002563,-0.37736964225769043,-0.11997532099485397
1695712952336323800,5.02732373046875,-0.17923060059547424,-0.43582597374916077,0.03555317223072052
1695712952346358000,5.03735791015625,-0.24527695775032043,-0.4816323220729828,0.18469008803367615
1695712952356386300,5.04738623046875,-0.32397329807281494,-0.5178512930870056,0.5723128914833069
1695712952366420000,5.057419921875,-0.22290641069412231,-0.5657881498336792,1.115464210510254
1695712952376440600,5.067440673828125,-0.016245270147919655,-0.6574008464813232,1.3061463832855225
1695712952386472700,5.07747265625,-0.006657897960394621,-0.5029376149177551,1.0100030899047852
1695712952396491300,5.0874912109375,-0.23036326467990875,-0.2889527678489685,0.6479465961456299
1695712952406521900,5.09752197265625,-0.42623862624168396,-0.2900180220603943,0.5776392221450806
1695712952416566800,5.10756689453125,-0.5743102431297302,-0.360325425863266,0.7683213949203491
1695712952426599000,5.117598876953125,-0.6233124136924744,-0.3592601716518402,1.018525242805481
1695712952436652800,5.12765283203125,-0.5860281586647034,0.024234747514128685,1.2848410606384277
1695712952446687000,5.13768701171875,-0.48695865273475647,0.766457200050354,1.7608808279037476
1695712952456661800,5.147661865234375,-0.41345545649528503,1.4598106145858765,2.3594257831573486
1695712952466689500,5.157689453125,-0.38895440101623535,1.7941702604293823,2.839726448059082
1695712952476773000,5.167773193359375,-0.3303648829460144,1.7622123956680298,3.0868678092956543
1695712952486805800,5.1778056640625,-0.21331904828548431,1.6377097368240356,3.074084520339966
1695712952496848000,5.187847900390625,-0.06737792491912842,1.7346487045288086,2.983537197113037
1695712952506881500,5.197881591796875,0.040213704109191895,2.0338547229766846,2.973949670791626
1695712952516912400,5.207912353515625,0.0679105594754219,2.394845724105835,3.044257164001465
1695712952526945800,5.21794580078125,0.04340949282050133,2.653704881668091,3.114431381225586
1695712952536960500,5.22796044921875,0.028495801612734795,2.727208137512207,3.109105110168457
1695712952546992000,5.2379921875,0.0050600022077560425,2.644117593765259,3.0165603160858154
1695712952557036800,5.248036865234375,0.00612526573240757,2.4534354209899902,2.8770108222961426
1695712952567069700,5.258069580078125,-0.0034621069207787514,2.2085578441619873,2.7395918369293213
1695712952577107200,5.268107177734375,-0.05992107838392258,1.8921746015548706,2.611760139465332
1695712952587140600,5.278140625,-0.09720530360937119,1.670732855796814,2.4744741916656494
1695712952597167000,5.2881669921875,-0.13022847473621368,1.4725937843322754,2.337055206298828
1695712952607199700,5.29819970703125,-0.16857796907424927,1.3223916292190552,2.129328966140747
1695712952617218000,5.308218017578125,-0.20266640186309814,1.0945583581924438,1.8684724569320679
1695712952627249200,5.318249267578125,-0.19307903945446014,0.7717835307121277,1.6213312149047852
1695712952637278500,5.328278564453125,-0.1771000772714615,0.37989965081214905,1.325321078300476
1695712952647309300,5.338309326171875,-0.17496955394744873,0.025300011038780212,0.9780451655387878
1695712952657343500,5.348343505859375,-0.11851058155298233,-0.19414429366588593,0.672447681427002
1695712952667374800,5.358374755859375,-0.0684431865811348,-0.24527695775032043,0.45619916915893555
1695712952677407700,5.36840771484375,-0.06524740159511566,-0.16538217663764954,0.331696480512619
1695712952687439400,5.378439453125,-0.08442214131355286,-0.03435475379228592,0.3008038103580475
1695712952697486000,5.388486083984375,-0.10253162682056427,-0.010918952524662018,0.4082622826099396
1695712952707519200,5.398519287109375,-0.14194637537002563,-0.03328948840498924,0.6319676637649536
1695712952717568300,5.408568359375,-0.18881797790527344,0.06578002870082855,0.9366330504417419
1695712952727603000,5.41860302734375,-0.2623211741447449,0.24993747472763062,1.2422305345535278
1695712952737639200,5.42863916015625,-0.2984069883823395,0.4352933466434479,1.4913691282272339
1695712952747673900,5.438673828125,-0.26764747500419617,0.5663207769393921,1.6213312149047852
1695712952757676300,5.44867626953125,-0.2239716798067093,0.6398239731788635,1.6202659606933594
1695712952767707600,5.458707763671875,-0.18029586970806122,0.7270424365997314,1.5691334009170532
1695712952777756200,5.468756103515625,-0.11318425834178925,0.8101329803466797,1.5297186374664307
1695712952787789000,5.4787890625,-0.02583264373242855,0.8591351509094238,1.520131230354309
1695712952797827300,5.488827392578125,0.06471476703882217,0.812263548374176,1.5787206888198853
1695712952807860700,5.49886083984375,0.14567480981349945,0.624910295009613,1.678855538368225
1695712952817869600,5.50886962890625,0.23515695333480835,0.2882869839668274,1.8088176250457764
1695712952827900400,5.518900390625,0.3500722646713257,-0.11638005077838898,1.8908429145812988
1695712952837944800,5.52894482421875,0.45127230882644653,-0.36778226494789124,1.8322534561157227
1695712952847977000,5.53897705078125,0.5460807681083679,-0.34754225611686707,1.5787206888198853
1695712952857975000,5.54897509765625,0.5684512853622437,-0.052464235574007034,1.1261168718338013
1695712952868003300,5.55900341796875,0.4629902243614197,0.36072489619255066,0.6095971465110779
1695712952878063600,5.569063720703125,0.2692453861236572,0.7142592668533325,0.24647536873817444
1695712952888095200,5.57909521484375,0.07217161357402802,0.9741836190223694,0.13142690062522888
1695712952898151700,5.589151611328125,-0.0727042406797409,1.246757984161377,0.14314480125904083
1695712952908185600,5.599185546875,-0.15579481422901154,1.5141390562057495,0.13781848549842834
1695712952918210800,5.6092109375,-0.18455693125724792,1.556749701499939,0.10266478359699249
1695712952928244000,5.619243896484375,-0.17283903062343597,1.1872363090515137,0.05685844644904137
1695712952938281000,5.629281005859375,-0.1909485012292862,0.533297598361969,-0.08269108831882477
1695712952948314600,5.639314697265625,-0.311190128326416,0.01784316636621952,-0.4713791608810425
1695712952958326500,5.649326416015625,-0.5189165472984314,-0.25912538170814514,-1.0187915563583374
1695712952968358000,5.65935791015625,-0.5870934128761292,-0.3560643792152405,-1.4745911359786987
1695712952978424000,5.669424072265625,-0.5838976502418518,-0.056725289672613144,-2.0113508701324463
1695712952988459000,5.679458984375,-0.6605966091156006,0.7046719193458557,-2.694051742553711
1695712952998460700,5.689460693359375,-0.7671229839324951,1.4704632759094238,-3.111501932144165
1695712953008492000,5.699491943359375,-0.8692551255226135,1.690972924232483,-3.151982069015503
1695712953018540000,5.7095400390625,-0.9683246612548828,1.422526478767395,-2.9889965057373047
1695712953028573000,5.719572998046875,-1.0247836112976074,0.976314127445221,-2.7462496757507324
1695712953038610700,5.729610595703125,-0.9768467545509338,0.6302366256713867,-2.5683505535125732
1695712953048644000,5.73964404296875,-0.829840362071991,0.57058185338974,-2.489521026611328
1695712953058643200,5.749643310546875,-0.7117292881011963,0.6611292362213135,-2.5065653324127197
1695712953068672800,5.7596728515625,-0.6478134393692017,0.6854971647262573,-2.5513064861297607
1695712953078751000,5.7697509765625,-0.6052029132843018,0.49281758069992065,-2.5278706550598145
1695712953088785400,5.779785400390625,-0.5572660565376282,0.07643266767263412,-2.4437148571014404
1695712953098797800,5.7897978515625,-0.515720784664154,-0.558331310749054,-2.411756992340088
1695712953108829700,5.79982958984375,-0.4848281145095825,-1.215465784072876,-2.5289359092712402
1695712953118849800,5.809849853515625,-0.4986765384674072,-1.3763206005096436,-2.822815418243408
1695712953128880400,5.81988037109375,-0.5988113284111023,-0.9364998936653137,-3.1391987800598145
1695712953138926000,5.829926025390625,-0.7831019163131714,-0.4752407371997833,-3.3213589191436768
1695712953148958200,5.839958251953125,-1.0002825260162354,-0.39974018931388855,-3.3776845932006836
1695712953158987800,5.84998779296875,-1.185638427734375,-0.7064029574394226,-3.375554084777832
1695712953169019600,5.86001953125,-1.3113394975662231,-1.3326448202133179,-3.3840763568878174
1695712953179057700,5.8700576171875,-1.3294490575790405,-1.8672740459442139,-3.421360492706299
1695712953189090000,5.880090087890625,-1.205878496170044,-2.150501012802124,-3.4021856784820557
1695712953199113200,5.89011328125,-0.9779120087623596,-2.35929274559021,-3.344794750213623
1695712953209144800,5.900144775390625,-0.7170555591583252,-2.528669595718384,-3.2872705459594727
1695712953219182300,5.910182373046875,-0.4518049359321594,-2.6254754066467285,-3.1679608821868896
1695712953229214500,5.92021435546875,-0.2739059031009674,-2.676608085632324,-2.9644956588745117
1695712953239256800,5.9302568359375,-0.16538217663764954,-2.697913408279419,-2.6706159114837646
1695712953249290000,5.9402900390625,-0.10359688848257065,-2.6638247966766357,-2.3244051933288574
1695712953259358500,5.9503583984375,-0.08335687965154648,-2.5817995071411133,-1.9431740045547485
1695712953269395500,5.9603955078125,-0.0684431865811348,-2.5308001041412354,-1.529984951019287
1695712953279406000,5.970406005859375,-0.05459476262331009,-2.4455790519714355,-1.0859031677246094
1695712953289440500,5.9804404296875,-0.0727042406797409,-2.280463218688965,-0.5896234512329102
1695712953299480300,5.990480224609375,-0.0918789878487587,-2.0642147064208984,-0.03688475489616394
1695712953309515300,6.000515380859375,-0.07803056389093399,-1.7777918577194214,0.5030707716941833
1695712953319527700,6.010527587890625,-0.036485280841588974,-1.5796527862548828,0.9588704109191895
1695712953329560600,6.020560546875,-0.015180006623268127,-1.4061479568481445,1.3540832996368408
1695712953339583500,6.03058349609375,0.009321057237684727,-1.1643331050872803,1.7033565044403076
1695712953349615000,6.040614990234375,0.04980107396841049,-0.8214514255523682,1.9803251028060913
1695712953359675600,6.050675537109375,0.148870587348938,-0.4677838981151581,2.1953752040863037
1695712953369710300,6.06071044921875,0.2872216999530792,-0.032224226742982864,2.333859443664551
1695712953379727600,6.0707275390625,0.40333545207977295,0.5695165991783142,1.9845861196517944
1695712953389760800,6.0807607421875,0.5599291920661926,0.8932235836982727,0.7555382251739502
1695712953399796000,6.0907958984375,0.8186551332473755,0.09347688406705856,-0.4127896726131439
1695712953409829400,6.100829345703125,1.1158636808395386,-1.0791120529174805,-1.299888014793396
1695712953419870500,6.110870361328125,1.2756532430648804,-1.6094802618026733,-2.216946840286255
1695712953429904600,6.120904541015625,0.8783098459243774,-1.344362735748291,-2.4586284160614014
1695712953439927600,6.130927490234375,0.2840259075164795,-0.6627271175384521,-2.0294604301452637
1695712953449960400,6.14096044921875,-0.29201540350914,-0.3890875577926636,-1.6674039363861084
1695712953459966200,6.15096630859375,-0.6233124136924744,-0.7596661448478699,-1.4767217636108398
1695712953469996300,6.160996337890625,-0.6392913460731506,-1.2889690399169922,-1.2817784547805786
1695712953480032500,6.171032470703125,-0.5008070468902588,-1.7511602640151978,-1.0443578958511353
1695712953490063000,6.18106298828125,-0.5071986317634583,-1.7309203147888184,-0.40213701128959656
1695712953500118300,6.1911181640625,-0.755405068397522,-0.914129376411438,0.6980140209197998
1695712953510151200,6.201151123046875,-1.0002825260162354,-0.15366427600383759,1.9196051359176636
1695712953520180500,6.211180419921875,-0.9938910007476807,0.15832480788230896,3.168759822845459
1695712953530213000,6.221213134765625,-0.8022766709327698,0.4374238848686218,3.973966121673584
1695712953540250000,6.23125,-0.5476786494255066,2.0988357067108154,3.436141014099121
1695712953550283300,6.241283203125,-0.08335687965154648,4.177697658538818,1.0515483617782593
1695712953560326000,6.251325927734375,0.3532680571079254,3.0935256481170654,-0.7226482033729553
1695712953570359800,6.26135986328125,0.1723063886165619,0.23821958899497986,-0.6375603079795837
1695712953580368400,6.271368408203125,-0.311190128326416,-1.4466279745101929,0.20279955863952637
1695712953590399700,6.281399658203125,-0.5221123695373535,-1.5146716833114624,1.2219905853271484
1695712953600438300,6.291438232421875,-0.46884915232658386,-0.6946850419044495,2.3295984268188477
1695712953610470400,6.301470458984375,-0.29201540350914,0.5045354962348938,3.326418876647949
1695712953620514300,6.311514404296875,-0.09400951862335205,1.9443724155426025,4.0101847648620605
1695712953630547700,6.321547607421875,0.08388951420783997,3.0381319522857666,4.3743720054626465
1695712953640559400,6.331559326171875,0.19467693567276,3.5567822456359863,4.570380687713623
1695712953650590500,6.341590576171875,0.22663484513759613,3.642003297805786,4.571445941925049
1695712953660788200,6.351788330078125,0.19361166656017303,3.558912754058838,4.347740173339844
1695712953670835000,6.3618349609375,0.09347688406705856,3.209639310836792,3.858917474746704
1695712953680717000,6.371717041015625,-0.15153375267982483,2.5652880668640137,3.2507851123809814
1695712953690744600,6.38174462890625,-0.34634384512901306,1.6398402452468872,2.6149559020996094
1695712953700776000,6.39177587890625,-0.4155859649181366,0.7408908605575562,2.085653066635132
1695712953710804000,6.401803955078125,-0.3538006842136383,0.269112229347229,1.7427712678909302
1695712953720839700,6.411839599609375,-0.2324937880039215,0.16471639275550842,1.520131230354309
1695712953730868500,6.421868408203125,-0.105727419257164,0.17643429338932037,1.358344316482544
1695712953740914200,6.4319140625,-0.03435475379228592,0.24993747472763062,1.2571442127227783
1695712953750944500,6.441944580078125,0.016777902841567993,0.2563290596008301,1.2060116529464722
1695712953760982000,6.45198193359375,0.060453712940216064,0.05832318589091301,1.2944284677505493
1695712953771013000,6.46201318359375,0.0966726765036583,-0.15686006844043732,1.5542196035385132
1695712953781029600,6.472029541015625,0.09986846894025803,-0.08974846452474594,1.8546240329742432
1695712953791059200,6.48205908203125,0.0636495053768158,0.41718387603759766,2.0462381839752197
1695712953801105200,6.492105224609375,-0.008788425475358963,1.1659311056137085,2.099501371383667
1695712953811136500,6.502136474609375,-0.06737792491912842,1.7293223142623901,2.031324625015259
1695712953821174300,6.51217431640625,-0.0492684431374073,1.9038923978805542,1.8940387964248657
1695712953831206100,6.5222060546875,0.02636527456343174,1.7622123956680298,1.7374449968338013
1695712953841256000,6.532255859375,0.1478053331375122,1.4108085632324219,1.5968302488327026
1695712953851289900,6.542289794921875,0.3021354079246521,0.8932235836982727,1.515870213508606
1695712953861286400,6.552286376953125,0.4608596861362457,0.25845959782600403,1.5137395858764648
1695712953871316200,6.562316162109375,0.5716471076011658,-0.3358243703842163,1.575524926185608
1695712953881370600,6.57237060546875,0.6281060576438904,-0.6552702784538269,1.6575502157211304
1695712953891403000,6.582403076171875,0.6515418887138367,-0.5487439036369324,1.6692681312561035
1695712953901402600,6.592402587890625,0.6291713118553162,-0.08868319541215897,1.5265227556228638
1695712953911431400,6.602431396484375,0.5194491744041443,0.4821649491786957,1.2273168563842773
1695712953921496600,6.61249658203125,0.3170490860939026,0.8761793375015259,0.9131972789764404
1695712953931528700,6.62252880859375,0.07962846010923386,1.0125330686569214,0.6671213507652283
1695712953941549600,6.632549560546875,-0.0918789878487587,1.0274467468261719,0.500940203666687
1695712953951580400,6.642580322265625,-0.15579481422901154,1.1169289350509644,0.3934817612171173
1695712953961641000,6.652640869140625,-0.1483379602432251,1.2201263904571533,0.3434143662452698
1695712953971675100,6.662675048828125,-0.13235901296138763,1.0871015787124634,0.3082606792449951
1695712953981685500,6.672685546875,-0.17283903062343597,0.750478208065033,0.21345220506191254
1695712953991717400,6.68271728515625,-0.26338642835617065,0.4427502155303955,-0.10825742036104202
1695712954001771500,6.692771484375,-0.378301739692688,0.3202448785305023,-0.623711884021759
1695712954011806000,6.702805908203125,-0.5434176325798035,0.32876700162887573,-1.1082736253738403
1695712954021838600,6.712838623046875,-0.6414218544960022,0.5013396739959717,-1.460742712020874
1695712954031872800,6.722872802734375,-0.7234471440315247,0.825046718120575,-1.928260326385498
1695712954041866200,6.7328662109375,-0.8415582776069641,1.1946932077407837,-2.5662200450897217
1695712954051896300,6.742896240234375,-0.9789772629737854,1.4704632759094238,-3.0539777278900146
1695712954061959400,6.75295947265625,-1.105743646621704,1.6558191776275635,-3.249986171722412
1695712954071993000,6.7629931640625,-1.118526816368103,1.7346487045288086,-3.2041797637939453
1695712954082034400,6.773034423828125,-1.051415205001831,1.687777042388916,-2.9953882694244385
1695712954092068900,6.78306884765625,-0.9523456692695618,1.5844465494155884,-2.747314929962158
1695712954102099500,6.793099365234375,-0.8426235318183899,1.4363749027252197,-2.531066417694092
1695712954112133400,6.80313330078125,-0.734099805355072,1.221191644668579,-2.40643048286438
1695712954122141700,6.8131416015625,-0.6850976943969727,0.8388951420783997,-2.4042999744415283
1695712954132173000,6.823173095703125,-0.6297039985656738,0.2637858986854553,-2.4426496028900146
1695712954142224000,6.833223876953125,-0.5743102431297302,-0.5008070468902588,-2.451171636581421
1695712954152257500,6.843257568359375,-0.5093291997909546,-1.2080090045928955,-2.5917863845825195
1695712954162413600,6.85341357421875,-0.5008070468902588,-1.7096149921417236,-2.8505122661590576
1695712954172458000,6.8634580078125,-0.5743102431297302,-1.499758005142212,-3.1722218990325928
1695712954182340600,6.873340576171875,-0.7202513813972473,-0.9704551696777344,-3.3936636447906494
1695712954192365600,6.883365478515625,-0.9619330763816833,-0.7532745599746704,-3.440535306930542
1695712954202424600,6.893424560546875,-1.2335753440856934,-1.009869933128357,-3.3723583221435547
1695712954212453000,6.903453125,-1.4422338008880615,-1.603088617324829,-3.27555251121521
1695712954222458400,6.913458251953125,-1.5551517009735107,-2.1931114196777344,-3.1945924758911133
1695712954232484900,6.92348486328125,-1.5349117517471313,-2.569016456604004,-3.180744171142578
1695712954242523600,6.933523681640625,-1.4464948177337646,-2.6116268634796143,-3.1828746795654297
1695712954252551200,6.94355126953125,-1.2985563278198242,-2.6063005924224854,-3.1892662048339844
1695712954262605800,6.953605712890625,-1.0673941373825073,-2.7256102561950684,-3.1477208137512207
1695712954272636200,6.96363623046875,-0.8255793452262878,-2.9141619205474854,-3.041194438934326
1695712954282678300,6.97367822265625,-0.6243776679039001,-3.0015134811401367,-2.849447011947632
1695712954292709600,6.983709716796875,-0.5316997170448303,-2.975947141647339,-2.545980215072632
1695712954302719000,6.993718994140625,-0.4816323220729828,-2.9280102252960205,-2.156226873397827
1695712954312748000,7.003748046875,-0.4443480968475342,-2.8129618167877197,-1.7078839540481567
1695712954322811100,7.01381103515625,-0.4006722867488861,-2.6648900508880615,-1.2295805215835571
1695712954332843500,7.023843505859375,-0.359127014875412,-2.5041685104370117,-0.7407577037811279
1695712954342888700,7.033888671875,-0.31971225142478943,-2.2857894897460938,-0.25619590282440186
1695712954352922400,7.04392236328125,-0.2474074810743332,-2.046105146408081,0.25606274604797363
1695712954362932700,7.0539326171875,-0.2090579867362976,-1.7937707901000977,0.7619298100471497
1695712954372964000,7.063964111328125,-0.1856221854686737,-1.5285202264785767,1.2273168563842773
1695712954383015000,7.074014892578125,-0.11424952745437622,-1.277251124382019,1.6394407749176025
1695712954393048000,7.084048095703125,-0.015180006623268127,-1.0301098823547363,1.9515630006790161
1695712954403049700,7.0940498046875,0.1296958476305008,-0.7138597965240479,2.16874361038208
1695712954413079800,7.104079833984375,0.31811434030532837,-0.31025803089141846,2.3264026641845703
1695712954423140900,7.114140869140625,0.4906870722770691,0.25739431381225586,2.202831983566284
1695712954433174000,7.124174072265625,0.6334323883056641,0.8474172353744507,1.1708579063415527
1695712954443205600,7.13420556640625,0.8378298282623291,0.5759081840515137,-0.25726115703582764
1695712954453238500,7.144238525390625,1.0476868152618408,-0.7831019163131714,-1.2136015892028809
1695712954463277800,7.15427783203125,1.1712573766708374,-1.767139196395874,-2.0092203617095947
1695712954473311200,7.164311279296875,0.8804404139518738,-1.884318232536316,-2.3084263801574707
1695712954483344100,7.17434423828125,0.4203796684741974,-1.1643331050872803,-1.844104528427124
1695712954493377500,7.18437744140625,-0.05779055133461952,-0.3134538233280182,-1.2913658618927002
1695712954503411700,7.19441162109375,-0.5114597082138062,-0.24527695775032043,-1.0528799295425415
1695712954513445400,7.2044453125,-0.7106640338897705,-0.5657881498336792,-1.032639980316162
1695712954523475000,7.214474853515625,-0.5870934128761292,-0.6914892792701721,-0.7854987978935242
1695712954533508000,7.224508056640625,-0.19307903945446014,-0.6201165914535522,-0.09760478138923645
1695712954543538400,7.234538330078125,-0.14194637537002563,-0.14088112115859985,0.7672561407089233
1695712954553571000,7.244571044921875,-0.2781669795513153,0.29893961548805237,1.7928386926651
1695712954563608300,7.2546083984375,-0.3154512047767639,0.4150533378124237,2.550107955932617
1695712954573641500,7.264641357421875,-0.4059986174106598,0.4491417706012726,2.5234763622283936
1695712954583642000,7.27464208984375,-0.491219699382782,1.0072067975997925,1.4446306228637695
1695712954593672000,7.284671875,-0.25379905104637146,0.9709877967834473,0.17403744161128998
1695712954603702000,7.294701904296875,-0.08548741042613983,0.03701791167259216,0.0930774137377739
1695712954613731800,7.30473193359375,-0.311190128326416,-0.6733797788619995,0.672447681427002
1695712954623800600,7.314800537109375,-0.582832396030426,-0.7202513813972473,1.3966938257217407
1695712954633834500,7.32483447265625,-0.5721797347068787,-0.1664474457502365,2.1857879161834717
1695712954643834400,7.33483447265625,-0.36551859974861145,0.7238466143608093,2.934535026550293
1695712954653864700,7.34486474609375,-0.06950845569372177,1.6547539234161377,3.510709524154663
1695712954664060700,7.355060791015625,0.2575274705886841,2.499241590499878,3.8024585247039795
1695712954674105600,7.365105712890625,0.4853607416152954,2.961432933807373,3.8972671031951904
1695712954684150500,7.375150634765625,0.6217144727706909,2.8687551021575928,3.8685050010681152
1695712954694010400,7.38501025390625,0.6078660488128662,2.336256265640259,3.770500659942627
1695712954704041500,7.39504150390625,0.4331628382205963,1.6568844318389893,3.5842127799987793
1695712954714071300,7.4050712890625,0.16378428041934967,1.2382358312606812,3.2699599266052246
1695712954724102400,7.415102294921875,-0.15899059176445007,0.9486172795295715,2.8631622791290283
1695712954734141400,7.425141357421875,-0.3772364854812622,0.7057371735572815,2.475539445877075
1695712954744173300,7.43517333984375,-0.41878175735473633,0.4821649491786957,2.1975057125091553
1695712954754199800,7.44519970703125,-0.3761712312698364,0.44488072395324707,2.034520387649536
1695712954764231200,7.455231201171875,-0.35699647665023804,0.5471460223197937,1.9281271696090698
1695712954774283300,7.465283203125,-0.32823434472084045,0.6801708340644836,1.8631460666656494
1695712954784317000,7.47531689453125,-0.3069290816783905,0.7632613778114319,1.8407756090164185
1695712954794343400,7.485343505859375,-0.23355905711650848,0.7014760971069336,1.8865818977355957
1695712954804376300,7.495376220703125,-0.1344895362854004,0.5024049878120422,2.0419771671295166
1695712954814399200,7.505399169921875,-0.07909582555294037,0.5045354962348938,2.247573137283325
1695712954824430800,7.515430908203125,-0.08761793375015259,0.8495477437973022,2.4052321910858154
1695712954834473200,7.52547314453125,-0.1249021589756012,1.469398021697998,2.4638216495513916
1695712954844505900,7.535505859375,-0.1525990217924118,2.111618757247925,2.4190804958343506
1695712954854536400,7.545536376953125,-0.11744531989097595,2.5311994552612305,2.288053035736084
1695712954864569000,7.555569091796875,-0.019441060721874237,2.587658643722534,2.0739352703094482
1695712954874604800,7.565604736328125,0.1392832249403,2.290450096130371,1.8194702863693237
1695712954884637700,7.5756376953125,0.3404848873615265,1.7112128734588623,1.5776554346084595
1695712954894677500,7.585677490234375,0.5375586748123169,0.9283772706985474,1.425455927848816
1695712954904711000,7.5957109375,0.6749776601791382,0.14128059148788452,1.4041506052017212
1695712954914724900,7.605724853515625,0.7175882458686829,-0.42730388045310974,1.4913691282272339
1695712954924756200,7.615756103515625,0.6675208210945129,-0.5785713195800781,1.5723291635513306
1695712954934787600,7.62578759765625,0.5290365815162659,-0.3091927766799927,1.5243922472000122
1695712954944819200,7.635819091796875,0.33835434913635254,0.20732693374156952,1.3136032819747925
1695712954954869000,7.645868896484375,0.10626004636287689,0.7089329361915588,1.028112530708313
1695712954964902400,7.65590234375,-0.1483379602432251,1.0487520694732666,0.7843003273010254
1695712954974923800,7.665923828125,-0.37084490060806274,1.2488884925842285,0.6426202654838562
1695712954984955600,7.67595556640625,-0.4613923132419586,1.4086780548095703,0.5339633822441101
1695712954994982700,7.685982666015625,-0.42197754979133606,1.4864422082901,0.3902859687805176
1695712955005014000,7.696013916015625,-0.35167014598846436,1.3564801216125488,0.2251701056957245
1695712955015050000,7.706050048828125,-0.31438592076301575,1.0743184089660645,0.02277000993490219
1695712955025081900,7.716081787109375,-0.3016027808189392,0.9028109312057495,-0.297741174697876
1695712955035116300,7.7261162109375,-0.3495396375656128,0.7739140391349792,-0.7588672041893005
1695712955045148400,7.7361484375,-0.45073968172073364,0.411857545375824,-1.212536334991455
1695712955055206700,7.74620654296875,-0.5625923871994019,0.2083922028541565,-1.6546207666397095
1695712955065241900,7.756241943359375,-0.7064029574394226,0.5759081840515137,-2.2244036197662354
1695712955075262000,7.766261962890625,-0.8596677780151367,1.1211899518966675,-2.788860321044922
1695712955085295600,7.776295654296875,-1.0482194423675537,1.3415664434432983,-3.09765362739563
1695712955095329000,7.7863291015625,-1.1792469024658203,1.3660674095153809,-3.2020492553710938
1695712955105362400,7.796362548828125,-1.123853087425232,1.3426316976547241,-3.1796789169311523
1695712955115400400,7.806400390625,-0.9598025679588318,1.2755200862884521,-3.002845048904419
1695712955125434600,7.8164345703125,-0.7852324843406677,1.2669979333877563,-2.7622287273406982
1695712955135456500,7.82645654296875,-0.6765755414962769,1.2371705770492554,-2.615222215652466
1695712955145489200,7.8364892578125,-0.5945502519607544,1.0626004934310913,-2.633331775665283
1695712955155510800,7.8465107421875,-0.5327649712562561,0.7419561147689819,-2.7366623878479004
1695712955165542400,7.85654248046875,-0.5061333775520325,0.20200061798095703,-2.7419886589050293
1695712955175591000,7.8665908203125,-0.5221123695373535,-0.6062681674957275,-2.585394859313965
1695712955185624300,7.876624267578125,-0.4944154918193817,-1.25701105594635,-2.530001163482666
1695712955195664600,7.88666455078125,-0.5167860388755798,-1.4444974660873413,-2.702573776245117
1695712955205698800,7.89669873046875,-0.5743102431297302,-1.1100046634674072,-3.027346134185791
1695712955215733000,7.90673291015625,-0.6446176767349243,-0.704272449016571,-3.3032493591308594
1695712955225767000,7.916766845703125,-0.7756450772285461,-0.7415566444396973,-3.4426658153533936
1695712955235794700,7.926794677734375,-0.9470193982124329,-1.178181529045105,-3.444796323776245
1695712955245828000,7.936828125,-1.1068089008331299,-1.7021580934524536,-3.376619338989258
1695712955255835000,7.9468349609375,-1.2080090045928955,-2.075932502746582,-3.2979230880737305
1695712955265865200,7.956865234375,-1.2133352756500244,-2.283658981323242,-3.2425293922424316
1695712955275917000,7.9669169921875,-1.1281142234802246,-2.4157516956329346,-3.2073757648468018
1695712955285949700,7.97694970703125,-0.9555414915084839,-2.5604944229125977,-3.1626346111297607
1695712955295966500,7.986966552734375,-0.7756450772285461,-2.7447848320007324,-3.0784788131713867
1695712955305997600,7.99699755859375,-0.6520745158195496,-2.9035091400146484,-2.937864065170288
1695712955316041000,8.007041015625,-0.554070234298706,-2.9429240226745605,-2.7153570652008057
1695712955326073300,8.0170732421875,-0.45606598258018494,-2.865159749984741,-2.3776683807373047
1695712955336102000,8.027101806640625,-0.37084490060806274,-2.747980833053589,-1.973001480102539
1695712955346134000,8.037134033203126,-0.3154512047767639,-2.618018627166748,-1.5470291376113892
1695712955356175600,8.047175537109375,-0.28988486528396606,-2.4594273567199707,-1.105077862739563
1695712955366208500,8.05720849609375,-0.2655169665813446,-2.293246269226074,-0.6524739861488342
1695712955376239400,8.0672392578125,-0.2239716798067093,-2.1046946048736572,-0.154995858669281
1695712955386272300,8.077272216796874,-0.2047969400882721,-1.9194719791412354,0.3743070065975189
1695712955396290000,8.0872900390625,-0.20586219429969788,-1.7192023992538452,0.9004141092300415
1695712955406321200,8.097321044921875,-0.2005358785390854,-1.4848443269729614,1.399889588356018
1695712955416359000,8.10735888671875,-0.16964323818683624,-1.1526153087615967,1.830122947692871
1695712955426390800,8.117390869140625,-0.10785794258117676,-0.7127945423126221,2.1431772708892822
1695712955436418600,8.12741845703125,0.010386320762336254,-0.25486433506011963,2.3146846294403076
1695712955446450200,8.1374501953125,0.23409168422222137,0.07536740601062775,2.3445122241973877
1695712955456495000,8.1474951171875,0.5812344551086426,0.110521100461483,2.105893135070801
1695712955466528000,8.157528076171875,0.9773793816566467,-0.20266640186309814,1.1612704992294312
1695712955476572000,8.167572021484375,1.247956395149231,-0.8289082646369934,-0.267913818359375
1695712955486605800,8.177605712890625,1.1829752922058105,-1.524259090423584,-1.4863090515136719
1695712955496634400,8.18763427734375,0.7825692892074585,-1.6872444152832031,-2.2892515659332275
1695712955506667800,8.197667724609374,0.2692453861236572,-1.4157353639602661,-2.3201441764831543
1695712955516695000,8.207695068359374,-0.2516685426235199,-0.9290430545806885,-1.80255925655365
1695712955526728000,8.21772802734375,-0.7117292881011963,-0.4294344186782837,-1.3350416421890259
1695712955536777200,8.227777099609375,-1.0631331205368042,-0.11424952745437622,-1.0816420316696167
1695712955546811600,8.237811767578124,-1.0972214937210083,0.12117373943328857,-0.8547409176826477
1695712955556825900,8.247825927734375,-0.6531397700309753,0.2968090772628784,-0.4010717570781708
1695712955566858200,8.257858154296875,-0.23888537287712097,0.42783650755882263,0.1069258376955986
1695712955576877600,8.267877685546875,-0.23995064198970795,0.314918577671051,0.8460856676101685
1695712955586908400,8.277908447265625,-0.35167014598846436,0.4800344407558441,1.5893733501434326
1695712955596973000,8.28797314453125,-0.2930806577205658,0.4821649491786957,1.872733473777771
1695712955607007500,8.298007568359376,-0.2090579867362976,0.3767038583755493,1.3658010959625244
1695712955617020000,8.30802001953125,-0.013049479573965073,0.3404848873615265,0.4391549229621887
1695712955627052300,8.31805224609375,0.1861548274755478,0.06578002870082855,0.3008038103580475
1695712955637083100,8.328083251953124,0.12543480098247528,-0.3411506712436676,0.8972182869911194
1695712955647115000,8.338114990234375,-0.0141147430986166,-0.17070849239826202,1.8524935245513916
1695712955657159000,8.348158935546875,-0.06631266325712204,0.9060067534446716,2.91536021232605
1695712955667192300,8.3581923828125,-0.06311687082052231,2.1979053020477295,3.8429386615753174
1695712955677206000,8.3682060546875,0.08602003753185272,2.9784772396087646,4.452136039733887
1695712955687237400,8.3782373046875,0.2872216999530792,3.190464496612549,4.651340484619141
1695712955697277200,8.388277099609375,0.40866175293922424,2.9933907985687256,4.511791229248047
1695712955707309300,8.398309326171875,0.43209755420684814,2.4608922004699707,4.177298069000244
1695712955717366300,8.4083662109375,0.45127230882644653,1.7622123956680298,3.8461344242095947
1695712955727401000,8.41840087890625,0.3671164810657501,1.1286468505859375,3.5224273204803467
1695712955737429000,8.428428955078125,0.05832318589091301,0.6791055798530579,3.118692398071289
1695712955747463000,8.438462890625,-0.2749711871147156,0.3543333113193512,2.627739191055298
1695712955757471000,8.448470947265625,-0.3729754388332367,0.1327584832906723,2.2060277462005615
1695712955767502000,8.458502197265625,-0.302668035030365,0.12650005519390106,1.9366493225097656
1695712955777555000,8.468554931640625,-0.23142851889133453,0.25206801295280457,1.7502281665802002
1695712955787588000,8.478588134765625,-0.20160114765167236,0.3692470192909241,1.6074827909469604
1695712955797611500,8.488611572265626,-0.1771000772714615,0.35113751888275146,1.5180007219314575
1695712955807643600,8.4986435546875,-0.10998847335577011,0.08921582996845245,1.555284857749939
1695712955817692400,8.5086923828125,-0.0354200154542923,-0.2644517123699188,1.775794506072998
1695712955827726300,8.518726318359375,-0.019441060721874237,-0.1813611388206482,2.0515646934509277
1695712955837759000,8.528759033203125,-0.06950845569372177,0.3724428117275238,2.2252025604248047
1695712955847792600,8.538792724609374,-0.15366427600383759,1.2542147636413574,2.2891182899475098
1695712955857800000,8.548800048828125,-0.237820103764534,2.095639944076538,2.259290933609009
1695712955867830800,8.558830810546874,-0.23142851889133453,2.5322649478912354,2.1314594745635986
1695712955877889300,8.56888916015625,-0.13662005960941315,2.5216121673583984,1.9462367296218872
1695712955887923000,8.5789228515625,0.028495801612734795,2.1478378772735596,1.7630113363265991
1695712955897953500,8.58895361328125,0.27124276757240295,1.4672675132751465,1.5989607572555542
1695712955907986700,8.598986572265625,0.5279712677001953,0.6036050319671631,1.4787191152572632
1695712955917999000,8.6089990234375,0.7197187542915344,-0.21971063315868378,1.4201295375823975
1695712955928030200,8.6190302734375,0.7846998572349548,-0.7223818898200989,1.4265211820602417
1695712955938072800,8.62907275390625,0.7580682635307312,-0.8171903491020203,1.4606095552444458
1695712955948105200,8.639105224609375,0.6888260841369629,-0.5263733863830566,1.4393043518066406
1695712955958140000,8.649139892578125,0.5609944462776184,0.05086633935570717,1.2891021966934204
1695712955968172500,8.659172607421874,0.36179015040397644,0.7195855975151062,1.0313084125518799
1695712955978195000,8.66919482421875,0.10519478470087051,1.1648657321929932,0.7491466403007507
1695712955988226600,8.6792265625,-0.11318425834178925,1.306412696838379,0.529702365398407
1695712955998268400,8.689268310546876,-0.22290641069412231,1.2648674249649048,0.42424124479293823
1695712956008301000,8.699301025390625,-0.2527337968349457,1.20321524143219,0.39667755365371704
1695712956018318300,8.709318359375,-0.22077588737010956,1.0966888666152954,0.3977428078651428
1695712956028349700,8.719349609375,-0.20266640186309814,0.8548740744590759,0.38602492213249207
1695712956038402300,8.72940234375,-0.23675484955310822,0.4853607416152954,0.3796333372592926
1695712956048435700,8.739435791015625,-0.2824280261993408,0.24248063564300537,0.18575534224510193
1695712956058461400,8.74946142578125,-0.3814975321292877,0.392682820558548,-0.3563306927680969
1695712956068494000,8.759494140625,-0.5146554708480835,0.7259771823883057,-0.9143956899642944
1695712956078531300,8.76953125,-0.5945502519607544,0.9614004492759705,-1.2785826921463013
1695712956088564500,8.779564453125,-0.6456829309463501,1.2350400686264038,-1.7833844423294067
1695712956098580500,8.78958056640625,-0.7362303137779236,1.708017110824585,-2.4373230934143066
1695712956108611800,8.79961181640625,-0.854341447353363,1.986983060836792,-2.798447608947754
1695712956118663200,8.8096630859375,-1.0120004415512085,1.7920397520065308,-2.793121337890625
1695712956128696800,8.81969677734375,-1.1440931558609009,1.3735243082046509,-2.64931058883667
1695712956138723000,8.82972314453125,-1.1696594953536987,0.9997498989105225,-2.5065653324127197
1695712956148755700,8.839755615234376,-1.0801773071289062,0.7675224542617798,-2.4383885860443115
1695712956158810600,8.849810546875,-0.8916256427764893,0.7419561147689819,-2.420279026031494
1695712956168845800,8.859845703125,-0.7404913902282715,0.712128758430481,-2.4873905181884766
1695712956178840300,8.86984033203125,-0.68829345703125,0.5396891832351685,-2.6035044193267822
1695712956188871400,8.879871337890625,-0.6595313549041748,0.20093534886837006,-2.6514410972595215
1695712956198938400,8.8899384765625,-0.6605966091156006,-0.45606598258018494,-2.593916893005371
1695712956208973000,8.89997314453125,-0.6510092616081238,-1.1163963079452515,-2.6610286235809326
1695712956218971600,8.9099716796875,-0.6222470998764038,-1.6648739576339722,-2.883535623550415
1695712956229002500,8.92000244140625,-0.6318345069885254,-1.6840486526489258,-3.1487860679626465
1695712956239041300,8.930041259765625,-0.7064029574394226,-1.35714590549469,-3.350121021270752
1695712956249073000,8.940072998046874,-0.8586025238037109,-1.1675289869308472,-3.424556255340576
1695712956259101400,8.950101318359375,-1.026914119720459,-1.222922682762146,-3.4075121879577637
1695712956269132800,8.9601328125,-1.148354172706604,-1.5125411748886108,-3.3426642417907715
1695712956279174100,8.970174072265625,-1.2133352756500244,-1.8480992317199707,-3.265965223312378
1695712956289206300,8.980206298828126,-1.2069437503814697,-2.0727367401123047,-3.2329421043395996
1695712956299246800,8.990246826171875,-1.1206573247909546,-2.24424409866333,-3.2936620712280273
1695712956309280000,9.000280029296874,-0.9459540843963623,-2.433861017227173,-3.364901542663574
1695712956319298300,9.01029833984375,-0.7511440515518188,-2.6254754066467285,-3.3277504444122314
1695712956329330200,9.020330078125,-0.5807018280029297,-2.7852649688720703,-3.180744171142578
1695712956339395300,9.030395263671876,-0.4986765384674072,-2.8193533420562744,-2.927211284637451
1695712956349430500,9.040430419921876,-0.46032705903053284,-2.766090154647827,-2.599243402481079
1695712956359433200,9.05043310546875,-0.41878175735473633,-2.7053701877593994,-2.2190773487091064
1695712956369464800,9.06046484375,-0.3878891170024872,-2.6989786624908447,-1.789776086807251
1695712956379523600,9.070523681640625,-0.37510594725608826,-2.6904563903808594,-1.3361068964004517
1695712956389557800,9.080557861328124,-0.3623228073120117,-2.55210542678833,-0.8185219764709473
1695712956399592000,9.090592041015626,-0.3399522602558136,-2.32946515083313,-0.26578328013420105
1695712956409626000,9.100626220703125,-0.30479857325553894,-2.11641263961792,0.2986733019351959
1695712956419641600,9.1106416015625,-0.2569948434829712,-1.9247982501983643,0.8311719298362732
1695712956429673700,9.120673828125,-0.21651484072208405,-1.7266591787338257,1.3008201122283936
1695712956439706600,9.13070654296875,-0.18668745458126068,-1.4933664798736572,1.7001607418060303
1695712956449738800,9.14073876953125,-0.15686006844043732,-1.2250531911849976,2.0176093578338623
1695712956459782700,9.15078271484375,-0.08761793375015259,-0.9354346394538879,2.2518341541290283
1695712956469816000,9.160816162109375,0.07962846010923386,-0.6414218544960022,2.333859443664551
1695712956479857700,9.170857666015625,0.36498594284057617,-0.31025803089141846,2.0058913230895996
1695712956489891800,9.180891845703124,0.7197187542915344,0.21371851861476898,0.9131972789764404
1695712956499905000,9.190905029296875,1.014663577079773,0.29893961548805237,-0.6970819234848022
1695712956509937400,9.2009375,1.0487520694732666,-0.6574008464813232,-1.894171953201294
1695712956519971800,9.210971923828126,0.7048050761222839,-1.6137412786483765,-2.530001163482666
1695712956530004200,9.221004150390625,-0.006657897960394621,-2.085519790649414,-2.6216137409210205
1695712956540053200,9.23105322265625,-0.48695865273475647,-1.9972361326217651,-2.279797315597534
1695712956550087700,9.241087646484376,-0.7596661448478699,-1.7490297555923462,-1.8121466636657715
1695712956560117500,9.251117431640624,-0.9171919822692871,-1.4125396013259888,-1.3904353380203247
1695712956570151400,9.2611513671875,-0.8074698448181152,-0.5679186582565308,-1.1231873035430908
1695712956580157200,9.2711572265625,-0.1525990217924118,0.4427502155303955,-0.8515450954437256
1695712956590188300,9.281188232421876,0.4672512710094452,0.89641934633255,-0.36911386251449585
1695712956600228000,9.29122802734375,0.4097270369529724,0.9102677702903748,0.7512772083282471
1695712956610260200,9.30126025390625,0.23515695333480835,0.7984151244163513,1.8546240329742432
1695712956620310300,9.311310302734375,0.17976324260234833,0.33196279406547546,2.4510385990142822
1695712956630344200,9.32134423828125,0.10519478470087051,-0.09720530360937119,2.2795310020446777
1695712956640350200,9.33135009765625,-0.010918952524662018,0.4906870722770691,1.4393043518066406
1695712956650381300,9.34138134765625,-0.09614004194736481,1.4108085632324219,1.4765886068344116
1695712956660569900,9.35156982421875,-0.20266640186309814,1.4480928182601929,2.232659339904785
1695712956670616000,9.361615966796874,-0.3644533157348633,1.1989542245864868,2.8972508907318115
1695712956680497200,9.3714970703125,-0.5018723607063293,1.2787158489227295,3.281677722930908
1695712956690523600,9.381523681640624,-0.49228495359420776,1.5897728204727173,3.544797897338867
1695712956700574700,9.39157470703125,-0.28668907284736633,1.8985661268234253,3.6693005561828613
1695712956710603800,9.401603759765624,-0.017310533672571182,2.12014102935791,3.675692081451416
1695712956720631800,9.4116318359375,0.21491694450378418,2.0977704524993896,3.709780693054199
1695712956730660600,9.42166064453125,0.3351585865020752,1.798431396484375,3.7768921852111816
1695712956740679200,9.43167919921875,0.3074617087841034,1.3799158334732056,3.8312206268310547
1695712956750707000,9.44170703125,0.20532956719398499,1.1499520540237427,3.7566521167755127
1695712956760766200,9.45176611328125,-0.019441060721874237,1.1403647661209106,3.481947422027588
1695712956770797300,9.46179736328125,-0.302668035030365,1.063665747642517,3.0570404529571533
1695712956780807000,9.471806884765625,-0.4390217661857605,0.8910930156707764,2.58725905418396
1695712956790835500,9.48183544921875,-0.44115230441093445,0.7366297841072083,2.1431772708892822
1695712956800895700,9.491895751953125,-0.35593122243881226,0.6865624189376831,1.7736639976501465
1695712956810927400,9.50192724609375,-0.2623211741447449,0.5641902685165405,1.5446323156356812
1695712956820937200,9.511937255859374,-0.21971063315868378,0.30000486969947815,1.4787191152572632
1695712956830966500,9.521966552734375,-0.16964323818683624,-0.010918952524662018,1.55741548538208
1695712956841042700,9.532042724609376,-0.1249021589756012,-0.1579253375530243,1.7204008102416992
1695712956851076900,9.542076904296875,-0.13129374384880066,0.1561942845582962,1.8865818977355957
1695712956861081600,9.55208154296875,-0.1760348230600357,0.9017456769943237,2.013348340988159
1695712956871113000,9.562113037109375,-0.22077588737010956,1.7186697721481323,2.0739352703094482
1695712956881141800,9.572141845703126,-0.23036326467990875,2.186187267303467,2.040911912918091
1695712956891172900,9.5821728515625,-0.17390428483486176,2.2767348289489746,1.9302576780319214
1695712956901244700,9.59224462890625,-0.07909582555294037,2.1371850967407227,1.822666049003601
1695712956911280000,9.602280029296875,0.060453712940216064,1.8474334478378296,1.7395755052566528
1695712956921290500,9.61229052734375,0.25859275460243225,1.4140043258666992,1.6564849615097046
1695712956931323400,9.622323486328124,0.45979443192481995,0.8474172353744507,1.5893733501434326
1695712956941354200,9.632354248046875,0.616388201713562,0.2414153665304184,1.6010912656784058
1695712956951387000,9.642386962890624,0.6973482370376587,-0.1664474457502365,1.667137622833252
1695712956961386800,9.65238671875,0.7111966609954834,-0.27830013632774353,1.7406407594680786
1695712956971416300,9.662416259765624,0.6685860753059387,-0.18775272369384766,1.751293420791626
1695712956981486000,9.672486083984374,0.5908218622207642,0.10839057713747025,1.6277228593826294
1695712956991519200,9.682519287109375,0.4704470634460449,0.5450155138969421,1.325321078300476
1695712957001525200,9.692525146484375,0.27124276757240295,0.9603351950645447,0.9514135718345642
1695712957011555600,9.7025556640625,-0.0002663159102667123,1.180844783782959,0.6426202654838562
1695712957021597200,9.71259716796875,-0.22184115648269653,1.2627369165420532,0.5147886276245117
1695712957031628500,9.722628662109376,-0.3271690905094147,1.3394358158111572,0.49880969524383545
1695712957041671200,9.732671142578125,-0.33356067538261414,1.3468927145004272,0.41465386748313904
1695712957051703600,9.74270361328125,-0.2973417043685913,1.1755183935165405,0.24967116117477417
1695712957061720600,9.752720458984374,-0.29521119594573975,0.8570045828819275,-0.03795001655817032
1695712957071751400,9.76275146484375,-0.3761712312698364,0.6472808122634888,-0.475640207529068
1695712957081800200,9.77280029296875,-0.5316997170448303,0.6238450407981873,-0.9420925378799438
1695712957091832800,9.782832763671875,-0.7479482293128967,0.54927659034729,-1.275386929512024
1695712957101878300,9.792878173828125,-0.8862993717193604,0.6854971647262573,-1.706818699836731
1695712957111912000,9.802911865234375,-0.9779120087623596,1.1648657321929932,-2.3627548217773438
1695712957121939200,9.812939208984375,-1.1132005453109741,1.6590149402618408,-2.884600877761841
1695712957131972400,9.822972412109374,-1.228248953819275,1.86234712600708,-3.08273983001709
1695712957142005000,9.8330048828125,-1.239966869354248,1.8357155323028564,-3.08273983001709
1695712957152038100,9.8430380859375,-1.155811071395874,1.5972297191619873,-2.9410598278045654
1695712957162201600,9.85320166015625,-1.0109351873397827,1.288303256034851,-2.794186592102051
1695712957172246300,9.863246337890626,-0.8372972011566162,1.1211899518966675,-2.680203437805176
1695712957182135000,9.873135009765624,-0.6680534482002258,1.0412951707839966,-2.605634927749634
1695712957192161300,9.883161376953124,-0.5519397258758545,0.9347688555717468,-2.594982147216797
1695712957202184200,9.89318408203125,-0.5189165472984314,0.7952193021774292,-2.588590621948242
1695712957212210000,9.9032099609375,-0.5434176325798035,0.447011262178421,-2.5140221118927
1695712957222264000,9.91326416015625,-0.5945502519607544,-0.20799273252487183,-2.4927170276641846
1695712957232292600,9.923292724609375,-0.612659752368927,-0.9407609701156616,-2.733466386795044
1695712957242325500,9.933325439453125,-0.6360955238342285,-1.2910995483398438,-3.096588134765625
1695712957252354800,9.943354736328125,-0.7170555591583252,-1.2133352756500244,-3.3872721195220947
1695712957262391600,9.9533916015625,-0.8362319469451904,-1.0716552734375,-3.4735584259033203
1695712957272421400,9.96342138671875,-1.0077394247055054,-1.143027901649475,-3.3776845932006836
1695712957282459000,9.973458984375,-1.1994868516921997,-1.5104106664657593,-3.236137866973877
1695712957292489500,9.983489501953125,-1.3432974815368652,-1.9908446073532104,-3.1189587116241455
1695712957302500000,9.9935,-1.3506211042404175,-2.3518357276916504,-3.107240915298462
1695712957312528600,10.003528564453125,-1.2325100898742676,-2.523343324661255,-3.1892662048339844
1695712957322589200,10.013589111328125,-1.0535457134246826,-2.523343324661255,-3.2595736980438232
1695712957332621000,10.02362109375,-0.8415582776069641,-2.542517900466919,-3.2989883422851562
1695712957342632700,10.0336328125,-0.6957502961158752,-2.6893911361694336,-3.2531819343566895
1695712957352662300,10.043662353515625,-0.6542050242424011,-2.95570707321167,-3.102979898452759
1695712957362733300,10.0537333984375,-0.521047055721283,-3.2218899726867676,-2.8377292156219482
1695712957372767200,10.063767333984375,-0.359127014875412,-3.2027151584625244,-2.4479758739471436
1695712957382799000,10.073799072265626,-0.2792322337627411,-2.985534429550171,-1.9602183103561401
1695712957392832800,10.083832763671875,-0.2559295892715454,-2.7639596462249756,-1.4234585762023926
1695712957402858200,10.093858154296875,-0.24314641952514648,-2.589256525039673,-0.8771114349365234
1695712957412891100,10.10389111328125,-0.22610220313072205,-2.382728338241577,-0.3147853910923004
1695712957422921500,10.11392138671875,-0.2143843024969101,-2.15156626701355,0.25073641538619995
1695712957432954000,10.1239541015625,-0.2047969400882721,-1.93332040309906,0.7874961495399475
1695712957442986500,10.133986572265625,-0.17496955394744873,-1.6851139068603516,1.2624706029891968
1695712957453019100,10.14401904296875,-0.13342426717281342,-1.4519543647766113,1.6639418601989746
1695712957463051500,10.154051513671876,-0.052464235574007034,-1.193095326423645,2.0217373371124268
1695712957473084200,10.164084228515625,0.05193160101771355,-0.855539858341217,2.3306636810302734
1695712957483114800,10.17411474609375,0.20852535963058472,-0.30067065358161926,2.541585922241211
1695712957493147000,10.18414697265625,0.40866175293922424,0.4587291479110718,2.4094932079315186
1695712957503187000,10.19418701171875,0.6930871605873108,1.0796446800231934,1.3796495199203491
1695712957513220000,10.20422021484375,1.0253162384033203,0.6110618710517883,-0.17630113661289215
1695712957523226400,10.214226318359374,1.1648657321929932,-0.9470193982124329,-1.5033533573150635
1695712957533256700,10.224256591796875,0.9454214572906494,-2.01108455657959,-2.4692811965942383
1695712957543317800,10.23431787109375,0.3628554344177246,-1.8907097578048706,-2.6823339462280273
1695712957553351400,10.244351318359374,-0.2090579867362976,-1.2420973777770996,-2.146639347076416
1695712957563350800,10.254350830078126,-0.6765755414962769,-0.7916240692138672,-1.5129406452178955
1695712957573380900,10.264380859375,-0.9448888301849365,-0.6297039985656738,-1.1146652698516846
1695712957583419100,10.274419189453125,-0.9065393805503845,-0.16431692242622375,-0.9367662072181702
1695712957593449700,10.28444970703125,-0.5285038948059082,0.4246407151222229,-0.502271831035614
1695712957603514400,10.294514404296875,-0.19840535521507263,0.690823495388031,0.23582273721694946
1695712957613548500,10.304548583984374,-0.22503694891929626,0.5471460223197937,1.1900326013565063
1695712957623580400,10.314580322265625,-0.21544957160949707,0.36179015040397644,2.1176109313964844
1695712957633614600,10.324614501953125,-0.07590003311634064,0.3884217441082001,2.582998037338257
1695712957643644400,10.33464453125,0.03275685757398605,0.6972150802612305,2.2369205951690674
1695712957653678000,10.344677978515625,0.09986846894025803,1.4832464456558228,0.6543381810188293
1695712957663829800,10.354829833984375,0.4097270369529724,1.0881668329238892,-0.34141698479652405
1695712957673873700,10.364873779296875,0.5066660046577454,-0.41345545649528503,0.1356879621744156
1695712957683917600,10.37491748046875,0.0018642114009708166,-1.247423768043518,1.095224142074585
1695712957693800000,10.384800048828126,-0.4390217661857605,-0.6190513372421265,2.0824573040008545
1695712957703831800,10.394831787109375,-0.499741792678833,0.7004108428955078,2.993124485015869
1695712957713840600,10.404840576171875,-0.3346259295940399,1.766473412513733,3.7683701515197754
1695712957723870200,10.4148701171875,-0.0727042406797409,2.524807929992676,4.321108818054199
1695712957733929500,10.424929443359375,0.15845796465873718,2.8549065589904785,4.552270889282227
1695712957743962000,10.434962158203126,0.2925480306148529,2.6995112895965576,4.469180583953857
1695712957753976000,10.44497607421875,0.30533120036125183,2.1084229946136475,4.2007341384887695
1695712957764006700,10.455006591796876,0.20319904386997223,1.3362400531768799,3.785414457321167
1695712957774067000,10.46506689453125,-0.05566002428531647,0.6579334735870361,3.2209577560424805
1695712957784100600,10.4751005859375,-0.359127014875412,0.15725953876972198,2.6288044452667236
1695712957794118400,10.485118408203125,-0.44115230441093445,-0.19627483189105988,2.1953752040863037
1695712957804150500,10.495150634765626,-0.3974764943122864,-0.24421168863773346,1.9835208654403687
1695712957814175000,10.505175048828125,-0.378301739692688,0.0050600022077560425,1.8823208808898926
1695712957824206300,10.515206298828126,-0.3921501636505127,0.3777691125869751,1.813078761100769
1695712957834264800,10.525264892578125,-0.36125752329826355,0.6515418887138367,1.7544891834259033
1695712957844298800,10.535298828125,-0.2824280261993408,0.6291713118553162,1.7768597602844238
1695712957854308900,10.545308837890625,-0.2047969400882721,0.31917962431907654,1.9718029499053955
1695712957864340500,10.555340576171876,-0.1291632205247879,0.32344067096710205,2.2411816120147705
1695712957874379000,10.56537890625,-0.10359688848257065,0.8825709223747253,2.4233415126800537
1695712957884411100,10.5754111328125,-0.15366427600383759,1.6430360078811646,2.421211004257202
1695712957894461400,10.58546142578125,-0.19627483189105988,2.2957763671875,2.233724594116211
1695712957904495400,10.595495361328124,-0.17816534638404846,2.5951154232025146,1.9686071872711182
1695712957914515000,10.605514892578125,-0.060986343771219254,2.5056333541870117,1.7427712678909302
1695712957924547300,10.61554736328125,0.11371689289808273,2.1680777072906494,1.5840470790863037
1695712957934574800,10.625574951171876,0.30852699279785156,1.6643413305282593,1.4924343824386597
1695712957944606700,10.635606689453125,0.4757733643054962,1.0551435947418213,1.4849774837493896
1695712957954636500,10.645636474609375,0.6099966168403625,0.3916175365447998,1.5414364337921143
1695712957964668200,10.655668212890625,0.6941524147987366,-0.19414429366588593,1.6330491304397583
1695712957974706400,10.66570654296875,0.7048050761222839,-0.491219699382782,1.7001607418060303
1695712957984738800,10.67573876953125,0.6494113206863403,-0.39441385865211487,1.654354453086853
1695712957994774800,10.68577490234375,0.57058185338974,0.09241162240505219,1.4584790468215942
1695712958004807400,10.695807373046875,0.4608596861362457,0.7099981904029846,1.1282473802566528
1695712958014831400,10.705831298828125,0.27124276757240295,1.130777359008789,0.7693866491317749
1695712958024863200,10.71586328125,0.027430538088083267,1.1968237161636353,0.5456812977790833
1695712958034907100,10.7259072265625,-0.16857796907424927,1.0966888666152954,0.5201149582862854
1695712958044940000,10.73593994140625,-0.2601906359195709,1.081775188446045,0.5233107805252075
1695712958054963000,10.745962890625,-0.2707101106643677,1.0796446800231934,0.41465386748313904
1695712958064994800,10.755994873046875,-0.2824280261993408,0.9070720076560974,0.2390185296535492
1695712958075024600,10.766024658203126,-0.3261038362979889,0.5460807681083679,0.05792371183633804
1695712958085056300,10.77605615234375,-0.3974764943122864,0.3127880394458771,-0.23595589399337769
1695712958095106000,10.78610595703125,-0.499741792678833,0.44168493151664734,-0.6768419146537781
1695712958105139700,10.7961396484375,-0.6169208288192749,0.5972134470939636,-1.0965557098388672
1695712958115181600,10.806181640625,-0.7074682116508484,0.6716487407684326,-1.5789870023727417
1695712958125216000,10.816216064453124,-0.7916240692138672,0.9656614661216736,-2.2244036197662354
1695712958135226000,10.82622607421875,-0.9033435583114624,1.4427664279937744,-2.7750117778778076
1695712958145258000,10.836258056640625,-1.0546109676361084,1.7686039209365845,-3.0049755573272705
1695712958155274800,10.846274658203125,-1.131309986114502,1.7771260738372803,-3.027346134185791
1695712958165304800,10.856304931640626,-1.118526816368103,1.5173349380493164,-2.894188165664673
1695712958175363600,10.866363525390625,-1.068459391593933,1.1350383758544922,-2.6812686920166016
1695712958185397000,10.87639697265625,-0.9757815003395081,0.8932235836982727,-2.5523717403411865
1695712958195434200,10.886434326171875,-0.8309056162834167,0.7952193021774292,-2.500173807144165
1695712958205468200,10.89646826171875,-0.7021418809890747,0.6876276731491089,-2.515087366104126
1695712958215499300,10.906499267578125,-0.5945502519607544,0.54927659034729,-2.598177909851074
1695712958225533000,10.916532958984375,-0.5093291997909546,0.344745934009552,-2.6567676067352295
1695712958235560400,10.926560546875,-0.515720784664154,-0.16005586087703705,-2.5864601135253906
1695712958245593300,10.93659326171875,-0.5530049800872803,-0.6957502961158752,-2.589655876159668
1695712958255612400,10.9466123046875,-0.5785713195800781,-1.1206573247909546,-2.782468557357788
1695712958265643800,10.956643798828125,-0.6371608376502991,-1.1749857664108276,-3.0060408115386963
1695712958275697700,10.96669775390625,-0.7681882381439209,-1.1078741550445557,-3.157308340072632
1695712958285731000,10.97673095703125,-0.9587372541427612,-1.2005521059036255,-3.1786136627197266
1695712958295756500,10.986756591796874,-1.1302447319030762,-1.4295837879180908,-3.1008493900299072
1695712958305789200,10.9967890625,-1.2634027004241943,-1.6978970766067505,-2.99751877784729
1695712958315803600,11.0068037109375,-1.3452948331832886,-1.9034929275512695,-2.922950267791748
1695712958325834500,11.01683447265625,-1.3156006336212158,-2.0983030796051025,-2.94745135307312
1695712958335896000,11.02689599609375,-1.1824426651000977,-2.288985252380371,-3.0486514568328857
1695712958345930000,11.036929931640625,-0.9448888301849365,-2.4519705772399902,-3.102979898452759
1695712958355940600,11.046940673828125,-0.6680534482002258,-2.619083881378174,-3.0752830505371094
1695712958365972200,11.05697216796875,-0.4443480968475342,-2.7245450019836426,-2.933602809906006
1695712958376013300,11.067013427734375,-0.2973417043685913,-2.723479747772217,-2.6876602172851562
1695712958386045700,11.077045654296874,-0.2239716798067093,-2.7011091709136963,-2.372342109680176
1695712958396075000,11.087074951171875,-0.16325165331363678,-2.6467807292938232,-2.0305256843566895
1695712958406107100,11.097107177734374,-0.1153147891163826,-2.593517541885376,-1.6386418342590332
1695712958416137500,11.107137451171875,-0.0822916179895401,-2.5254738330841064,-1.2157320976257324
1695712958426169300,11.11716943359375,-0.06737792491912842,-2.4104251861572266,-0.7546061277389526
1695712958436194000,11.127194091796875,-0.06418213248252869,-2.2186777591705322,-0.24660852551460266
1695712958446225400,11.137225341796874,-0.07057371735572815,-1.9599519968032837,0.29228171706199646
1695712958456243200,11.1472431640625,-0.07909582555294037,-1.7245286703109741,0.8322372436523438
1695712958466272800,11.157272705078125,-0.07376950979232788,-1.4901707172393799,1.338104248046875
1695712958476326100,11.167326171875,-0.03968106955289841,-1.2676637172698975,1.7992303371429443
1695712958486358300,11.177358154296876,0.03382211923599243,-1.0439584255218506,2.209223747253418
1695712958496413200,11.1874130859375,0.1573926955461502,-0.7170555591583252,2.5192153453826904
1695712958506447400,11.197447265625,0.31917962431907654,-0.27723485231399536,2.7033727169036865
1695712958516457000,11.20745703125,0.4768386483192444,0.3436806797981262,2.421211004257202
1695712958526488800,11.21748876953125,0.7186535000801086,0.8825709223747253,1.0771147012710571
1695712958536544800,11.227544677734375,1.034903645515442,0.06151897460222244,-0.44474756717681885
1695712958546579000,11.237578857421875,1.143560528755188,-1.5136064291000366,-1.6002923250198364
1695712958556597500,11.247597412109375,0.8697877526283264,-2.220808267593384,-2.4927170276641846
1695712958566630100,11.257630126953124,0.2936132848262787,-2.032256603240967,-2.5481107234954834
1695712958576650200,11.267650146484375,-0.19414429366588593,-1.4072132110595703,-1.9474351406097412
1695712958586681600,11.277681640625,-0.5988113284111023,-0.7735145688056946,-1.3648689985275269
1695712958596731000,11.28773095703125,-0.7724493145942688,-0.171773761510849,-0.9878988862037659
1695712958606763800,11.297763671875,-0.46565335988998413,0.6675208210945129,-0.6226465702056885
1695712958616785000,11.307784912109375,0.03488738462328911,1.310673713684082,-0.2402169555425644
1695712958626816500,11.31781640625,0.08175898343324661,1.5279874801635742,0.31678277254104614
1695712958636840700,11.3278408203125,-0.14727269113063812,1.368198037147522,1.2198600769042969
1695712958646871600,11.33787158203125,-0.2834932804107666,0.8729835748672485,1.9377145767211914
1695712958656895500,11.3478955078125,-0.24314641952514648,0.5066660046577454,1.9792598485946655
1695712958666925600,11.357925537109375,-0.2527337968349457,0.5801692008972168,1.2518179416656494
1695712958677003500,11.36800341796875,-0.25060325860977173,0.7515435218811035,0.7406245470046997
1695712958687038200,11.3780380859375,-0.25806012749671936,0.47896915674209595,0.84821617603302
1695712958697049600,11.388049560546875,-0.42410808801651,-0.11744531989097595,1.3167990446090698
1695712958707081500,11.39808154296875,-0.5274386405944824,-0.3358243703842163,1.9952387809753418
1695712958717102800,11.408102783203125,-0.4965460002422333,0.37883439660072327,2.7545053958892822
1695712958727134000,11.418134033203126,-0.302668035030365,1.4832464456558228,3.3551809787750244
1695712958737186000,11.42818603515625,-0.05033370852470398,2.4758057594299316,3.6341469287872314
1695712958747219200,11.43821923828125,0.17443692684173584,3.0541107654571533,3.661843776702881
1695712958757240300,11.448240234375,0.3724428117275238,2.9497151374816895,3.581016778945923
1695712958767272200,11.458272216796875,0.5194491744041443,2.230928421020508,3.4499895572662354
1695712958777298700,11.468298583984375,0.5130575895309448,1.3245221376419067,3.273155689239502
1695712958787329800,11.478329833984375,0.325571209192276,0.5908218622207642,3.068758249282837
1695712958797378800,11.48837890625,0.10839057713747025,0.18282587826251984,2.8610317707061768
1695712958807411700,11.49841162109375,-0.07803056389093399,0.003994738683104515,2.6298696994781494
1695712958817437400,11.5084375,-0.19414429366588593,0.03488738462328911,2.3796658515930176
1695712958827469600,11.518469482421875,-0.24527695775032043,0.22437115013599396,2.1804614067077637
1695712958837523500,11.5285234375,-0.2792322337627411,0.39374807476997375,2.0430424213409424
1695712958847557600,11.5385576171875,-0.24847275018692017,0.4896217882633209,2.0026955604553223
1695712958857585000,11.5485849609375,-0.1579253375530243,0.47364285588264465,2.0270636081695557
1695712958867618600,11.55861865234375,-0.0822916179895401,0.30426591634750366,2.1165456771850586
1695712958877625300,11.568625244140625,-0.036485280841588974,0.19667430222034454,2.2220067977905273
1695712958887656200,11.57865625,-0.020506324246525764,0.3830954432487488,2.2891182899475098
1695712958897701000,11.588701171875,-0.04713791608810425,0.8186551332473755,2.2795310020446777
1695712958907733200,11.598733154296875,-0.07696529477834702,1.3596758842468262,2.2113542556762695
1695712958917795600,11.608795654296875,-0.07376950979232788,1.7526249885559082,2.1282637119293213
1695712958927830800,11.618830810546875,-0.023702116683125496,1.9038923978805542,2.0165441036224365
1695712958937835800,11.628835693359376,0.07004108279943466,1.86234712600708,1.8865818977355957
1695712958947868000,11.638867919921875,0.21491694450378418,1.653688669204712,1.7502281665802002
1695712958957908500,11.648908447265624,0.40333545207977295,1.2254526615142822,1.6362450122833252
1695712958967941400,11.65894140625,0.5854955315589905,0.6078660488128662,1.5435670614242554
1695712958977978400,11.668978271484375,0.7090660929679871,-0.04394212365150452,1.5062828063964844
1695712958988011500,11.679011474609375,0.7570029497146606,-0.5103944540023804,1.5286533832550049
1695712958998028500,11.689028564453125,0.7601987719535828,-0.6946850419044495,1.5446323156356812
1695712959008060000,11.699059814453125,0.7090660929679871,-0.5870934128761292,1.4510222673416138
1695712959018113500,11.709113525390626,0.5908218622207642,-0.19734008610248566,1.2507526874542236
1695712959028147200,11.719147216796875,0.38948702812194824,0.3074617087841034,0.9769799113273621
1695712959038165000,11.7291650390625,0.11584742367267609,0.7046719193458557,0.7150582075119019
1695712959048196900,11.73919677734375,-0.14514216780662537,0.9102677702903748,0.5914876461029053
1695712959058237700,11.74923779296875,-0.3399522602558136,1.100950002670288,0.5605949759483337
1695712959068270800,11.759270751953125,-0.3921501636505127,1.330913782119751,0.48070022463798523
1695712959078278100,11.769278076171876,-0.3857586085796356,1.3447622060775757,0.3274354040622711
1695712959088308700,11.779308837890625,-0.367649108171463,1.093493103981018,0.1495363861322403
1695712959098364200,11.7893642578125,-0.3580617308616638,0.6961497664451599,-0.07736477255821228
1695712959108397300,11.799397216796875,-0.3623228073120117,0.4150533378124237,-0.4745749533176422
1695712959118412500,11.80941259765625,-0.41345545649528503,0.30426591634750366,-1.0187915563583374
1695712959128443400,11.819443359375,-0.5423523783683777,0.09880319982767105,-1.4426332712173462
1695712959138508800,11.8295087890625,-0.6659229397773743,0.10945583879947662,-1.8931066989898682
1695712959148543200,11.839543212890625,-0.7969503402709961,0.5897566080093384,-2.56408953666687
1695712959158543600,11.849543701171875,-0.9480846524238586,1.288303256034851,-3.165830373764038
1695712959168574000,11.859573974609376,-1.076981544494629,1.7813870906829834,-3.3511862754821777
1695712959178618000,11.8696181640625,-1.0950909852981567,1.8005619049072266,-3.244659900665283
1695712959188650000,11.87964990234375,-1.0354362726211548,1.4214612245559692,-3.007106065750122
1695712959198691600,11.889691650390626,-0.9267793893814087,0.9912278056144714,-2.7760770320892334
1695712959208724200,11.89972412109375,-0.7767103314399719,0.7771098017692566,-2.6024391651153564
1695712959218735900,11.90973583984375,-0.649944007396698,0.6472808122634888,-2.5427842140197754
1695712959228766500,11.919766357421874,-0.5572660565376282,0.4768386483192444,-2.6024391651153564
1695712959238804000,11.929803955078125,-0.5178512930870056,0.314918577671051,-2.66422438621521
1695712959248835300,11.93983544921875,-0.554070234298706,-0.09720530360937119,-2.6258747577667236
1695712959258876700,11.949876708984375,-0.5966808199882507,-0.7522093057632446,-2.6418538093566895
1695712959268909000,11.959908935546874,-0.6616618633270264,-1.4434322118759155,-2.817622423171997
1695712959278951200,11.969951171875,-0.7564703226089478,-1.6563518047332764,-3.1040451526641846
1695712959288984600,11.979984619140625,-0.8660593628883362,-1.5594128370285034,-3.3872721195220947
1695712959299002600,11.990002685546875,-0.9789772629737854,-1.3784511089324951,-3.5268216133117676
1695712959309034200,12.0000341796875,-1.1195920705795288,-1.3305143117904663,-3.5609099864959717
1695712959319088600,12.010088623046874,-1.2783163785934448,-1.6435686349868774,-3.530017375946045
1695712959329122300,12.020122314453126,-1.385774850845337,-2.120673656463623,-3.475688934326172
1695712959339157800,12.03015771484375,-1.3751221895217896,-2.528669595718384,-3.436274290084839
1695712959349191700,12.040191650390625,-1.2719247341156006,-2.821483850479126,-3.4426658153533936
1695712959359213300,12.05021337890625,-1.0918952226638794,-3.014296531677246,-3.4735584259033203
1695712959369246000,12.060245849609375,-0.8852340579032898,-3.079277753829956,-3.410707950592041
1695712959379257600,12.070257568359375,-0.704272449016571,-3.0579724311828613,-3.2425293922424316
1695712959389288200,12.0802880859375,-0.5849629044532776,-3.010035514831543,-2.977278709411621
1695712959399337000,12.0903369140625,-0.5135902166366577,-2.912031412124634,-2.6525063514709473
1695712959409369600,12.10036962890625,-0.4624575674533844,-2.772481679916382,-2.2595572471618652
1695712959419404800,12.11040478515625,-0.42304283380508423,-2.5860607624053955,-1.80255925655365
1695712959429437400,12.1204375,-0.3878891170024872,-2.4509053230285645,-1.296692132949829
1695712959439453000,12.130452880859375,-0.3410175144672394,-2.2815284729003906,-0.7748461365699768
1695712959449484000,12.140484130859376,-0.28029748797416687,-2.1185431480407715,-0.24660852551460266
1695712959459547600,12.150547607421874,-0.21758009493350983,-1.9375814199447632,0.2432795912027359
1695712959469582300,12.160582275390626,-0.1760348230600357,-1.7756613492965698,0.7278413772583008
1695712959479592700,12.1705927734375,-0.1430116444826126,-1.5775222778320312,1.2177294492721558
1695712959489625000,12.180625,-0.0822916179895401,-1.3422322273254395,1.6884428262710571
1695712959499652900,12.19065283203125,0.029561065137386322,-1.1046783924102783,2.094175100326538
1695712959509684700,12.200684814453124,0.1808284968137741,-0.8544746041297913,2.3690130710601807
1695712959519727600,12.2107275390625,0.39481332898139954,-0.5572660565376282,2.5330638885498047
1695712959529760500,12.220760498046875,0.6281060576438904,-0.03968106955289841,2.391383647918701
1695712959539776300,12.2307763671875,0.8580698370933533,0.4672512710094452,1.4531527757644653
1695712959549807400,12.240807373046875,1.081775188446045,0.46831652522087097,-0.0070573715493083
1695712959559856000,12.250856201171874,1.2000194787979126,-0.6020070910453796,-1.0837725400924683
1695712959569888800,12.260888671875,1.1744531393051147,-1.6254591941833496,-1.8291908502578735
1695712959579906800,12.27090673828125,0.7665903568267822,-1.809749722480774,-2.1498351097106934
1695712959589938000,12.28093798828125,0.20746009051799774,-1.2644679546356201,-1.8249298334121704
1695712959599972000,12.29097216796875,-0.2792322337627411,-0.6371608376502991,-1.371260643005371
1695712959610003500,12.30100341796875,-0.6904240250587463,-0.47311022877693176,-1.1274484395980835
1695712959620038700,12.31103857421875,-0.8564719557762146,-0.24421168863773346,-0.9037430286407471
1695712959630070500,12.321070556640626,-0.5380913019180298,0.18389113247394562,-0.4330296814441681
1695712959640133600,12.331133544921874,0.002929474925622344,0.3692470192909241,0.05685844644904137
1695712959650168600,12.34116845703125,0.20213377475738525,0.4491417706012726,0.5936181545257568
1695712959660320300,12.3513203125,0.11584742367267609,0.4629902243614197,1.3242558240890503
1695712959670366500,12.361366455078125,-0.09400951862335205,0.24887222051620483,1.9164092540740967
1695712959680267500,12.371267578125,-0.2655169665813446,-0.07590003311634064,2.1080236434936523
1695712959690296300,12.38129638671875,-0.43689125776290894,0.26165539026260376,1.6628764867782593
1695712959700306000,12.391305908203124,-0.46565335988998413,0.9028109312057495,1.0962893962860107
1695712959710332700,12.401332763671874,-0.3527354300022125,0.9976193904876709,1.0494178533554077
1695712959720397600,12.4113974609375,-0.3442133069038391,0.6876276731491089,1.308276891708374
1695712959730428400,12.421428466796876,-0.3996070325374603,0.4587291479110718,1.743836522102356
1695712959740441000,12.431441162109374,-0.3399522602558136,0.8495477437973022,2.367947816848755
1695712959750470100,12.44147021484375,-0.13342426717281342,1.5247917175292969,3.043191909790039
1695712959760494000,12.451494140625,0.17017586529254913,2.0327892303466797,3.585278034210205
1695712959770522600,12.461522705078124,0.4193144142627716,2.290450096130371,3.9302902221679688
1695712959780567800,12.47156787109375,0.47896915674209595,2.214949369430542,4.076231479644775
1695712959790598100,12.48159814453125,0.37137752771377563,1.9262629747390747,4.0453386306762695
1695712959800639500,12.491639404296874,0.21704746782779694,1.6622107028961182,3.8269596099853516
1695712959810670800,12.5016708984375,0.056192658841609955,1.5578149557113647,3.4084441661834717
1695712959820703200,12.511703125,-0.18242639303207397,1.4086780548095703,2.949448823928833
1695712959830734600,12.521734619140625,-0.3814975321292877,1.0775141716003418,2.5032362937927246
1695712959840754700,12.531754638671876,-0.4432828426361084,0.7526087760925293,2.1708741188049316
1695712959850785000,12.541784912109375,-0.38469332456588745,0.6791055798530579,1.9451713562011719
1695712959860810000,12.55181005859375,-0.3016027808189392,0.7643266916275024,1.7992303371429443
1695712959870839800,12.56183984375,-0.21012325584888458,0.8037413954734802,1.7065523862838745
1695712959880884000,12.571884033203125,-0.12596742808818817,0.5918871164321899,1.6873775720596313
1695712959890915000,12.5819150390625,-0.024767380207777023,0.14980269968509674,1.8024260997772217
1695712959900966100,12.591966064453125,0.06578002870082855,-0.05779055133461952,2.0058913230895996
1695712959910999300,12.601999267578124,0.10199899226427078,0.3032006621360779,2.160221576690674
1695712959921013200,12.61201318359375,0.0679105594754219,1.0135983228683472,2.2507688999176025
1695712959931044600,12.622044677734374,-0.0002663159102667123,1.6931034326553345,2.2699437141418457
1695712959941090300,12.63209033203125,-0.013049479573965073,2.165947198867798,2.2305288314819336
1695712959951123200,12.642123291015626,0.03701791167259216,2.3234732151031494,2.1527645587921143
1695712959961129500,12.65212939453125,0.1201084777712822,2.139315605163574,2.0366508960723877
1695712959971159600,12.66215966796875,0.26391905546188354,1.616404414176941,1.922800898551941
1695712959981220000,12.67222021484375,0.4938828647136688,0.7281076908111572,1.801360845565796
1695712959991253000,12.6822529296875,0.7740471959114075,-0.2900180220603943,1.6437017917633057
1695712960001306600,12.692306640625,0.9230509400367737,-0.9438235759735107,1.4998911619186401
1695712960011341800,12.702341796875,0.8665919899940491,-1.0652636289596558,1.417999029159546
