time,seconds_elapsed,z,y,x
1696082963535222300,0.32222216796875,-0.6737843751907349,-10.025520324707031,-0.32131510972976685
1696082963545223400,0.332223388671875,-0.6108652353286743,-10.417695999145508,-0.41111230850219727
1696082963555209200,0.342209228515625,-0.656680166721344,-9.093339920043945,-0.25961771607398987
1696082963565208800,0.352208740234375,-0.6407976150512695,-7.171557903289795,-0.14782938361167908
1696082963575208400,0.36220849609375,-0.7373143434524536,-5.229006290435791,-0.13988813757896423
1696082963585208300,0.372208251953125,-0.5192354321479797,-5.503284931182861,-0.14538592100143433
1696082963595208000,0.3822080078125,-0.44715335965156555,-5.068959712982178,0.13377949595451355
1696082963605209000,0.392208984375,-0.2779437005519867,-1.8399261236190796,0.8631525635719299
1696082963615209000,0.402208984375,0.42638394236564636,1.0231993198394775,1.140485405921936
1696082963625208800,0.412208740234375,1.0054842233657837,1.8252654075622559,0.5510004758834839
1696082963635208700,0.422208740234375,1.3842206001281738,1.1740829944610596,-0.5803219676017761
1696082963645208600,0.43220849609375,1.557706356048584,0.6352998614311218,-1.643227458000183
1696082963655208400,0.44220849609375,1.6633861064910889,0.49724429845809937,-2.5161540508270264
1696082963665208300,0.452208251953125,1.7140878438949585,0.4746423065662384,-3.0976977348327637
1696082963675208200,0.462208251953125,1.7232508659362793,0.6450737118721008,-3.3567044734954834
1696082963685208300,0.472208251953125,1.6982053518295288,0.9260717034339905,-3.322496175765991
1696082963695208200,0.482208251953125,1.7085901498794556,1.1465940475463867,-3.0799825191497803
1696082963705207600,0.49220751953125,1.82404363155365,1.4367550611495972,-2.668870210647583
1696082963715207400,0.50220751953125,2.1398608684539795,1.832595705986023,-2.2736403942108154
1696082963725207600,0.51220751953125,2.6206119060516357,2.236377716064453,-2.068389654159546
1696082963735207400,0.52220751953125,3.204599142074585,2.339613914489746,-2.043955087661743
1696082963745207300,0.532207275390625,3.972456693649292,1.6975945234298706,-2.0176877975463867
1696082963755207400,0.54220751953125,4.824613571166992,0.5198463201522827,-1.863139033317566
1696082963765207300,0.552207275390625,5.496565341949463,-0.8051204085350037,-1.598023533821106
1696082963775207400,0.56220751953125,5.802608966827393,-1.8594738245010376,-1.2718214988708496
1696082963785207300,0.572207275390625,5.758626461029053,-2.436741352081299,-0.9841039180755615
1696082963795207200,0.582207275390625,5.44342041015625,-2.624277114868164,-0.8417723178863525
1696082963805207000,0.59220703125,5.000543117523193,-2.769052267074585,-0.8802568316459656
1696082963815207000,0.60220703125,4.571104526519775,-3.0408871173858643,-1.024420976638794
1696082963825207000,0.61220703125,4.178318500518799,-3.38297176361084,-1.1203268766403198
1696082963835207000,0.62220703125,3.8014144897460938,-3.5613443851470947,-1.0604621171951294
1696082963845207000,0.63220703125,3.389080286026001,-3.516751289367676,-0.8607091307640076
1696082963855207400,0.64220751953125,2.92848801612854,-3.3701436519622803,-0.6340781450271606
1696082963865207300,0.652207275390625,2.4239132404327393,-3.3646457195281982,-0.5015203952789307
1696082963875206400,0.662206298828125,1.8527542352676392,-3.4458909034729004,-0.43799036741256714
1696082963885206500,0.67220654296875,1.2932016849517822,-3.952908992767334,-0.39217549562454224
1696082963895206700,0.68220654296875,0.8680394887924194,-4.418388366699219,-0.3500257730484009
1696082963905205800,0.692205810546875,0.4715879559516907,-4.639521598815918,-0.3182607889175415
1696082963915206000,0.702205810546875,-0.13072516024112701,-4.9510626792907715,-0.29993483424186707
1696082963925205800,0.712205810546875,-0.6762278079986572,-5.29864501953125,-0.28649580478668213
1696082963935206000,0.722205810546875,-0.9957103729248047,-5.307807922363281,-0.35613444447517395
1696082963945205800,0.732205810546875,-1.1826350688934326,-5.299866676330566,-0.5644394755363464
1696082963955206000,0.742205810546875,-1.4428637027740479,-5.070181369781494,-0.8558222055435181
1696082963965205800,0.752205810546875,-1.728137731552124,-4.60103702545166,-1.0677924156188965
1696082963975205400,0.762205322265625,-1.9511035680770874,-4.0830230712890625,-1.2864822149276733
1696082963985205500,0.77220556640625,-2.1306979656219482,-3.486207962036133,-1.4679092168807983
1696082963995205400,0.782205322265625,-2.2510383129119873,-2.6920831203460693,-1.5821410417556763
1696082964005205500,0.79220556640625,-2.272418737411499,-1.8698585033416748,-1.6383405923843384
1696082964015205600,0.80220556640625,-2.183232307434082,-1.1129964590072632,-1.6383405923843384
1696082964025205500,0.81220556640625,-2.0005836486816406,-0.4599815309047699,-1.5790866613388062
1696082964035205600,0.82220556640625,-1.7055357694625854,0.10567969083786011,-1.4666874408721924
1696082964045205500,0.83220556640625,-1.301142930984497,0.5558874011039734,-1.3200798034667969
1696082964055205000,0.842205078125,-0.8100073337554932,0.8655960559844971,-1.1368201971054077
1696082964065205200,0.852205322265625,-0.23945917189121246,0.9963212013244629,-0.9590584635734558
1696082964075205000,0.862205078125,0.2968805134296417,1.141707181930542,-0.7751879692077637
1696082964085205000,0.872205078125,0.759305477142334,1.2125675678253174,-0.5497786998748779
1696082964095205000,0.882205078125,1.1386528015136719,1.299310326576233,-0.26511552929878235
1696082964105205200,0.892205322265625,1.4581353664398193,1.4159855842590332,0.007941247895359993
1696082964115205400,0.902205322265625,1.7458528280258179,1.566258430480957,0.22052235901355743
1696082964125205200,0.912205322265625,1.9529361724853516,1.7073683738708496,0.3646865487098694
1696082964135205400,0.922205322265625,2.083050489425659,1.703092336654663,0.39645153284072876
1696082964145205200,0.932205322265625,2.1313087940216064,1.6792685985565186,0.3225368559360504
1696082964155205000,0.942205078125,2.0586159229278564,1.624901533126831,0.14355333149433136
1696082964165205200,0.952205322265625,1.8985692262649536,1.4911220073699951,-0.1062905490398407
1696082964175206100,0.9622060546875,1.632842779159546,1.3744467496871948,-0.384845107793808
1696082964185206300,0.972206298828125,1.2754865884780884,1.274264931678772,-0.6633996367454529
1696082964195206100,0.9822060546875,0.9468411207199097,1.1661417484283447,-0.941343367099762
1696082964205206500,0.99220654296875,0.7043276429176331,1.086118459701538,-1.282817006111145
1696082964215206700,1.00220654296875,0.588874101638794,0.7898487448692322,-1.6389514207839966
1696082964225206500,1.01220654296875,0.5729916095733643,0.4544837474822998,-1.984701156616211
1696082964235206700,1.02220654296875,0.5387831330299377,0.13988813757896423,-2.2730295658111572
1696082964245206500,1.03220654296875,0.4715879559516907,-0.05925392732024193,-2.447736978530884
1696082964255206700,1.04220654296875,0.4129449129104614,-0.1313360333442688,-2.4678955078125
1696082964265206800,1.052206787109375,0.3341432809829712,-0.018325956538319588,-2.3542747497558594
1696082964275207200,1.062207275390625,0.18875735998153687,0.1569923609495163,-2.1728477478027344
1696082964285207000,1.07220703125,-0.27122417092323303,0.04948008432984352,-1.8106045722961426
1696082964295207200,1.082207275390625,-1.1520918607711792,0.042760565876960754,-1.4214833974838257
1696082964305207300,1.092207275390625,-1.9785925149917603,-0.010995574295520782,-1.2443325519561768
1696082964315207200,1.102207275390625,-2.415361166000366,-0.07696902006864548,-1.4013248682022095
1696082964325207300,1.112207275390625,-2.5466971397399902,-0.16737708449363708,-1.5796974897384644
1696082964335207200,1.122207275390625,-2.349998712539673,-0.2828305959701538,-1.4581353664398193
1696082964345207300,1.132207275390625,-2.1545217037200928,-0.4612032473087311,-1.2870930433273315
1696082964355207700,1.142207763671875,-2.0531179904937744,-0.29993483424186707,-1.1808024644851685
1696082964365207600,1.15220751953125,-1.9901989698410034,0.25595253705978394,-1.1154398918151855
1696082964375207700,1.162207763671875,-1.8576412200927734,0.9297369122505188,-0.9804387092590332
1696082964385207600,1.17220751953125,-1.557706356048584,1.3255776166915894,-0.7935139536857605
1696082964395207200,1.182207275390625,-1.0867292881011963,1.2260065078735352,-0.656680166721344
1696082964405207300,1.192207275390625,-0.3805690407752991,0.7806857824325562,-0.5577199459075928
1696082964415207200,1.202207275390625,0.5357288122177124,0.304210901260376,-0.5290092825889587
1696082964425207300,1.212207275390625,2.045787811279297,-0.08124507963657379,-0.607200026512146
1696082964435207200,1.222207275390625,3.051271915435791,-0.08185594528913498,-0.3530801236629486
1696082964445207300,1.232207275390625,2.662761688232422,1.2052371501922607,0.46547931432724
1696082964455207200,1.242207275390625,1.3756685256958008,2.199725866317749,0.7367035150527954
1696082964465207000,1.25220703125,0.1514945775270462,2.7177395820617676,0.18570303916931152
1696082964475207200,1.262207275390625,-0.5088507533073425,2.8765645027160645,-0.32498031854629517
1696082964485207000,1.27220703125,-0.6517932415008545,2.052507162094116,-0.789237916469574
1696082964495207200,1.282207275390625,-0.4178318381309509,0.8790351152420044,-1.0311405658721924
1696082964505207000,1.29220703125,0.009162978269159794,-0.07452555745840073,-1.2589932680130005
1696082964515207200,1.302207275390625,0.40133845806121826,-0.07757988572120667,-1.5180001258850098
1696082964525207000,1.31220703125,0.5088507533073425,0.694553792476654,-1.6633861064910889
1696082964535207200,1.322207275390625,0.4251621961593628,1.986533761024475,-1.576032280921936
1696082964545207000,1.33220703125,0.39767327904701233,2.58457088470459,-1.3194689750671387
1696082964555207200,1.342207275390625,0.44837507605552673,2.3994786739349365,-1.081842303276062
1696082964565207000,1.35220703125,0.5998696684837341,2.040289878845215,-0.6114761233329773
1696082964575207200,1.362207275390625,0.7733554244041443,1.6438384056091309,-0.16310101747512817
1696082964585207000,1.37220703125,0.9230173826217651,1.4257594347000122,0.15393804013729095
1696082964595207200,1.382207275390625,1.1673635244369507,1.5564846992492676,0.31031954288482666
1696082964605207000,1.39220703125,1.5650367736816406,1.8680258989334106,0.26083946228027344
1696082964617996300,1.404996337890625,1.874745488166809,2.777604341506958,0.022602014243602753
1696082964627996200,1.41499609375,2.1093177795410156,3.852727174758911,-0.2577851414680481
1696082964637996300,1.424996337890625,2.3292291164398193,4.5967607498168945,-0.4697553813457489
1696082964647996200,1.43499609375,2.6639833450317383,4.250400543212891,-0.5381723046302795
1696082964657996300,1.444996337890625,3.1923818588256836,2.129476308822632,-0.4966334402561188
1696082964667996200,1.45499609375,3.637702465057373,-0.252287358045578,-0.5125159621238708
1696082964677996300,1.464996337890625,4.034153938293457,-1.7739527225494385,-0.5057964324951172
1696082964687996200,1.47499609375,4.55033540725708,-2.6621506214141846,-0.455705463886261
1696082964697996800,1.484996826171875,5.155702590942383,-3.029280662536621,-0.4764748811721802
1696082964707996700,1.49499658203125,5.780617713928223,-2.8099801540374756,-0.6145304441452026
1696082964717996800,1.504996826171875,6.269309997558594,-2.2235496044158936,-0.6780604124069214
1696082964727996700,1.51499658203125,6.417139530181885,-1.4563027620315552,-0.394008070230484
1696082964737996800,1.524996826171875,6.04634428024292,-0.8484918475151062,0.14294247329235077
1696082964747996700,1.53499658203125,5.6095757484436035,0.37751471996307373,0.6304129362106323
1696082964757996800,1.544996826171875,5.024977684020996,2.0561723709106445,1.0946705341339111
1696082964767996700,1.55499658203125,4.985271453857422,4.0494256019592285,1.397048830986023
1696082964777996800,1.564996826171875,4.834998607635498,4.760472774505615,1.0109820365905762
1696082964787996700,1.57499658203125,3.933361291885376,4.0494256019592285,0.02321287989616394
1696082964797996800,1.584996826171875,2.4520130157470703,2.741563320159912,-0.9486737251281738
1696082964807996700,1.59499658203125,1.3151928186416626,1.3445143699645996,-1.4477506875991821
1696082964817996800,1.604996826171875,1.0097602605819702,0.4050036668777466,-1.470963478088379
1696082964827996700,1.61499658203125,0.8943067193031311,0.4056145250797272,-1.4465289115905762
1696082964837996800,1.624996826171875,0.5400048494338989,0.6261368989944458,-1.4581353664398193
1696082964847996700,1.63499658203125,0.5222898125648499,0.6017022728919983,-1.2889256477355957
1696082964857996800,1.644996826171875,0.7660250067710876,1.0299187898635864,-1.0152580738067627
1696082964867996700,1.65499658203125,0.8845328688621521,1.9425514936447144,-0.8112290501594543
1696082964877996800,1.664996826171875,0.8356636762619019,3.0133981704711914,-0.7061602473258972
1696082964887996700,1.67499658203125,0.788627028465271,3.9816195964813232,-0.5943718552589417
1696082964897996800,1.684996826171875,0.7061602473258972,4.3450846672058105,-0.6157521605491638
1696082964907996700,1.69499658203125,0.8350527882575989,4.183815956115723,-0.8588765263557434
1696082964917996800,1.704996826171875,0.7531968355178833,3.950465440750122,-1.043968677520752
1696082964927996700,1.71499658203125,0.5088507533073425,3.341432809829712,-1.1423180103302002
1696082964937996800,1.724996826171875,0.23029619455337524,1.9889771938323975,-1.225395679473877
1696082964947996700,1.73499658203125,0.05803219974040985,0.5894849896430969,-1.263269305229187
1696082964957996800,1.744996826171875,0.1472185254096985,-0.5186246037483215,-1.3078625202178955
1696082964967996700,1.75499658203125,0.543059229850769,-1.1258246898651123,-1.3897184133529663
1696082964977996800,1.764996826171875,1.226617455482483,-1.3640620708465576,-1.508837103843689
1696082964987996700,1.77499658203125,2.018298864364624,-1.5357152223587036,-1.5729780197143555
1696082964997996800,1.784996826171875,2.7140743732452393,-1.6236798763275146,-1.6487252712249756
1696082965007996700,1.79499658203125,3.3957998752593994,-1.7311921119689941,-1.6047430038452148
1696082965017996800,1.804996826171875,4.061032295227051,-1.93766450881958,-1.5265522003173828
1696082965027996700,1.81499658203125,4.565607070922852,-2.171625852584839,-1.3469579219818115
1696082965037996800,1.824996826171875,4.854546070098877,-2.308459758758545,-1.1624765396118164
1696082965047996700,1.83499658203125,4.967555999755859,-2.163684606552124,-0.9547823667526245
1696082965057996800,1.844996826171875,4.890587329864502,-1.6762142181396484,-0.769079327583313
1696082965067996700,1.85499658203125,4.3676862716674805,-0.6731734871864319,-0.6017022728919983
1696082965077996800,1.864996826171875,3.5943310260772705,0.5503895878791809,-0.31642818450927734
1696082965087996700,1.87499658203125,2.556471109390259,1.309084177017212,0.1215621829032898
1696082965097996800,1.884996826171875,1.4123204946517944,1.4214833974838257,0.6615670323371887
1696082965107996700,1.89499658203125,0.1313360333442688,1.4495831727981567,1.0696250200271606
1696082965117996800,1.904996826171875,-0.9364564418792725,1.4856243133544922,0.940121591091156
1696082965127996700,1.91499658203125,-1.3377948999404907,1.4593570232391357,0.394618958234787
1696082965137996800,1.924996826171875,-1.318858027458191,1.2095131874084473,-0.17470745742321014
1696082965147996700,1.93499658203125,-1.2431107759475708,1.035416603088379,-0.4080579876899719
1696082965157996800,1.944996826171875,-1.043968677520752,0.6126978397369385,-0.7373143434524536
1696082965167996700,1.95499658203125,-0.8136724829673767,0.19120082259178162,-0.8875871896743774
1696082965177996800,1.964996826171875,-0.5619960427284241,-0.14355333149433136,-0.8796459436416626
1696082965187996700,1.97499658203125,-0.2767219543457031,-0.38240164518356323,-0.7061602473258972
1696082965197996800,1.984996826171875,0.0006108652451075613,-0.5705481171607971,-0.36163222789764404
1696082965207996700,1.99499658203125,0.1716531366109848,-0.6499606370925903,0.039095375686883926
1696082965217996800,2.004996826171875,0.1722639948129654,-0.6407976150512695,0.35613444447517395
1696082965227996700,2.01499658203125,0.07696902006864548,-0.6304129362106323,0.5277875661849976
1696082965237996800,2.024996826171875,0.021991148591041565,-0.694553792476654,0.5632177591323853
1696082965247996700,2.03499658203125,0.021380282938480377,-0.808174729347229,0.48685958981513977
1696082965257996800,2.044996826171875,0.033597588539123535,-0.8668177723884583,0.33658674359321594
1696082965267996700,2.05499658203125,0.060475658625364304,-0.8509352803230286,0.18997909128665924
1696082965277996800,2.064996826171875,0.1062905490398407,-0.7965682744979858,0.06780604273080826
1696082965287996700,2.07499658203125,0.1215621829032898,-0.5760459303855896,-0.04764748737215996
1696082965297996800,2.084996826171875,0.11789698898792267,-0.11178833991289139,-0.1160643994808197
1696082965307996700,2.09499658203125,0.13744467496871948,0.20341812074184418,-0.09162978827953339
1696082965317996800,2.104996826171875,0.13805554807186127,0.2223549485206604,-0.01771509274840355
1696082965327996700,2.11499658203125,0.10873401165008545,0.10323622822761536,0.04459316283464432
1696082965337996800,2.124996826171875,0.07696902006864548,-0.07696902006864548,0.059864792972803116
1696082965347996700,2.13499658203125,0.039095375686883926,-0.2626720666885376,0.04459316283464432
1696082965357996800,2.144996826171875,0.01160643994808197,-0.41111230850219727,0.01710422709584236
1696082965367996700,2.15499658203125,-0.0024434609804302454,-0.5076290369033813,-0.0024434609804302454
1696082965377996800,2.164996826171875,-0.013439035043120384,-0.5277875661849976,-0.015271631069481373
1696082965387996700,2.17499658203125,-0.012217304669320583,-0.47708576917648315,-0.018325956538319588
1696082965397996800,2.184996826171875,-0.006108652334660292,-0.3854559659957886,-0.01038470957428217
1696082965407996700,2.19499658203125,0.001832595793530345,-0.29016098380088806,0.00733038317412138
1696082965417996800,2.204996826171875,0.005497787147760391,-0.20830504596233368,0.030543262138962746
1696082965427996700,2.21499658203125,0.006108652334660292,-0.13744467496871948,0.05742133408784866
1696082965437996800,2.224996826171875,0.007941247895359993,-0.08368854224681854,0.0806342139840126
1696082965447996700,2.23499658203125,0.016493361443281174,-0.04703662544488907,0.09712757170200348
1696082965457996800,2.244996826171875,0.036651913076639175,-0.0354301854968071,0.09712757170200348
1696082965467996700,2.25499658203125,0.07391469180583954,-0.04581489413976669,0.06902777403593063
1696082965477996800,2.264996826171875,0.11728613078594208,-0.08918632566928864,0.02626720629632473
1696082965487996700,2.27499658203125,0.14538592100143433,-0.16065755486488342,-0.01710422709584236
1696082965497996800,2.284996826171875,0.16065755486488342,-0.26572638750076294,-0.04337143152952194
1696082965507996700,2.29499658203125,0.1667662113904953,-0.3933972120285034,-0.05192354694008827
1696082965517996800,2.304996826171875,0.16493362188339233,-0.5119050741195679,-0.056810468435287476
1696082965527996700,2.31499658203125,0.15577064454555511,-0.5760459303855896,-0.06902777403593063
1696082965537996800,2.324996826171875,0.15515977144241333,-0.5632177591323853,-0.09407325088977814
1696082965547996700,2.33499658203125,0.16737708449363708,-0.4893030524253845,-0.13377949595451355
1696082965557996800,2.344996826171875,0.18325957655906677,-0.3793473243713379,-0.1820378452539444
1696082965567996700,2.35499658203125,0.19120082259178162,-0.25961771607398987,-0.23151792585849762
1696082965577996800,2.364996826171875,0.18570303916931152,-0.1459967941045761,-0.26022860407829285
1696082965587996700,2.37499658203125,0.16065755486488342,-0.06963863968849182,-0.26939156651496887
1696082965597996800,2.384996826171875,0.12217304855585098,-0.033597588539123535,-0.2681698501110077
1696082965607996700,2.39499658203125,0.07941248267889023,-0.04703662544488907,-0.2718350291252136
1696082965617996800,2.404996826171875,0.031154127791523933,-0.10934487730264664,-0.2883284091949463
1696082965627996700,2.41499658203125,-0.02015855349600315,-0.192422553896904,-0.30970868468284607
1696082965637996800,2.424996826171875,-0.06719517707824707,-0.26633724570274353,-0.31642818450927734
1696082965647996700,2.43499658203125,-0.1007927656173706,-0.2974913716316223,-0.30970868468284607
1696082965657996800,2.444996826171875,-0.1258382350206375,-0.2724458873271942,-0.3029891550540924
1696082965667996700,2.45499658203125,-0.13255776464939117,-0.2015855312347412,-0.2974913716316223
1696082965677996800,2.464996826171875,-0.13011430203914642,-0.09834930300712585,-0.2822197377681732
1696082965687996700,2.47499658203125,-0.12889257073402405,0.006108652334660292,-0.25106561183929443
1696082965697996800,2.484996826171875,-0.1258382350206375,0.0757472887635231,-0.2021963894367218
1696082965707996700,2.49499658203125,-0.10018189996480942,0.07330382615327835,-0.14538592100143433
1696082965717996800,2.504996826171875,-0.05619960278272629,0.0507018156349659,-0.09285151958465576
1696082965727996700,2.51499658203125,-0.015271631069481373,0.05253441259264946,-0.04764748737215996
1696082965737996800,2.524996826171875,0.024434609338641167,0.060475658625364304,-0.00733038317412138
1696082965747996700,2.53499658203125,0.06414084881544113,0.0507018156349659,0.021991148591041565
1696082965757996800,2.544996826171875,0.09896016865968704,0.021380282938480377,0.025656340643763542
1696082965767996700,2.55499658203125,0.13011430203914642,-0.02626720629632473,0
1696082965777996800,2.564996826171875,0.1563815027475357,-0.09529497474431992,-0.036041051149368286
1696082965787996700,2.57499658203125,0.17287486791610718,-0.16859880089759827,-0.06291911751031876
1696082965797996800,2.584996826171875,0.1820378452539444,-0.21319197118282318,-0.07513642311096191
1696082965807996700,2.59499658203125,0.18936823308467865,-0.21624629199504852,-0.07696902006864548
1696082965817996800,2.604996826171875,0.2015855312347412,-0.1716531366109848,-0.08307767659425735
1696082965827996700,2.61499658203125,0.21624629199504852,-0.0910189226269722,-0.09834930300712585
1696082965837996800,2.624996826171875,0.22052235901355743,0.001832595793530345,-0.1368338167667389
1696082965847996700,2.63499658203125,0.18570303916931152,0.06475171446800232,-0.18814650177955627
1696082965857996800,2.644996826171875,0.1062905490398407,0.06230825558304787,-0.22296582162380219
1696082965867996700,2.65499658203125,0.015271631069481373,-0.0006108652451075613,-0.22418753802776337
1696082965877996800,2.664996826171875,-0.05619960278272629,-0.1319468915462494,-0.1973094791173935
1696082965887996700,2.67499658203125,-0.08735372871160507,-0.2840523421764374,-0.16920967400074005
1696082965897996800,2.684996826171875,-0.08552113175392151,-0.39706242084503174,-0.15760323405265808
1696082965907996700,2.69499658203125,-0.07635815441608429,-0.4239404797554016,-0.1514945775270462
1696082965917996800,2.704996826171875,-0.06108652427792549,-0.38667771220207214,-0.1313360333442688
1696082965927996700,2.71499658203125,-0.0354301854968071,-0.35674530267715454,-0.11178833991289139
1696082965937996800,2.724996826171875,-0.0012217304902151227,-0.3530801236629486,-0.1062905490398407
1696082965947996700,2.73499658203125,0.03176499158143997,-0.37140607833862305,-0.12339477986097336
1696082965957996800,2.744996826171875,0.07391469180583954,-0.39095374941825867,-0.15821409225463867
1696082965967996700,2.75499658203125,0.11911872029304504,-0.40683624148368835,-0.1869247704744339
1696082965977996800,2.764996826171875,0.15577064454555511,-0.4129449129104614,-0.19792033731937408
1696082965987996700,2.77499658203125,0.18325957655906677,-0.42088615894317627,-0.18814650177955627
1696082965997996800,2.784996826171875,0.2076941877603531,-0.4080579876899719,-0.16371189057826996
1696082966007996700,2.79499658203125,0.2223549485206604,-0.3695734739303589,-0.13500121235847473
1696082966017996800,2.804996826171875,0.22540926933288574,-0.3023782968521118,-0.10812314599752426
1696082966027996700,2.81499658203125,0.21380282938480377,-0.2168571650981903,-0.09040805697441101
1696082966037996800,2.824996826171875,0.19303341209888458,-0.13255776464939117,-0.09346238523721695
1696082966047996700,2.83499658203125,0.17898350954055786,-0.059864792972803116,-0.12095131725072861
1696082966057996800,2.844996826171875,0.17043140530586243,-0.02321287989616394,-0.16493362188339233
1696082966067996700,2.85499658203125,0.16554448008537292,-0.025045474991202354,-0.22296582162380219
1696082966077996800,2.864996826171875,0.16004669666290283,-0.04642575979232788,-0.28588494658470154
1696082966087996700,2.87499658203125,0.16065755486488342,-0.06352998316287994,-0.3439171314239502
1696082966097996800,2.884996826171875,0.17409659922122955,-0.0806342139840126,-0.3952298164367676
1696082966107996700,2.89499658203125,0.19792033731937408,-0.10384709388017654,-0.4343251883983612
1696082966117996800,2.904996826171875,0.23273965716362,-0.12950342893600464,-0.4691445231437683
1696082966127996700,2.91499658203125,0.2681698501110077,-0.1563815027475357,-0.5002986192703247
1696082966137996800,2.924996826171875,0.3017674386501312,-0.16859880089759827,-0.5192354321479797
1696082966147996700,2.93499658203125,0.33597588539123535,-0.16554448008537292,-0.5277875661849976
1696082966157996800,2.944996826171875,0.3732386529445648,-0.15760323405265808,-0.5338962078094482
1696082966167996700,2.95499658203125,0.41111230850219727,-0.1612684279680252,-0.5448917746543884
1696082966177996800,2.964996826171875,0.4447098970413208,-0.19853121042251587,-0.5632177591323853
1696082966187996700,2.97499658203125,0.46731191873550415,-0.27611109614372253,-0.5754350423812866
1696082966197996800,2.984996826171875,0.4807509481906891,-0.3628539443016052,-0.5687155723571777
1696082966207996700,2.99499658203125,0.484416127204895,-0.43615779280662537,-0.5467243790626526
1696082966217996800,3.004996826171875,0.49296826124191284,-0.4801400899887085,-0.5015203952789307
1696082966227996700,3.01499658203125,0.5076290369033813,-0.4758640229701996,-0.4153883755207062
1696082966237996800,3.024996826171875,0.5277875661849976,-0.44287729263305664,-0.2687807083129883
1696082966247996700,3.03499658203125,0.5448917746543884,-0.41599923372268677,-0.05742133408784866
1696082966257996800,3.044996826171875,0.5302310585975647,-0.45753806829452515,0.18509216606616974
1696082966267996700,3.05499658203125,0.47342056035995483,-0.5552765130996704,0.3952298164367676
1696082966277996800,3.064996826171875,0.37079519033432007,-0.6792821288108826,0.5338962078094482
1696082966287996700,3.07499658203125,0.22602014243602753,-0.7959573864936829,0.5998696684837341
1696082966297996800,3.084996826171875,0.06841690838336945,-0.846659243106842,0.6591235995292664
1696082966307996700,3.09499658203125,-0.07391469180583954,-0.7812966704368591,0.7861835956573486
1696082966317996800,3.104996826171875,-0.18509216606616974,-0.59803706407547,1.0225883722305298
1696082966327996700,3.11499658203125,-0.2822197377681732,-0.2974913716316223,1.3371840715408325
1696082966337996800,3.124996826171875,-0.39217549562454224,0.08979719132184982,1.6798794269561768
1696082966347996700,3.13499658203125,-0.5174028873443604,0.47830748558044434,2.004248857498169
1696082966357996800,3.144996826171875,-0.6493497490882874,0.8301658630371094,2.2883012294769287
1696082966367996700,3.15499658203125,-0.8093964457511902,1.0702359676361084,2.5509731769561768
1696082966377996800,3.164996826171875,-1.0213667154312134,1.1007791757583618,2.8020389080047607
1696082966387996700,3.17499658203125,-1.2822061777114868,0.9266825914382935,2.9987375736236572
1696082966397996800,3.184996826171875,-1.5082262754440308,0.6126978397369385,3.0616567134857178
1696082966407996700,3.19499658203125,-1.6126842498779297,0.042760565876960754,3.0616567134857178
1696082966417996800,3.204996826171875,-1.6438384056091309,-0.8191702961921692,3.0060677528381348
1696082966427996700,3.21499658203125,-1.6383405923843384,-1.7861700057983398,2.7983736991882324
1696082966437996800,3.224996826171875,-1.6175711154937744,-2.66642689704895,2.420248031616211
1696082966447996700,3.23499658203125,-1.595579981803894,-3.2919528484344482,2.0024163722991943
1696082966457996800,3.244996826171875,-1.5644259452819824,-3.4715471267700195,1.6389514207839966
1696082966467996700,3.25499658203125,-1.5210545063018799,-3.0860912799835205,1.3542882204055786
1696082966477996500,3.26499658203125,-1.4355332851409912,-2.2632558345794678,1.1673635244369507
1696082966487996700,3.27499658203125,-1.348179578781128,-1.376279354095459,1.1087204217910767
1696082966497996500,3.28499658203125,-1.2760975360870361,-0.5870414972305298,1.122159481048584
1696082966507996700,3.29499658203125,-1.2217304706573486,0.0354301854968071,1.178359031677246
1696082966517996500,3.30499658203125,-1.2113457918167114,0.45875978469848633,1.2486085891723633
1696082966527996700,3.31499658203125,-1.2498302459716797,0.6499606370925903,1.2956452369689941
1696082966537996800,3.324996826171875,-1.340238332748413,0.6896668672561646,1.2767083644866943
1696082966547996700,3.33499658203125,-1.4508049488067627,0.5455026626586914,1.1985175609588623
1696082966557996800,3.344996826171875,-1.5546520948410034,0.3225368559360504,1.0885618925094604
1696082966567996700,3.35499658203125,-1.6041321754455566,0.12339477986097336,0.9804387092590332
1696082966577996800,3.364996826171875,-1.5894713401794434,0.10506882518529892,0.8888089060783386
1696082966587996700,3.37499658203125,-1.5247195959091187,0.37201693654060364,0.8301658630371094
1696082966597996800,3.384996826171875,-1.434922456741333,0.8356636762619019,0.7959573864936829
1696082966607996700,3.39499658203125,-1.3048081398010254,1.3078625202178955,0.7959573864936829
1696082966617996800,3.404996826171875,-1.1508700847625732,1.5937473773956299,0.8136724829673767
1696082966627996700,3.41499658203125,-0.9804387092590332,1.6517796516418457,0.8130616545677185
1696082966637996500,3.42499658203125,-0.8313875794410706,1.6566665172576904,0.7611380815505981
1696082966647996700,3.43499658203125,-0.6994407176971436,1.6389514207839966,0.6927211880683899
1696082966657996500,3.44499658203125,-0.5674937963485718,1.5564846992492676,0.6151412725448608
1696082966667996700,3.45499658203125,-0.4239404797554016,1.444696307182312,0.5424483418464661
1696082966677996500,3.46499658203125,-0.2834414839744568,1.2773191928863525,0.4453207552433014
1696082966687996700,3.47499658203125,-0.15332718193531036,1.0525208711624146,0.303600013256073
1696082966697996500,3.48499658203125,-0.04642575979232788,0.8289441466331482,0.12400564551353455
1696082966707996700,3.49499658203125,0.04948008432984352,0.6401867866516113,-0.07024950534105301
1696082966717996500,3.50499658203125,0.14049901068210602,0.4905247986316681,-0.2669481039047241
1696082966727996700,3.51499658203125,0.23090706765651703,0.3744603991508484,-0.44654250144958496
1696082966737996800,3.524996826171875,0.3243694305419922,0.28466320037841797,-0.608421802520752
1696082966747996700,3.53499658203125,0.42638394236564636,0.20586158335208893,-0.7580837607383728
1696082966757996800,3.544996826171875,0.5198463201522827,0.11667526513338089,-0.8955284357070923
1696082966767996700,3.55499658203125,0.5815436840057373,0.05925392732024193,-1.0219775438308716
1696082966777996800,3.564996826171875,0.5931501388549805,0.04337143152952194,-1.1331549882888794
1696082966787996700,3.57499658203125,0.5601634383201599,0.0861319974064827,-1.2101240158081055
1696082966797996800,3.584996826171875,0.49846604466438293,0.19547687470912933,-1.2162326574325562
1696082966807996700,3.59499658203125,0.42577308416366577,0.3891211748123169,-1.1527026891708374
1696082966817996800,3.604996826171875,0.3585779070854187,0.6688974499702454,-1.083064079284668
1696082966827996700,3.61499658203125,0.2938261926174164,0.9065240025520325,-1.0396926403045654
1696082966837996800,3.624996826171875,0.22540926933288574,0.9059131741523743,-0.9865473508834839
1696082966847996700,3.63499658203125,0.1563815027475357,0.6279694437980652,-0.8527678847312927
1696082966857996500,3.64499658203125,0.10018189996480942,0.22540926933288574,-0.6188064813613892
1696082966867996700,3.65499658203125,0.042760565876960754,-0.22113321721553802,-0.32681289315223694
1696082966877996500,3.66499658203125,-0.04398229718208313,-0.608421802520752,-0.051312681287527084
1696082966887996700,3.67499658203125,-0.09529497474431992,-0.8203920125961304,0.054367005825042725
1696082966897996800,3.684996826171875,-0.09529497474431992,-0.8491026759147644,-0.09957103431224823
1696082966907996700,3.69499658203125,-0.05803219974040985,-0.8717046976089478,-0.43615779280662537
1696082966917996800,3.704996826171875,-0.006719517521560192,-1.1716395616531372,-0.7623597979545593
1696082966927996700,3.71499658203125,0.060475658625364304,-1.626123309135437,-0.9773843884468079
1696082966937996800,3.724996826171875,0.182648703455925,-1.9352210760116577,-1.072068452835083
1696082966947996700,3.73499658203125,0.33597588539123535,-2.0079140663146973,-0.9932668805122375
1696082966957996800,3.744996826171875,0.44593164324760437,-1.737911581993103,-0.7312057018280029
1696082966967996700,3.75499658203125,0.48747047781944275,-1.0897835493087769,-0.36651915311813354
1696082966977996800,3.764996826171875,0.5186246037483215,-0.26083946228027344,-0.021380282938480377
1696082966987996700,3.77499658203125,0.5748242139816284,0.38667771220207214,0.06963863968849182
1696082966997996800,3.784996826171875,0.637132465839386,0.5161811113357544,-0.05314527451992035
1696082967007996700,3.79499658203125,0.6951646208763123,0.3127630054950714,-0.19058994948863983
1696082967017996800,3.804996826171875,0.7867944240570068,0.001832595793530345,-0.3280346393585205
1696082967027996700,3.81499658203125,0.8772025108337402,-0.3634648323059082,-0.5338962078094482
1696082967037996500,3.82499658203125,0.9572258591651917,-0.7031059265136719,-0.8258898258209229
1696082967047996700,3.83499658203125,1.007927656173706,-0.9169087409973145,-1.10139000415802
1696082967057996800,3.844996826171875,0.9828822016716003,-0.8778133392333984,-1.2571606636047363
1696082967067996700,3.85499658203125,0.8979719281196594,-0.6670648455619812,-1.3194689750671387
1696082967077996800,3.864996826171875,0.8790351152420044,-0.37751471996307373,-1.2883148193359375
1696082967087996700,3.87499658203125,0.9321803450584412,-0.07941248267889023,-1.166752576828003
1696082967097996800,3.884996826171875,0.9969320893287659,0.15882496535778046,-1.0250319242477417
1696082967107996700,3.89499658203125,1.0286970138549805,0.2993239760398865,-0.9272934198379517
1696082967117996800,3.904996826171875,1.034194827079773,0.21868975460529327,-1.0012081861495972
1696082967127996700,3.91499658203125,1.0225883722305298,-0.17287486791610718,-1.29381263256073
1696082967137996800,3.924996826171875,0.9535606503486633,-0.7965682744979858,-1.6322319507598877
1696082967147996700,3.93499658203125,0.8026769161224365,-1.444696307182312,-1.7873916625976562
1696082967157996800,3.944996826171875,0.598647952079773,-1.8374826908111572,-1.6957619190216064
1696082967167996700,3.95499658203125,0.4031710624694824,-1.7470746040344238,-1.3921618461608887
1696082967177996800,3.964996826171875,0.25961771607398987,-1.2235630750656128,-0.9865473508834839
1696082967187996700,3.97499658203125,0.19486601650714874,-0.6041457056999207,-0.6023131608963013
1696082967197996800,3.984996826171875,0.1869247704744339,-0.11850785464048386,-0.33108896017074585
1696082967207996700,3.99499658203125,0.20036379992961884,-0.00366519158706069,-0.17959438264369965
1696082967217996800,4.004996826171875,0.1966986060142517,-0.18631389737129211,-0.12400564551353455
1696082967227996700,4.01499658203125,0.2076941877603531,-0.5076290369033813,-0.1160643994808197
1696082967237996800,4.024996826171875,0.252287358045578,-0.7654141783714294,-0.13744467496871948
1696082967247996700,4.03499658203125,0.3280346393585205,-0.8283332586288452,-0.18936823308467865
1696082967257996800,4.044996826171875,0.4294382631778717,-0.7367035150527954,-0.2730567753314972
1696082967267996700,4.05499658203125,0.5308418869972229,-0.5827654600143433,-0.39217549562454224
1696082967277996500,4.06499658203125,0.6096435189247131,-0.3787364661693573,-0.5106833577156067
1696082967287996700,4.07499658203125,0.6542366743087769,-0.26939156651496887,-0.6188064813613892
1696082967297996800,4.084996826171875,0.6389650702476501,-0.35552358627319336,-0.7678576111793518
1696082967307996700,4.09499658203125,0.6133087277412415,-0.4758640229701996,-0.8979719281196594
1696082967317996800,4.104996826171875,0.5925393104553223,-0.5864306092262268,-0.950506329536438
1696082967327996700,4.11499658203125,0.5662720799446106,-0.665232241153717,-0.9272934198379517
1696082967337996800,4.124996826171875,0.5302310585975647,-0.6884451508522034,-0.8680394887924194
1696082967347996700,4.13499658203125,0.4905247986316681,-0.6432411074638367,-0.8118399381637573
1696082967357996800,4.144996826171875,0.46731191873550415,-0.5253441333770752,-0.7654141783714294
1696082967367996700,4.15499658203125,0.47769662737846375,-0.3854559659957886,-0.7379252314567566
1696082967377996800,4.164996826171875,0.513737678527832,-0.2565633952617645,-0.7336491346359253
1696082967387996700,4.17499658203125,0.5693264007568359,-0.19120082259178162,-0.7580837607383728
1696082967397996800,4.184996826171875,0.6383541822433472,-0.22296582162380219,-0.7874053120613098
1696082967407996700,4.19499658203125,0.7250970602035522,-0.36651915311813354,-0.7721336483955383
1696082967417996800,4.204996826171875,0.8155050873756409,-0.5778785347938538,-0.655458390712738
1696082967427996700,4.21499658203125,0.8985827565193176,-0.7739662528038025,-0.43615779280662537
1696082967437996800,4.224996826171875,0.9621127843856812,-0.8411614298820496,-0.14966198801994324
1696082967447996700,4.23499658203125,0.99876469373703,-0.7006624341011047,0.1270599663257599
1696082967457996800,4.244996826171875,1.0024298429489136,-0.43799036741256714,0.323147714138031
1696082967467996700,4.25499658203125,0.9669997096061707,-0.2168571650981903,0.3891211748123169
1696082967477996500,4.26499658203125,0.8692612648010254,-0.15760323405265808,0.3084869384765625
1696082967487996700,4.27499658203125,0.6835582256317139,-0.22663100063800812,0.14049901068210602
1696082967497996500,4.28499658203125,0.40072759985923767,-0.26939156651496887,0.02626720629632473
1696082967507996700,4.29499658203125,0.0354301854968071,-0.1966986060142517,0.0555887371301651
1696082967517996500,4.30499658203125,-0.35613444447517395,-0.045204028487205505,0.24190263450145721
1696082967527996700,4.31499658203125,-0.6890559792518616,0.1368338167667389,0.5393940210342407
1696082967537996800,4.324996826171875,-0.9205739498138428,0.39095374941825867,0.9205739498138428
1696082967547996700,4.33499658203125,-1.10139000415802,0.7556403279304504,1.3628404140472412
1696082967557996800,4.344996826171875,-1.3182471990585327,1.120937705039978,1.7745635509490967
1696082967567996700,4.35499658203125,-1.5919147729873657,1.2131783962249756,2.023796558380127
1696082967577996800,4.364996826171875,-1.8973474502563477,1.102611780166626,2.2003366947174072
1696082967587996700,4.37499658203125,-2.216830015182495,0.8503243923187256,2.3860397338867188
1696082967597996800,4.384996826171875,-2.4697282314300537,0.41722095012664795,2.5479190349578857
1696082967607996700,4.39499658203125,-2.5839600563049316,-0.2015855312347412,2.705522060394287
1696082967617996800,4.404996826171875,-2.538145065307617,-0.978606104850769,2.8606820106506348
1696082967627996700,4.41499658203125,-2.3890938758850098,-1.6798794269561768,2.9376509189605713
1696082967637996500,4.42499658203125,-2.1844542026519775,-1.9853121042251587,2.791043281555176
1696082967647996700,4.43499658203125,-1.9101755619049072,-1.8887953758239746,2.4391849040985107
1696082967657996500,4.44499658203125,-1.5778648853302002,-1.513113260269165,1.9755382537841797
1696082967667996700,4.45499658203125,-1.273043155670166,-0.9566149711608887,1.4899003505706787
1696082967677996500,4.46499658203125,-1.0989465713500977,-0.33719760179519653,1.1056660413742065
1696082967687996700,4.47499658203125,-1.0231993198394775,0.08368854224681854,0.9260717034339905
1696082967697996500,4.48499658203125,-0.969443142414093,0.2565633952617645,0.9902125597000122
1696082967707996700,4.49499658203125,-0.9584475755691528,0.34086281061172485,1.197906732559204
1696082967717996500,4.50499658203125,-1.0152580738067627,0.4092797040939331,1.4123204946517944
1696082967727996700,4.51499658203125,-1.091616153717041,0.44593164324760437,1.5234979391098022
1696082967737996800,4.524996826171875,-1.158811330795288,0.41722095012664795,1.522887110710144
1696082967747996700,4.53499658203125,-1.2131783962249756,0.29077184200286865,1.470963478088379
1696082967757996800,4.544996826171875,-1.2431107759475708,0.09529497474431992,1.3994922637939453
1696082967767996700,4.55499658203125,-1.2541064023971558,-0.10018189996480942,1.2986994981765747
1696082967777996800,4.564996826171875,-1.2822061777114868,-0.11667526513338089,1.151481032371521
1696082967787996700,4.57499658203125,-1.2864822149276733,0.03237585723400116,1.0207557678222656
1696082967797996800,4.584996826171875,-1.2638801336288452,0.21930062770843506,0.9419541954994202
1696082967807996700,4.59499658203125,-1.2217304706573486,0.3799581825733185,0.8955284357070923
1696082967817996800,4.604996826171875,-1.1386528015136719,0.5094616413116455,0.8491026759147644
1696082967827996700,4.61499658203125,-1.0299187898635864,0.6695083379745483,0.7764097452163696
1696082967837996800,4.624996826171875,-0.9077457785606384,0.8429940342903137,0.6798930168151855
1696082967847996700,4.63499658203125,-0.7574729323387146,1.0366383790969849,0.6053674817085266
1696082967857996500,4.64499658203125,-0.5870414972305298,1.1905763149261475,0.5229006409645081
1696082967867996700,4.65499658203125,-0.4239404797554016,1.2754865884780884,0.413555771112442
1696082967877996500,4.66499658203125,-0.2816088795661926,1.2663236856460571,0.27977627515792847
1696082967887996700,4.67499658203125,-0.14966198801994324,1.1594222784042358,0.1264491081237793
1696082967897996500,4.68499658203125,-0.02321287989616394,1.0036516189575195,-0.039095375686883926
1696082967907996700,4.69499658203125,0.09651670604944229,0.8790351152420044,-0.21807889640331268
1696082967917996500,4.70499658203125,0.20891591906547546,0.7910705208778381,-0.40683624148368835
1696082967927996700,4.71499658203125,0.3378084897994995,0.6914994716644287,-0.5968153476715088
1696082967937996300,4.724996337890625,0.5015203952789307,0.5589417219161987,-0.8045095205307007
1696082967947996200,4.73499609375,0.7018841505050659,0.4294382631778717,-1.035416603088379
1696082967957996300,4.744996337890625,0.912021815776825,0.36102136969566345,-1.2803735733032227
1696082967967996200,4.75499609375,1.0586295127868652,0.37140607833862305,-1.5338826179504395
1696082967977996300,4.764996337890625,1.0836749076843262,0.4593706727027893,-1.7623462677001953
1696082967987996200,4.77499609375,0.9841039180755615,0.6304129362106323,-1.8509217500686646
1696082967997996300,4.784996337890625,0.7611380815505981,0.8576548099517822,-1.616349458694458
1696082968007996200,4.79499609375,0.45326200127601624,1.2376129627227783,-1.2180652618408203
1696082968017996300,4.804996337890625,0.2168571650981903,1.4569135904312134,-1.0958921909332275
1696082968027996200,4.81499609375,0.11972958594560623,1.1465940475463867,-1.19912850856781
1696082968037996300,4.824996337890625,0.10506882518529892,0.2174680233001709,-1.1215485334396362
1696082968047996200,4.83499609375,0.02932153269648552,-0.9352346658706665,-0.6670648455619812
1696082968057996300,4.844996337890625,-0.1716531366109848,-1.7647897005081177,-0.13866640627384186
1696082968067996200,4.85499609375,-0.33292156457901,-2.166128158569336,0.1973094791173935
1696082968077996300,4.864996337890625,-0.39156460762023926,-2.0867156982421875,0.26511552929878235
1696082968087996200,4.87499609375,-0.3341432809829712,-1.6896532773971558,0.10201449692249298
1696082968097996300,4.884996337890625,-0.14477506279945374,-1.1520918607711792,-0.24434609711170197
1696082968107996200,4.89499609375,0.19364428520202637,-0.8808676600456238,-0.6017022728919983
1696082968117996300,4.904996337890625,0.5094616413116455,-0.9627236127853394,-0.8533787727355957
1696082968127996200,4.91499609375,0.7183775305747986,-1.1826350688934326,-0.9083566069602966
1696082968137996300,4.924996337890625,0.7672467231750488,-1.3255776166915894,-0.5900958180427551
1696082968147996200,4.93499609375,0.6157521605491638,-0.9773843884468079,-0.07819075137376785
1696082968157996300,4.944996337890625,0.43676865100860596,-0.3952298164367676,0.2638937830924988
1696082968167996200,4.95499609375,0.38606682419776917,0.5070181488990784,0.2779437005519867
1696082968177996300,4.964996337890625,0.5070181488990784,1.2418889999389648,-0.06841690838336945
1696082968187996200,4.97499609375,0.6798930168151855,1.3463469743728638,-0.2718350291252136
1696082968197996300,4.984996337890625,0.7806857824325562,1.1850786209106445,-0.2828305959701538
1696082968207996200,4.99499609375,0.770301103591919,0.7709119319915771,-0.32070425152778625
1696082968217996300,5.004996337890625,0.7812966704368591,0.1514945775270462,-0.513126790523529
1696082968227996200,5.01499609375,0.8765916228294373,-0.37079519033432007,-0.797789990901947
1696082968237996500,5.02499658203125,0.9474520087242126,-0.7263187766075134,-1.1056660413742065
1696082968247996700,5.03499658203125,0.9040805697441101,-0.7513642311096191,-1.3658946752548218
1696082968257996500,5.04499658203125,0.8228355050086975,-0.43188172578811646,-1.4801265001296997
1696082968267996700,5.05499658203125,0.8051204085350037,0.11178833991289139,-1.3628404140472412
1696082968277996500,5.06499658203125,0.8423831462860107,0.7000515460968018,-1.0983357429504395
1696082968287996700,5.07499658203125,0.8912523984909058,1.1246029138565063,-0.8533787727355957
1696082968297996500,5.08499658203125,0.9187413454055786,1.274264931678772,-0.789237916469574
1696082968307996700,5.09499658203125,0.9193521738052368,1.0238101482391357,-1.0183123350143433
1696082968317996500,5.10499658203125,0.8790351152420044,0.3799581825733185,-1.4330898523330688
1696082968327996700,5.11499658203125,0.759305477142334,-0.42149701714515686,-1.7299703359603882
1696082968337996000,5.12499609375,0.5644394755363464,-1.0384708642959595,-1.7556266784667969
1696082968347996000,5.134995849609375,0.3384193480014801,-1.2162326574325562,-1.5210545063018799
1696082968357996000,5.14499609375,0.1563815027475357,-0.9437867999076843,-1.1368201971054077
1696082968367996000,5.154995849609375,0.06536258012056351,-0.4489859640598297,-0.7470881938934326
1696082968377996000,5.16499609375,0.0959058403968811,0.09224065393209457,-0.4801400899887085
1696082968387996000,5.174995849609375,0.18387043476104736,0.4709770977497101,-0.37568211555480957
1696082968397996000,5.18499609375,0.28527405858039856,0.5497786998748779,-0.37201693654060364
1696082968407996000,5.194995849609375,0.3878994286060333,0.3139847218990326,-0.43615779280662537
1696082968417996000,5.20499609375,0.4795292317867279,-0.05619960278272629,-0.5528330206871033
1696082968427996000,5.214995849609375,0.5558874011039734,-0.3286454975605011,-0.656680166721344
1696082968437996000,5.22499609375,0.6475171446800232,-0.44165557622909546,-0.7171558141708374
1696082968448265000,5.235264892578125,0.7031059265136719,-0.5760459303855896,-0.7654141783714294
1696082968458264800,5.245264892578125,0.7018841505050659,-0.6285803318023682,-0.7800748944282532
1696082968468265000,5.255264892578125,0.6633996367454529,-0.6603453159332275,-0.7855727076530457
1696082968478264800,5.265264892578125,0.6420193910598755,-0.7000515460968018,-0.7959573864936829
1696082968488265000,5.275264892578125,0.6352998614311218,-0.740368664264679,-0.7916813492774963
1696082968498264800,5.285264892578125,0.6316346526145935,-0.8038986921310425,-0.750142514705658
1696082968508265000,5.295264892578125,0.6243042945861816,-0.7959573864936829,-0.6572909951210022
1696082968518264800,5.305264892578125,0.5974262356758118,-0.6725626587867737,-0.5748242139816284
1696082968528265000,5.315264892578125,0.5699372887611389,-0.5290092825889587,-0.5485569834709167
1696082968538264800,5.325264892578125,0.5723807215690613,-0.43188172578811646,-0.6053674817085266
1696082968548265000,5.335264892578125,0.6145304441452026,-0.40622538328170776,-0.7440338730812073
1696082968558264800,5.345264892578125,0.6957755088806152,-0.4740314185619354,-0.9388998746871948
1696082968568265000,5.355264892578125,0.8063421249389648,-0.588263213634491,-1.0787880420684814
1696082968578264000,5.36526416015625,0.9034696817398071,-0.6285803318023682,-1.0140362977981567
1696082968588264200,5.37526416015625,0.941343367099762,-0.5076290369033813,-0.7031059265136719
1696082968598264000,5.38526416015625,0.921795666217804,-0.2669481039047241,-0.26145032048225403
1696082968608264200,5.39526416015625,0.8918632864952087,-0.021991148591041565,0.15515977144241333
1696082968618264000,5.40526416015625,0.8839219808578491,0.18875735998153687,0.44715335965156555
1696082968628264200,5.41526416015625,0.8796459436416626,0.34513887763023376,0.5699372887611389
1696082968638264800,5.425264892578125,0.8301658630371094,0.3830125033855438,0.4996877610683441
1696082968648264700,5.4352646484375,0.6829473376274109,0.24373523890972137,0.22418753802776337
1696082968658264800,5.445264892578125,0.3927863538265228,-0.01038470957428217,-0.14294247329235077
1696082968668264700,5.4552646484375,0.018936822190880775,-0.2632829248905182,-0.36590829491615295
1696082968678264800,5.465264892578125,-0.3390302062034607,-0.43737950921058655,-0.26939156651496887
1696082968688264700,5.4752646484375,-0.6517932415008545,-0.4813618063926697,0.152105450630188
1696082968698264800,5.485264892578125,-0.9419541954994202,-0.3029891550540924,0.769079327583313
1696082968708264700,5.4952646484375,-1.2052371501922607,-0.07024950534105301,1.38849675655365
1696082968718264800,5.505264892578125,-1.3738359212875366,-0.03848451003432274,1.872912883758545
1696082968728264700,5.5152646484375,-1.42637038230896,-0.09529497474431992,2.2577579021453857
1696082968738264800,5.525264892578125,-1.4587461948394775,0.1062905490398407,2.6481008529663086
1696082968748264700,5.5352646484375,-1.5839735269546509,0.5613851547241211,2.9303205013275146
1696082968758264800,5.545264892578125,-1.6908750534057617,1.006095051765442,2.976135492324829
1696082968768264700,5.5552646484375,-1.99752938747406,1.156978726387024,2.9046642780303955
1696082968778264800,5.565264892578125,-2.3414463996887207,1.1649199724197388,2.632218360900879
1696082968788264700,5.5752646484375,-2.56868839263916,0.6493497490882874,2.367713689804077
1696082968798264800,5.585264892578125,-2.5528059005737305,-0.1612684279680252,2.277916431427002
1696082968808264700,5.5952646484375,-2.3017401695251465,-1.0231993198394775,2.3658812046051025
1696082968818264800,5.605264892578125,-1.9798142910003662,-1.804495930671692,2.459954261779785
1696082968828264700,5.6152646484375,-1.7024813890457153,-2.3273966312408447,2.291966438293457
1696082968838264800,5.625264892578125,-1.5070046186447144,-2.2125539779663086,1.8020524978637695
1696082968848264700,5.6352646484375,-1.3322970867156982,-1.709811806678772,1.2162326574325562
1696082968858264600,5.6452646484375,-1.1948524713516235,-1.341460108757019,0.8918632864952087
1696082968868264700,5.6552646484375,-1.171028733253479,-0.8747590184211731,0.8332201838493347
1696082968878265600,5.665265625,-1.2431107759475708,-0.2638937830924988,0.9492846131324768
1696082968888265500,5.675265380859375,-1.273043155670166,0.35674530267715454,1.0500773191452026
1696082968898265600,5.685265625,-1.2553280591964722,0.8649851679801941,1.0506882667541504
1696082968908265500,5.695265380859375,-1.2131783962249756,1.1722503900527954,0.9871582388877869
1696082968918265600,5.705265625,-1.1753047704696655,1.3139711618423462,0.921184778213501
1696082968928265500,5.715265380859375,-1.1679743528366089,1.378722906112671,0.9040805697441101
1696082968938265600,5.725265625,-1.158811330795288,1.3176363706588745,0.9224064946174622
1696082968948265500,5.735265380859375,-1.1325441598892212,1.1301007270812988,0.9682214260101318
1696082968958265600,5.745265625,-1.1142182350158691,0.856433093547821,0.9950994849205017
1696082968968265500,5.755265380859375,-1.1264355182647705,0.607810914516449,0.9651671051979065
1696082968978265600,5.765265625,-1.1252137422561646,0.5021312236785889,0.8918632864952087
1696082968988265500,5.775265380859375,-1.0714576244354248,0.5894849896430969,0.7935139536857605
1696082968998265300,5.785265380859375,-0.9804387092590332,0.8307767510414124,0.6866125464439392
1696082969008265500,5.795265380859375,-0.8692612648010254,1.179580807685852,0.5839871764183044
1696082969018265300,5.805265380859375,-0.7586946487426758,1.547932505607605,0.4899139404296875
1696082969028265500,5.815265380859375,-0.6340781450271606,1.7757853269577026,0.4282165467739105
1696082969038265300,5.825265380859375,-0.49724429845809937,1.7696765661239624,0.37140607833862305
1696082969048265500,5.835265380859375,-0.3634648323059082,1.595579981803894,0.294437050819397
1696082969058265300,5.845265380859375,-0.24923302233219147,1.3390166759490967,0.17776179313659668
1696082969068265500,5.855265380859375,-0.1411098688840866,1.0488556623458862,0.0006108652451075613
1696082969078265300,5.865265380859375,-0.03481931984424591,0.7843509912490845,-0.2223549485206604
1696082969088265500,5.875265380859375,0.08246681094169617,0.5650503635406494,-0.455705463886261
1696082969098265600,5.885265625,0.22540926933288574,0.3604104816913605,-0.6823364496231079
1696082969108265500,5.895265380859375,0.3952298164367676,0.1508837193250656,-0.9010262489318848
1696082969118265600,5.905265625,0.578489363193512,-0.03787364438176155,-1.111163854598999
1696082969128265500,5.915265380859375,0.7446447610855103,-0.18081611394882202,-1.3139711618423462
1696082969138265600,5.925265625,0.8552113175392151,-0.23151792585849762,-1.5051720142364502
1696082969148265500,5.935265380859375,0.8796459436416626,-0.23640485107898712,-1.6676621437072754
1696082969158265600,5.945265625,0.8124507665634155,-0.21991148591041565,-1.7366899251937866
1696082969168265500,5.955265380859375,0.6835582256317139,-0.1111774742603302,-1.6273449659347534
1696082969178265600,5.965265625,0.5302310585975647,0.2119702398777008,-1.3469579219818115
1696082969188265500,5.975265380859375,0.4056145250797272,0.6743952035903931,-1.1355985403060913
1696082969198265600,5.985265625,0.3292563557624817,1.0787880420684814,-1.1423180103302002
1696082969208265500,5.995265380859375,0.3072652220726013,1.0708467960357666,-1.1673635244369507
1696082969218265600,6.005265625,0.30604347586631775,0.6255260109901428,-0.9957103729248047
1696082969228265500,6.015265380859375,0.21991148591041565,0.11545353382825851,-0.617584764957428
1696082969238265600,6.025265625,0.009773843921720982,-0.46242499351501465,-0.2125810980796814
1696082969248265500,6.035265380859375,-0.17837265133857727,-1.0097602605819702,0.06719517707824707
1696082969258265600,6.045265625,-0.25045475363731384,-1.367727279663086,0.06414084881544113
1696082969268265500,6.055265380859375,-0.22663100063800812,-1.7073683738708496,-0.1612684279680252
1696082969278265600,6.065265625,-0.1215621829032898,-2.1649065017700195,-0.4105014503002167
1696082969288265500,6.075265380859375,0.10262536257505417,-2.7519478797912598,-0.6298020482063293
1696082969298265600,6.085265625,0.3885102868080139,-3.246748685836792,-0.6976081132888794
1696082969308265500,6.095265380859375,0.5876523852348328,-3.232698917388916,-0.44165557622909546
1696082969318265600,6.105265625,0.5668829679489136,-2.331061840057373,0.00733038317412138
1696082969328265500,6.115265380859375,0.43127086758613586,-0.5571091175079346,0.5070181488990784
1696082969338265600,6.125265625,0.49846604466438293,0.9028588533401489,0.5693264007568359
1696082969348265500,6.135265380859375,0.7684684991836548,1.377501130104065,0.43188172578811646
1696082969358265600,6.145265625,1.0115928649902344,1.4752395153045654,0.3072652220726013
1696082969368265700,6.155265625,1.1093312501907349,1.5430456399917603,0.2217440903186798
1696082969378265600,6.165265625,1.1081095933914185,1.4624114036560059,0.015271631069481373
1696082969388265700,6.175265625,1.054964303970337,1.1374311447143555,-0.39217549562454224
1696082969398265600,6.185265625,1.0280861854553223,0.5974262356758118,-0.8674286603927612
1696082969408265700,6.195265625,1.036027431488037,0.1569923609495163,-1.1942415237426758
1696082969418265600,6.205265625,1.0170906782150269,-0.09896016865968704,-1.380555510520935
1696082969428265700,6.215265625,0.911410927772522,-0.06658431142568588,-1.3946053981781006
1696082969438265600,6.225265625,0.7965682744979858,0.18631389737129211,-1.2962560653686523
1696082969448265200,6.23526513671875,0.7733554244041443,0.4043927788734436,-1.2522737979888916
1696082969458265300,6.245265380859375,0.8637634515762329,0.29504790902137756,-1.4110987186431885
1696082969468265200,6.25526513671875,0.9321803450584412,0.0012217304902151227,-1.6377297639846802
1696082969478265000,6.26526513671875,0.9004153609275818,-0.38667771220207214,-1.8222110271453857
1696082969488265200,6.27526513671875,0.7623597979545593,-0.8405506014823914,-1.9248363971710205
1696082969498265000,6.28526513671875,0.5503895878791809,-1.2596040964126587,-1.9175059795379639
1696082969508265200,6.29526513671875,0.34697145223617554,-1.4465289115905762,-1.7605136632919312
1696082969518265000,6.30526513671875,0.21135938167572021,-1.2327260971069336,-1.4929546117782593
1696082969528265200,6.31526513671875,0.14049901068210602,-0.6426302194595337,-1.2327260971069336
1696082969538265300,6.325265380859375,0.10445795953273773,0.12461651116609573,-1.0329731702804565
1696082969548265200,6.33526513671875,0.09285151958465576,0.7727445363998413,-0.8778133392333984
1696082969558265300,6.345265380859375,0.1313360333442688,1.1331549882888794,-0.7147123217582703
1696082969568265200,6.35526513671875,0.23090706765651703,1.0427470207214355,-0.6004805564880371
1696082969578265300,6.365265380859375,0.37690386176109314,0.5002986192703247,-0.6224716901779175
1696082969588265200,6.37526513671875,0.4758640229701996,-0.18325957655906677,-0.7422012686729431
1696082969598265300,6.385265380859375,0.5357288122177124,-0.6633996367454529,-0.8619308471679688
1696082969608265200,6.39526513671875,0.5650503635406494,-1.1081095933914185,-0.9816604256629944
1696082969618265300,6.405265380859375,0.5571091175079346,-1.4422528743743896,-1.0170906782150269
1696082969628265200,6.41526513671875,0.5870414972305298,-1.5515977144241333,-0.9132435321807861
1696082969638265000,6.42526513671875,0.6597344875335693,-1.5570955276489258,-0.7293730974197388
1696082969648265200,6.43526513671875,0.7275404930114746,-1.5693128108978271,-0.5027421116828918
1696082969658265000,6.44526513671875,0.7727445363998413,-1.5711454153060913,-0.2877175211906433
1696082969668265200,6.45526513671875,0.7959573864936829,-1.4929546117782593,-0.13072516024112701
1696082969678265000,6.46526513671875,0.8228355050086975,-1.318858027458191,-0.09529497474431992
1696082969688265200,6.47526513671875,0.8491026759147644,-1.056796908378601,-0.21868975460529327
1696082969698265000,6.48526513671875,0.8509352803230286,-0.7159340381622314,-0.47830748558044434
1696082969708265200,6.49526513671875,0.8472700715065002,-0.35246923565864563,-0.7727445363998413
1696082969718265000,6.50526513671875,0.8539896011352539,-0.0806342139840126,-0.99876469373703
1696082969728265200,6.51526513671875,0.8759807348251343,0.036041051149368286,-1.091616153717041
1696082969738265000,6.52526513671875,0.8961393237113953,0.009162978269159794,-1.0213667154312134
1696082969748265500,6.535265380859375,0.8778133392333984,-0.07452555745840073,-0.7800748944282532
1696082969758265600,6.545265625,0.8014551997184753,-0.19975294172763824,-0.4349360466003418
1696082969768265500,6.555265380859375,0.7092145681381226,-0.3988949954509735,-0.09651670604944229
1696082969778265600,6.565265625,0.6957755088806152,-0.5943718552589417,0.18387043476104736
1696082969788265500,6.575265380859375,0.7641924023628235,-0.6597344875335693,0.39645153284072876
1696082969798265600,6.585265625,0.846659243106842,-0.5876523852348328,0.5424483418464661
1696082969808265500,6.595265380859375,0.8808676600456238,-0.4300491213798523,0.5601634383201599
1696082969818265600,6.605265625,0.8203920125961304,-0.30604347586631775,0.36163222789764404
1696082969828265500,6.615265380859375,0.6218608021736145,-0.23273965716362,0.036041051149368286
1696082969838265600,6.625265625,0.32986724376678467,-0.10384709388017654,-0.16065755486488342
1696082969848265500,6.635265380859375,0.021380282938480377,0.1814269721508026,-0.04092797264456749
1696082969858265600,6.645265625,-0.3127630054950714,0.5149593949317932,0.3292563557624817
1696082969868265500,6.655265380859375,-0.6860016584396362,0.6884451508522034,0.7770205736160278
1696082969878265600,6.665265625,-1.0531316995620728,0.6218608021736145,1.197295904159546
1696082969888265500,6.675265380859375,-1.3469579219818115,0.523511528968811,1.580308437347412
1696082969898265600,6.685265625,-1.6175711154937744,0.5748242139816284,1.9449949264526367
1696082969908265500,6.695265380859375,-1.9315558671951294,0.7739662528038025,2.2742512226104736
1696082969918265600,6.705265625,-2.2766947746276855,0.9547823667526245,2.520430088043213
1696082969928265500,6.715265380859375,-2.6108381748199463,1.027475357055664,2.657874584197998
1696082969938265600,6.725265625,-2.8374691009521484,0.8985827565193176,2.688417911529541
1696082969948265500,6.735265380859375,-2.881451368331909,0.4746423065662384,2.648711681365967
1696082969958265600,6.745265625,-2.7146852016448975,-0.22846360504627228,2.634661912918091
1696082969968265500,6.755265380859375,-2.4434609413146973,-0.8869763612747192,2.6358835697174072
1696082969978265600,6.765265625,-2.1624629497528076,-1.42637038230896,2.563190460205078
1696082969988264700,6.7752646484375,-1.9230037927627563,-1.7263051271438599,2.313957452774048
1696082969998264600,6.7852646484375,-1.6939293146133423,-1.7330247163772583,1.9046778678894043
1696082970008264700,6.7952646484375,-1.4899003505706787,-1.4178181886672974,1.4440854787826538
1696082970018264600,6.8052646484375,-1.3420709371566772,-0.9279043078422546,1.1655309200286865
1696082970028264700,6.8152646484375,-1.2638801336288452,-0.5088507533073425,1.1551461219787598
1696082970038264600,6.8252646484375,-1.218676209449768,-0.1258382350206375,1.2962560653686523
1696082970048264700,6.8352646484375,-1.1661417484283447,0.26022860407829285,1.4098769426345825
1696082970058264600,6.8452646484375,-1.1074986457824707,0.5467243790626526,1.4471397399902344
1696082970068264700,6.8552646484375,-1.0427470207214355,0.6817256212234497,1.4330898523330688
1696082970078264600,6.8652646484375,-0.9853256344795227,0.6872233748435974,1.3494013547897339
1696082970088264700,6.8752646484375,-0.96883225440979,0.6572909951210022,1.2107349634170532
1696082970098264600,6.8852646484375,-0.9920451641082764,0.6878342628479004,1.0965031385421753
1696082970108264700,6.8952646484375,-1.037249207496643,0.7293730974197388,1.0653489828109741
1696082970118264600,6.9052646484375,-1.0983357429504395,0.749531626701355,1.1007791757583618
1696082970128264700,6.9152646484375,-1.1905763149261475,0.6878342628479004,1.1325441598892212
1696082970138264600,6.9252646484375,-1.2675453424453735,0.5754350423812866,1.1227703094482422
1696082970148264700,6.9352646484375,-1.2870930433273315,0.5094616413116455,1.0433578491210938
1696082970158264600,6.9452646484375,-1.2400563955307007,0.6432411074638367,0.911410927772522
1696082970168265200,6.95526513671875,-1.1465940475463867,1.0317513942718506,0.7757988572120667
1696082970178265000,6.96526513671875,-1.0238101482391357,1.4862351417541504,0.6517932415008545
1696082970188265000,6.975264892578125,-0.8820894360542297,1.8295414447784424,0.5393940210342407
1696082970198265000,6.98526513671875,-0.7275404930114746,1.929112434387207,0.4404338300228119
1696082970208265200,6.99526513671875,-0.5674937963485718,1.796554684638977,0.33536502718925476
1696082970218265000,7.00526513671875,-0.4202753007411957,1.5534303188323975,0.1820378452539444
1696082970228265000,7.015264892578125,-0.28038713335990906,1.2919800281524658,-0.021991148591041565
1696082970238265000,7.02526513671875,-0.1258382350206375,1.0598511695861816,-0.24495697021484375
1696082970248264700,7.0352646484375,0.054367005825042725,0.8729264140129089,-0.4789183437824249
1696082970258264600,7.0452646484375,0.2583959996700287,0.7086036801338196,-0.7159340381622314
1696082970268264700,7.0552646484375,0.4691445231437683,0.5320636034011841,-0.9804387092590332
1696082970278264600,7.0652646484375,0.675616979598999,0.34208452701568604,-1.284038782119751
1696082970288265500,7.075265380859375,0.8686503767967224,0.14355333149433136,-1.616349458694458
1696082970298265600,7.085265625,0.99876469373703,0.04337143152952194,-1.940108060836792
1696082970308265500,7.095265380859375,1.036027431488037,0.09407325088977814,-2.1875083446502686
1696082970318265600,7.105265625,0.9957103729248047,0.2938261926174164,-2.261423110961914
1696082970328265700,7.115265625,0.8881980776786804,0.5589417219161987,-2.02929425239563
1696082970338265900,7.125265869140625,0.685390830039978,0.8686503767967224,-1.5106697082519531
1696082970348265700,7.135265625,0.4043927788734436,1.0018190145492554,-1.141707181930542
1696082970358265900,7.145265869140625,0.09346238523721695,0.50335294008255,-1.0299187898635864
1696082970368265700,7.155265625,-0.1814269721508026,-0.645684540271759,-1.014647126197815
1696082970378265900,7.165265869140625,-0.3127630054950714,-1.8545868396759033,-0.8240572214126587
1696082970388265700,7.175265625,-0.23151792585849762,-2.509434461593628,-0.34513887763023376
1696082970398265900,7.185265869140625,-0.1062905490398407,-2.551584243774414,0.1667662113904953
1696082970408265700,7.195265625,-0.0708603709936142,-2.1985039710998535,0.3842342495918274
1696082970418265900,7.205265869140625,-0.05009094998240471,-1.550986886024475,0.2217440903186798
1696082970428265700,7.215265625,0.13500121235847473,-0.8967501521110535,-0.22663100063800812
1696082970438265900,7.225265869140625,0.5180137157440186,-0.5717698931694031,-0.6725626587867737
1696082970448265700,7.235265625,0.9334021210670471,-0.6872233748435974,-1.015868902206421
1696082970458265900,7.245265869140625,1.2473868131637573,-1.0231993198394775,-1.0207557678222656
1696082970468265200,7.25526513671875,1.2870930433273315,-1.0109820365905762,-0.598647952079773
1696082970478265300,7.265265380859375,1.0891727209091187,-0.6352998614311218,-0.03787364438176155
1696082970488265700,7.275265625,0.799011766910553,-0.3066543638706207,0.2816088795661926
1696082970498265900,7.285265869140625,0.49296826124191284,0.33719760179519653,-0.06291911751031876
1696082970508265700,7.295265625,0.36651915311813354,0.3225368559360504,-0.37262779474258423
1696082970518265900,7.305265869140625,0.4538728892803192,0.03420845419168472,-0.3188716471195221
1696082970528265700,7.315265625,0.588874101638794,-0.2021963894367218,-0.2480112910270691
1696082970538265900,7.325265869140625,0.7800748944282532,-0.3390302062034607,-0.45875978469848633
1696082970548266200,7.335266357421875,1.0494664907455444,-0.6438519954681396,-0.8576548099517822
1696082970558266000,7.34526611328125,1.3426817655563354,-0.8381071090698242,-1.189354658126831
1696082970568266200,7.355266357421875,1.5418238639831543,-0.6334672570228577,-1.5008958578109741
1696082970578266400,7.365266357421875,1.549154281616211,-0.17348572611808777,-1.7696765661239624
1696082970588266200,7.375266357421875,1.3194689750671387,0.4050036668777466,-1.8380935192108154
1696082970598266000,7.38526611328125,0.9456194043159485,0.8863654732704163,-1.7146987915039062
1696082970608266200,7.395266357421875,0.6279694437980652,1.0922271013259888,-1.445918083190918
1696082970618266000,7.40526611328125,0.4489859640598297,1.1007791757583618,-1.1814134120941162
1696082970628266000,7.415265869140625,0.4306600093841553,0.9682214260101318,-1.150259256362915
1696082970638265900,7.425265869140625,0.5265658497810364,0.608421802520752,-1.4037683010101318
1696082970648266200,7.435266357421875,0.5558874011039734,-0.006108652334660292,-1.6108516454696655
1696082970658266400,7.445266357421875,0.4202753007411957,-0.7483099102973938,-1.492343783378601
1696082970668266200,7.455266357421875,0.21868975460529327,-1.3054190874099731,-1.0781772136688232
1696082970678266400,7.465266357421875,0.07757988572120667,-1.4758504629135132,-0.5778785347938538
1696082970688266200,7.475266357421875,0.05864306539297104,-1.3249666690826416,-0.17776179313659668
1696082970698266400,7.485266357421875,0.1459967941045761,-1.0109820365905762,0.04642575979232788
1696082970708266200,7.495266357421875,0.2767219543457031,-0.6157521605491638,0.10873401165008545
1696082970718266400,7.505266357421875,0.4147774875164032,-0.29077184200286865,0.05619960278272629
1696082970728266200,7.515266357421875,0.5577199459075928,-0.1716531366109848,-0.08674286305904388
1696082970738266400,7.525266357421875,0.7018841505050659,-0.16310101747512817,-0.31459560990333557
1696082970748266200,7.535266357421875,0.8289441466331482,-0.14538592100143433,-0.5955936312675476
1696082970758266400,7.545266357421875,0.9431759119033813,-0.16554448008537292,-0.8930850028991699
1696082970768266200,7.555266357421875,1.0067058801651,-0.23884831368923187,-1.1679743528366089
1696082970778266400,7.565266357421875,1.016479730606079,-0.39095374941825867,-1.3573426008224487
1696082970788265700,7.575265625,1.006095051765442,-0.5424483418464661,-1.370781660079956
1696082970798265900,7.585265869140625,0.9712757468223572,-0.645684540271759,-1.226617455482483
1696082970808265700,7.595265625,0.8869763612747192,-0.7525860071182251,-0.9957103729248047
1696082970818265900,7.605265869140625,0.7739662528038025,-0.836885392665863,-0.7305948138237
1696082970828265700,7.615265625,0.6682865619659424,-0.797789990901947,-0.513737678527832
1696082970838265900,7.625265869140625,0.6065891981124878,-0.6707300543785095,-0.423329621553421
1696082970848265700,7.635265625,0.6035348773002625,-0.5241223573684692,-0.4789183437824249
1696082970858265900,7.645265869140625,0.6432411074638367,-0.3543018400669098,-0.6316346526145935
1696082970868265700,7.655265625,0.7116580009460449,-0.18631389737129211,-0.7922922372817993
1696082970878265900,7.665265869140625,0.8032878041267395,-0.08185594528913498,-0.8552113175392151
1696082970888265700,7.675265625,0.9010262489318848,-0.08857546001672745,-0.7281513810157776
1696082970898265900,7.685265869140625,0.9773843884468079,-0.22357667982578278,-0.43615779280662537
1696082970908265700,7.695265625,1.0005972385406494,-0.47769662737846375,-0.10018189996480942
1696082970918265900,7.705265869140625,0.9938777685165405,-0.749531626701355,0.19058994948863983
1696082970928265700,7.715265625,1.0030407905578613,-0.8649851679801941,0.4056145250797272
1696082970938265900,7.725265869140625,1.0293079614639282,-0.7428121566772461,0.5442809462547302
1696082970948265500,7.735265380859375,1.0305296182632446,-0.45753806829452515,0.5516113042831421
1696082970958265600,7.745265625,0.9388998746871948,-0.17592918872833252,0.3396410644054413
1696082970968265500,7.755265380859375,0.6957755088806152,-0.048258353024721146,-0.036041051149368286
1696082970978265600,7.765265625,0.3481931984424591,-0.06841690838336945,-0.2981022298336029
1696082970988265500,7.775265380859375,0.009773843921720982,-0.11056660860776901,-0.16737708449363708
1696082970998265600,7.785265625,-0.30543261766433716,-0.05925392732024193,0.35674530267715454
1696082971008265500,7.795265380859375,-0.6310238242149353,0.182648703455925,1.0641272068023682
1696082971018265600,7.805265625,-0.9419541954994202,0.3836233615875244,1.670716404914856
1696082971028265500,7.815265380859375,-1.177748203277588,0.41111230850219727,2.048841953277588
1696082971038265600,7.825265625,-1.361007809638977,0.41233405470848083,2.3157901763916016
1696082971048265500,7.835265380859375,-1.6114624738693237,0.5919284224510193,2.56563401222229
1696082971058265600,7.845265625,-2.0146336555480957,0.778853178024292,2.730567693710327
1696082971068265500,7.855265380859375,-2.538145065307617,0.8338310718536377,2.718350410461426
1696082971078265600,7.865265625,-2.984076738357544,0.7654141783714294,2.5699100494384766
1696082971088265500,7.875265380859375,-3.155118942260742,0.48869219422340393,2.425745964050293
1696082971098265600,7.885265625,-3.0280590057373047,0.01038470957428217,2.37626576423645
1696082971108265500,7.895265380859375,-2.7152960300445557,-0.46303585171699524,2.431854486465454
1696082971118265600,7.905265625,-2.326174736022949,-0.940732479095459,2.5521950721740723
1696082971128265000,7.915264892578125,-1.9706512689590454,-1.4080443382263184,2.503936529159546
1696082971138265000,7.92526513671875,-1.701259732246399,-1.5375478267669678,2.2040019035339355
1696082971148265000,7.935264892578125,-1.4776830673217773,-1.2192870378494263,1.722640037536621
1696082971158265000,7.94526513671875,-1.3225232362747192,-0.5962044596672058,1.2822061777114868
1696082971168265000,7.955264892578125,-1.2583824396133423,-0.09712757170200348,1.1435397863388062
1696082971178265000,7.96526513671875,-1.2785409688949585,0.152105450630188,1.2345587015151978
1696082971188265000,7.975264892578125,-1.3084733486175537,0.25595253705978394,1.3628404140472412
1696082971198265000,7.98526513671875,-1.3280210494995117,0.32070425152778625,1.4092661142349243
1696082971208265000,7.995264892578125,-1.330464482307434,0.3701843321323395,1.348179578781128
1696082971218265000,8.00526513671875,-1.340238332748413,0.3543018400669098,1.2412781715393066
1696082971228265000,8.015264892578125,-1.3738359212875366,0.3084869384765625,1.1184942722320557
1696082971238265000,8.02526513671875,-1.4147639274597168,0.3219259977340698,1.0054842233657837
1696082971248265000,8.035264892578125,-1.4715744256973267,0.4538728892803192,0.9376781582832336
1696082971258265000,8.04526513671875,-1.5106697082519531,0.6407976150512695,0.9352346658706665
1696082971268265000,8.055264892578125,-1.5082262754440308,0.7519751191139221,0.9865473508834839
1696082971278265000,8.06526513671875,-1.4789047241210938,0.7843509912490845,1.018923282623291
1696082971288265000,8.075264892578126,-1.4001030921936035,0.8692612648010254,1.0128145217895508
1696082971298265000,8.08526513671875,-1.2736539840698242,1.0793988704681396,0.9529497623443604
1696082971308265000,8.095264892578125,-1.1264355182647705,1.4288138151168823,0.8429940342903137
1696082971318265000,8.10526513671875,-0.988379955291748,1.8387043476104736,0.7116580009460449
1696082971328265000,8.115264892578125,-0.8533787727355957,2.072054862976074,0.5717698931694031
1696082971338265000,8.12526513671875,-0.7165449261665344,2.026850938796997,0.44226643443107605
1696082971348265000,8.135264892578125,-0.5717698931694031,1.8099937438964844,0.3023782968521118
1696082971358265000,8.14526513671875,-0.4147774875164032,1.549154281616211,0.13011430203914642
1696082971368265000,8.155264892578124,-0.24923302233219147,1.312138557434082,-0.0910189226269722
1696082971378265000,8.16526513671875,-0.05925392732024193,1.0555751323699951,-0.35552358627319336
1696082971388265000,8.175264892578125,0.16737708449363708,0.769079327583313,-0.6536257863044739
1696082971398265000,8.18526513671875,0.4141666293144226,0.6059783101081848,-0.970054030418396
1696082971408265000,8.195264892578125,0.6627888083457947,0.513126790523529,-1.3213015794754028
1696082971418265000,8.20526513671875,0.8759807348251343,0.413555771112442,-1.711033582687378
1696082971428265500,8.215265380859375,0.9938777685165405,0.3237585723400116,-2.10809588432312
1696082971438265600,8.225265625,1.0390818119049072,0.32009339332580566,-2.4355196952819824
1696082971448265500,8.235265380859374,1.0317513942718506,0.4398229718208313,-2.657874584197998
1696082971458265600,8.245265625,0.9431759119033813,0.6902777552604675,-2.691472291946411
1696082971468265500,8.255265380859376,0.6835582256317139,1.0561859607696533,-2.2461514472961426
1696082971478265600,8.265265625,0.22479841113090515,1.5253305435180664,-1.7238616943359375
1696082971488265500,8.275265380859375,-0.20525072515010834,1.3182471990585327,-1.5241087675094604
1696082971498265600,8.285265625,-0.41172316670417786,0.17409659922122955,-1.2822061777114868
1696082971508265500,8.295265380859375,-0.423329621553421,-1.1233811378479004,-0.6762278079986572
1696082971518265600,8.305265625,-0.40133845806121826,-1.9755382537841797,0.08429940044879913
1696082971528265500,8.315265380859374,-0.394008070230484,-2.1502456665039062,0.41172316670417786
1696082971538265600,8.325265625,-0.375071257352829,-1.747685432434082,0.2590068578720093
1696082971548265500,8.335265380859376,-0.3640756905078888,-0.9437867999076843,-0.19364428520202637
1696082971558265600,8.345265625,-0.29138273000717163,-0.10018189996480942,-0.6621779203414917
1696082971568265500,8.355265380859375,-0.09040805697441101,0.17592918872833252,-0.8307767510414124
1696082971578265600,8.365265625,0.1612684279680252,-0.12217304855585098,-0.7819074988365173
1696082971588265500,8.375265380859375,0.4080579876899719,-0.4801400899887085,-0.7776314616203308
1696082971598265600,8.385265625,0.5729916095733643,-0.3243694305419922,-0.6487388610839844
1696082971608265500,8.395265380859374,0.5015203952789307,0.015271631069481373,-0.14355333149433136
1696082971618265600,8.405265625,0.19364428520202637,-0.11056660860776901,0.5229006409645081
1696082971628265500,8.415265380859376,-0.05742133408784866,-0.8216137290000916,0.9572258591651917
1696082971638265600,8.425265625,-0.1215621829032898,-1.3518447875976562,1.1887437105178833
1696082971648265500,8.435265380859375,-0.04459316283464432,-0.9224064946174622,1.244943380355835
1696082971658265600,8.445265625,0.12095131725072861,-0.08429940044879913,1.017701506614685
1696082971668265500,8.455265380859375,0.35552358627319336,0.32559117674827576,0.5112941861152649
1696082971678265600,8.465265625,0.637132465839386,0.13561208546161652,-0.03420845419168472
1696082971688265500,8.475265380859375,0.8765916228294373,-0.46303585171699524,-0.4434881806373596
1696082971698265600,8.485265625,1.0525208711624146,-1.205847978591919,-0.750142514705658
1696082971708265500,8.495265380859376,1.1716395616531372,-1.9230037927627563,-0.960280179977417
1696082971718265600,8.505265625,1.1759155988693237,-2.3035728931427,-1.053742527961731
1696082971728265500,8.515265380859375,1.074512004852295,-2.2577579021453857,-1.0812314748764038
1696082971738265600,8.525265625,0.979827880859375,-1.7592918872833252,-1.1142182350158691
1696082971748265500,8.535265380859375,1.0995573997497559,-0.8955284357070923,-1.359175205230713
1696082971758265600,8.545265625,1.3964380025863647,0.09162978827953339,-1.853365182876587
1696082971768265500,8.555265380859375,1.6487252712249756,0.9352346658706665,-2.2516493797302246
1696082971778265600,8.565265625,1.7360789775848389,1.4605787992477417,-2.4275784492492676
1696082971788265500,8.575265380859374,1.6615535020828247,1.5558737516403198,-2.3994786739349365
1696082971798265600,8.585265625,1.4782938957214355,1.2626584768295288,-2.146580457687378
1696082971808265500,8.595265380859376,1.23394775390625,0.816726803779602,-1.683544635772705
1696082971818265600,8.605265625,0.9969320893287659,0.4056145250797272,-1.1398745775222778
1696082971828265500,8.615265380859375,0.827722430229187,0.08918632566928864,-0.6835582256317139
1696082971838265600,8.625265625,0.7159340381622314,-0.08124507963657379,-0.4141666293144226
1696082971848265500,8.635265380859375,0.6310238242149353,-0.19792033731937408,-0.323147714138031
1696082971858265600,8.645265625,0.5827654600143433,-0.36713001132011414,-0.29626965522766113
1696082971868265500,8.655265380859374,0.5827654600143433,-0.6285803318023682,-0.29626965522766113
1696082971878265600,8.665265625,0.6322455406188965,-0.8600982427597046,-0.32620203495025635
1696082971888265500,8.675265380859376,0.7177666425704956,-1.0965031385421753,-0.44776421785354614
1696082971898265600,8.685265625,0.7812966704368591,-1.1789699792861938,-0.7250970602035522
1696082971908265500,8.695265380859375,0.7843509912490845,-1.0054842233657837,-1.1203268766403198
1696082971918265600,8.705265625,0.797789990901947,-0.7354817390441895,-1.4508049488067627
1696082971928265500,8.715265380859375,0.8741481900215149,-0.4703662395477295,-1.5503759384155273
1696082971938265600,8.725265625,1.0030407905578613,-0.22907446324825287,-1.4269812107086182
1696082971948265500,8.735265380859374,1.0958921909332275,-0.13866640627384186,-1.188132882118225
1696082971958265600,8.745265625,1.064738154411316,-0.29077184200286865,-0.9388998746871948
1696082971968265500,8.755265380859376,0.9346238374710083,-0.5687155723571777,-0.7458664774894714
1696082971978265600,8.765265625,0.8087855577468872,-0.7342600226402283,-0.6682865619659424
1696082971988265500,8.775265380859375,0.7428121566772461,-0.6811147332191467,-0.7574729323387146
1696082971998265600,8.785265625,0.7318165898323059,-0.45142942667007446,-0.9523389339447021
1696082972008265500,8.795265380859375,0.7739662528038025,-0.1319468915462494,-1.1282681226730347
1696082972018265600,8.805265625,0.8472700715065002,0.1319468915462494,-1.1746938228607178
1696082972028265500,8.815265380859374,0.93095862865448,0.23579397797584534,-1.0494664907455444
1696082972038265600,8.825265625,0.9926560521125793,0.1111774742603302,-0.7660250067710876
1696082972048265500,8.835265380859376,0.9944885969161987,-0.1661553531885147,-0.36102136969566345
1696082972058265600,8.845265625,0.9205739498138428,-0.4801400899887085,0.06780604273080826
1696082972068265500,8.855265380859375,0.8197811841964722,-0.770301103591919,0.3933972120285034
1696082972078265600,8.865265625,0.7617489695549011,-0.9718865752220154,0.5363397002220154
1696082972088265500,8.875265380859375,0.7476990818977356,-1.0427470207214355,0.5296201705932617
1696082972098265300,8.885265380859375,0.7238753437995911,-0.9572258591651917,0.46547931432724
1696082972108265500,8.895265380859374,0.6334672570228577,-0.7525860071182251,0.34147366881370544
1696082972118265300,8.905265380859374,0.4440990388393402,-0.5485569834709167,0.13744467496871948
1696082972128265500,8.915265380859376,0.16737708449363708,-0.4294382631778717,-0.05375614017248154
1696082972138265300,8.925265380859376,-0.12461651116609573,-0.3695734739303589,-0.04153883829712868
1696082972148265500,8.935265380859375,-0.4031710624694824,-0.23335053026676178,0.29565876722335815
1696082972158265300,8.945265380859375,-0.6994407176971436,0.07819075137376785,0.8949176073074341
1696082972168265500,8.955265380859375,-1.0042624473571777,0.42271876335144043,1.5277739763259888
1696082972178265300,8.965265380859375,-1.2321151494979858,0.5595525503158569,2.026240110397339
1696082972188265500,8.975265380859375,-1.348179578781128,0.5161811113357544,2.4000895023345947
1696082972198265300,8.985265380859374,-1.4618005752563477,0.5913175344467163,2.705522060394287
1696082972208265500,8.995265380859376,-1.7043139934539795,0.8399397134780884,2.8985555171966553
1696082972218265300,9.005265380859376,-2.093435287475586,1.0958921909332275,2.8967230319976807
1696082972228265500,9.015265380859375,-2.5173757076263428,1.1899654865264893,2.668259382247925
1696082972238265300,9.025265380859375,-2.8454103469848633,0.9529497623443604,2.378709316253662
1696082972248265500,9.035265380859375,-2.9779679775238037,0.5546656250953674,2.188730239868164
1696082972258265300,9.045265380859375,-2.897333860397339,0.06108652427792549,2.177734613418579
1696082972268265500,9.055265380859375,-2.690861463546753,-0.49235737323760986,2.2956316471099854
1696082972278265300,9.065265380859374,-2.3933699131011963,-1.150259256362915,2.4471261501312256
1696082972288265500,9.075265380859374,-2.1502456665039062,-1.7415767908096313,2.3493876457214355
1696082972298265300,9.085265380859376,-1.9535470008850098,-1.9248363971710205,1.9077321290969849
1696082972308265500,9.095265380859376,-1.76723313331604,-1.5497651100158691,1.3946053981781006
1696082972318265300,9.105265380859375,-1.6224581003189087,-1.0042624473571777,1.189354658126831
1696082972328265500,9.115265380859375,-1.540602207183838,-0.5265658497810364,1.2498302459716797
1696082972338265300,9.125265380859375,-1.4721852540969849,-0.07330382615327835,1.284038782119751
1696082972348265500,9.135265380859375,-1.3836097717285156,0.4098905920982361,1.1649199724197388
1696082972358265300,9.145265380859374,-1.302364706993103,0.7470881938934326,0.9926560521125793
1696082972368265500,9.155265380859374,-1.2211196422576904,0.7641924023628235,0.8759807348251343
1696082972378265300,9.165265380859376,-1.1966849565505981,0.7079927921295166,0.8429940342903137
1696082972388265500,9.175265380859376,-1.189354658126831,0.5534439086914062,0.8191702961921692
1696082972398265300,9.185265380859375,-1.2247848510742188,0.4593706727027893,0.8295549750328064
1696082972408265500,9.195265380859375,-1.2712105512619019,0.4703662395477295,0.8484918475151062
1696082972418265300,9.205265380859375,-1.2760975360870361,0.5393940210342407,0.9193521738052368
1696082972428265500,9.215265380859375,-1.2021827697753906,0.5754350423812866,1.0348057746887207
1696082972438265300,9.225265380859375,-1.1020009517669678,0.5729916095733643,1.0922271013259888
1696082972448265500,9.235265380859374,-1.0305296182632446,0.6701191663742065,1.056796908378601
1696082972458265300,9.245265380859376,-0.9272934198379517,0.9334021210670471,0.9651671051979065
1696082972468265500,9.255265380859376,-0.7837401032447815,1.318858027458191,0.8491026759147644
1696082972478265300,9.265265380859375,-0.6236934065818787,1.7373007535934448,0.7299839854240417
1696082972488265500,9.275265380859375,-0.45875978469848633,2.0140228271484375,0.6261368989944458
1696082972498265300,9.285265380859375,-0.2993239760398865,2.0427334308624268,0.5229006409645081
1696082972508265500,9.295265380859375,-0.1417207419872284,1.8887953758239746,0.4056145250797272
1696082972518265300,9.305265380859375,0.006108652334660292,1.6884315013885498,0.2382374405860901
1696082972528265500,9.315265380859374,0.16065755486488342,1.529606580734253,0.009773843921720982
1696082972538265300,9.325265380859374,0.3433062732219696,1.3261884450912476,-0.28466320037841797
1696082972548265500,9.335265380859376,0.5503895878791809,1.0421360731124878,-0.6206390857696533
1696082972558265600,9.345265625,0.788016140460968,0.7244861721992493,-0.9749409556388855
1696082972568265500,9.355265380859375,1.037249207496643,0.4349360466003418,-1.3494013547897339
1696082972578265600,9.365265625,1.2198978662490845,0.22052235901355743,-1.7238616943359375
1696082972588265500,9.375265380859375,1.2510520219802856,0.09040805697441101,-2.10809588432312
1696082972598265600,9.385265625,1.1282681226730347,-0.005497787147760391,-2.5088236331939697
1696082972608265500,9.395265380859374,0.8936958312988281,-0.06780604273080826,-2.850908041000366
1696082972618265600,9.405265625,0.6108652353286743,-0.16249015927314758,-2.900388240814209
1696082972628265500,9.415265380859376,0.2223549485206604,-0.251676470041275,-2.272418737411499
1696082972638265600,9.425265625,-0.1667662113904953,-0.45631635189056396,-1.5833626985549927
1696082972648265500,9.435265380859375,-0.37079519033432007,-1.3041973114013672,-1.0879509449005127
1696082972658265600,9.445265625,-0.4251621961593628,-2.109928607940674,-0.4288274049758911
1696082972668265500,9.455265380859375,-0.48258355259895325,-2.601675033569336,0.3701843321323395
1696082972678265600,9.465265625,-0.50335294008255,-2.355496406555176,0.6591235995292664
1696082972688265500,9.475265380859375,-0.44226643443107605,-1.42637038230896,0.39156460762023926
1696082972698265600,9.485265625,-0.342695415019989,-0.2015855312347412,-0.11178833991289139
1696082972708265500,9.495265380859376,-0.20097467303276062,0.8411614298820496,-0.44287729263305664
1696082972718265600,9.505265625,0.025656340643763542,1.0836749076843262,-0.5112941861152649
1696082972728265500,9.515265380859375,0.17531833052635193,0.7831292152404785,-0.4990769028663635
1696082972738265600,9.525265625,0.19914206862449646,0.5992587804794312,-0.37201693654060364
1696082972748265500,9.535265380859375,0.14294247329235077,0.4434881806373596,0.03848451003432274
1696082972758265600,9.545265625,-0.03420845419168472,-0.22357667982578278,0.4184426963329315
1696082972768265500,9.555265380859375,-0.26083946228027344,-1.4233160018920898,0.38667771220207214
1696082972778265600,9.565265625,-0.21624629199504852,-1.9431623220443726,0.39767327904701233
1696082972788265500,9.575265380859374,0.03298672288656235,-1.016479730606079,0.607200026512146
1696082972798265600,9.585265625,0.29565876722335815,0.21319197118282318,0.7134906053543091
1696082972808265500,9.595265380859376,0.5198463201522827,0.8319984674453735,0.5656611919403076
1696082972818265600,9.605265625,0.6939429044723511,0.788016140460968,0.23884831368923187
1696082972828265500,9.615265380859375,0.8326093554496765,0.2736676335334778,-0.12034045159816742
1696082972838265600,9.625265625,0.9682214260101318,-0.4758640229701996,-0.4612032473087311
1696082972848265500,9.635265380859375,1.086118459701538,-1.1533136367797852,-0.6921103000640869
1696082972858265600,9.645265625,1.179580807685852,-1.5473216772079468,-0.797789990901947
1696082972868265500,9.655265380859374,1.2125675678253174,-1.6004669666290283,-0.8857545852661133
1696082972878265600,9.665265625,1.2345587015151978,-1.3194689750671387,-1.1191051006317139
1696082972888265500,9.675265380859376,1.3005321025848389,-0.7855727076530457,-1.5436564683914185
1696082972898265600,9.685265625,1.3964380025863647,-0.1258382350206375,-1.948660135269165
1696082972908265500,9.695265380859375,1.4483615159988403,0.5070181488990784,-2.2033908367156982
1696082972918265600,9.705265625,1.434922456741333,0.9040805697441101,-2.325563907623291
1696082972928265500,9.715265380859375,1.3426817655563354,0.950506329536438,-2.317622661590576
1696082972938265600,9.725265625,1.1936306953430176,0.7446447610855103,-2.1447479724884033
1696082972948265500,9.735265380859374,1.0170906782150269,0.4648684561252594,-1.7971655130386353
1696082972958265600,9.745265625,0.8423831462860107,0.1765400618314743,-1.3487904071807861
1696082972968265500,9.755265380859376,0.7024950385093689,-0.15577064454555511,-0.9663888216018677
1696082972978265600,9.765265625,0.5436700582504272,-0.31031954288482666,-0.6811147332191467
1696082972988265500,9.775265380859375,0.41722095012664795,-0.36224308609962463,-0.5143485069274902
1696082972998265600,9.785265625,0.34758231043815613,-0.4098905920982361,-0.43188172578811646
1696082973008265500,9.795265380859375,0.37079519033432007,-0.43676865100860596,-0.3683517575263977
1696082973018265600,9.805265625,0.47280970215797424,-0.5204572081565857,-0.35063666105270386
1696082973028265500,9.815265380859374,0.6017022728919983,-0.7250970602035522,-0.4764748811721802
1696082973038265600,9.825265625,0.7049384713172913,-0.9059131741523743,-0.7232644557952881
1696082973048265500,9.835265380859376,0.7904596328735352,-0.9297369122505188,-0.9841039180755615
1696082973058265600,9.845265625,0.8588765263557434,-0.7354817390441895,-1.1826350688934326
1696082973068265500,9.855265380859375,0.9144652485847473,-0.36590829491615295,-1.2968668937683105
1696082973078265600,9.865265625,0.959669291973114,-0.07208210229873657,-1.3127493858337402
1696082973088265500,9.875265380859375,0.9938777685165405,0.019547687843441963,-1.2095131874084473
1696082973098265600,9.885265625,1.0195341110229492,-0.09712757170200348,-1.0268645286560059
1696082973108265500,9.895265380859374,0.9950994849205017,-0.39706242084503174,-0.8515461683273315
1696082973118265600,9.905265625,0.930347740650177,-0.7079927921295166,-0.749531626701355
1696082973128265500,9.915265380859376,0.8851437568664551,-0.8338310718536377,-0.7409795522689819
1696082973138265600,9.925265625,0.8710938692092896,-0.7715228199958801,-0.8191702961921692
1696082973148265500,9.935265380859375,0.8735373020172119,-0.5937610268592834,-0.9187413454055786
1696082973158265600,9.945265625,0.8784242272377014,-0.4184426963329315,-0.940121591091156
1696082973168265500,9.955265380859375,0.8833111524581909,-0.3139847218990326,-0.8283332586288452
1696082973178265600,9.965265625,0.8851437568664551,-0.3384193480014801,-0.588874101638794
1696082973188265500,9.975265380859375,0.8625417351722717,-0.49357911944389343,-0.27611109614372253
1696082973198265600,9.985265625,0.817948579788208,-0.7299839854240417,0.03787364438176155
1696082973208265500,9.995265380859376,0.7733554244041443,-0.9437867999076843,0.29077184200286865
1696082973218265600,10.005265625,0.7666358947753906,-0.9914342761039734,0.42760565876960754
1696082973228265500,10.015265380859375,0.7757988572120667,-0.8411614298820496,0.4447098970413208
1696082973238265600,10.025265625,0.770301103591919,-0.5375614166259766,0.3732386529445648
1696082973248265500,10.035265380859375,0.7195992469787598,-0.18448130786418915,0.21319197118282318
1696082973258265600,10.045265625,0.5754350423812866,0.04764748737215996,-0.02626720629632473
1696082973268265500,10.055265380859375,0.3219259977340698,0.10384709388017654,-0.24617868661880493
1696082973278265600,10.065265625,0.029932396486401558,0.03481931984424591,-0.2724458873271942
1696082973288265500,10.075265380859374,-0.2474004179239273,-0.03420845419168472,0.004886921960860491
1696082973298265600,10.085265625,-0.5216789245605469,0.06963863968849182,0.5510004758834839
1696082973308265500,10.095265380859376,-0.8515461683273315,0.3634648323059082,1.1624765396118164
1696082973318265600,10.105265625,-1.2040153741836548,0.5693264007568359,1.651168704032898
1696082973328265500,10.115265380859375,-1.4685200452804565,0.47280970215797424,1.9883663654327393
1696082973338265600,10.125265625,-1.6267341375350952,0.3170390725135803,2.253481864929199
1696082973348265500,10.135265380859375,-1.786780834197998,0.39767327904701233,2.4520130157470703
1696082973358265600,10.145265625,-2.0983221530914307,0.6786713004112244,2.5723536014556885
1696082973368265500,10.155265380859374,-2.525927782058716,0.9437867999076843,2.56868839263916
1696082973378265600,10.165265625,-2.945592164993286,0.9914342761039734,2.4605650901794434
1696082973388265500,10.175265380859376,-3.2430834770202637,0.6841690540313721,2.333505153656006
1696082973398265600,10.185265625,-3.349985122680664,0.01466076634824276,2.299907684326172
1696082973408265500,10.195265380859375,-3.2058207988739014,-0.749531626701355,2.3182334899902344
1696082973418265600,10.205265625,-2.813645362854004,-1.681712031364441,2.328618288040161
1696082973428265500,10.215265380859375,-2.3218986988067627,-2.532036542892456,2.12703275680542
1696082973438265600,10.225265625,-1.8460347652435303,-2.8295278549194336,1.6670511960983276
1696082973448265500,10.235265380859374,-1.4978415966033936,-2.5271494388580322,1.1349875926971436
1696082973458265600,10.245265625,-1.3243558406829834,-1.8509217500686646,0.9034696817398071
1696082973468265500,10.255265380859376,-1.3274102210998535,-1.1032226085662842,1.0458012819290161
1696082973478265600,10.265265625,-1.395827054977417,-0.2889392673969269,1.2046263217926025
1696082973488265500,10.275265380859375,-1.4135421514511108,0.47830748558044434,1.224173903465271
1696082973498265600,10.285265625,-1.3628404140472412,1.0751228332519531,1.1557570695877075
1696082973508265500,10.295265380859375,-1.2864822149276733,1.3946053981781006,1.0903944969177246
1696082973518265600,10.305265625,-1.228450059890747,1.470963478088379,1.076344609260559
1696082973528265500,10.315265380859374,-1.179580807685852,1.2791517972946167,1.1233811378479004
1696082973538265600,10.325265625,-1.131933331489563,0.8851437568664551,1.1917980909347534
1696082973548265500,10.335265380859376,-1.1032226085662842,0.5161811113357544,1.2333369255065918
1696082973558265600,10.345265625,-1.0714576244354248,0.27061331272125244,1.2278391122817993
1696082973568265500,10.355265380859375,-1.0183123350143433,0.24007004499435425,1.1844676733016968
1696082973578265600,10.365265625,-0.9431759119033813,0.3628539443016052,1.130711555480957
1696082973588265500,10.375265380859375,-0.8662069439888,0.5674937963485718,1.0482447147369385
1696082973598265300,10.385265380859375,-0.7831292152404785,0.7922922372817993,0.9553932547569275
1696082973608265500,10.395265380859374,-0.6768386960029602,1.0085384845733643,0.8613200187683105
1696082973618265600,10.405265625,-0.5369505286216736,1.187522053718567,0.7422012686729431
1696082973628265500,10.415265380859376,-0.38240164518356323,1.3066407442092896,0.5803219676017761
1696082973638265300,10.425265380859376,-0.21991148591041565,1.3115277290344238,0.3982841372489929
1696082973648265500,10.435265380859375,-0.03848451003432274,1.2082914113998413,0.2272418737411499
1696082973658265600,10.445265625,0.15027284622192383,1.0311405658721924,0.054367005825042725
1696082973668265500,10.455265380859375,0.33169981837272644,0.8491026759147644,-0.14966198801994324
1696082973678265300,10.465265380859375,0.5002986192703247,0.7171558141708374,-0.38667771220207214
1696082973688265500,10.475265380859375,0.6823364496231079,0.6035348773002625,-0.6493497490882874
1696082973698265600,10.485265625,0.8851437568664551,0.48808133602142334,-0.9291260242462158
1696082973708265500,10.495265380859376,1.1081095933914185,0.4098905920982361,-1.2473868131637573
1696082973718265300,10.505265380859376,1.29381263256073,0.3842342495918274,-1.595579981803894
1696082973728265500,10.515265380859375,1.3518447875976562,0.44165557622909546,-1.9627100229263306
1696082973738265600,10.525265625,1.2681562900543213,0.5870414972305298,-2.2510383129119873
1696082973748265500,10.535265380859375,1.047023057937622,0.8399397134780884,-2.3206770420074463
1696082973758265300,10.545265380859375,0.6499606370925903,1.1142182350158691,-1.9694294929504395
1696082973768265500,10.555265380859375,0.1612684279680252,1.177748203277588,-1.5986343622207642
1696082973778265600,10.565265625,-0.14782938361167908,0.5687155723571777,-1.4184291362762451
1696082973788265500,10.575265380859374,-0.30970868468284607,-0.5491678714752197,-0.8875871896743774
1696082973798265600,10.585265625,-0.5693264007568359,-1.7910568714141846,0.12217304855585098
1696082973808265500,10.595265380859376,-0.817948579788208,-2.2033908367156982,0.7733554244041443
1696082973818265600,10.605265625,-0.8454375267028809,-1.6389514207839966,0.799011766910553
1696082973828265500,10.615265380859375,-0.7757988572120667,-0.6841690540313721,0.42577308416366577
1696082973838265600,10.625265625,-0.6591235995292664,0.21380282938480377,-0.018936822190880775
1696082973848265500,10.635265380859375,-0.4105014503002167,0.9156870245933533,-0.32986724376678467
1696082973858265300,10.645265380859374,-0.018936822190880775,1.0897835493087769,-0.4392121136188507
1696082973868265500,10.655265380859374,0.342695415019989,0.9621127843856812,-0.34636059403419495
1696082973878265300,10.665265380859376,0.48319441080093384,0.9474520087242126,-0.17287486791610718
1696082973888265500,10.675265380859376,0.5149593949317932,0.6957755088806152,0.10934487730264664
1696082973898265300,10.685265380859375,0.42271876335144043,0.3139847218990326,0.28527405858039856
1696082973908265500,10.695265380859375,0.13316862285137177,-0.403781920671463,-0.09651670604944229
1696082973918265300,10.705265380859375,-0.033597588539123535,-1.595579981803894,-0.9071348905563354
1696082973928265500,10.715265380859375,0.18448130786418915,-2.9187140464782715,-1.166752576828003
1696082973938265300,10.725265380859375,0.3628539443016052,-3.1105258464813232,-0.4954117238521576
1696082973948265500,10.735265380859374,0.4282165467739105,-2.271807909011841,0.34025195240974426
1696082973958265300,10.745265380859376,0.5723807215690613,-1.4098769426345825,0.7929030656814575
1696082973968265500,10.755265380859376,0.7586946487426758,-0.8338310718536377,0.8381071090698242
1696082973978265300,10.765265380859375,0.911410927772522,-0.44165557622909546,0.5955936312675476
1696082973988265500,10.775265380859375,0.9926560521125793,-0.1765400618314743,0.1514945775270462
1696082973998265300,10.785265380859375,1.043968677520752,0.11911872029304504,-0.31459560990333557
1696082974008265500,10.795265380859375,1.2321151494979858,0.4343251883983612,-0.6676757335662842
1696082974018265600,10.805265625,1.4227051734924316,0.7452555894851685,-0.9340129494667053
1696082974028265500,10.815265380859374,1.5320500135421753,1.0873401165008545,-1.1966849565505981
1696082974038265600,10.825265625,1.5454890727996826,1.3939944505691528,-1.4373658895492554
1696082974048265500,10.835265380859376,1.4899003505706787,1.5180001258850098,-1.7660114765167236
1696082974058265600,10.845265625,1.4269812107086182,1.4007140398025513,-2.213775634765625
1696082974068265500,10.855265380859375,1.3756685256958008,1.047023057937622,-2.6230554580688477
1696082974078265600,10.865265625,1.2999212741851807,0.5845980644226074,-2.819753885269165
1696082974088265500,10.875265380859375,1.1618657112121582,0.07391469180583954,-2.7653870582580566
1696082974098265600,10.885265625,0.9865473508834839,-0.35613444447517395,-2.453234910964966
1696082974108265500,10.895265380859374,0.8026769161224365,-0.5803219676017761,-1.9333884716033936
1696082974118265600,10.905265625,0.655458390712738,-0.5143485069274902,-1.3420709371566772
1696082974128265500,10.915265380859376,0.5510004758834839,-0.313373863697052,-0.8619308471679688
1696082974138265600,10.925265625,0.46853363513946533,-0.15760323405265808,-0.5607742667198181
1696082974148265500,10.935265380859375,0.42149701714515686,-0.11667526513338089,-0.36224308609962463
1696082974158265600,10.945265625,0.403781920671463,-0.1966986060142517,-0.2632829248905182
1696082974168265500,10.955265380859375,0.4239404797554016,-0.46792277693748474,-0.29993483424186707
1696082974178265600,10.965265625,0.47280970215797424,-0.7415903806686401,-0.4502076804637909
1696082974188265500,10.975265380859375,0.5015203952789307,-0.7812966704368591,-0.618195652961731
1696082974198265600,10.985265625,0.523511528968811,-0.6701191663742065,-0.6994407176971436
1696082974208265500,10.995265380859376,0.5736024379730225,-0.5656611919403076,-0.618195652961731
1696082974218265000,11.00526513671875,0.6420193910598755,-0.49235737323760986,-0.4080579876899719
1696082974228265200,11.01526513671875,0.6731734871864319,-0.5021312236785889,-0.14905111491680145
1696082974238265000,11.02526513671875,0.607200026512146,-0.6933320760726929,0.05497787147760391
1696082974248265200,11.03526513671875,0.4612032473087311,-0.93095862865448,0.1514945775270462
1696082974258265000,11.04526513671875,0.37079519033432007,-1.06351637840271,0.09040805697441101
1696082974268265200,11.05526513671875,0.41722095012664795,-1.0653489828109741,-0.1270599663257599
1696082974278265000,11.06526513671875,0.5412266254425049,-0.8741481900215149,-0.45265114307403564
1696082974288265200,11.07526513671875,0.6249151229858398,-0.48319441080093384,-0.8045095205307007
1696082974298265000,11.08526513671875,0.6780604124069214,-0.0507018156349659,-1.0824532508850098
1696082974308265200,11.09526513671875,0.7354817390441895,0.3017674386501312,-1.253495454788208
1696082974318265000,11.10526513671875,0.8252789378166199,0.46242499351501465,-1.3628404140472412
1696082974328265200,11.11526513671875,0.9462302923202515,0.40072759985923767,-1.4275920391082764
1696082974338265000,11.12526513671875,1.0757336616516113,0.1661553531885147,-1.3933836221694946
1696082974348265000,11.135264892578125,1.1496484279632568,-0.152105450630188,-1.1985175609588623
1696082974358265000,11.14526513671875,1.1239920854568481,-0.42149701714515686,-0.8448266386985779
1696082974368265000,11.155264892578124,1.0268645286560059,-0.5558874011039734,-0.42210787534713745
1696082974378265000,11.16526513671875,0.9230173826217651,-0.5681046843528748,-0.042760565876960754
1696082974388265000,11.175264892578125,0.8637634515762329,-0.4862487316131592,0.23273965716362
1696082974398265000,11.18526513671875,0.8429940342903137,-0.313373863697052,0.4331034719944
1696082974408265000,11.195264892578125,0.8093964457511902,-0.0959058403968811,0.5626068711280823
1696082974418265000,11.20526513671875,0.7055493593215942,0.025045474991202354,0.5406157374382019
1696082974428265000,11.215264892578125,0.4990769028663635,-0.06658431142568588,0.31459560990333557
1696082974438265000,11.22526513671875,0.2217440903186798,-0.24923302233219147,0.05009094998240471
1696082974448265000,11.235264892578124,-0.07452555745840073,-0.2993239760398865,0.02932153269648552
1696082974458265000,11.24526513671875,-0.36713001132011414,-0.16554448008537292,0.30054569244384766
1696082974468265000,11.255264892578126,-0.6340781450271606,0.009162978269159794,0.6591235995292664
1696082974478265000,11.26526513671875,-0.8631525635719299,0.12095131725072861,0.9743300676345825
1696082974488265000,11.275264892578125,-1.0653489828109741,0.2571742534637451,1.2699888944625854
1696082974498265000,11.28526513671875,-1.2907582521438599,0.4917465150356293,1.5735888481140137
1696082974508265000,11.295264892578125,-1.5851953029632568,0.7305948138237,1.8527542352676392
1696082974518265300,11.305265380859375,-1.9559905529022217,0.8918632864952087,2.087937355041504
1696082974528265500,11.315265380859374,-2.3542747497558594,0.93095862865448,2.298074960708618
1696082974538265300,11.325265380859374,-2.7030787467956543,0.7806857824325562,2.47094988822937
1696082974548265500,11.335265380859376,-2.9071075916290283,0.3341432809829712,2.548529863357544
1696082974558265600,11.345265625,-2.886949062347412,-0.4141666293144226,2.538145065307617
1696082974568265500,11.355265380859375,-2.707965612411499,-1.151481032371521,2.4642302989959717
1696082974578265600,11.365265625,-2.4190263748168945,-1.4996742010116577,2.3151793479919434
1696082974588265500,11.375265380859375,-2.0818288326263428,-1.482569932937622,2.0836613178253174
1696082974598265300,11.385265380859375,-1.757459282875061,-1.2638801336288452,1.7892242670059204
1696082974608265500,11.395265380859374,-1.4978415966033936,-0.9718865752220154,1.4868459701538086
1696082974618265300,11.405265380859374,-1.3603968620300293,-0.636521577835083,1.205847978591919
1696082974628265500,11.415265380859376,-1.3170254230499268,-0.29016098380088806,1.0311405658721924
1696082974638265300,11.425265380859376,-1.3029755353927612,-0.3933972120285034,1.1374311447143555
1696082974648265500,11.435265380859375,-1.320690631866455,-0.4251621961593628,1.2614367008209229
1696082974658265300,11.445265380859375,-1.313360333442688,-0.28099802136421204,1.3347405195236206
1696082974668265500,11.455265380859375,-1.2889256477355957,-0.11972958594560623,1.377501130104065
1696082974678265300,11.465265380859375,-1.2473868131637573,-0.048258353024721146,1.3622294664382935
1696082974688265500,11.475265380859375,-1.226617455482483,0.022602014243602753,1.2773191928863525
1696082974698265300,11.485265380859374,-1.2394455671310425,0.24007004499435425,1.1527026891708374
1696082974708265500,11.495265380859376,-1.263269305229187,0.49785518646240234,1.0592403411865234
1696082974718265300,11.505265380859376,-1.282817006111145,0.646906316280365,1.0225883722305298
1696082974728265500,11.515265380859375,-1.2797627449035645,0.6059783101081848,1.0335839986801147
1696082974738265300,11.525265380859375,-1.2504411935806274,0.5106833577156067,1.0464121103286743
1696082974748265500,11.535265380859375,-1.1954632997512817,0.45142942667007446,1.0433578491210938
1696082974758265300,11.545265380859375,-1.1313223838806152,0.4990769028663635,0.9963212013244629
1696082974768265500,11.555265380859375,-1.0726794004440308,0.6017022728919983,0.8949176073074341
1696082974778265300,11.565265380859374,-0.998153805732727,0.7843509912490845,0.7751879692077637
1696082974788265500,11.575265380859374,-0.8936958312988281,1.0592403411865234,0.646295428276062
1696082974798265600,11.585265625,-0.7678576111793518,1.3781119585037231,0.5186246037483215
1696082974808265500,11.595265380859376,-0.6359107494354248,1.5778648853302002,0.3995058834552765
1696082974818265600,11.605265625,-0.4905247986316681,1.5833626985549927,0.31031954288482666
1696082974828265500,11.615265380859375,-0.323147714138031,1.4080443382263184,0.23273965716362
1696082974838265600,11.625265625,-0.16065755486488342,1.1673635244369507,0.10445795953273773
1696082974848265500,11.635265380859375,-0.00733038317412138,0.9877691268920898,-0.06780604273080826
1696082974858265300,11.645265380859374,0.14844025671482086,0.8869763612747192,-0.2822197377681732
1696082974868265500,11.655265380859374,0.3182607889175415,0.827111542224884,-0.5222898125648499
1696082974878265300,11.665265380859376,0.5186246037483215,0.7415903806686401,-0.7800748944282532
1696082974888265500,11.675265380859376,0.7544185519218445,0.6243042945861816,-1.0396926403045654
1696082974898265300,11.685265380859375,0.9822713136672974,0.5088507533073425,-1.299310326576233
1696082974908265500,11.695265380859375,1.1227703094482422,0.42210787534713745,-1.5741997957229614
1696082974918265300,11.705265380859375,1.1349875926971436,0.4141666293144226,-1.816102385520935
1696082974928265500,11.715265380859375,1.0329731702804565,0.5186246037483215,-1.9370536804199219
1696082974938265300,11.725265380859375,0.836885392665863,0.7812966704368591,-1.8539760112762451
1696082974948265500,11.735265380859374,0.5613851547241211,1.1252137422561646,-1.5748106241226196
1696082974958265300,11.745265380859376,0.29504790902137756,1.3231340646743774,-1.370781660079956
1696082974968265500,11.755265380859376,0.1362229436635971,1.0482447147369385,-1.2638801336288452
1696082974978265300,11.765265380859375,0.06963863968849182,0.29565876722335815,-0.9724974632263184
1696082974988265500,11.775265380859375,-0.12217304855585098,-0.44287729263305664,-0.3286454975605011
1696082974998265300,11.785265380859375,-0.44837507605552673,-0.826500654220581,0.32559117674827576
1696082975008265500,11.795265380859375,-0.6340781450271606,-0.8008443117141724,0.6352998614311218
1696082975018265300,11.805265380859375,-0.6536257863044739,-0.5149593949317932,0.5650503635406494
1696082975028265500,11.815265380859374,-0.5705481171607971,-0.1417207419872284,0.24068090319633484
1696082975038265300,11.825265380859374,-0.40194934606552124,0.31031954288482666,-0.13805554807186127
1696082975048265500,11.835265380859376,-0.11301007121801376,0.5797111392021179,-0.4147774875164032
1696082975058265600,11.845265625,0.18325957655906677,0.4141666293144226,-0.44837507605552673
1696082975068265500,11.855265380859375,0.31581732630729675,0.024434609338641167,-0.4080579876899719
1696082975078265600,11.865265625,0.36590829491615295,-0.2687807083129883,-0.45753806829452515
1696082975088265500,11.875265380859375,0.37629300355911255,-0.3219259977340698,-0.39767327904701233
1696082975098265300,11.885265380859375,0.32009339332580566,-0.3433062732219696,-0.22418753802776337
1696082975108265500,11.895265380859374,0.23640485107898712,-0.6664539575576782,-0.19608774781227112
1696082975118265300,11.905265380859374,0.2474004179239273,-1.3603968620300293,-0.27977627515792847
1696082975128265500,11.915265380859376,0.3066543638706207,-2.0274617671966553,-0.21868975460529327
1696082975138265300,11.925265380859376,0.3787364661693573,-1.8466455936431885,0.22663100063800812
1696082975148265500,11.935265380859375,0.4294382631778717,-1.228450059890747,0.6640105247497559
1696082975158265300,11.945265380859375,0.485027015209198,-0.7397578358650208,0.7531968355178833
1696082975168265500,11.955265380859375,0.5503895878791809,-0.3878994286060333,0.5296201705932617
1696082975178265300,11.965265380859375,0.6615670323371887,-0.19914206862449646,0.15393804013729095
1696082975188265500,11.975265380859375,0.836885392665863,-0.09834930300712585,-0.22846360504627228
1696082975198265300,11.985265380859374,0.9553932547569275,0.04153883829712868,-0.5455026626586914
1696082975208265500,11.995265380859376,1.0219775438308716,0.04886921867728233,-0.7574729323387146
1696082975218265300,12.005265380859376,1.1117748022079468,-0.03848451003432274,-0.8985827565193176
1696082975228265500,12.015265380859375,1.1832460165023804,-0.054367005825042725,-1.0323622226715088
1696082975238265300,12.025265380859375,1.1606439352035522,0.014049900695681572,-1.2614367008209229
1696082975248265500,12.035265380859375,1.1270463466644287,0.10506882518529892,-1.6242907047271729
1696082975258265900,12.045265869140625,1.1368201971054077,0.13439035415649414,-2.015244483947754
1696082975268266000,12.055265869140625,1.1527026891708374,0.06780604273080826,-2.3164010047912598
1696082975278265900,12.065265869140624,1.131933331489563,-0.10018189996480942,-2.4471261501312256
1696082975288266000,12.075265869140624,1.0574077367782593,-0.3536909818649292,-2.353663682937622
1696082975298265900,12.085265869140626,0.9346238374710083,-0.5259549617767334,-2.0176877975463867
1696082975308266000,12.095265869140626,0.7916813492774963,-0.5204572081565857,-1.5173892974853516
1696082975318265900,12.105265869140625,0.6542366743087769,-0.3830125033855438,-0.9938777685165405
1696082975328266000,12.115265869140625,0.5216789245605469,-0.16737708449363708,-0.5607742667198181
1696082975338265900,12.125265869140625,0.42271876335144043,-0.0006108652451075613,-0.2816088795661926
1696082975348266000,12.135265869140625,0.35552358627319336,0.06475171446800232,-0.13011430203914642
1696082975358265900,12.145265869140625,0.3274237811565399,0.10445795953273773,-0.03848451003432274
1696082975368266000,12.155265869140624,0.34513887763023376,0.12400564551353455,-0.024434609338641167
1696082975378265900,12.165265869140624,0.394008070230484,0.0861319974064827,-0.10323622822761536
1696082975388266000,12.175265869140626,0.45265114307403564,-0.01771509274840355,-0.2938261926174164
1696082975398265900,12.185265869140625,0.5088507533073425,-0.08307767659425735,-0.5088507533073425
1696082975408266000,12.195265869140625,0.5717698931694031,-0.03848451003432274,-0.636521577835083
1696082975418265900,12.205265869140625,0.6487388610839844,0.04642575979232788,-0.665232241153717
1696082975428266000,12.215265869140625,0.7324274182319641,0.10323622822761536,-0.6291912198066711
1696082975438265900,12.225265869140625,0.8020660877227783,0.06902777403593063,-0.5619960427284241
1696082975448266000,12.235265869140624,0.8020660877227783,-0.04764748737215996,-0.5210680365562439
1696082975458265900,12.245265869140624,0.7428121566772461,-0.2076941877603531,-0.5186246037483215
1696082975468266000,12.255265869140626,0.665232241153717,-0.3335324227809906,-0.5656611919403076
1696082975478265900,12.265265869140626,0.6053674817085266,-0.3933972120285034,-0.6768386960029602
1696082975488266000,12.275265869140625,0.5736024379730225,-0.3738495409488678,-0.8203920125961304
1696082975498265900,12.285265869140625,0.5754350423812866,-0.2785545587539673,-0.9437867999076843
1696082975508266000,12.295265869140625,0.6151412725448608,-0.1514945775270462,-1.0238101482391357
1696082975518265900,12.305265869140625,0.6841690540313721,-0.04459316283464432,-1.0659598112106323
1696082975528266000,12.315265869140624,0.7672467231750488,0.028099801391363144,-1.0867292881011963
1696082975538265900,12.325265869140624,0.8503243923187256,0.07513642311096191,-1.111163854598999
1696082975548266000,12.335265869140626,0.9266825914382935,0.07147123664617538,-1.1362093687057495
1696082975558265600,12.345265625,0.978606104850769,0.01710422709584236,-1.1166616678237915
1696082975568265500,12.355265380859375,0.9932668805122375,-0.0507018156349659,-0.9993755221366882
1696082975578265600,12.365265625,0.9639453291893005,-0.11972958594560623,-0.769690215587616
1696082975588265500,12.375265380859375,0.8991936445236206,-0.1514945775270462,-0.4550946056842804
1696082975598265300,12.385265380859375,0.8155050873756409,-0.0959058403968811,-0.11178833991289139
1696082975608265500,12.395265380859374,0.7183775305747986,0.059864792972803116,0.19792033731937408
1696082975618265300,12.405265380859374,0.5955936312675476,0.22663100063800812,0.38728857040405273
1696082975628265500,12.415265380859376,0.42699480056762695,0.24373523890972137,0.36102136969566345
1696082975638265300,12.425265380859376,0.22357667982578278,0.02382374368607998,0.12034045159816742
1696082975648265500,12.435265380859375,0.028099801391363144,-0.2987131178379059,-0.1466076523065567
1696082975658265300,12.445265380859375,-0.1466076523065567,-0.5320636034011841,-0.20952677726745605
1696082975668265500,12.455265380859375,-0.3194825351238251,-0.5778785347938538,-0.03176499158143997
1696082975678265300,12.465265380859375,-0.44715335965156555,-0.513126790523529,0.251676470041275
1696082975688265500,12.475265380859375,-0.4807509481906891,-0.39217549562454224,0.5119050741195679
1696082975698265300,12.485265380859374,-0.484416127204895,-0.1466076523065567,0.7617489695549011
1696082975708265500,12.495265380859376,-0.5448917746543884,0.20463985204696655,1.0317513942718506
1696082975718265300,12.505265380859376,-0.6719517707824707,0.5027421116828918,1.2822061777114868
1696082975728265500,12.515265380859375,-0.8875871896743774,0.6664539575576782,1.531439185142517
1696082975738265300,12.525265380859375,-1.1820242404937744,0.8008443117141724,1.852143406867981
1696082975748265500,12.535265380859375,-1.5271631479263306,0.9871582388877869,2.2211060523986816
1696082975758265300,12.545265380859375,-1.89979088306427,1.0958921909332275,2.501493215560913
1696082975768265500,12.555265380859375,-2.230879783630371,1.0219775438308716,2.652376890182495
1696082975778265300,12.565265380859374,-2.4330763816833496,0.7843509912490845,2.696969985961914
1696082975788265500,12.575265380859374,-2.4978280067443848,0.37140607833862305,2.6810874938964844
1696082975798265600,12.585265625,-2.3964242935180664,-0.18631389737129211,2.6481008529663086
1696082975808265500,12.595265380859376,-2.1783454418182373,-0.7831292152404785,2.5747969150543213
1696082975818265600,12.605265625,-1.9620991945266724,-1.3524556159973145,2.39520263671875
1696082975828265500,12.615265380859375,-1.7544050216674805,-1.7922786474227905,2.057394027709961
1696082975838265600,12.625265625,-1.5247195959091187,-2.0250182151794434,1.6206254959106445
1696082975848265500,12.635265380859375,-1.3494013547897339,-1.8503108024597168,1.1508700847625732
1696082975858265300,12.645265380859374,-1.2589932680130005,-1.518610954284668,0.8417723178863525
1696082975868265500,12.655265380859374,-1.2669345140457153,-1.140485405921936,0.8350527882575989
1696082975878265300,12.665265380859376,-1.3066407442092896,-0.6285803318023682,1.0482447147369385
1696082975888265500,12.675265380859376,-1.3170254230499268,-0.12400564551353455,1.3066407442092896
1696082975898265300,12.685265380859375,-1.2553280591964722,0.21135938167572021,1.4886785745620728
1696082975908265500,12.695265380859375,-1.1441506147384644,0.35613444447517395,1.531439185142517
1696082975918265300,12.705265380859375,-1.0421360731124878,0.33719760179519653,1.4526375532150269
1696082975928265500,12.715265380859375,-0.9847147464752197,0.1612684279680252,1.3292428255081177
1696082975938265300,12.725265380859375,-0.9749409556388855,0.03298672288656235,1.1636983156204224
1696082975948265500,12.735265380859374,-0.9969320893287659,0.019547687843441963,0.988379955291748
1696082975958265300,12.745265380859376,-1.0299187898635864,0.048258353024721146,0.8625417351722717
1696082975968265500,12.755265380859376,-1.0555751323699951,0.01160643994808197,0.8148942589759827
1696082975978265300,12.765265380859375,-1.064738154411316,-0.018325956538319588,0.7965682744979858
1696082975988265500,12.775265380859375,-1.0531316995620728,-0.0006108652451075613,0.779464066028595
1696082975998265300,12.785265380859375,-0.9914342761039734,0.10751228034496307,0.7147123217582703
1696082976008265500,12.795265380859375,-0.8710938692092896,0.303600013256073,0.6230825781822205
1696082976018265300,12.805265380859375,-0.7073819637298584,0.5277875661849976,0.5204572081565857
1696082976028265500,12.815265380859374,-0.5302310585975647,0.7189884185791016,0.4147774875164032
1696082976038265300,12.825265380859374,-0.35674530267715454,0.8637634515762329,0.29993483424186707
1696082976048265500,12.835265380859376,-0.19425514340400696,0.9144652485847473,0.18875735998153687
1696082976058265600,12.845265625,-0.033597588539123535,0.8393288254737854,0.08918632566928864
