time,seconds_elapsed,z,y,x
1695712701555584800,0.136584716796875,-0.11836051940917969,0.014458179473876953,0.011231809854507446
1695712701565652700,0.14665283203125,-0.12155723571777344,0.028573989868164062,0.04930144548416138
1695712701575720700,0.156720703125,-0.09753036499023438,0.029822349548339844,0.05814759433269501
1695712701585702400,0.166702392578125,-0.08349323272705078,-0.0016493797302246094,0.046000391244888306
1695712701595902200,0.176902099609375,-0.1642160415649414,0.02797555923461914,0.044708654284477234
1695712701605789200,0.1867890625,-0.26319122314453125,-0.019032955169677734,0.014926820993423462
1695712701615837400,0.19683740234375,-0.38165950775146484,0.007807254791259766,-0.04239410161972046
1695712701625882400,0.20688232421875,-0.5125007629394531,0.013491153717041016,-0.07113799452781677
1695712701635900700,0.216900634765625,-0.516383171081543,-0.060521602630615234,-0.07776758074760437
1695712701645924600,0.226924560546875,-0.3756284713745117,-0.0770559310913086,-0.055798500776290894
1695712701655899600,0.236899658203125,-0.21285057067871094,-0.08203363418579102,0.02572694420814514
1695712701665972700,0.24697265625,-0.09766387939453125,-0.10504865646362305,0.0323372483253479
1695712701675989200,0.2569892578125,-0.04292869567871094,-0.11520242691040039,0.07632558047771454
1695712701686064600,0.267064697265625,0.014094352722167969,-0.09547710418701172,0.09621073305606842
1695712701696106000,0.27710595703125,0.0103912353515625,-0.04735517501831055,0.02122199535369873
1695712701706095900,0.287095947265625,0.01699066162109375,-0.08060026168823242,-0.017679303884506226
1695712701716115700,0.29711572265625,-0.058005332946777344,-0.08146953582763672,-0.05488899350166321
1695712701726189600,0.307189453125,-0.10683155059814453,-0.055101871490478516,-0.11907809972763062
1695712701736232200,0.317232177734375,-0.07659530639648438,-0.08402681350708008,-0.11404302716255188
1695712701746257700,0.327257568359375,-0.11682891845703125,-0.02906036376953125,-0.06563037633895874
1695712701756292900,0.33729296875,-0.2247638702392578,-0.021881103515625,-0.06196051836013794
1695712701766289400,0.347289306640625,-0.33881473541259766,-0.04127788543701172,0.005628645420074463
1695712701776308200,0.35730810546875,-0.2843914031982422,-0.06743860244750977,0.024549365043640137
1695712701786381800,0.3673818359375,-0.090087890625,-0.10104608535766602,0.00895717740058899
1695712701796424000,0.377423828125,0.31128692626953125,-0.5565166473388672,0.4366070032119751
1695712701806437400,0.387437255859375,0.39459800720214844,0.3311500549316406,-0.25298023223876953
1695712701816467200,0.39746728515625,0.5267391204833984,-0.044881343841552734,0.045091792941093445
1695712701826504400,0.40750439453125,0.062195777893066406,-0.10572052001953125,0.1251978874206543
1695712701836537300,0.417537353515625,-0.2633523941040039,-0.06830453872680664,0.11344680935144424
1695712701846577400,0.427577392578125,-0.5881175994873047,-0.1577916145324707,0.10937611013650894
1695712701856613400,0.43761328125,-0.8890824317932129,-0.19214487075805664,0.16399845480918884
1695712701866630000,0.4476298828125,-0.9993786811828613,-0.19497203826904297,0.0914577916264534
1695712701876657400,0.457657470703125,-0.9080815315246582,-0.10350561141967773,0.10546590387821198
1695712701886692900,0.46769287109375,-0.535064697265625,-0.06690168380737305,0.12017566710710526
1695712701896723700,0.4777236328125,0.048127174377441406,0.015800952911376953,0.05196324735879898
1695712701906755300,0.48775537109375,0.6836433410644531,-0.037172794342041016,0.13338439166545868
1695712701916786400,0.497786376953125,1.1096277236938477,-0.21102428436279297,0.22439387440681458
1695712701926845400,0.507845458984375,1.3266496658325195,0.21449756622314453,-0.06856516003608704
1695712701936888300,0.517888427734375,1.312093734741211,-0.1348428726196289,0.6230517625808716
1695712701946910700,0.52791064453125,0.739100456237793,-0.3847479820251465,0.6364361047744751
1695712701956945000,0.53794482421875,0.11492443084716797,0.020792484283447266,0.11286920309066772
1695712701966944300,0.5479443359375,-0.46187782287597656,-0.010687828063964844,0.04728862643241882
1695712701976975000,0.55797509765625,-1.381054401397705,-0.5103368759155273,0.3034907281398773
1695712701987045600,0.568045654296875,-4.6173415184021,-1.5344905853271484,0.8899808526039124
1695712701997080000,0.578080078125,-2.9908313751220703,0.19895458221435547,-0.38556337356567383
1695712702007101200,0.58810107421875,-1.6674952507019043,0.6330013275146484,-0.7211024761199951
1695712702017134300,0.59813427734375,-2.1304712295532227,-0.998814582824707,0.5782309770584106
1695712702027168000,0.60816796875,-2.5336875915527344,-0.3740377426147461,0.4694293439388275
1695712702037201400,0.618201416015625,-2.416897773742676,-0.2720375061035156,-0.2124611884355545
1695712702047205600,0.62820556640625,-1.6911568641662598,0.3074784278869629,0.13197439908981323
1695712702057236000,0.638236083984375,-0.7793774604797363,0.5279107093811035,0.009657185524702072
1695712702067282000,0.648281982421875,-1.3624205589294434,-0.12206315994262695,-0.09880375862121582
1695712702077313800,0.658313720703125,-2.308269500732422,-0.8045735359191895,0.37092745304107666
1695712702087355000,0.66835498046875,-3.2117719650268555,-1.258995532989502,0.9446744918823242
1695712702097387500,0.678387451171875,-3.9996542930603027,-1.2282142639160156,0.981872022151947
1695712702107399700,0.688399658203125,-4.048035144805908,-1.237410068511963,0.880194902420044
1695712702117430300,0.69843017578125,-2.677286148071289,-0.7789149284362793,0.700145959854126
1695712702127476200,0.708476318359375,-1.528745174407959,-0.6926431655883789,0.30119839310646057
1695712702137676300,0.71867626953125,-1.8296637535095215,-1.3489115238189697,0.29080379009246826
1695712702147709700,0.728709716796875,-4.418413162231445,-2.601602554321289,-0.48750442266464233
1695712702157742000,0.7387421875,-3.2721071243286133,-3.612100124359131,-0.5074923634529114
1695712702167618300,0.748618408203125,-0.21201229095458984,-2.969312906265259,0.6240554451942444
1695712702177638700,0.758638671875,-1.313366413116455,-4.824923038482666,-0.0006144493818283081
1695712702187691300,0.768691162109375,-0.4882087707519531,-4.578651428222656,0.004024416208267212
1695712702197715000,0.77871484375,-1.1613621711730957,-4.4097981452941895,-0.34706124663352966
1695712702207735300,0.7887353515625,-2.201754570007324,-5.481728553771973,-0.6434117555618286
1695712702217758700,0.7987587890625,-2.982001781463623,-6.873626232147217,-0.5144275426864624
1695712702227798800,0.808798828125,-4.486217975616455,-7.830415725708008,-0.6979774236679077
1695712702237824000,0.818823974609375,-5.920454025268555,-8.252067565917969,-1.8013629913330078
1695712702247865000,0.828864990234375,-6.088567733764648,-8.805513381958008,-2.2996811866760254
1695712702257891800,0.838891845703125,-5.83844518661499,-9.648000717163086,-2.4036412239074707
1695712702267923500,0.84892333984375,-5.723107814788818,-10.5714111328125,-2.3521921634674072
1695712702277950700,0.85895068359375,-4.9801740646362305,-11.49490737915039,-2.014242172241211
1695712702288003800,0.86900390625,-3.8779377937316895,-11.90964126586914,-1.3316831588745117
1695712702298033700,0.87903369140625,-2.7264246940612793,-12.06014633178711,-0.6759834289550781
1695712702308053500,0.889053466796875,-1.4321200847625732,-12.511578559875488,0.557553768157959
1695712702318082300,0.899082275390625,-0.16517233848571777,-12.504584312438965,1.8433566093444824
1695712702328128000,0.9091279296875,1.446181297302246,-12.003555297851562,3.691099166870117
1695712702338158600,0.91915869140625,2.9286677837371826,-11.271039962768555,5.710910797119141
1695712702348185900,0.929185791015625,3.6537022590637207,-10.059986114501953,8.139378547668457
1695712702358216200,0.93921630859375,4.520955562591553,-8.625630378723145,10.92678451538086
1695712702368260900,0.9492607421875,4.8725786209106445,-6.711379528045654,13.578485488891602
1695712702378292500,0.95929248046875,4.8777852058410645,-4.740467071533203,16.05670166015625
1695712702388324000,0.969323974609375,3.9115540981292725,-2.351276159286499,18.331787109375
1695712702398355700,0.979355712890625,3.8485264778137207,0.23058581352233887,21.06980323791504
1695712702408377300,0.98937744140625,4.320974349975586,3.291550874710083,23.158306121826172
1695712702418408000,0.999407958984375,4.402568340301514,5.965768337249756,23.517986297607422
1695712702428444700,1.009444580078125,4.408965110778809,8.026030540466309,22.01727294921875
1695712702438476000,1.01947607421875,3.1209232807159424,9.980117797851562,19.569347381591797
1695712702448503300,1.02950341796875,1.1275020837783813,11.01266098022461,17.609697341918945
1695712702458534100,1.0395341796875,-0.8113066554069519,11.592498779296875,16.146472930908203
1695712702468578000,1.049578125,-2.8168020248413086,12.03608226776123,14.211630821228027
1695712702478610200,1.059610107421875,-4.293454170227051,12.117546081542969,11.44608211517334
1695712702488641500,1.0696416015625,-5.26982307434082,12.07815933227539,8.203635215759277
1695712702498673400,1.07967333984375,-6.721871376037598,11.80356216430664,5.210017204284668
1695712702508694300,1.0896943359375,-10.210286140441895,11.180462837219238,2.764681816101074
1695712702518725000,1.09972509765625,-16.222213745117188,10.153410911560059,0.7889375686645508
1695712702528771800,1.109771728515625,-30.513120651245117,6.652446746826172,-4.7934041023254395
1695712702538804200,1.11980419921875,-16.809350967407227,4.945955753326416,-2.2659850120544434
1695712702548825000,1.1298251953125,-1.7836365699768066,4.312482833862305,-0.41697216033935547
1695712702558856400,1.1398564453125,0.7364867329597473,1.9947319030761719,-5.103895664215088
1695712702568895700,1.149895751953125,-3.991936445236206,-0.06168413162231445,-8.709793090820312
1695712702578927900,1.159927978515625,-6.556964874267578,1.7564892768859863,-6.265743255615234
1695712702588930000,1.169929931640625,1.3648513555526733,2.5406322479248047,-3.33437442779541
1695712702598959000,1.179958984375,8.661539077758789,1.9329566955566406,-1.7141718864440918
1695712702609016600,1.1900166015625,0.9398699402809143,0.23520278930664062,-2.9263458251953125
1695712702619048700,1.200048583984375,-7.917585849761963,4.194913387298584,-5.112576961517334
1695712702629094000,1.210093994140625,1.1141045093536377,2.044325351715088,-0.34830284118652344
1695712702639127000,1.220126953125,8.900805473327637,2.944308280944824,-1.4048938751220703
1695712702649152800,1.23015283203125,5.255498886108398,2.0210351943969727,-1.669959545135498
1695712702659185400,1.240185302734375,-2.1822972297668457,2.668677806854248,-1.6583971977233887
1695712702669219600,1.250219482421875,-3.538273334503174,0.03064274787902832,0.8412837982177734
1695712702679252200,1.260252197265625,-0.7738199830055237,-2.292910099029541,6.012246131896973
1695712702689286000,1.270285888671875,1.4678945541381836,-1.4531128406524658,7.694036483764648
1695712702699318500,1.280318603515625,1.256765365600586,-3.7660067081451416,2.0574989318847656
1695712702709336000,1.290336181640625,0.47838160395622253,-8.605184555053711,-0.04185676574707031
1695712702719367400,1.300367431640625,-0.2678007483482361,-9.736015319824219,-1.054966926574707
1695712702729401300,1.3104013671875,-0.7262874841690063,-9.546602249145508,-1.1792802810668945
1695712702739433000,1.320432861328125,-1.2488176822662354,-12.265409469604492,1.0881271362304688
1695712702749467400,1.33046728515625,-1.1192638874053955,-6.65121603012085,-1.232762336730957
1695712702759499300,1.340499267578125,-1.4290151596069336,-3.989211320877075,1.1283836364746094
1695712702769529900,1.35052978515625,-1.1954258680343628,-3.6163883209228516,1.7056303024291992
1695712702779561500,1.3605615234375,-0.11256998777389526,-4.579774379730225,1.0956363677978516
1695712702789603800,1.370603759765625,-0.2549753189086914,-3.2651431560516357,0.4816751480102539
1695712702799636500,1.380636474609375,-0.477159321308136,-2.4696905612945557,0.2589406967163086
1695712702809658600,1.39065869140625,-0.1272289752960205,-2.6778266429901123,-0.4859457015991211
1695712702819690200,1.400690185546875,0.8245939612388611,-3.163548231124878,-1.4629316329956055
1695712702829721900,1.410721923828125,2.3069210052490234,-3.981452465057373,-2.0693001747131348
1695712702839919900,1.420919921875,2.98818302154541,-3.383601665496826,-2.471034049987793
1695712702849951500,1.430951416015625,2.2853384017944336,-2.5432755947113037,-1.9465303421020508
1695712702859976400,1.4409765625,0.9604195356369019,-2.5930118560791016,-1.1306819915771484
1695712702870007600,1.451007568359375,-1.1579344272613525,-1.3666601181030273,-1.1204109191894531
1695712702879876900,1.460876953125,-0.6507921814918518,-0.19450712203979492,-1.8758172988891602
1695712702889888300,1.47088818359375,1.8390713930130005,0.5858690738677979,-1.346357822418213
1695712702899963000,1.480962890625,2.4060935974121094,2.239824056625366,-1.3708691596984863
1695712702909981200,1.490981201171875,1.7496860027313232,3.2810912132263184,0.05529308319091797
1695712702920005400,1.50100537109375,-1.0807093381881714,5.075820446014404,1.0347585678100586
1695712702930024200,1.511024169921875,5.5303955078125,5.304007053375244,0.7226352691650391
1695712702940075300,1.5210751953125,5.839883804321289,5.85646915435791,4.0350542068481445
1695712702950097400,1.531097412109375,-14.575730323791504,9.650738716125488,5.67124080657959
1695712702960158500,1.541158447265625,-10.439813613891602,10.658352851867676,5.896339416503906
1695712702970184700,1.551184814453125,0.7834254503250122,10.558382034301758,5.357541084289551
1695712702980222000,1.561221923828125,0.8615674376487732,9.979104042053223,3.8568897247314453
1695712702990249500,1.57124951171875,-3.9109249114990234,9.300420761108398,3.331049919128418
1695712703000287200,1.581287353515625,-6.041980266571045,9.430295944213867,3.450244903564453
1695712703010315500,1.5913154296875,-3.73311185836792,8.482877731323242,4.079043388366699
1695712703020343800,1.60134375,-1.829637050628662,7.664341926574707,3.89467716217041
1695712703030372000,1.6113720703125,-1.2134958505630493,7.2127275466918945,2.3934078216552734
1695712703040411100,1.6214111328125,-0.3238511085510254,6.447831153869629,2.0107364654541016
1695712703050440400,1.6314404296875,1.2079298496246338,6.661948204040527,2.4528884887695312
1695712703060441000,1.641441162109375,3.567298412322998,7.862824440002441,4.960862159729004
1695712703070467300,1.65146728515625,4.389391899108887,6.479877948760986,4.00076961517334
1695712703080533800,1.66153369140625,4.334461688995361,5.574098587036133,2.4774045944213867
1695712703090564000,1.671564208984375,5.051349639892578,4.496424674987793,2.5460643768310547
1695712703100588800,1.6815888671875,3.1708273887634277,2.801522970199585,2.565500259399414
1695712703110618600,1.69161865234375,7.432324409484863,0.015394330024719238,0.4651021957397461
1695712703120671000,1.7016708984375,8.421788215637207,-5.757124900817871,-5.419469356536865
1695712703130702800,1.711702880859375,6.583070755004883,-9.569537162780762,-11.901263236999512
1695712703140698400,1.721698486328125,2.5825905799865723,-19.867082595825195,-14.016027450561523
1695712703150726400,1.731726318359375,0.7249184846878052,-34.049659729003906,-12.836641311645508
1695712703160787000,1.741786865234375,-1.742688536643982,-22.326862335205078,-11.131880760192871
1695712703170818300,1.751818359375,-11.889949798583984,-10.449137687683105,-6.1959686279296875
1695712703180846000,1.76184619140625,-15.406452178955078,-5.842708110809326,-2.863102912902832
1695712703190877200,1.771877197265625,-13.575197219848633,-3.151263952255249,0.11489009857177734
1695712703200892200,1.78189208984375,-7.016634464263916,-1.0193874835968018,1.0762672424316406
1695712703210921500,1.79192138671875,1.8946571350097656,0.4646494388580322,-0.633570671081543
1695712703220980000,1.80197998046875,9.060154914855957,0.9953639507293701,-2.6726913452148438
1695712703231012000,1.81201220703125,10.735825538635254,-0.587559700012207,-2.788701057434082
1695712703241041400,1.82204150390625,12.902108192443848,-1.7128939628601074,-2.4063892364501953
1695712703251073300,1.8320732421875,11.164190292358398,1.8675298690795898,-0.11779594421386719
1695712703261079000,1.8420791015625,4.712862014770508,0.996063232421875,0.715064525604248
1695712703271107800,1.85210791015625,0.17905175685882568,-2.312469959259033,2.9438834190368652
1695712703281172700,1.8621728515625,-2.5074377059936523,-3.393315315246582,5.699855804443359
1695712703291205000,1.872205078125,-1.4712657928466797,-4.016839504241943,5.79329252243042
1695712703301229300,1.882229248046875,2.099184989929199,-4.403314113616943,4.3945136070251465
1695712703311261000,1.892260986328125,4.664273262023926,-1.3799409866333008,0.9944710731506348
1695712703321299200,1.90229931640625,4.265872478485107,3.628908157348633,-3.1395270824432373
1695712703331331600,1.91233154296875,4.883641242980957,3.9463133811950684,-3.8835058212280273
1695712703341358000,1.922358154296875,4.346359729766846,2.606245994567871,-2.6526472568511963
1695712703351390000,1.932389892578125,2.825863838195801,-0.48204612731933594,-0.5702729225158691
1695712703361415200,1.942415283203125,-1.415391206741333,-2.9938011169433594,1.8262429237365723
1695712703371446000,1.952446044921875,-8.534195899963379,-5.844611167907715,5.04691219329834
1695712703381509000,1.962509033203125,-10.184979438781738,-3.576934814453125,5.1505327224731445
1695712703391543600,1.97254345703125,-3.769461154937744,1.4313859939575195,2.2816271781921387
1695712703401551400,1.98255126953125,0.4228023290634155,0.8521919250488281,-0.6060919761657715
1695712703411583500,1.99258349609375,-0.08789312839508057,0.43216848373413086,-1.3647165298461914
1695712703421599000,2.002598876953125,-0.4701637327671051,0.6651477813720703,-0.9543666839599609
1695712703431629300,2.01262939453125,0.03222152590751648,0.7868824005126953,-0.15471363067626953
1695712703441670700,2.022670654296875,-0.18901485204696655,1.5646438598632812,0.18776512145996094
1695712703451702000,2.032701904296875,-0.31419837474823,1.0244331359863281,0.26541614532470703
1695712703461736000,2.04273583984375,-1.0407202243804932,3.723005771636963,0.12353038787841797
1695712703471767800,2.052767822265625,-0.020366966724395752,14.094375610351562,-2.468799591064453
1695712703481796000,2.062796142578125,-0.8572276830673218,6.561798572540283,-3.9405465126037598
1695712703491827200,2.0728271484375,-1.3105741739273071,7.717255592346191,-3.699610710144043
1695712703501868500,2.08286865234375,3.5458984375,7.96702766418457,-3.2700588703155518
1695712703511901000,2.09290087890625,6.72461462020874,6.284240245819092,-2.51450777053833
1695712703521956900,2.102956787109375,8.317110061645508,1.487320899963379,-1.0041630268096924
1695712703531991300,2.1129912109375,8.513169288635254,2.5596060752868652,-1.8607072830200195
1695712703541994500,2.122994384765625,4.280738353729248,2.5390400886535645,-3.943328857421875
1695712703552025900,2.13302587890625,-0.40898397564888,3.297232151031494,-4.509981155395508
1695712703562057200,2.14305712890625,1.4154683351516724,6.047024726867676,-5.342146396636963
1695712703572088600,2.153088623046875,-1.3052488565444946,5.684992790222168,-4.4018683433532715
1695712703582115300,2.163115234375,-7.983829498291016,2.944146156311035,-1.98761785030365
1695712703592146400,2.173146484375,-6.803079128265381,0.041031837463378906,0.4404524564743042
1695712703602208000,2.1832080078125,-0.2644280195236206,-10.9675931930542,3.6742424964904785
1695712703612242200,2.1932421875,4.571645259857178,-21.295684814453125,0.9827314615249634
1695712703622254800,2.2032548828125,5.356754779815674,-21.553409576416016,1.5362857580184937
1695712703632286700,2.21328662109375,2.6669764518737793,-12.546785354614258,3.4297871589660645
1695712703642334500,2.22333447265625,0.747792661190033,-5.4684906005859375,4.001988887786865
1695712703652367600,2.23336767578125,0.04247873276472092,-0.6030416488647461,4.433261871337891
1695712703662371300,2.243371337890625,-0.2367537021636963,1.9318885803222656,3.7237370014190674
1695712703672401400,2.2534013671875,-1.146640658378601,-2.1053199768066406,1.9901258945465088
1695712703682463500,2.26346337890625,-0.14340192079544067,-11.076533317565918,0.09537816047668457
1695712703692496600,2.27349658203125,2.450528144836426,-8.540281295776367,-5.506186485290527
1695712703702514000,2.283513916015625,3.2493016719818115,0.39900684356689453,-11.549468994140625
1695712703712545800,2.2935458984375,2.341665744781494,5.258450031280518,-10.503820419311523
1695712703722573800,2.30357373046875,0.35697507858276367,7.322909355163574,-8.05221939086914
1695712703732605200,2.313605224609375,-1.9243149757385254,7.169597625732422,-6.6514129638671875
1695712703742632700,2.3236328125,-3.2392795085906982,5.350258827209473,-3.838613510131836
1695712703752663600,2.33366357421875,-2.4490561485290527,2.8035459518432617,-1.385497808456421
1695712703762703600,2.34370361328125,-0.5856037139892578,0.8760137557983398,-0.9468348026275635
1695712703772735200,2.3537353515625,1.7539615631103516,-0.941828727722168,-0.6701962947845459
1695712703782790000,2.363789794921875,1.9580079317092896,-2.5344953536987305,-0.35109949111938477
1695712703792824000,2.373823974609375,2.2718570232391357,-2.984437942504883,0.37620973587036133
1695712703802836000,2.3838359375,3.0109164714813232,-1.833418846130371,1.0532652139663696
1695712703812867600,2.39386767578125,3.159857988357544,-0.19243621826171875,0.6606688499450684
1695712703822895400,2.403895263671875,2.667797803878784,1.0041389465332031,-0.09618663787841797
1695712703832926700,2.4139267578125,2.067012071609497,1.6477313041687012,-1.1268222332000732
1695712703842973400,2.423973388671875,1.2472186088562012,1.5033893585205078,-1.7431604862213135
1695712703853006000,2.434006103515625,0.7203935980796814,1.2529411315917969,-2.0472512245178223
1695712703863049200,2.44404931640625,0.2650536894798279,0.8780679702758789,-1.9585621356964111
1695712703873083100,2.454083251953125,-0.13271552324295044,0.4371929168701172,-1.528015375137329
1695712703883082000,2.46408203125,-0.26297956705093384,-0.1307048797607422,-1.012359380722046
1695712703893112300,2.4741123046875,-0.040899455547332764,-0.31888675689697266,-0.4005768299102783
1695712703903141600,2.4841416015625,0.3907591700553894,-0.2896242141723633,0.17359328269958496
1695712703913172200,2.494172119140625,0.3228011727333069,0.0797433853149414,0.19357633590698242
1695712703923204600,2.50420458984375,0.31799113750457764,0.6055631637573242,-0.05031108856201172
1695712703933235200,2.514235107421875,0.6421293020248413,0.8743047714233398,0.3308974504470825
1695712703943293000,2.52429296875,0.6705163717269897,0.7392263412475586,0.8972452878952026
1695712703953326000,2.534326171875,0.5172998309135437,0.5657062530517578,1.17107355594635
1695712703963345200,2.54434521484375,0.09141045808792114,0.6214780807495117,1.5839571952819824
1695712703973377000,2.554376953125,0.18275123834609985,0.44488525390625,1.547966480255127
1695712703983423500,2.564423583984375,0.4242694675922394,-0.22995471954345703,0.6852529048919678
1695712703993457000,2.574456787109375,0.05009192228317261,-0.8578081130981445,0.014808416366577148
1695712704003471400,2.584471435546875,-0.6557719111442566,-0.962132453918457,-0.46069908142089844
1695712704013503000,2.5945029296875,-1.0456148386001587,-0.6318321228027344,-0.769686222076416
1695712704023539500,2.60453955078125,-0.9946391582489014,-0.2651948928833008,-0.882098913192749
1695712704033571600,2.614571533203125,-0.7014363408088684,-0.03947257995605469,-0.9862325191497803
1695712704043584500,2.62458447265625,-0.5470012426376343,0.09818077087402344,-1.0895140171051025
1695712704053614300,2.6346142578125,-0.3088560700416565,0.3114604949951172,-1.0529131889343262
1695712704063681000,2.644680908203125,-0.12778306007385254,0.4864320755004883,-0.9510316848754883
1695712704073714700,2.654714599609375,-0.032518625259399414,0.5746564865112305,-0.8802821636199951
1695712704083748400,2.664748291015625,0.06481391191482544,0.3090944290161133,-0.673163890838623
1695712704093782000,2.674781982421875,0.09344291687011719,0.15920639038085938,-0.2999258041381836
1695712704103816400,2.68481640625,0.18930542469024658,0.13916301727294922,0.03144216537475586
1695712704113850000,2.69485009765625,0.258872389793396,0.3247356414794922,0.2488250732421875
1695712704123852500,2.7048525390625,0.29343295097351074,0.6145725250244141,0.18705058097839355
1695712704133883100,2.714883056640625,0.1459026336669922,0.9554939270019531,-0.08025503158569336
1695712704143922400,2.72492236328125,-0.05289781093597412,1.107914924621582,-0.5062985420227051
1695712704153954000,2.7349541015625,-0.18373394012451172,0.895482063293457,-0.8352437019348145
1695712704164003800,2.74500390625,-0.34050726890563965,0.5394525527954102,-0.9870340824127197
1695712704174037200,2.755037353515625,-0.5065953731536865,0.25580501556396484,-0.9454052448272705
1695712704184068600,2.765068603515625,-0.5658220052719116,0.20740985870361328,-0.818474292755127
1695712704194102000,2.77510205078125,-0.5216661691665649,0.20300769805908203,-0.597203254699707
1695712704204125200,2.785125244140625,-0.4995676279067993,0.25212669372558594,-0.12924981117248535
1695712704214157300,2.7951572265625,-0.36870384216308594,0.3736286163330078,0.14957284927368164
1695712704224172800,2.8051728515625,-0.12773525714874268,0.37653160095214844,0.3245706558227539
1695712704234203100,2.815203125,0.1622636914253235,0.3139362335205078,0.11324334144592285
1695712704244233700,2.825233642578125,0.3788260221481323,0.2901906967163086,-0.23234033584594727
1695712704254264300,2.835264404296875,0.4902424216270447,0.17998409271240234,-0.3833901882171631
1695712704264311600,2.8453115234375,0.39404547214508057,0.035660743713378906,-0.3064157962799072
1695712704274343700,2.85534375,0.30665814876556396,-0.09461784362792969,-0.12809991836547852
1695712704284380200,2.865380126953125,0.16193872690200806,-0.10536956787109375,-0.08524799346923828
1695712704294412800,2.875412841796875,0.05563044548034668,0.041278839111328125,-0.12550687789916992
1695712704304464100,2.885464111328125,-0.07715892791748047,0.16848373413085938,-0.12425827980041504
1695712704314498600,2.89549853515625,-0.14277994632720947,0.2766427993774414,-0.25382304191589355
1695712704324656000,2.90565625,-0.049263954162597656,0.38039684295654297,-0.059906721115112305
1695712704334701600,2.91570166015625,-0.04783916473388672,0.2508277893066406,-0.17729854583740234
1695712704344747000,2.9257470703125,-0.0053261518478393555,0.16011333465576172,-0.010365486145019531
1695712704354600000,2.935599853515625,-0.033861637115478516,-0.011162757873535156,0.08070850372314453
1695712704364631300,2.94563134765625,0.018832683563232422,-0.052669525146484375,0.1223456859588623
1695712704374669600,2.955669677734375,0.1658356785774231,0.15839576721191406,-0.2465214729309082
1695712704384701400,2.965701416015625,0.3600776195526123,0.38246822357177734,-0.3421487808227539
1695712704394752500,2.97575244140625,0.47030752897262573,0.4670734405517578,-0.3324434757232666
1695712704404786200,2.9857861328125,0.43721210956573486,0.45114803314208984,-0.32750511169433594
1695712704414789000,2.9957890625,0.2975867986679077,0.34448814392089844,-0.18287229537963867
1695712704424819700,3.00581982421875,0.13887786865234375,0.24302101135253906,-0.08642268180847168
1695712704434852400,3.015852294921875,0.08208739757537842,0.13229084014892578,-0.05738401412963867
1695712704444883000,3.025883056640625,0.0976254940032959,0.04575061798095703,-0.03805708885192871
1695712704454918400,3.03591845703125,0.14287018775939941,-0.025991439819335938,-0.23961162567138672
1695712704464949500,3.045949462890625,0.2918514013290405,-0.059569358825683594,-0.376873254776001
1695712704474998500,3.05599853515625,0.27376794815063477,0.134521484375,-0.35709357261657715
1695712704485031700,3.06603173828125,0.2517315149307251,0.45235252380371094,-0.2524704933166504
1695712704495044900,3.076044921875,0.3307614326477051,0.4113311767578125,-0.44074559211730957
1695712704505075700,3.08607568359375,0.3424081802368164,0.23863601684570312,-0.48248744010925293
1695712704515109400,3.096109375,0.11804366111755371,0.27610015869140625,-0.2742185592651367
1695712704525140500,3.106140380859375,0.14708667993545532,0.2477245330810547,-0.3406703472137451
1695712704535175200,3.116175048828125,0.18415862321853638,0.21056461334228516,-0.43917322158813477
1695712704545206800,3.126206787109375,0.15306168794631958,0.13149738311767578,-0.39342403411865234
1695712704555268600,3.1362685546875,0.12692999839782715,0.13402462005615234,-0.48577022552490234
1695712704565303300,3.14630322265625,0.2510092258453369,0.12251853942871094,-0.5013468265533447
1695712704575328500,3.15632861328125,0.19181114435195923,0.13468360900878906,-0.3458573818206787
1695712704585362200,3.166362060546875,0.12722820043563843,0.13253211975097656,-0.0886681079864502
1695712704595388200,3.17638818359375,0.0736079216003418,0.24840354919433594,-0.01598334312438965
1695712704605421000,3.186421142578125,0.18214952945709229,0.16935157775878906,0.012347698211669922
1695712704615453200,3.196453125,0.04133105278015137,0.4637126922607422,0.5332465171813965
1695712704625486000,3.206486083984375,0.11798352003097534,-0.062491416931152344,-0.35027647018432617
1695712704635507000,3.2165068359375,-0.10107266902923584,0.0982980728149414,0.06464815139770508
1695712704645538600,3.22653857421875,-0.03666067123413086,-0.10629558563232422,-0.6295278072357178
1695712704655585800,3.236585693359375,-0.1491774320602417,0.06964969635009766,-0.21600961685180664
1695712704665619200,3.246619140625,-0.24018681049346924,0.3518972396850586,-0.15711712837219238
1695712704675636700,3.25663671875,-0.1027228832244873,0.3426790237426758,-0.43106675148010254
1695712704685668600,3.266668701171875,-0.07243311405181885,0.39017295837402344,-0.0644230842590332
1695712704695682600,3.2766826171875,-0.010032057762145996,0.5322160720825195,-0.22155284881591797
1695712704705712600,3.286712646484375,0.23823988437652588,0.20052623748779297,-0.5382485389709473
1695712704715769600,3.29676953125,0.32502901554107666,-0.05145740509033203,-0.8347973823547363
1695712704725802200,3.30680224609375,0.32311224937438965,0.05401897430419922,-0.75368332862854
1695712704735835400,3.31683544921875,0.24395203590393066,0.08171939849853516,-0.8445999622344971
1695712704745868000,3.326867919921875,0.03366732597351074,0.3913698196411133,-0.6225762367248535
1695712704755877400,3.33687744140625,0.04675400257110596,0.25292491912841797,-0.7178382873535156
1695712704765907700,3.34690771484375,-0.03315293788909912,-0.04841327667236328,-0.6955502033233643
1695712704775957800,3.356957763671875,-0.24139904975891113,-0.208526611328125,-0.7136647701263428
1695712704785990100,3.366990234375,-0.4905128479003906,0.35082054138183594,0.12486505508422852
1695712704796177700,3.377177734375,-0.7054190635681152,0.6132411956787109,0.02984619140625
1695712704806210000,3.3872099609375,-0.5873074531555176,0.12086296081542969,-0.2709202766418457
1695712704816235500,3.397235595703125,-0.7551721334457397,-0.2500286102294922,-0.1197504997253418
1695712704826267600,3.407267578125,-0.8649770021438599,-0.5481796264648438,-0.566215991973877
1695712704836300300,3.41730029296875,-0.6185688972473145,-0.5111427307128906,-0.31380605697631836
1695712704846323500,3.427323486328125,-0.16342365741729736,-0.2628345489501953,-0.1910536289215088
1695712704856349000,3.437348876953125,-0.040192246437072754,0.19342517852783203,0.34037184715270996
1695712704866381600,3.447381591796875,0.14991432428359985,0.5237131118774414,0.2491915225982666
1695712704876432100,3.45743212890625,0.35789501667022705,0.7156181335449219,0.3008420467376709
1695712704886476300,3.467476318359375,0.4222049117088318,0.9457769393920898,0.17267680168151855
1695712704896508700,3.4775087890625,0.3332473039627075,0.8976554870605469,-0.21192336082458496
1695712704906517800,3.487517822265625,0.24557554721832275,0.6888933181762695,-0.3220667839050293
1695712704916550000,3.4975498046875,-0.0077517032623291016,0.6945629119873047,-0.4615592956542969
1695712704926582300,3.507582275390625,-0.23545444011688232,0.7327699661254883,-1.06526517868042
1695712704936614700,3.51761474609375,-0.5659914016723633,0.9597187042236328,-1.5505805015563965
1695712704946647000,3.52764697265625,-0.7952314615249634,0.977996826171875,-1.6171345710754395
1695712704956676900,3.5376767578125,-0.9573850631713867,1.0334253311157227,-1.439671516418457
1695712704966706400,3.54770654296875,-1.2069933414459229,0.9770050048828125,-1.1191601753234863
1695712704976577000,3.557576904296875,-1.5435664653778076,0.8356084823608398,-0.8661623001098633
1695712704986594300,3.56759423828125,-1.5941176414489746,0.5413818359375,-0.6750023365020752
1695712704996672000,3.577672119140625,-1.2011744976043701,-0.4918546676635742,0.3436408042907715
1695712705006695400,3.5876953125,-0.9275518655776978,-0.7532138824462891,0.7404186725616455
1695712705016715300,3.59771533203125,-0.7795392274856567,-0.6846752166748047,1.1055598258972168
1695712705026738200,3.60773828125,-0.47419434785842896,-0.46372032165527344,1.0473239421844482
1695712705036798700,3.617798828125,-0.1539711356163025,-0.1669330596923828,0.8011298179626465
1695712705046825500,3.627825439453125,0.13207027316093445,0.12472248077392578,0.501267671585083
1695712705056832800,3.637832763671875,0.058338820934295654,0.2871265411376953,0.23504066467285156
1695712705066857500,3.647857421875,-0.1758589744567871,0.33435630798339844,0.147965669631958
1695712705076926500,3.657926513671875,-0.3777795433998108,0.30986785888671875,0.13823223114013672
1695712705086955800,3.667955810546875,-0.5465630292892456,0.15597248077392578,0.09736347198486328
1695712705096989700,3.67798974609375,-0.699009895324707,0.054752349853515625,0.12416768074035645
1695712705107019500,3.68801953125,-0.5858764052391052,-0.10884857177734375,0.09028148651123047
1695712705117048800,3.698048828125,-0.30374428629875183,-0.22446727752685547,-0.14392709732055664
1695712705127078400,3.708078369140625,-0.04075923562049866,-0.30232906341552734,-0.16541600227355957
1695712705137123800,3.718123779296875,0.23039758205413818,-0.1604175567626953,-0.08227038383483887
1695712705147155200,3.7281552734375,0.5005995631217957,-0.09529590606689453,-0.024480342864990234
1695712707033200000,5.6142001953125,-4.012866020202637,-1.6873760223388672,0.22319507598876953
1695712707043232300,5.624232177734375,-0.8778089880943298,-1.198115348815918,-0.5744657516479492
1695712707053265000,5.634264892578125,2.4113621711730957,-1.131596565246582,-1.4735229015350342
1695712707063298600,5.644298583984375,4.152536869049072,-1.5054435729980469,-2.2802329063415527
1695712707073332500,5.65433251953125,4.082118034362793,-2.139019012451172,-3.066851854324341
1695712707083366400,5.664366455078125,3.037466526031494,-2.637937545776367,-3.4999353885650635
1695712707093400300,5.674400390625,2.089966058731079,-2.8971033096313477,-3.586723566055298
1695712707103434000,5.68443408203125,1.6682127714157104,-3.0987234115600586,-3.1846816539764404
1695712707113468000,5.694468017578125,2.2059266567230225,-2.4749794006347656,-2.5797951221466064
1695712707123501800,5.704501708984375,3.2163400650024414,-1.7454719543457031,-1.7255265712738037
1695712707133535500,5.714535400390625,2.630727767944336,-1.7510900497436523,-1.0457768440246582
1695712707143569400,5.7245693359375,1.8905019760131836,-1.7980537414550781,-0.4780583381652832
1695712707153603300,5.734603271484375,1.7876768112182617,-1.7121543884277344,-0.11677050590515137
1695712707163635200,5.74463525390625,2.3792481422424316,-1.586857795715332,0.21817457675933838
1695712707173665000,5.7546650390625,2.9661898612976074,-1.562826156616211,0.6149859428405762
1695712707183694600,5.764694580078125,3.591960906982422,-1.1288881301879883,0.5895795822143555
1695712707193724400,5.774724365234375,4.196531295776367,-0.4224843978881836,0.5453860759735107
1695712707203754000,5.78475390625,4.4595046043396,0.7175750732421875,0.41292834281921387
1695712707213783800,5.79478369140625,4.295761585235596,1.8387174606323242,0.19519281387329102
1695712707223813400,5.8048134765625,4.3227691650390625,2.9169869422912598,-0.20859622955322266
1695712707233843200,5.81484326171875,4.6292266845703125,3.7523207664489746,-0.4236721992492676
1695712707243872800,5.824872802734375,5.072064399719238,4.086996555328369,-0.36443352699279785
1695712707253902600,5.834902587890625,5.105525493621826,4.452098846435547,-0.4134221076965332
1695712707263932200,5.84493212890625,5.106564044952393,4.703291893005371,-0.5402436256408691
1695712707273968600,5.85496875,5.14093017578125,4.679994583129883,-0.5355517864227295
1695712707284030500,5.865030517578125,5.099757194519043,4.487035751342773,-0.4759836196899414
1695712707294092300,5.87509228515625,5.015212059020996,4.431447982788086,-0.48658275604248047
1695712707304154000,5.885154052734375,4.841500759124756,4.025298118591309,-0.3919379711151123
1695712707314216000,5.8952158203125,4.655126571655273,4.238908767700195,-0.38117504119873047
1695712707324277800,5.90527783203125,4.391407489776611,4.492178916931152,-0.903148889541626
1695712707334310400,5.915310302734375,4.39868688583374,4.64373779296875,-1.0921075344085693
1695712707344329200,5.9253291015625,4.080855369567871,4.518512725830078,-1.0910751819610596
1695712707354348000,5.93534814453125,3.736856460571289,4.391512870788574,-0.9605605602264404
1695712707364366800,5.945366943359375,3.0824732780456543,4.221636772155762,-0.6133697032928467
1695712707374386000,5.955385986328125,2.012507915496826,3.9678444862365723,-0.1319572925567627
1695712707384404700,5.96540478515625,0.46736741065979004,3.6408333778381348,0.26323771476745605
1695712707394423600,5.975423583984375,-1.2236008644104004,3.140481472015381,0.39267611503601074
1695712707404442400,5.9854423828125,-2.3323814868927,2.5153889656066895,0.30959343910217285
1695712707414461200,5.995461181640625,-4.795486927032471,1.3316621780395508,0.008262157440185547
1695712707424480300,6.005480224609375,-9.763608932495117,-1.0588512420654297,-0.6273679733276367
1695712707434499000,6.0154990234375,-13.908605575561523,-4.0821943283081055,-1.78395676612854
1695712707444531200,6.02553125,-14.217870712280273,-7.504401206970215,-2.657273769378662
1695712707454560500,6.035560546875,-12.83445930480957,-11.033438682556152,-3.3538436889648438
1695712707464589600,6.045589599609375,-8.014259338378906,-12.696048736572266,-1.6319963932037354
1695712707474619000,6.055618896484375,-2.4597432613372803,-10.835874557495117,1.528761863708496
1695712707484648200,6.065648193359375,-0.26477503776550293,-7.237911224365234,3.172713279724121
1695712707494677500,6.075677490234375,-0.8132603168487549,-3.111940383911133,2.9729061126708984
1695712707504706800,6.085706787109375,-1.9893162250518799,0.34996986389160156,1.9234975576400757
1695712707514735900,6.09573583984375,-1.2590298652648926,2.6530613899230957,-0.007962226867675781
1695712707524765200,6.10576513671875,-0.24594759941101074,3.0916895866394043,-1.2540724277496338
1695712707534794500,6.11579443359375,0.6316776275634766,1.4967060089111328,-1.387258768081665
1695712707544827100,6.1258271484375,3.0849828720092773,-0.975006103515625,-0.6079702377319336
1695712707554861800,6.13586181640625,8.20514965057373,-3.7455387115478516,0.18573498725891113
1695712707564896300,6.145896240234375,9.470939636230469,-5.332429885864258,-0.2508811950683594
1695712707574931000,6.155930908203125,7.722701072692871,-4.8101654052734375,-1.0779876708984375
1695712707584965600,6.165965576171875,7.982566833496094,-2.46909236907959,-1.4294679164886475
1695712707595000300,6.176000244140625,8.135014533996582,0.6074895858764648,-2.4226877689361572
1695712707605035000,6.186034912109375,6.370547294616699,2.7960896492004395,-4.0004353523254395
1695712707615069400,6.1960693359375,4.392080307006836,4.667724609375,-5.757378578186035
1695712707625104100,6.206104248046875,4.544166088104248,5.628862380981445,-5.859635353088379
1695712707635138800,6.216138916015625,5.304167747497559,5.333953857421875,-5.316656112670898
1695712707645171500,6.22617138671875,5.383047580718994,3.8626646995544434,-4.019071578979492
1695712707655204600,6.23620458984375,4.629980564117432,1.3949089050292969,-1.852522611618042
1695712707665237800,6.24623779296875,3.0823659896850586,-0.885289192199707,-0.1912398338317871
1695712707675271000,6.25627099609375,2.2708964347839355,-2.18084716796875,1.4404985904693604
1695712707685304000,6.266303955078125,2.2352027893066406,-2.384049415588379,1.7517789602279663
1695712707695337200,6.276337158203125,2.310377359390259,-1.7370452880859375,1.6295195817947388
1695712707705370400,6.286370361328125,2.5580286979675293,-1.3955793380737305,1.881691336631775
1695712707715403500,6.296403564453125,2.0434300899505615,-1.4781074523925781,1.7253397703170776
1695712707725436700,6.306436767578125,1.8368854522705078,-1.3286199569702148,1.4799304008483887
1695712707735469600,6.316469482421875,1.7130526304244995,-1.0298042297363281,1.5412603616714478
1695712707745504800,6.3265048828125,0.9865175485610962,-0.5977439880371094,1.617958426475525
1695712707755551700,6.3365517578125,0.5413800477981567,-0.03897666931152344,1.7516261339187622
1695712707765598500,6.346598388671875,0.324641615152359,0.3639945983886719,2.09193754196167
1695712707775645200,6.356645263671875,0.2863970398902893,0.9084892272949219,2.248779773712158
1695712707785692000,6.36669189453125,0.03292196989059448,1.193624496459961,2.3421237468719482
1695712707795738600,6.376738525390625,-0.4741607904434204,1.337170124053955,2.0975148677825928
1695712707805785300,6.386785400390625,-1.4694966077804565,1.4936790466308594,1.5827406644821167
1695712707815832000,6.39683203125,-2.364633083343506,1.5339603424072266,0.9558396339416504
1695712707825879000,6.406879150390625,-2.7324018478393555,1.2618012428283691,0.5924539566040039
1695712707835911200,6.4169111328125,-2.404493808746338,0.796478271484375,0.6151294708251953
1695712707845932000,6.42693212890625,-2.032233238220215,0.4862537384033203,0.6319146156311035
1695712707855953000,6.436952880859375,-1.766061544418335,0.4310951232910156,0.7560341358184814
1695712707865973800,6.446973876953125,-1.3780690431594849,0.6555881500244141,0.8601038455963135
1695712707875994600,6.45699462890625,-1.115998387336731,1.054931640625,0.9071469306945801
1695712707886015200,6.46701513671875,-1.0553464889526367,1.3561954498291016,0.5798537731170654
1695712707896036000,6.4770361328125,-0.800586462020874,1.2039518356323242,0.10760188102722168
1695712707906057000,6.487056884765625,-0.4407978057861328,0.6212778091430664,-0.10537910461425781
1695712707916077800,6.497077880859375,-0.44461750984191895,-0.23331356048583984,0.014169692993164062
1695712707926098700,6.5070986328125,-1.0352617502212524,-1.0471429824829102,0.4069399833679199
1695712707936119600,6.51711962890625,-2.251540422439575,-1.7465333938598633,1.022611141204834
1695712707946151200,6.527151123046875,-3.8759002685546875,-2.423811912536621,1.8197096586227417
1695712707956180000,6.537179931640625,-4.930646896362305,-3.083895683288574,2.5468873977661133
1695712707966209000,6.547208984375,-4.717328071594238,-3.6938276290893555,3.1967034339904785
1695712707976238000,6.557238037109375,-3.4968700408935547,-3.989368438720703,3.5820693969726562
1695712707986267000,6.567266845703125,-2.363269567489624,-3.995915412902832,3.8012216091156006
1695712707996296000,6.5772958984375,-1.4943221807479858,-4.013327598571777,3.929530143737793
1695712708006325000,6.587324951171875,-1.243492603302002,-4.474696159362793,3.7515532970428467
1695712708016353800,6.597353759765625,-1.6870776414871216,-4.992891311645508,3.1448817253112793
1695712708026382800,6.6073828125,-2.86730694770813,-5.364475250244141,2.264838695526123
1695712708036412000,6.617411865234375,-4.453431129455566,-5.943474769592285,0.9592318534851074
1695712708046443800,6.62744384765625,-5.6683149337768555,-5.533843994140625,-0.5843896865844727
1695712708056476700,6.6374765625,-6.347832679748535,-4.5285844802856445,-0.6285288333892822
1695712708066509600,6.647509521484375,-6.2938923835754395,-4.275646209716797,1.1328401565551758
1695712708076542500,6.65754248046875,-5.737886428833008,-4.413041114807129,2.232480049133301
1695712708086575400,6.667575439453125,-4.987536907196045,-4.0296525955200195,2.1946966648101807
1695712708096608300,6.677608154296875,-3.391098737716675,-2.943131446838379,1.135026454925537
1695712708106641200,6.68764111328125,-1.3763692378997803,-1.9852075576782227,-0.21903538703918457
1695712708116674000,6.697674072265625,0.9621248245239258,-1.7399444580078125,-1.8013081550598145
1695712708126707000,6.70770703125,3.401888132095337,-2.0418701171875,-3.1697638034820557
1695712708136739800,6.71773974609375,4.669389724731445,-2.85787296295166,-3.967989444732666
1695712708146771700,6.727771728515625,3.9133057594299316,-3.3224258422851562,-5.138630390167236
1695712708156803300,6.73780322265625,2.484020471572876,-3.4384660720825195,-5.601222991943359
1695712708166835200,6.747835205078125,1.9377822875976562,-3.60699462890625,-5.316817283630371
1695712708176867000,6.7578671875,2.007157564163208,-2.9993886947631836,-4.799461364746094
1695712708186898700,6.767898681640625,3.058398485183716,-2.1840295791625977,-3.7868030071258545
1695712708196930600,6.7779306640625,2.494544744491577,-2.255105972290039,-2.5777838230133057
1695712708206962400,6.78796240234375,0.5629515647888184,-2.504732131958008,-1.379159688949585
1695712708216994000,6.797994140625,0.796235203742981,-2.334482192993164,-0.2984657287597656
1695712708227026000,6.80802587890625,2.2208516597747803,-2.228581428527832,0.9531430006027222
1695712708237057800,6.818057861328125,3.0503029823303223,-1.9573755264282227,1.725449800491333
1695712708247092700,6.8280927734375,3.867827892303467,-1.3382139205932617,2.278604507446289
1695712708257143300,6.838143310546875,4.839737415313721,-0.3238658905029297,2.563377857208252
1695712708267193600,6.848193603515625,5.350463390350342,1.0645155906677246,2.415637254714966
1695712708277244000,6.858243896484375,5.07220983505249,2.37713623046875,1.7388378381729126
1695712708287294500,6.86829443359375,5.388523101806641,3.6952319145202637,1.1182103157043457
1695712708297344800,6.8783447265625,6.0640106201171875,4.586357116699219,0.6482394933700562
1695712708307395000,6.88839501953125,6.341607093811035,5.273012161254883,0.21252202987670898
1695712708317445400,6.8984453125,6.605108261108398,5.624820709228516,-0.1849043369293213
1695712708327496000,6.908495849609375,6.7011823654174805,5.623935699462891,-0.4774503707885742
1695712708337527300,6.91852734375,6.5948004722595215,5.3072614669799805,-0.661431074142456
1695712708347544300,6.92854443359375,6.477577209472656,4.862618446350098,-0.6363322734832764
1695712708357561000,6.93856103515625,6.2415924072265625,4.6137847900390625,-0.5792319774627686
1695712708367578000,6.948578125,5.956210613250732,4.621297836303711,-0.6511669158935547
1695712708377595100,6.95859521484375,5.656808376312256,4.784547328948975,-0.871476411819458
1695712708387612000,6.96861181640625,5.497374534606934,4.909067630767822,-1.019519329071045
1695712708397629000,6.97862890625,5.423966884613037,4.894289970397949,-1.0206918716430664
1695712708407645700,6.988645751953125,5.163987159729004,4.599758148193359,-0.8809018135070801
1695712708417662700,6.998662841796875,4.5854339599609375,4.260835647583008,-0.7059016227722168
1695712708427679700,7.0086796875,3.74837064743042,4.0258684158325195,-0.3493993282318115
1695712708437696500,7.018696533203125,2.4031643867492676,3.991185188293457,0.005246639251708984
1695712708447728400,7.028728271484375,0.6525852680206299,3.897439479827881,0.3200981616973877
1695712708457761800,7.03876171875,-1.3260574340820312,3.4829773902893066,0.4920823574066162
1695712708467795500,7.04879541015625,-6.18061637878418,2.2225208282470703,0.016393423080444336
1695712708477828900,7.058828857421875,-16.862197875976562,-0.5850753784179688,-1.5627567768096924
1695712708487862300,7.0688623046875,-19.38088607788086,-4.198995590209961,-3.641982316970825
1695712708497896000,7.07889599609375,-16.05714988708496,-9.977642059326172,-5.116201400756836
1695712708507929300,7.088929443359375,-15.302396774291992,-17.05620574951172,-6.023052215576172
1695712708517962800,7.098962646484375,-7.199865341186523,-18.09275245666504,-3.5056915283203125
1695712708527996200,7.10899609375,-1.184669017791748,-12.54293155670166,-0.592780590057373
1695712708538029800,7.11902978515625,-0.5625796318054199,-6.291094779968262,1.1750342845916748
1695712708548061700,7.129061767578125,-1.3714075088500977,-0.44635009765625,1.7642943859100342
1695712708558094300,7.13909423828125,-1.5890579223632812,3.960610866546631,0.8282208442687988
1695712708568126700,7.149126708984375,-0.9588308334350586,5.698915481567383,-0.6633546352386475
1695712708578159000,7.1591591796875,0.027292728424072266,4.581805229187012,-1.1039996147155762
1695712708588191700,7.169191650390625,3.0947506427764893,1.5213851928710938,0.5181231498718262
1695712708598224100,7.17922412109375,9.478935241699219,-1.4985675811767578,1.8499383926391602
1695712708608256500,7.189256591796875,13.770442962646484,-3.63741397857666,1.879132866859436
1695712708618289200,7.1992890625,11.629149436950684,-4.420254707336426,0.6159026622772217
1695712708628321500,7.209321533203125,7.300840377807617,-3.77919864654541,-0.6876387596130371
1695712708638354000,7.21935400390625,4.462533950805664,-1.7553958892822266,-2.6649587154388428
1695712708648386000,7.229385986328125,3.6901400089263916,0.11767101287841797,-4.7629547119140625
1695712708658417700,7.239417724609375,4.321019649505615,1.819697380065918,-6.137291431427002
1695712708668449500,7.249449462890625,6.522069931030273,3.4587206840515137,-5.6412506103515625
1695712708678481200,7.259481201171875,7.3804240226745605,4.2320990562438965,-4.432352066040039
1695712708688513000,7.269512939453125,5.7743821144104,3.9218688011169434,-3.3322367668151855
1695712708698544600,7.279544677734375,4.2623443603515625,2.0302248001098633,-1.5840959548950195
1695712708708576500,7.289576416015625,3.453181266784668,-0.5534572601318359,0.08952164649963379
1695712708718608100,7.299608154296875,2.6458356380462646,-2.252096176147461,1.037138819694519
1695712708728640000,7.309639892578125,2.4170026779174805,-2.719376564025879,1.4548587799072266
1695712708738671600,7.319671630859375,2.6869699954986572,-2.5054140090942383,1.7447234392166138
1695712708748706800,7.329706787109375,2.1561086177825928,-2.1507863998413086,1.553399682044983
1695712708758757400,7.33975732421875,2.2618775367736816,-1.860367774963379,1.7950648069381714
1695712708768808000,7.349807861328125,2.763593912124634,-1.2483348846435547,0.8838491439819336
1695712708778858500,7.3598583984375,2.6788735389709473,-0.5127944946289062,0.4721693992614746
1695712708788909000,7.369908935546875,1.768710732460022,0.5188465118408203,0.29242563247680664
1695712708798959400,7.37995947265625,0.7397055625915527,1.0465421676635742,0.5072386264801025
1695712708809010000,7.390010009765625,0.401925653219223,1.2831573486328125,1.007746934890747
1695712708819060500,7.400060546875,0.3465988039970398,1.5983390808105469,1.2930728197097778
1695712708829111000,7.410111083984375,-0.09503740072250366,1.8389835357666016,1.6000584363937378
1695712708839142400,7.420142333984375,-0.8594922423362732,1.855076789855957,1.7725181579589844
1695712708849157600,7.43015771484375,-1.6222991943359375,1.9929046630859375,1.5127230882644653
1695712708859173000,7.440173095703125,-2.161653518676758,2.0890684127807617,1.1036312580108643
1695712708869188400,7.450188232421875,-2.1836020946502686,1.9991836547851562,1.0191526412963867
1695712708879203600,7.46020361328125,-1.6664657592773438,1.5274295806884766,1.15281081199646
1695712708889218800,7.47021875,-0.9393788576126099,0.8621149063110352,1.2824409008026123
1695712708899234000,7.480234130859375,-0.42198681831359863,0.5736274719238281,1.3321359157562256
1695712708909249500,7.49024951171875,-0.006918072700500488,0.6899051666259766,1.263176441192627
1695712708919264800,7.5002646484375,0.15760505199432373,0.8271303176879883,1.0074512958526611
1695712708929280000,7.510280029296875,-0.2225126028060913,0.6787328720092773,0.5093045234680176
1695712708939311600,7.5203115234375,-0.8170335292816162,0.0635385513305664,-0.017974138259887695
1695712708949343000,7.530343017578125,-1.5537257194519043,-0.8070526123046875,-0.27074170112609863
1695712708959374300,7.540374267578125,-2.642993688583374,-1.760554313659668,0.3588848114013672
1695712708969405700,7.55040576171875,-3.999810218811035,-2.508265495300293,1.515911340713501
1695712708979437000,7.56043701171875,-5.0511322021484375,-3.218043327331543,2.651217460632324
1695712708989468700,7.57046875,-5.160861968994141,-3.993396759033203,3.4319570064544678
1695712708999500000,7.5805,-4.414340972900391,-4.542670249938965,3.712641716003418
1695712709009531400,7.590531494140625,-3.39931321144104,-4.363687515258789,3.7877728939056396
1695712709019562800,7.600562744140625,-2.4336981773376465,-3.623488426208496,3.631918430328369
1695712709029594000,7.610593994140625,-1.60470449924469,-3.3504037857055664,3.4104714393615723
1695712709039625700,7.620625732421875,-1.4468433856964111,-3.7091808319091797,2.9231414794921875
1695712709049657900,7.630657958984375,-2.2650551795959473,-4.374239921569824,2.1381802558898926
1695712709059693600,7.640693603515625,-3.3933982849121094,-4.868293762207031,1.2134616374969482
1695712709069729500,7.6507294921875,-4.518202781677246,-5.548077583312988,0.35194897651672363
1695712709079765200,7.66076513671875,-5.126326084136963,-5.494953155517578,-0.3868849277496338
1695712709089801000,7.670801025390625,-5.490178108215332,-4.4350433349609375,-0.449138879776001
1695712709099836700,7.680836669921875,-5.638291358947754,-3.8271484375,1.0939891338348389
1695712709109872400,7.690872314453125,-4.894819259643555,-3.9438867568969727,2.796198844909668
1695712709119908400,7.700908447265625,-4.209954738616943,-3.8815717697143555,2.9919769763946533
1695712709129944000,7.710944091796875,-3.959469795227051,-2.993824005126953,1.8336273431777954
1695712709139979800,7.720979736328125,-3.0052313804626465,-2.2372665405273438,0.44067907333374023
1695712709150012000,7.731011962890625,0.10600227117538452,-1.9828052520751953,-0.6955649852752686
1695712709160043000,7.74104296875,3.6505768299102783,-2.4821653366088867,-1.7843854427337646
1695712709170074400,7.751074462890625,4.817093849182129,-3.472442626953125,-2.4930403232574463
1695712709180105500,7.76110546875,4.143376350402832,-4.2734375,-3.151986837387085
1695712709190136600,7.771136474609375,2.6710734367370605,-4.600189208984375,-3.3718602657318115
1695712709200168000,7.78116796875,1.3293850421905518,-4.673654556274414,-3.457916259765625
1695712709210199000,7.791198974609375,1.4960007667541504,-3.9654436111450195,-2.7599010467529297
1695712709220230400,7.80123046875,2.155836582183838,-2.8805627822875977,-2.0438997745513916
1695712709230261800,7.81126171875,2.672656297683716,-2.222454071044922,-1.1429524421691895
1695712709240292900,7.82129296875,2.2985999584198,-1.893937110900879,-0.5470185279846191
1695712709250328600,7.83132861328125,1.951606035232544,-1.4654359817504883,-0.1486046314239502
1695712709260380400,7.84138037109375,2.300232172012329,-0.9732456207275391,-0.11704802513122559
1695712709270432500,7.8514326171875,3.100584030151367,-0.510533332824707,0.2260150909423828
1695712709280484600,7.861484619140625,4.470974445343018,-0.0681295394897461,0.714881420135498
1695712709290536400,7.871536376953125,5.1160993576049805,0.48390769958496094,0.9427462816238403
1695712709300588500,7.881588623046875,5.232082366943359,1.1663613319396973,1.2564504146575928
1695712709310640600,7.891640625,5.159704208374023,2.0249223709106445,1.0568355321884155
1695712709320692500,7.9016923828125,5.3622260093688965,3.330204486846924,0.20128536224365234
1695712709330744600,7.91174462890625,5.943119525909424,4.063628673553467,1.6977310180664062
1695712709340776400,7.9217763671875,6.01226282119751,4.572745323181152,0.14586114883422852
1695712709350793000,7.93179296875,5.879932880401611,4.934483528137207,-0.5667531490325928
1695712709360809500,7.9418095703125,6.098824501037598,5.096383094787598,0.72491455078125
1695712709370825700,7.95182568359375,6.079410552978516,4.816939353942871,0.5835292339324951
1695712709380842200,7.96184228515625,5.793846130371094,4.574527740478516,-0.3805062770843506
1695712709390858800,7.971858642578125,5.7759013175964355,4.287409782409668,-0.2194197177886963
1695712709400875300,7.981875244140625,5.447751045227051,4.032938003540039,-0.2615349292755127
1695712709410891800,7.991891845703125,5.163728713989258,4.209503173828125,-0.5576624870300293
1695712709420908000,8.001907958984376,4.834293842315674,4.406064987182617,-0.8046112060546875
1695712709430924500,8.011924560546875,4.552406311035156,4.72285795211792,-0.886235237121582
1695712709440941000,8.021941162109375,4.192793846130371,4.906288146972656,-0.840416669845581
1695712709450973000,8.031972900390626,3.755509853363037,4.759499549865723,-0.72835373878479
1695712709461005600,8.042005615234375,3.0496952533721924,4.480996131896973,-0.44614386558532715
1695712709471038200,8.0520380859375,1.9869098663330078,4.186628341674805,-0.15358734130859375
1695712709481070800,8.06207080078125,0.6416015625,3.804194927215576,0.13548016548156738
1695712709491103500,8.072103515625,-0.8158714771270752,3.270720958709717,0.24716401100158691
1695712709501136100,8.08213623046875,-3.9214260578155518,1.9771642684936523,-0.31446123123168945
1695712709511168800,8.092168701171875,-11.18382453918457,-0.5972166061401367,-1.7181775569915771
1695712709521201400,8.102201416015625,-17.635677337646484,-3.9674692153930664,-3.7036890983581543
1695712709531234000,8.112234130859376,-16.39451789855957,-8.182422637939453,-5.185524940490723
1695712709541266400,8.122266357421875,-14.728984832763672,-13.614886283874512,-6.259013652801514
1695712709551298000,8.132298095703124,-9.517948150634766,-15.908100128173828,-3.6117289066314697
1695712709561326600,8.14232666015625,-2.7061989307403564,-12.165505409240723,0.4907045364379883
1695712709571355400,8.15235546875,-0.6997761726379395,-6.765660285949707,2.5568366050720215
1695712709581384200,8.16238427734375,-0.8134670257568359,-0.9495716094970703,3.42488956451416
1695712709591413000,8.1724130859375,-1.1481902599334717,3.7320761680603027,3.8249690532684326
1695712709601441800,8.18244189453125,-0.2983682155609131,6.026910781860352,2.545473337173462
1695712709611470600,8.192470703125,0.8857543468475342,4.894380569458008,0.8291125297546387
1695712709621499100,8.2024990234375,3.2149620056152344,2.2574143409729004,1.1780126094818115
1695712709631528000,8.21252783203125,8.62528133392334,-0.31535911560058594,1.444382667541504
1695712709641556700,8.222556640625,13.457830429077148,-2.4578142166137695,0.18755269050598145
1695712709651588400,8.23258837890625,11.948541641235352,-4.544872283935547,-1.868433952331543
1695712709661621000,8.24262109375,0.715613842010498,-6.486628532409668,-3.345491886138916
1695712709671653600,8.252653564453125,-3.319152355194092,-5.944209098815918,-5.766980171203613
1695712709681686300,8.262686279296876,4.4153547286987305,-3.7090253829956055,-6.877218723297119
1695712709691718700,8.27271875,9.415426254272461,-1.0589485168457031,-5.647706031799316
1695712709701751300,8.282751220703124,10.149913787841797,2.3560400009155273,-4.74266242980957
1695712709711784000,8.292783935546876,8.872551918029785,5.311107635498047,-3.8317034244537354
1695712709721816600,8.302816650390625,5.924141883850098,6.103672027587891,-2.4911627769470215
1695712709731849200,8.31284912109375,3.1874542236328125,5.266355514526367,-1.220386266708374
1695712709741881600,8.322881591796875,3.457622766494751,3.0510621070861816,0.3112819194793701
1695712709751914200,8.332914306640625,4.3504228591918945,0.10914897918701172,1.2111754417419434
1695712709761950200,8.3429501953125,3.500734329223633,-2.1611900329589844,1.5106277465820312
1695712709772010800,8.3530107421875,2.2276973724365234,-3.5209836959838867,1.575847864151001
1695712709782071300,8.3630712890625,1.5677218437194824,-4.157646179199219,1.600059986114502
1695712709792131600,8.373131591796875,1.7573189735412598,-3.9164552688598633,1.8242477178573608
1695712709802192100,8.383192138671875,1.9996230602264404,-2.2622251510620117,1.7573848962783813
1695712709812252700,8.393252685546875,2.3785367012023926,-0.6556272506713867,1.5776699781417847
1695712709822313000,8.40331298828125,1.619512915611267,0.781214714050293,1.6170605421066284
1695712709832344800,8.4133447265625,0.7484232783317566,1.9101572036743164,1.9705891609191895
1695712709842361600,8.423361572265625,0.3258446156978607,2.332730293273926,2.135010242462158
1695712709852378400,8.43337841796875,-0.1493227779865265,2.3577442169189453,2.1722981929779053
1695712709862395000,8.443394775390624,-0.5237234234809875,2.001622200012207,1.9667222499847412
1695712709872411600,8.45341162109375,-1.2186698913574219,1.4060564041137695,1.5806423425674438
1695712709882428200,8.46342822265625,-1.9186738729476929,1.0256452560424805,1.3911552429199219
1695712709892445000,8.47344482421875,-2.2140231132507324,0.5154447555541992,1.4732966423034668
1695712709902461400,8.48346142578125,-2.2059168815612793,0.056944847106933594,1.8607875108718872
1695712709912478200,8.493478271484374,-2.2312569618225098,-0.36332225799560547,2.208949565887451
1695712709922494700,8.50349462890625,-2.0723319053649902,-0.3903083801269531,2.1562631130218506
1695712709932511500,8.513511474609375,-1.2851155996322632,0.7057714462280273,1.7053879499435425
1695712709942542800,8.52354296875,-0.4385420083999634,1.7158136367797852,0.9657514095306396
1695712709952572200,8.533572265625,-0.05605196952819824,2.1648101806640625,-0.05881190299987793
1695712709962601500,8.5436015625,0.1536163091659546,2.2196044921875,-0.890477180480957
1695712709972630800,8.553630859375,0.31398439407348633,2.1709957122802734,-1.519775390625
1695712709982660000,8.56366015625,-0.14587748050689697,1.3592300415039062,-1.9223153591156006
1695712709992689400,8.573689453125,-1.259084701538086,-0.007533073425292969,-1.449977159500122
1695712710002718700,8.58371875,-2.8761119842529297,-1.224116325378418,-0.26142191886901855
1695712710012748000,8.593748046875,-5.14340353012085,-2.563868522644043,0.9332525730133057
1695712710022777300,8.60377734375,-6.324700355529785,-3.8228254318237305,2.05698299407959
1695712710032806700,8.613806640625,-5.256325721740723,-4.70101261138916,3.1947743892669678
1695712710042846700,8.6238466796875,-3.8924148082733154,-4.542511940002441,3.730139970779419
1695712710052961300,8.633961181640625,-3.3589749336242676,-3.6850433349609375,3.952540397644043
1695712710063076000,8.644076171875,-3.0497026443481445,-3.1854724884033203,3.953432559967041
1695712710073116000,8.654115966796875,-3.2981839179992676,-3.484090805053711,3.789576530456543
1695712710083143200,8.66414306640625,-4.321493148803711,-4.38991641998291,3.1713109016418457
1695712710093170400,8.67417041015625,-5.387558937072754,-5.381377220153809,2.210367202758789
1695712710103210500,8.68421044921875,-5.560492515563965,-6.780267715454102,1.4514344930648804
1695712710113250300,8.694250244140624,-4.728449821472168,-7.213074684143066,1.18699312210083
1695712710123113200,8.70411328125,-5.043334007263184,-5.9575605392456055,1.6940643787384033
1695712710133138400,8.714138427734374,-5.666354179382324,-4.584633827209473,3.0574843883514404
1695712710143324700,8.72432470703125,-3.976008653640747,-4.546093940734863,3.3480100631713867
1695712710153388300,8.73438818359375,-1.1945620775222778,-4.604616165161133,2.4377377033233643
1695712710163413200,8.744413330078125,-0.12317299842834473,-4.605925559997559,0.689765453338623
1695712710173420800,8.7544208984375,0.9119979739189148,-4.222434043884277,-1.126636028289795
1695712710183445800,8.76444580078125,2.8369946479797363,-4.118364334106445,-2.4609832763671875
1695712710193488600,8.774488525390625,3.4489855766296387,-4.106057167053223,-3.3054373264312744
1695712710203541200,8.784541259765625,2.698853015899658,-4.143244743347168,-4.207605838775635
1695712710213566500,8.79456640625,0.9715985655784607,-3.964517593383789,-4.616148471832275
1695712710223608300,8.8046083984375,-0.08577615022659302,-3.697816848754883,-4.588376045227051
1695712710233612300,8.8146123046875,2.2604610919952393,-3.093935012817383,-4.132068634033203
1695712710243637200,8.82463720703125,3.9081873893737793,-1.872065544128418,-3.9544475078582764
1695712710253691100,8.834691162109374,3.5807862281799316,-1.4002256393432617,-3.0688462257385254
1695712710263717600,8.844717529296876,1.7766656875610352,-1.3287391662597656,-1.9779572486877441
1695712710273752300,8.85475244140625,1.095010757446289,-1.1923131942749023,-1.1874797344207764
1695712710283786800,8.864786865234375,2.200751543045044,-1.0507659912109375,-0.12995457649230957
1695712710293821400,8.874821533203125,3.4104084968566895,-0.9029321670532227,1.1025322675704956
1695712710303855900,8.88485595703125,4.367346286773682,-0.563812255859375,2.2358498573303223
1695712710313890600,8.894890625,5.122519493103027,0.037395477294921875,2.9391117095947266
1695712710323925000,8.904925048828124,5.399080276489258,0.830998420715332,2.989542245864868
1695712710333951700,8.91495166015625,5.383927345275879,1.9793195724487305,2.6515865325927734
1695712710343959600,8.92495947265625,5.51432991027832,3.16969633102417,2.0256545543670654
1695712710353986300,8.934986328125,6.149467468261719,4.046939373016357,1.534944772720337
1695712710364029400,8.945029541015625,6.752324104309082,4.507267951965332,1.1338331699371338
1695712710374056000,8.955055908203125,6.762651443481445,4.933673858642578,0.6799664497375488
1695712710384109300,8.965109375,6.723786354064941,5.107121467590332,0.12926244735717773
1695712710394123800,8.975123779296876,6.5885162353515625,5.055302619934082,-0.24455952644348145
1695712710404150300,8.985150390625,6.317800998687744,4.965823173522949,-0.47791004180908203
1695712710414187800,8.995187744140624,6.121877193450928,5.110054969787598,-0.6217067241668701
1695712710424214500,9.005214599609374,5.806118488311768,5.3369855880737305,-0.7755608558654785
1695712710434242000,9.015241943359374,5.243441104888916,5.517116546630859,-1.0295653343200684
1695712710444289300,9.025289306640625,4.781266212463379,5.569925308227539,-1.1825189590454102
1695712710454310100,9.03531005859375,4.589754581451416,5.5032453536987305,-1.1386561393737793
1695712710464338400,9.04533837890625,4.381369113922119,5.09037971496582,-1.0510425567626953
1695712710474374700,9.055374755859376,3.7602243423461914,4.4677734375,-0.7592623233795166
1695712710484411000,9.065410888671876,2.798295021057129,3.985236167907715,-0.24466872215270996
1695712710494447000,9.075447021484376,1.2791247367858887,3.4886670112609863,0.2537388801574707
1695712710504483300,9.0854833984375,-0.5106265544891357,2.8600449562072754,0.6475071907043457
1695712710514519600,9.09551953125,-1.9228479862213135,2.1735620498657227,0.8223700523376465
1695712710524556000,9.10555615234375,-5.017184257507324,0.9683904647827148,0.27863025665283203
1695712710534584300,9.115584228515624,-11.60653018951416,-1.3176727294921875,-0.9593439102172852
1695712710544564000,9.12556396484375,-15.756575584411621,-4.095284461975098,-2.4682655334472656
1695712710554458400,9.135458251953125,-15.10230827331543,-8.052736282348633,-3.5760974884033203
1695712710564472000,9.14547216796875,-14.439815521240234,-13.02765941619873,-4.709092140197754
1695712710574534700,9.15553466796875,-8.046524047851562,-15.050251960754395,-3.0503149032592773
1695712710584553200,9.16555322265625,-1.7963457107543945,-11.867399215698242,0.06320834159851074
1695712710594618600,9.17561865234375,-0.49182558059692383,-7.126594543457031,1.886211633682251
1695712710604641800,9.185641845703126,-0.944044828414917,-1.9629478454589844,2.89373779296875
1695712710614658800,9.195658935546875,-1.0507779121398926,3.0330309867858887,3.2714426517486572
1695712710624681500,9.205681396484374,-0.09156966209411621,6.046029090881348,2.4851722717285156
1695712710634730800,9.215730712890625,1.3209280967712402,5.683733940124512,0.19736266136169434
1695712710644756000,9.225755859375,2.4046592712402344,2.6894278526306152,0.01529240608215332
1695712710654811000,9.235810791015625,5.476440906524658,-0.07291793823242188,1.2268164157867432
1695712710664839200,9.245839111328126,9.243072509765625,-2.667783737182617,1.0084712505340576
1695712710674879000,9.25587890625,10.220794677734375,-5.034798622131348,-0.2712361812591553
1695712710684908300,9.265908203125,3.8390464782714844,-6.954451560974121,-1.6401762962341309
1695712710694935800,9.275935791015625,-2.469228744506836,-6.719355583190918,-3.7457308769226074
1695712710704965000,9.285965087890625,1.9141603708267212,-4.151364326477051,-6.280716896057129
1695712710714999000,9.2959990234375,8.472526550292969,-0.8057136535644531,-7.059137344360352
1695712710725028600,9.306028564453126,10.40032958984375,2.220677375793457,-6.308803081512451
1695712710735046700,9.316046630859375,8.751313209533691,5.363669395446777,-5.603850841522217
1695712710745177600,9.326177490234375,6.230348587036133,7.133838176727295,-4.556490898132324
1695712710755308300,9.336308349609375,3.6585562229156494,7.103810787200928,-3.004828453063965
1695712710765337600,9.346337646484375,2.4407479763031006,5.398826599121094,-1.0290212631225586
1695712710775366100,9.3563662109375,4.17972469329834,2.4275712966918945,0.8483080863952637
1695712710785389600,9.3663896484375,4.873289585113525,-0.6900796890258789,2.0549840927124023
1695712710795435800,9.376435791015625,2.9591524600982666,-2.893383026123047,2.4250569343566895
1695712710805464600,9.386464599609376,1.3941482305526733,-3.865412712097168,1.9416388273239136
1695712710815473000,9.396472900390625,1.2463665008544922,-4.171304702758789,1.871388554573059
1695712710825489700,9.40648974609375,2.161811590194702,-4.225773811340332,2.2062017917633057
1695712710835518500,9.4165185546875,2.7917630672454834,-3.339876174926758,2.428014039993286
1695712710845570800,9.42657080078125,2.4116435050964355,-1.5551538467407227,2.215447187423706
1695712710855599400,9.436599365234375,1.9889235496520996,0.36743927001953125,2.1740872859954834
1695712710865628200,9.446628173828126,1.5573352575302124,1.7898921966552734,2.449265241622925
1695712710875660000,9.456659912109375,0.9935613870620728,2.056502342224121,2.8265128135681152
1695712710885692000,9.46669189453125,0.5383377075195312,2.086604118347168,2.640789747238159
1695712710895723800,9.476723876953125,0.02265840768814087,1.8353700637817383,1.9344865083694458
1695712710905755600,9.486755615234374,-0.8316923379898071,1.5858030319213867,1.0172436237335205
1695712710915787300,9.496787353515625,-2.264674663543701,1.4417896270751953,0.39772725105285645
1695712710925816300,9.50681640625,-3.0075764656066895,1.348876953125,0.1312105655670166
1695712710935842300,9.51684228515625,-3.2755398750305176,1.0755581855773926,0.21010446548461914
1695712710945868000,9.526867919921875,-3.362405300140381,0.5977716445922852,0.5589315891265869
1695712710955777000,9.536777099609376,-2.793269157409668,0.27933311462402344,0.877366304397583
1695712710965932800,9.546932861328125,-1.8679797649383545,0.1923847198486328,1.3452671766281128
1695712710976016100,9.55701611328125,-0.9819244742393494,0.3571043014526367,1.3889833688735962
1695712710986033400,9.567033447265626,-0.38723981380462646,0.5245962142944336,1.0063536167144775
1695712710996071000,9.57707080078125,0.12479817867279053,0.2869119644165039,0.6209216117858887
1695712711006101200,9.587101318359375,0.23807954788208008,-0.16456127166748047,0.4289114475250244
1695712711016118300,9.5971181640625,-0.35263144969940186,-0.9391593933105469,0.6810896396636963
1695712711026146300,9.607146240234375,-1.6383056640625,-1.7759389877319336,1.401900053024292
1695712711036185600,9.617185546875,-3.22059965133667,-2.517833709716797,2.601945161819458
1695712711046202600,9.62720263671875,-5.334632873535156,-2.978321075439453,3.5835156440734863
1695712711056241200,9.6372412109375,-7.6431097984313965,-3.351046562194824,4.27647066116333
1695712711066287000,9.647287109375,-8.32174301147461,-3.4588499069213867,4.767202377319336
1695712711076304400,9.657304443359376,-6.545653820037842,-3.4651260375976562,5.1229753494262695
1695712711086321400,9.6673212890625,-4.122939109802246,-3.436922073364258,4.933990001678467
1695712711096418600,9.67741845703125,-2.327883720397949,-3.7820043563842773,4.644279479980469
1695712711106440700,9.687440673828124,-1.8347110748291016,-4.651706695556641,4.316855430603027
1695712711116458000,9.6974580078125,-2.002028703689575,-5.794787406921387,3.5548365116119385
1695712711126475500,9.7074755859375,-3.4240336418151855,-6.735134124755859,2.0872960090637207
1695712711136497400,9.717497314453125,-5.658723831176758,-6.761636734008789,0.5417561531066895
1695712711146532000,9.727531982421874,-7.1758270263671875,-5.817907333374023,0.6181309223175049
1695712711156583200,9.737583251953126,-7.4930572509765625,-4.7479047775268555,2.249314308166504
1695712711166605300,9.747605224609375,-5.873205184936523,-4.216768264770508,3.013544797897339
1695712711176620500,9.75762060546875,-2.785374164581299,-3.432509422302246,2.136040210723877
1695712711186647300,9.767647216796876,-0.26317524909973145,-3.164299964904785,0.1069180965423584
1695712711196691200,9.777691162109376,2.383835792541504,-3.599863052368164,-2.155498504638672
1695712711206713000,9.787713134765625,4.332611083984375,-4.490842819213867,-4.050838470458984
1695712711216765000,9.797764892578124,4.312990188598633,-5.484270095825195,-5.715611457824707
1695712711226815700,9.807815673828125,3.461528778076172,-6.281432151794434,-6.762138843536377
1695712711236838000,9.817837890625,1.9958889484405518,-6.380926132202148,-7.870090484619141
1695712711246860000,9.827860107421875,1.797610878944397,-5.910398483276367,-8.216552734375
1695712711256883500,9.837883544921874,1.9531052112579346,-4.306536674499512,-7.335745811462402
1695712711266915000,9.8479150390625,2.557129383087158,-3.0608091354370117,-5.748889923095703
1695712711276947000,9.857947021484375,1.8422582149505615,-2.4501543045043945,-3.9995498657226562
1695712711286978600,9.867978515625,1.0667681694030762,-1.987401008605957,-2.644355058670044
1695712711297010200,9.87801025390625,1.7304362058639526,-1.2392807006835938,-1.4892523288726807
1695712711307041800,9.888041748046875,2.5915935039520264,-0.39252471923828125,-0.491030216217041
1695712711317073400,9.898073486328125,3.729191541671753,0.0849924087524414,0.31919825077056885
1695712711327105300,9.908105224609375,4.497048377990723,0.8201971054077148,0.9110459089279175
1695712711337127200,9.918127197265624,5.232699394226074,1.4903879165649414,1.3435299396514893
1695712711347143400,9.928143310546876,5.66977596282959,2.5150022506713867,1.2595078945159912
1695712711357159700,9.93815966796875,5.710049629211426,3.7151246070861816,1.0394830703735352
1695712711367175700,9.94817578125,5.564150810241699,4.625039577484131,0.8147330284118652
1695712711377192000,9.95819189453125,5.703175067901611,5.39765739440918,0.2590517997741699
1695712711387208000,9.9682080078125,6.5335588455200195,5.934708595275879,0.08113706111907959
1695712711397224200,9.97822412109375,6.985285758972168,6.144960403442383,0.009685754776000977
1695712711407240400,9.988240478515625,7.20766544342041,6.444987773895264,-0.10719156265258789
1695712711417256400,9.99825634765625,6.984820365905762,6.398722171783447,-0.23912429809570312
1695712711427272700,10.008272705078125,6.560155391693115,6.241099834442139,-0.3279082775115967
1695712711437289000,10.0182890625,6.124220371246338,6.1170735359191895,-0.4816710948944092
1695712711447313400,10.0283134765625,5.4566240310668945,6.105886936187744,-0.631721019744873
1695712711457349400,10.038349365234374,4.954550266265869,6.110523700714111,-0.7791550159454346
1695712711467385600,10.048385498046875,4.631356239318848,6.013321876525879,-0.8062145709991455
1695712711477421800,10.058421875,4.3114333152771,5.608123779296875,-0.6707763671875
1695712711487457800,10.068457763671875,3.7985024452209473,5.033432960510254,-0.4260871410369873
1695712711497494000,10.078493896484375,2.9748895168304443,4.320199966430664,0.13399124145507812
1695712711507530000,10.088530029296875,1.8387410640716553,3.7006239891052246,0.9778327941894531
1695712711517566200,10.098566162109375,0.2920701503753662,3.2390246391296387,1.7506128549575806
1695712711527602400,10.1086025390625,-1.4038097858428955,2.747098445892334,2.0180869102478027
1695712711537638400,10.118638427734375,-4.112663745880127,2.055788993835449,1.3729054927825928
1695712711547665200,10.1286650390625,-11.442425727844238,0.43964529037475586,-0.5664486885070801
1695712711557700900,10.138700927734375,-17.127700805664062,-2.8903818130493164,-3.3834962844848633
1695712711567736800,10.14873681640625,-15.46523666381836,-7.819218635559082,-5.964599609375
1695712711577772800,10.158772705078125,-14.786867141723633,-15.026415824890137,-7.42641544342041
1695712711587808800,10.168808837890625,-9.007457733154297,-19.25223159790039,-4.8130784034729
1695712711597844700,10.1788447265625,-2.238851308822632,-16.298351287841797,-0.5210213661193848
1695712711607880400,10.18888037109375,-0.34755563735961914,-10.704445838928223,1.5945758819580078
1695712711617916400,10.19891650390625,-0.27286672592163086,-3.814685821533203,2.2919106483459473
1695712711627952400,10.208952392578125,-0.33306121826171875,2.484036922454834,1.924875259399414
1695712711637988400,10.21898828125,-0.042996883392333984,6.14799165725708,0.23057174682617188
1695712711648018700,10.229018798828125,0.5154614448547363,7.061852931976318,-2.016869306564331
1695712711658067200,10.239067138671874,1.032233476638794,5.781804084777832,-2.982628583908081
1695712711668116000,10.249115966796875,2.6042420864105225,3.064570903778076,-1.935267686843872
1695712711678164500,10.25916455078125,6.116683006286621,-0.2723407745361328,-0.1063082218170166
1695712711688213000,10.269212890625,8.82753849029541,-2.742415428161621,1.4546589851379395
1695712711698261800,10.27926171875,7.6396026611328125,-4.186763763427734,1.6407411098480225
1695712711708310300,10.289310302734375,6.094886302947998,-4.354571342468262,0.306992769241333
1695712711718359000,10.299359130859376,4.9256486892700195,-3.125638008117676,-1.4709174633026123
1695712711728407600,10.309407470703125,3.7291200160980225,-1.3011465072631836,-3.6007590293884277
1695712711738456300,10.319456298828126,4.268459320068359,0.5577116012573242,-5.456516742706299
1695712711748486700,10.329486572265624,6.67984676361084,1.9935312271118164,-5.164383888244629
1695712711758486000,10.339486083984376,8.356348037719727,2.7603631019592285,-3.9393584728240967
1695712711768516400,10.349516357421875,7.891885757446289,3.27370023727417,-3.165367603302002
1695712711778391800,10.359391845703126,5.390392780303955,2.813988208770752,-1.6370415687561035
1695712711788591600,10.369591552734375,3.0705032348632812,1.0795831680297852,0.6089437007904053
1695712711798652000,10.37965185546875,1.792237639427185,-0.41739559173583984,1.9448753595352173
1695712711808669200,10.389669189453125,1.7420275211334229,-1.3000173568725586,2.504452705383301
1695712711818695000,10.39969482421875,2.0745527744293213,-1.727290153503418,2.3083572387695312
1695712711828751400,10.40975146484375,2.048513412475586,-2.011284828186035,1.9354833364486694
1695712711838768600,10.4197685546875,1.4157675504684448,-1.9899024963378906,1.5516974925994873
1695712711848783000,10.429783203125,1.1033276319503784,-1.6632089614868164,1.2037092447280884
1695712711858851800,10.439851806640625,1.133526086807251,-0.8451604843139648,0.7454149723052979
1695712711868869400,10.449869384765625,1.1930049657821655,0.21785354614257812,0.5956645011901855
1695712711878896600,10.459896728515625,0.9997300505638123,0.9711627960205078,0.6081838607788086
1695712711888912600,10.46991259765625,0.8278030157089233,1.3821983337402344,0.8748083114624023
1695712711898930200,10.47993017578125,0.8652822971343994,1.562678337097168,1.211735486984253
1695712711908947500,10.489947509765624,0.5070562362670898,1.3613367080688477,1.750172734260559
1695712711918968600,10.499968505859375,-0.1528681218624115,0.8371410369873047,2.3453400135040283
1695712711929015300,10.510015380859375,-0.6017487049102783,0.6367931365966797,2.8374276161193848
1695712711939062300,10.520062255859376,-1.064067006111145,0.34557437896728516,3.126267433166504
1695712711949109000,10.53010888671875,-1.8705670833587646,0.16951751708984375,2.95205020904541
1695712711959156000,10.540156005859375,-2.228299617767334,-0.15081310272216797,2.6662535667419434
1695712711969176800,10.5501767578125,-2.3113956451416016,-0.30920982360839844,2.3870198726654053
1695712711979153200,10.560153076171876,-2.016533374786377,-0.24859905242919922,2.205200672149658
1695712711989055200,10.57005517578125,-1.5090383291244507,0.11611270904541016,1.9120031595230103
1695712711999064000,10.58006396484375,-1.2614917755126953,0.5242862701416016,1.5419485569000244
1695712712009264000,10.59026416015625,-1.3858845233917236,0.8362226486206055,1.3234789371490479
1695712712019273000,10.60027294921875,-1.5371184349060059,0.8906097412109375,1.02254056930542
1695712712029383400,10.610383544921875,-1.6891816854476929,0.4239978790283203,0.7155776023864746
1695712712039416600,10.62041650390625,-1.920983910560608,-0.2743492126464844,0.5306363105773926
1695712712049412600,10.63041259765625,-2.482494831085205,-1.0686407089233398,0.6385467052459717
1695712712059421400,10.64042138671875,-3.589092969894409,-1.651057243347168,0.9686882495880127
1695712712069496000,10.65049609375,-5.10928201675415,-2.239694595336914,1.4940650463104248
1695712712079555600,10.6605556640625,-6.2930169105529785,-2.9776535034179688,2.436069965362549
1695712712089564400,10.670564453125,-5.8955183029174805,-3.4196949005126953,3.3482704162597656
1695712712099583200,10.680583251953125,-4.209909915924072,-3.608186721801758,3.596959114074707
1695712712109599000,10.690598876953125,-2.467890739440918,-3.43686580657959,3.5183916091918945
1695712712119654400,10.700654296875,-1.5543898344039917,-3.368877410888672,3.582700729370117
1695712712129709800,10.710709716796876,-2.1841940879821777,-3.424454689025879,3.434134006500244
1695712712139765200,10.72076513671875,-3.7802560329437256,-3.8417177200317383,2.654674530029297
1695712712149820700,10.730820556640625,-5.512094020843506,-4.515403747558594,1.665069818496704
1695712712159876000,10.7408759765625,-6.374772548675537,-5.4373931884765625,0.6674308776855469
1695712712169891800,10.750891845703125,-6.648889541625977,-5.958878517150879,-0.06385540962219238
1695712712179816700,10.760816650390625,-7.918902397155762,-4.952300071716309,0.5474965572357178
1695712712189832400,10.77083251953125,-8.835384368896484,-3.89141845703125,2.026648998260498
1695712712199759400,10.78075927734375,-5.369792461395264,-3.6506338119506836,2.462218761444092
1695712712209949400,10.790949462890625,-0.5208978652954102,-3.5142154693603516,2.2166855335235596
1695712712219958300,10.800958251953125,2.9266722202301025,-3.2703866958618164,0.8335702419281006
1695712712230008800,10.8110087890625,5.483068943023682,-3.809170722961426,-0.42401766777038574
1695712712240049400,10.82104931640625,5.4623332023620605,-4.792838096618652,-2.0520033836364746
1695712712250057000,10.831056884765625,4.261105060577393,-5.61207389831543,-3.8197720050811768
1695712712260065800,10.841065673828124,2.7995119094848633,-6.055973052978516,-4.596282005310059
1695712712270155000,10.851155029296875,1.1033600568771362,-6.080266952514648,-4.598052024841309
1695712712280166100,10.861166259765625,0.6092974543571472,-5.517732620239258,-4.305008888244629
1695712712290231800,10.871231689453126,2.417728900909424,-4.2933244705200195,-3.9645111560821533
1695712712300240600,10.88124072265625,2.940269947052002,-3.1700010299682617,-3.0282373428344727
1695712712310249500,10.89124951171875,1.8096632957458496,-2.622714042663574,-2.1640100479125977
1695712712320291800,10.901291748046875,1.447029709815979,-2.164264678955078,-1.7837464809417725
1695712712330304300,10.91130419921875,1.898065209388733,-1.3806276321411133,-1.6454710960388184
1695712712340319700,10.92131982421875,3.1431288719177246,-0.5641946792602539,-1.2192809581756592
1695712712350335500,10.93133544921875,4.121124267578125,0.023693084716796875,-0.36289024353027344
1695712712360351200,10.941351318359375,4.853611946105957,0.5822935104370117,0.45361828804016113
1695712712370366700,10.95136669921875,4.917193412780762,1.258896827697754,0.942961573600769
1695712712380382500,10.961382568359374,4.604788780212402,1.9903087615966797,0.9977640509605408
1695712712390398000,10.97139794921875,4.824965476989746,2.9880852699279785,0.5724360942840576
1695712712400413700,10.98141357421875,5.411482810974121,4.129497051239014,0.225510835647583
1695712712410429400,10.991429443359374,5.862288951873779,4.733476638793945,0.015669822692871094
1695712712420445000,11.00144482421875,6.295347213745117,5.22109317779541,-0.0539473295211792
1695712712430462000,11.0114619140625,6.496055603027344,5.516247749328613,-0.08935761451721191
1695712712440499200,11.021499267578125,6.524566650390625,5.668393135070801,0.03296208381652832
1695712712450536400,11.031536376953126,6.378601551055908,5.711771011352539,0.06827282905578613
1695712712460573700,11.04157373046875,5.860406875610352,5.654509544372559,0.047208309173583984
1695712712470611000,11.05161083984375,5.668266296386719,5.494780540466309,-0.008592844009399414
1695712712480648200,11.061648193359375,5.371639251708984,5.568708419799805,-0.31569790840148926
1695712712490685400,11.071685546875,5.101986885070801,5.7264204025268555,-0.6656787395477295
1695712712500723000,11.081722900390625,4.755160808563232,5.8362531661987305,-0.8424272537231445
1695712712510760200,11.09176025390625,4.069631099700928,5.662845611572266,-0.8407936096191406
1695712712520797400,11.10179736328125,3.495805263519287,5.250082969665527,-0.6369726657867432
1695712712530817000,11.111817138671874,2.883850336074829,4.894427299499512,-0.07044839859008789
1695712712540849200,11.12184912109375,1.980605959892273,4.585213661193848,0.607513427734375
1695712712550881300,11.13188134765625,0.6469292640686035,4.310413360595703,1.1129504442214966
1695712712560913200,11.1419130859375,-0.6850006580352783,3.8905587196350098,1.397106647491455
1695712712570945300,11.1519453125,-3.3325443267822266,3.056490421295166,1.0171535015106201
1695712712580977400,11.161977294921876,-10.876980781555176,1.0625886917114258,-0.6111249923706055
1695712712591009500,11.172009521484375,-18.386037826538086,-2.6758575439453125,-3.0718801021575928
1695712712601041400,11.18204150390625,-15.645103454589844,-7.94084358215332,-4.842066287994385
1695712712611073500,11.192073486328125,-14.07374382019043,-14.736225128173828,-6.193391799926758
1695712712621105700,11.202105712890624,-10.049505233764648,-18.692081451416016,-3.5625205039978027
1695712712631127800,11.2121279296875,-2.6652650833129883,-15.730369567871094,1.2566406726837158
1695712712641160000,11.222159912109374,-0.23146700859069824,-9.807933807373047,3.3159096240997314
1695712712651191800,11.23219189453125,-0.17213654518127441,-3.117755889892578,3.618974447250366
1695712712661224000,11.242223876953124,-0.4505460262298584,2.6660780906677246,3.133983850479126
1695712712671255800,11.252255859375,-0.26047563552856445,5.27175235748291,1.1369352340698242
1695712712681288000,11.262287841796875,0.43392157554626465,4.669035911560059,-0.9087226390838623
1695712712691320000,11.272320068359376,1.4850270748138428,2.9510531425476074,-1.123014211654663
1695712712701352000,11.28235205078125,3.3619513511657715,0.4671478271484375,-0.26951098442077637
1695712712711384000,11.292384033203126,6.203411102294922,-2.8635501861572266,0.22694826126098633
1695712712721416000,11.302416015625,7.567028999328613,-5.999917030334473,0.3309955596923828
1695712712731448000,11.312447998046874,3.043952226638794,-7.773470878601074,-0.07755517959594727
1695712712741499600,11.322499755859376,2.6557345390319824,-6.192091941833496,-0.87548828125
1695712712751551200,11.33255126953125,6.362667083740234,-2.1327743530273438,-1.8139376640319824
1695712712761603000,11.34260302734375,9.117230415344238,1.7365217208862305,-2.8125059604644775
1695712712771654700,11.352654541015625,8.744482040405273,4.817354202270508,-4.0390424728393555
1695712712781706200,11.362706298828124,6.894885540008545,6.650537490844727,-4.241154193878174
1695712712791757800,11.3727578125,5.015732765197754,7.33346700668335,-4.333917617797852
1695712712801809400,11.382809326171875,3.0248725414276123,6.779843330383301,-4.206602096557617
1695712712811861000,11.392861083984375,3.54903244972229,4.383910655975342,-2.6091701984405518
1695712712821912600,11.40291259765625,4.661952018737793,0.742095947265625,-0.9617173671722412
1695712712831937300,11.412937255859376,3.798710346221924,-2.559544563293457,0.3926410675048828
1695712712841952300,11.4229521484375,2.1950266361236572,-4.514372825622559,1.063133955001831
1695712712851967500,11.432967529296874,1.3692821264266968,-4.9277496337890625,1.2758042812347412
1695712712861982500,11.442982421875,1.7273181676864624,-4.295315742492676,1.743540644645691
1695712712871997400,11.45299755859375,2.1032516956329346,-3.095322608947754,2.073488235473633
1695712712882012400,11.463012451171876,2.1517443656921387,-1.7065448760986328,2.001502513885498
1695712712892027400,11.47302734375,1.8786721229553223,-0.5903844833374023,1.9806588888168335
1695712712902042400,11.48304248046875,1.6336817741394043,0.2877511978149414,1.9815398454666138
1695712712912057300,11.493057373046875,1.601010799407959,0.6137609481811523,1.9327343702316284
1695712712922072300,11.503072265625,1.5843589305877686,0.7190513610839844,1.950303077697754
1695712712932087300,11.51308740234375,1.497443675994873,0.7530431747436523,2.006545066833496
1695712712942113800,11.52311376953125,1.1948027610778809,1.193232536315918,1.9628863334655762
1695712712952147200,11.533147216796875,0.7466743588447571,1.499002456665039,1.9842579364776611
1695712712962180600,11.5431806640625,0.17849642038345337,1.6723480224609375,1.775335669517517
1695712712972214000,11.553214111328124,-0.8491524457931519,1.6482725143432617,1.279402256011963
1695712712982247400,11.563247314453125,-1.7257122993469238,1.5658636093139648,0.7919435501098633
1695712712992281000,11.573281005859375,-1.659548044204712,1.2428808212280273,0.640509843826294
1695712713002314500,11.583314453125,-1.3020672798156738,0.9181375503540039,0.6322157382965088
1695712713012348000,11.593347900390626,-1.1337474584579468,0.742243766784668,0.49230217933654785
1695712713022381300,11.60338134765625,-1.3137677907943726,0.837092399597168,0.48593688011169434
1695712713032414700,11.613414794921875,-1.8731979131698608,0.8636684417724609,0.43633460998535156
1695712713042448100,11.6234482421875,-2.2625339031219482,0.8109378814697266,0.3685619831085205
1695712713052479000,11.63347900390625,-1.9728844165802002,0.6374473571777344,0.19208884239196777
1695712713062534100,11.6435341796875,-1.5083818435668945,0.26090240478515625,0.2239227294921875
1695712713072589300,11.65358935546875,-1.6078331470489502,-0.3141155242919922,0.6892893314361572
1695712713082644700,11.663644775390624,-2.505851984024048,-0.7808628082275391,1.336845874786377
1695712713092700000,11.673699951171875,-3.837704658508301,-1.5715255737304688,2.441054582595825
1695712713102755000,11.683755126953125,-4.9073333740234375,-2.8178634643554688,3.881380558013916
1695712713112810500,11.693810546875,-4.677560806274414,-4.133959770202637,4.991491794586182
1695712713122865700,11.70386572265625,-3.8384993076324463,-4.623061180114746,5.216869354248047
1695712713132920800,11.7139208984375,-3.0336265563964844,-4.396082878112793,5.052981376647949
1695712713142951400,11.723951416015625,-2.4631619453430176,-4.433826446533203,4.792356491088867
1695712713152980700,11.733980712890625,-2.7320051193237305,-4.8865966796875,4.297479629516602
1695712713163010000,11.744010009765624,-4.165148735046387,-4.869811058044434,2.9664947986602783
1695712713172871000,11.753870849609376,-6.545380592346191,-4.5399370193481445,1.3977118730545044
1695712713182884000,11.763884033203125,-8.258631706237793,-5.173762321472168,-0.06468462944030762
1695712713192953900,11.773953857421875,-7.618101119995117,-6.0516557693481445,-0.9433717727661133
1695712713202972400,11.783972412109375,-7.166319370269775,-5.83535099029541,-0.5378196239471436
1695712713213042000,11.7940419921875,-7.629882335662842,-4.852346420288086,1.1460673809051514
1695712713223065900,11.80406591796875,-5.594962120056152,-4.007634162902832,2.677529811859131
1695712713233074000,11.814073974609375,-1.521256685256958,-3.1776790618896484,3.0336270332336426
1695712713243096300,11.824096435546876,1.14895761013031,-2.6172122955322266,1.9906642436981201
1695712713253125600,11.834125732421874,2.663196325302124,-2.641763687133789,0.1274094581604004
1695712713263148500,11.8441484375,3.9786670207977295,-3.2294178009033203,-1.3050565719604492
1695712713273203200,11.854203125,4.452152252197266,-4.214748382568359,-2.4205410480499268
1695712713283229400,11.8642294921875,3.9486751556396484,-4.935471534729004,-3.469280958175659
1695712713293265200,11.87426513671875,2.9267125129699707,-5.057456970214844,-4.38049840927124
1695712713303292400,11.88429248046875,2.1997509002685547,-5.342357635498047,-4.755284309387207
1695712713313340700,11.894340576171874,1.7538330554962158,-5.0048370361328125,-4.31626033782959
1695712713323370000,11.904369873046875,2.0634686946868896,-3.9301795959472656,-3.683579683303833
1695712713333395200,11.914395263671874,1.889983892440796,-3.285085678100586,-3.274035692214966
1695712713343560700,11.924560791015624,0.745818555355072,-3.0332870483398438,-2.686767339706421
1695712713353613000,11.934613037109376,0.9930237531661987,-2.541135787963867,-2.1167564392089844
1695712713363641900,11.944641845703124,2.3107943534851074,-1.3500919342041016,-1.8301055431365967
1695712713373657000,11.954656982421875,3.4482815265655518,-0.30109500885009766,-0.9583048820495605
1695712713383686100,11.96468603515625,4.403534889221191,0.5524959564208984,-0.10042166709899902
1695712713393751300,11.974751220703125,4.968135356903076,1.4536142349243164,0.6182328462600708
1695712713403802400,11.98480224609375,4.855202674865723,2.419217109680176,0.8428736925125122
1695712713413831400,11.99483154296875,4.868591785430908,3.3059182167053223,0.8692804574966431
1695712713423836700,12.004836669921875,5.209200859069824,4.0635600090026855,0.8900793790817261
1695712713433851600,12.0148515625,5.946205139160156,4.711763381958008,0.6497141122817993
1695712713443880700,12.024880615234375,6.548581123352051,5.108955383300781,0.43779659271240234
1695712713453933800,12.034933837890625,6.597080230712891,4.873970031738281,0.2994415760040283
1695712713463963000,12.044962890625,6.418274879455566,4.876499176025391,0.08560872077941895
1695712713473991700,12.05499169921875,6.380856037139893,5.251850128173828,0.14670753479003906
1695712713484020700,12.065020751953124,6.221168518066406,5.304007530212402,0.48071908950805664
1695712713494052400,12.07505224609375,5.869592189788818,5.369777679443359,0.7756149768829346
1695712713504105500,12.08510546875,5.494647026062012,5.243690490722656,1.0338270664215088
1695712713514137000,12.09513720703125,5.119135856628418,5.303045272827148,1.0030853748321533
1695712713524166100,12.105166259765625,4.788913249969482,5.527346611022949,0.7646276950836182
1695712713534177500,12.115177490234375,4.214835166931152,5.37490177154541,0.55314040184021
1695712713544209200,12.125209228515626,3.798656463623047,4.847185134887695,0.3839430809020996
1695712713554259000,12.135259033203125,3.4466195106506348,4.341928482055664,0.332042932510376
1695712713564293600,12.145293701171875,2.7243287563323975,3.948275566101074,0.510101318359375
1695712713574325200,12.1553251953125,1.373276948928833,3.7404398918151855,0.6081199645996094
1695712713584356900,12.16535693359375,-0.3244516849517822,3.3477320671081543,0.7829656600952148
1695712713594385700,12.1753857421875,-1.9307734966278076,2.6103177070617676,0.6479842662811279
1695712713604402200,12.185402099609375,-6.114948272705078,1.406743049621582,-0.25737690925598145
1695712713614419000,12.1954189453125,-14.204414367675781,-1.0963411331176758,-2.360105514526367
1695712713624435500,12.205435546875,-17.40068817138672,-4.527027130126953,-4.783210754394531
1695712713634452000,12.215451904296875,-15.80971622467041,-9.109347343444824,-6.627107620239258
1695712713644468700,12.22546875,-13.417800903320312,-14.418548583984375,-7.295905590057373
1695712713654485200,12.2354853515625,-6.73586368560791,-16.365203857421875,-4.109997272491455
1695712713664501800,12.245501708984374,-1.4005827903747559,-13.11865520477295,-0.09668159484863281
1695712713674518300,12.255518310546876,-0.3151853084564209,-7.999427795410156,1.9114515781402588
1695712713684535000,12.26553515625,-0.40302181243896484,-2.188706398010254,2.359194755554199
1695712713694551600,12.275551513671875,-0.7042107582092285,2.952876567840576,2.2703042030334473
1695712713704580900,12.285580810546875,-0.08755040168762207,6.284735202789307,0.8101279735565186
1695712713714612500,12.295612548828124,0.9949278831481934,7.074423313140869,-1.05678391456604
1695712713724644000,12.30564404296875,1.0181770324707031,5.351914405822754,-1.6030230522155762
1695712713734676000,12.315676025390625,2.038849353790283,2.015028953552246,-0.06092405319213867
1695712713744707600,12.32570751953125,4.711276531219482,-1.8257598876953125,1.245121955871582
1695712713754739200,12.3357392578125,7.031466484069824,-5.3081865310668945,1.3730151653289795
1695712713764770800,12.345770751953125,5.1047868728637695,-7.595989227294922,0.79288649559021
1695712713774802700,12.355802734375,2.6774652004241943,-7.518622398376465,-0.47009921073913574
1695712713784834300,12.365834228515626,5.931633949279785,-3.829191207885742,-2.3063595294952393
1695712713794866000,12.375865966796875,7.798794746398926,0.15931987762451172,-3.7916688919067383
1695712713804906000,12.385906005859376,7.818333625793457,3.297311305999756,-5.6281585693359375
1695712713815009000,12.396009033203125,7.027552127838135,5.7071123123168945,-6.276034355163574
1695712713825112300,12.4061123046875,5.882374286651611,6.742345809936523,-5.971503257751465
1695712713835147800,12.416147705078124,3.900458812713623,6.599845886230469,-4.766736030578613
1695712713845165800,12.426165771484374,3.352466106414795,4.767894744873047,-2.609323263168335
1695712713855184000,12.436183837890624,4.864633560180664,1.4975252151489258,-0.8705737590789795
1695712713865202200,12.4462021484375,4.919866561889648,-1.4703435897827148,0.2804250717163086
1695712713875220200,12.45622021484375,3.5396759510040283,-3.395615577697754,1.0568417310714722
1695712713885238300,12.46623828125,2.447911262512207,-3.965147018432617,1.1705150604248047
1695712713895256300,12.47625634765625,1.8820319175720215,-3.8068723678588867,1.2763116359710693
1695712713905274400,12.4862744140625,1.971014142036438,-3.3953895568847656,1.604232907295227
1695712713915292400,12.49629248046875,2.3855385780334473,-2.488557815551758,1.7240177392959595
1695712713925310700,12.506310791015625,2.4508304595947266,-1.3438053131103516,1.497254729270935
1695712713935328800,12.516328857421875,2.2977380752563477,-0.05801677703857422,1.2564449310302734
1695712713945363500,12.526363525390625,1.8670430183410645,0.8506746292114258,1.1591508388519287
1695712713955395600,12.5363955078125,1.5810388326644897,1.4980077743530273,1.3366103172302246
1695712713965427700,12.546427734375,0.9833118319511414,1.5459175109863281,1.5323158502578735
1695712713975459600,12.55645947265625,0.6169600486755371,1.3036856651306152,1.571236491203308
1695712713985491700,12.56649169921875,0.05138510465621948,1.1841764450073242,1.5001367330551147
1695712713995523600,12.576523681640625,-0.503106951713562,1.171060562133789,1.3749217987060547
1695712714005555700,12.5865556640625,-1.4533307552337646,1.0302066802978516,1.7795039415359497
1695712714015587600,12.596587646484375,-2.3642663955688477,0.7881984710693359,1.9975502490997314
1695712714025619700,12.60661962890625,-2.8391852378845215,0.43952083587646484,2.1141364574432373
1695712714035651600,12.616651611328125,-2.8347413539886475,0.21736812591552734,2.2259743213653564
1695712714045692700,12.626692626953124,-2.8249459266662598,0.015710830688476562,2.402869462966919
1695712714055788500,12.63678857421875,-2.3061044216156006,-0.11730194091796875,2.4338784217834473
1695712714065884700,12.646884765625,-1.6696929931640625,-0.3336505889892578,2.334155559539795
1695712714075925500,12.656925537109375,-1.233722448348999,-0.4553089141845703,2.0731382369995117
1695712714085970400,12.666970458984375,-0.8031071424484253,-0.4399833679199219,1.7029732465744019
1695712714096015000,12.67701513671875,-0.7007846832275391,-0.3607177734375,1.1924996376037598
1695712714105866000,12.686865966796875,-1.197786808013916,-0.31319236755371094,0.7593576908111572
1695712714115890000,12.696889892578126,-2.244799852371216,-0.4888887405395508,0.427173376083374
1695712714126107400,12.707107421875,-3.6743180751800537,-0.8761816024780273,0.35749340057373047
1695712714136134400,12.717134521484375,-5.142628192901611,-1.4029064178466797,0.49224209785461426
1695712714146158300,12.727158447265625,-5.691932678222656,-2.238368034362793,1.2909607887268066
1695712714156202200,12.7372021484375,-4.630099296569824,-2.869847297668457,2.1368794441223145
1695712714166237200,12.7472373046875,-3.3590235710144043,-2.555826187133789,2.0199661254882812
1695712714176261000,12.75726123046875,-2.5565459728240967,-2.039609909057617,1.9466569423675537
1695712714186283000,12.767282958984374,-2.1923322677612305,-2.0327329635620117,2.439894676208496
1695712714196341200,12.77734130859375,-2.377643346786499,-3.215547561645508,3.074538469314575
1695712714206365000,12.787364990234375,-2.990424156188965,-4.525991439819336,3.0287277698516846
1695712714216390400,12.797390380859374,-4.076206684112549,-5.369690895080566,2.974918842315674
1695712714226415400,12.807415283203126,-5.442905902862549,-6.014673233032227,2.9293975830078125
1695712714236446200,12.8174462890625,-5.633829116821289,-6.394362449645996,2.729731798171997
1695712714246477000,12.82747705078125,-6.119390964508057,-5.910039901733398,2.281379222869873
1695712714256508000,12.8375078125,-7.627297878265381,-4.834932327270508,2.7189791202545166
1695712714266538800,12.847538818359375,-6.818093776702881,-4.000059127807617,3.0261921882629395
1695712714276569300,12.8575693359375,-3.584423542022705,-3.2927141189575195,2.3145785331726074
1695712714286600200,12.86760009765625,-1.1785969734191895,-2.4538707733154297,0.9085650444030762
1695712714296625400,12.87762548828125,1.8174713850021362,-2.114971160888672,0.02056884765625
1695712714306651400,12.8876513671875,4.715799331665039,-2.418853759765625,-0.5855777263641357
1695712714316522200,12.897522216796874,4.96885347366333,-3.4330739974975586,-1.462099313735962
1695712714326529800,12.90752978515625,3.990206241607666,-4.655379295349121,-2.281949281692505
1695712714336661000,12.917660888671875,2.7567155361175537,-5.133703231811523,-2.609537124633789
1695712714346792000,12.9277919921875,2.153834104537964,-5.18165397644043,-2.686285972595215
1695712714356843800,12.93784375,2.4394595623016357,-4.887001037597656,-2.148320198059082
1695712714366895900,12.947895751953125,3.1366469860076904,-4.058252334594727,-1.5784943103790283
1695712714376903700,12.957903564453124,3.414503574371338,-3.493391990661621,-1.0632688999176025
1695712714386935800,12.967935791015625,2.215426445007324,-3.062607765197754,-0.7232074737548828
1695712714396986400,12.977986328125,1.8083301782608032,-2.829648017883301,-0.6062910556793213
1695712714406994200,12.987994140625,2.14277982711792,-2.051908493041992,-0.7301321029663086
1695712714417017300,12.998017333984375,2.9642629623413086,-0.9010457992553711,-1.2276830673217773
1695712714427030500,13.008030517578124,3.8195934295654297,0.06161785125732422,-1.1449124813079834
1695712714437070600,13.018070556640625,4.320004463195801,1.1393404006958008,-0.5520792007446289
1695712714447110400,13.0281103515625,4.7432541847229,2.210845947265625,0.19766151905059814
1695712714457150200,13.038150146484375,4.687968730926514,3.0689034461975098,0.6543916463851929
1695712714467190300,13.048190185546876,4.592471122741699,4.01209020614624,0.7946816682815552
1695712714477230000,13.05822998046875,4.712306976318359,4.807958602905273,0.7533904314041138
1695712714487270100,13.068270263671875,15.379108428955078,4.686676025390625,1.0599721670150757
1695712714497310000,13.07831005859375,5.738173961639404,4.747232437133789,0.8832950592041016
1695712714507323400,13.088323486328125,4.841952800750732,2.729771137237549,0.6433974504470825
1695712714517322000,13.098322021484375,4.436131477355957,2.4920287132263184,0.12151312828063965
1695712714527228200,13.108228271484375,3.589491367340088,3.48978853225708,0.8279730081558228
1695712714537229800,13.118229736328125,3.3005177974700928,4.893198013305664,1.2785394191741943
1695712714547297500,13.128297607421874,2.843783378601074,6.214860439300537,1.0315117835998535
1695712714557305600,13.1383056640625,3.313391923904419,5.459600448608398,0.30460047721862793
1695712714567327500,13.148327392578125,3.7632389068603516,5.070671081542969,-0.6085388660430908
1695712714577337000,13.158337158203125,4.711369037628174,4.273517608642578,-1.1550467014312744
1695712714587390000,13.168389892578125,5.131321430206299,4.020550727844238,-1.5775542259216309
1695712714597404200,13.178404052734376,4.6823601722717285,4.347582817077637,-1.6390419006347656
1695712714607458600,13.18845849609375,3.5790517330169678,4.22531795501709,-0.9568803310394287
1695712714617476600,13.1984765625,2.1826300621032715,3.729076862335205,-0.09366846084594727
1695712714627545600,13.208545654296875,0.6531445980072021,3.4176249504089355,0.4565553665161133
1695712714637568800,13.21856884765625,-0.691216230392456,3.097790241241455,0.5782866477966309
1695712714647597800,13.228597900390625,-2.076936960220337,2.3686466217041016,0.602679967880249
1695712714657621800,13.238621826171874,-6.018466472625732,0.5574445724487305,0.03402280807495117
1695712714667674000,13.248674072265626,-11.881221771240234,-2.029149055480957,-0.8055789470672607
1695712714677700900,13.258700927734376,-16.310657501220703,-4.518077850341797,-1.5896549224853516
1695712714687732500,13.268732421875,-16.042030334472656,-8.292119026184082,-1.9991748332977295
1695712714697759700,13.278759765625,-13.194453239440918,-12.12015438079834,-1.3440260887145996
1695712714707959800,13.288959716796874,-6.938520431518555,-11.822152137756348,0.4346425533294678
1695712714717968600,13.29896875,-1.9328460693359375,-7.940834999084473,1.7861146926879883
1695712714727996000,13.308995849609374,-0.9815850257873535,-3.4361572265625,2.7344703674316406
1695712714738025200,13.319025146484375,-1.9682660102844238,0.42326974868774414,3.881558656692505
1695712714748063200,13.329063232421875,-2.2365174293518066,2.9830775260925293,3.418802261352539
1695712714758090500,13.339090576171875,0.1503458023071289,2.8013224601745605,0.8130362033843994
1695712714768126700,13.349126708984375,2.287287950515747,0.566340446472168,-0.2925589084625244
1695712714778157800,13.35915771484375,4.3911895751953125,-1.934971809387207,-1.1874558925628662
1695712714788185000,13.36918505859375,5.858005523681641,-6.284921646118164,-2.2810397148132324
1695712714798222000,13.37922216796875,5.332588195800781,-11.030820846557617,-2.7510733604431152
1695712714808264200,13.38926416015625,2.750288724899292,-9.978899002075195,-3.388211488723755
1695712714818291700,13.399291748046876,5.615316390991211,-4.311893463134766,-2.488914966583252
1695712714828318700,13.409318603515626,8.894429206848145,1.027547836303711,-1.8710744380950928
1695712714838347500,13.419347412109374,10.819271087646484,5.032631874084473,-2.9417154788970947
1695712714848385300,13.42938525390625,9.592592239379883,8.043492317199707,-4.302992820739746
1695712714858423300,13.43942333984375,7.257803916931152,9.36543083190918,-4.847365856170654
1695712714868461300,13.44946142578125,5.138528823852539,8.447066307067871,-4.863926887512207
1695712714878499300,13.459499267578124,2.848484516143799,6.435810089111328,-4.56082820892334
1695712714888528000,13.46952783203125,3.7644569873809814,3.1374030113220215,-2.96763277053833
1695712714898545400,13.47954541015625,6.1101603507995605,-1.320023536682129,-0.8391585350036621
1695712714908422700,13.489422607421876,4.465470314025879,-5.309680938720703,0.816483736038208
1695712714918549000,13.499549072265625,2.1345014572143555,-7.108803749084473,1.5717248916625977
1695712714928675000,13.509675048828125,1.7551119327545166,-6.926699638366699,2.530956506729126
1695712714938716000,13.5197158203125,1.9801594018936157,-5.029392242431641,3.5256543159484863
1695712714948728600,13.529728515625,1.9383642673492432,-2.9684009552001953,3.9046454429626465
1695712714958762000,13.539761962890625,1.3473604917526245,-1.3129701614379883,2.9994823932647705
1695712714968815900,13.54981591796875,0.7085768580436707,-0.18341636657714844,2.503918170928955
1695712714978828500,13.55982861328125,-0.046191468834877014,0.6331634521484375,2.154770851135254
1695712714988867800,13.569867919921874,-0.551527738571167,1.3087186813354492,1.7258046865463257
1695712714998900500,13.579900390625,-0.9940009117126465,1.3224859237670898,1.4008560180664062
1695712715008913200,13.5899130859375,-1.2894954681396484,1.3776988983154297,1.0564792156219482
1695712715018936000,13.59993603515625,-1.4328138828277588,0.3716239929199219,0.7366852760314941
1695712715028949800,13.60994970703125,-1.6674485206604004,-0.5899572372436523,0.40870022773742676
1695712715038966000,13.619966064453125,-1.9655991792678833,-0.10855770111083984,0.3167436122894287
1695712715048982300,13.629982177734375,-2.2073559761047363,0.5411872863769531,0.20738959312438965
1695712715058998500,13.63999853515625,-2.220501661300659,1.6451730728149414,-0.023336410522460938
1695712715069014800,13.650014892578126,-1.795255422592163,3.0668582916259766,-0.509406566619873
1695712715079031300,13.66003125,-1.3254733085632324,3.5491089820861816,-0.8316953182220459
1695712715089047600,13.670047607421875,-0.2561095952987671,3.4867005348205566,-1.3179998397827148
1695712715099063800,13.680063720703124,0.9594537019729614,3.0889792442321777,-1.7477929592132568
1695712715109080000,13.690080078125,1.5477818250656128,2.2457046508789062,-1.5968880653381348
1695712715119096300,13.700096435546875,1.3959670066833496,0.8732719421386719,-1.2632617950439453
1695712715129114000,13.710114013671875,0.622133731842041,0.4516439437866211,-1.032369613647461
1695712715139150300,13.720150390625,-0.8457660675048828,-0.8189487457275391,-0.14507269859313965
1695712715149186600,13.7301865234375,-3.566093921661377,-1.7570409774780273,0.8032829761505127
1695712715159222800,13.740222900390625,-6.306136131286621,-1.8948240280151367,1.580194354057312
1695712715169259000,13.750259033203125,-7.427304267883301,-1.901738166809082,2.208266496658325
1695712715179295200,13.760295166015625,-6.152717113494873,-2.661759376525879,3.024228572845459
1695712715189331500,13.77033154296875,-4.171751022338867,-3.5690135955810547,3.4160683155059814
1695712715199367700,13.78036767578125,-2.488558530807495,-3.766585350036621,3.550082206726074
1695712715209404000,13.79040380859375,-1.8099857568740845,-3.4574661254882812,3.844414234161377
1695712715219440000,13.800440185546876,-1.781567931175232,-3.96407413482666,4.157854080200195
1695712715229460200,13.810460205078124,-2.3406479358673096,-4.866992950439453,3.9772918224334717
1695712715239491800,13.820491943359375,-3.0319576263427734,-5.281987190246582,3.491063117980957
1695712715249523200,13.830523193359374,-4.232620716094971,-4.906261444091797,2.1979949474334717
1695712715259554600,13.840554443359375,-5.201742172241211,-4.844295501708984,0.9793405532836914
1695712715269586000,13.8505859375,-5.857568740844727,-4.571590423583984,0.001088857650756836
1695712715279617500,13.860617431640625,-6.6886186599731445,-4.47907829284668,0.17058777809143066
1695712715289649000,13.87064892578125,-6.068105697631836,-4.212041854858398,1.853271722793579
1695712715299680300,13.88068017578125,-4.611502647399902,-4.1769561767578125,3.1304051876068115
1695712715309711600,13.890711669921876,-3.5616843700408936,-3.960444450378418,3.20302152633667
1695712715319743200,13.9007431640625,-2.8187255859375,-3.175220489501953,1.9759562015533447
1695712715329766100,13.91076611328125,-1.7168364524841309,-0.5756072998046875,-0.012482881546020508
1695712715339802000,13.920802001953126,1.5968189239501953,-3.0779714584350586,-0.04598855972290039
1695712715349838300,13.93083837890625,5.248624324798584,-5.082979202270508,-0.8265171051025391
1695712715359874300,13.940874267578126,6.094799518585205,-5.4478654861450195,-1.948911428451538
1695712715369910300,13.95091015625,3.8625001907348633,-5.322419166564941,-2.9976344108581543
1695712715379946500,13.960946533203124,1.2627490758895874,-4.986903190612793,-4.110273838043213
1695712715389982500,13.970982421875,-0.1187114417552948,-4.978629112243652,-4.022043228149414
1695712715400018400,13.981018310546874,1.186297059059143,-4.091135025024414,-2.847381591796875
1695712715410054700,13.9910546875,2.5946707725524902,-2.4526195526123047,-2.178434371948242
1695712715420090600,14.001090576171874,4.358028411865234,-1.320953369140625,-2.4824306964874268
1695712715430115600,14.011115478515626,4.556414604187012,-0.46675968170166016,-2.7274441719055176
1695712715440148500,14.0211484375,3.3824665546417236,0.12271881103515625,-2.6139824390411377
1695712715450181400,14.031181396484374,2.0627224445343018,0.6799106597900391,-2.116866111755371
1695712715460214500,14.041214599609376,1.2335580587387085,1.385146141052246,-1.2323695421218872
1695712715470247400,14.051247314453125,2.203305721282959,1.4609780311584473,0.14113926887512207
1695712715480280600,14.061280517578124,3.9738216400146484,1.333066463470459,1.3787109851837158
1695712715490313500,14.0713134765625,4.924667835235596,1.2548270225524902,2.3128557205200195
1695712715500346400,14.081346435546875,5.113714694976807,1.5533466339111328,2.4997599124908447
1695712715510379500,14.091379638671874,5.2685136795043945,2.580958366394043,2.151606798171997
1695712715520412400,14.101412353515625,5.371984481811523,3.775468349456787,1.5822126865386963
1695712715530438700,14.111438720703125,5.231155872344971,4.018605709075928,0.9024009704589844
1695712715540471000,14.121470947265625,5.793878555297852,3.5330071449279785,0.620980978012085
1695712715550503400,14.13150341796875,5.994260311126709,3.364654064178467,0.5385271310806274
1695712715560535600,14.14153564453125,5.843175411224365,3.6282143592834473,0.4571906328201294
1695712715570568000,14.15156787109375,5.475951194763184,4.379590034484863,0.24274539947509766
1695712715580600300,14.161600341796875,5.370762825012207,4.95992374420166,0.1666412353515625
1695712715590632700,14.1716328125,5.265366554260254,5.353677749633789,0.1654202938079834
1695712715600664800,14.181664794921875,4.978357315063477,5.680405616760254,0.12875843048095703
1695712715610697200,14.191697265625,4.613515853881836,5.86202335357666,-0.1026616096496582
1695712715620729600,14.2017294921875,4.317854881286621,5.799933433532715,-0.49382638931274414
1695712715630757400,14.21175732421875,4.069296360015869,5.4268798828125,-0.7674784660339355
1695712715640791600,14.22179150390625,3.5770766735076904,5.035799980163574,-0.7754099369049072
1695712715650825700,14.23182568359375,2.6029164791107178,4.826478958129883,-0.6116986274719238
1695712715660860200,14.241860107421875,1.037203073501587,4.476043701171875,-0.4612419605255127
1695712715670894300,14.251894287109375,-0.950314998626709,3.7955479621887207,-0.09218740463256836
1695712715680928500,14.261928466796874,-2.987628221511841,2.7800936698913574,0.2414836883544922
1695712715690963000,14.271962890625,-7.0664567947387695,0.1088705062866211,0.17036700248718262
1695712715700997000,14.2819970703125,-14.267740249633789,-4.841355323791504,-1.2683851718902588
1695712715711031300,14.29203125,-16.45232391357422,-10.31378173828125,-3.885594129562378
1695712715721065700,14.302065673828125,-12.750648498535156,-13.158502578735352,-5.102168083190918
1695712715731096300,14.312096435546875,-9.489789009094238,-12.336342811584473,-5.020045280456543
1695712715741140500,14.322140380859375,-5.449869155883789,-8.898247718811035,-2.828024387359619
1695712715751185000,14.332184814453125,-2.4270362854003906,-4.8731231689453125,-0.3265659809112549
1695712715761229000,14.34222900390625,-1.7740638256072998,-0.9063444137573242,1.673012614250183
1695712715771273200,14.352273193359375,-1.6136839389801025,2.6429696083068848,3.0518972873687744
1695712715781317400,14.3623173828125,-1.7660744190216064,5.122735977172852,3.3901164531707764
1695712715791361500,14.372361572265625,-1.0136690139770508,4.860936164855957,2.1188268661499023
1695712715801405700,14.38240576171875,0.219193696975708,1.788609504699707,1.597896933555603
1695712715811449900,14.392449951171875,1.3594584465026855,-1.3643321990966797,2.467175006866455
1695712715821494000,14.402493896484375,2.8942742347717285,-3.8731555938720703,2.7949092388153076
1695712715831538200,14.4125380859375,5.822975158691406,-6.530979156494141,2.383697271347046
1695712715841566500,14.42256640625,6.121285438537598,-7.172752380371094,0.22271060943603516
1695712715851585000,14.4325849609375,2.022257089614868,-5.527034759521484,-1.3577487468719482
1695712715861603600,14.442603515625,0.8104410171508789,-3.2962865829467773,-2.9038712978363037
1695712715871622000,14.452621826171875,5.191844940185547,-0.8097372055053711,-4.066519737243652
1695712715881640400,14.462640380859375,8.957502365112305,1.74530029296875,-4.227263927459717
1695712715891659000,14.472658935546875,8.398417472839355,4.8250017166137695,-4.317818641662598
1695712715901677300,14.48267724609375,6.242652893066406,6.798061370849609,-4.104170799255371
1695712715911696000,14.49269580078125,4.020615577697754,6.943991184234619,-3.504488229751587
1695712715921714400,14.50271435546875,2.7496984004974365,5.470706939697266,-2.124802589416504
1695712715931732700,14.512732666015625,4.2850542068481445,2.4548254013061523,-0.4411177635192871
1695712715941751300,14.522751220703125,5.806672096252441,-1.1046571731567383,0.6335330009460449
1695712715951780600,14.532780517578125,4.642595291137695,-4.898379325866699,1.6656612157821655
1695712715961813800,14.542813720703125,2.150392532348633,-7.277019500732422,1.6424556970596313
1695712715971847200,14.55284716796875,1.569031000137329,-7.5808563232421875,0.8001139163970947
1695712715981880300,14.56288037109375,2.249526023864746,-5.1869049072265625,0.8191254138946533
1695712715991913700,14.572913818359375,3.2709059715270996,-2.364466667175293,1.2568360567092896
1695712716001947100,14.582947021484374,3.400365114212036,-0.02096271514892578,1.6484277248382568
1695712716011980300,14.592980224609375,2.6479034423828125,0.2867422103881836,2.059574604034424
1695712716022013700,14.603013671875,1.473180890083313,1.1695451736450195,1.653012990951538
1695712716032046800,14.613046875,0.10650992393493652,2.054981231689453,1.2846989631652832
1695712716042080300,14.623080322265626,-0.734999418258667,2.5031137466430664,1.0551165342330933
1695712716052113400,14.633113525390625,-0.8852130770683289,2.7288084030151367,0.7220743894577026
1695712716062143500,14.6431435546875,-1.1354777812957764,2.6934432983398438,0.4217801094055176
1695712716072177000,14.653177001953125,-1.5846103429794312,2.0588254928588867,-0.010439634323120117
1695712716082210600,14.66321044921875,-2.019200325012207,1.3628816604614258,-0.20322132110595703
1695712716092244200,14.673244140625,-2.2846107482910156,0.7180633544921875,-0.22406387329101562
1695712716102277600,14.683277587890625,-1.741821527481079,0.7668952941894531,-0.0763242244720459
1695712716112311300,14.693311279296875,-1.2643643617630005,1.2200326919555664,-0.04259014129638672
