time,seconds_elapsed,z,y,x
1695712701575720700,0.156720703125,8.84506893157959,5.489135265350342,-0.18544375896453857
1695712701585702400,0.166702392578125,8.840283393859863,5.465207099914551,-0.1950150430202484
1695712701595902200,0.176902099609375,8.729615211486816,5.508277893066406,-0.1950150430202484
1695712701605789200,0.1867890625,8.590831756591797,5.469992637634277,-0.22851456701755524
1695712701615837400,0.19683740234375,8.423334121704102,5.508277893066406,-0.2955136001110077
1695712701625882400,0.20688232421875,8.236693382263184,5.522634506225586,-0.33379876613616943
1695712701635900700,0.216900634765625,8.184051513671875,5.446064472198486,-0.3481557071208954
1695712701645924600,0.226924560546875,8.294121742248535,5.422136306762695,-0.3290131092071533
1695712701655899600,0.236899658203125,8.442476272583008,5.407779216766357,-0.24287149310112
1695712701665972700,0.24697265625,8.552546501159668,5.374279499053955,-0.23330020904541016
1695712701675989200,0.2569892578125,8.605188369750977,5.355136871337891,-0.18544375896453857
1695712701686064600,0.267064697265625,8.662615776062012,5.3694939613342285,-0.16151553392410278
1695712701696106000,0.27710595703125,8.657830238342285,5.4173502922058105,-0.23808585107326508
1695712701706095900,0.287095947265625,8.662615776062012,5.383851051330566,-0.28115665912628174
1695712701716115700,0.29711572265625,8.581260681152344,5.383851051330566,-0.3242274820804596
1695712701726189600,0.307189453125,8.523832321166992,5.412564754486084,-0.39601215720176697
1695712701736232200,0.317232177734375,8.547760963439941,5.383851051330566,-0.39601215720176697
1695712701746257700,0.327257568359375,8.49990463256836,5.441278457641602,-0.3481557071208954
1695712701756292900,0.33729296875,8.380263328552246,5.450850009918213,-0.3433700501918793
1695712701766289400,0.347289306640625,8.25105094909668,5.431707382202148,-0.2715853750705719
1695712701776308200,0.35730810546875,8.294121742248535,5.402993679046631,-0.2476571500301361
1695712701786381800,0.3673818359375,8.485547065734863,5.364708423614502,-0.25722843408584595
1695712701796424000,0.377423828125,8.897710800170898,4.890929698944092,0.19262222945690155
1695712701806437400,0.387437255859375,8.988637924194336,5.800800323486328,-0.50129634141922
1695712701816467200,0.39746728515625,9.127422332763672,5.441278457641602,-0.1902294009923935
1695712701826504400,0.40750439453125,8.648259162902832,5.402993679046631,-0.09451649338006973
1695712701836537300,0.417537353515625,8.294121742248535,5.469992637634277,-0.09451649338006973
1695712701846577400,0.427577392578125,7.930412292480469,5.407779216766357,-0.08973085135221481
1695712701856613400,0.43761328125,7.585247993469238,5.3934221267700195,-0.02751746028661728
1695712701866630000,0.4476298828125,7.436892986297607,5.398207664489746,-0.09451649338006973
1695712701876657400,0.457657470703125,7.503891944885254,5.484349727630615,-0.07058826833963394
1695712701886692900,0.46769287109375,7.872984886169434,5.5034918785095215,-0.04187439754605293
1695712701896723700,0.4777236328125,8.471190452575684,5.565705299377441,-0.09451649338006973
1695712701906755300,0.48775537109375,9.136993408203125,5.493920803070068,0.010767702013254166
1695712701916786400,0.497786376953125,9.596415519714355,5.307280540466309,0.13519448041915894
1695712701926845400,0.507845458984375,9.840482711791992,5.748157978057861,-0.12323036789894104
1695712701936888300,0.517888427734375,9.840482711791992,5.422136306762695,0.633499801158905
1695712701946910700,0.52791064453125,9.256634712219238,5.20678186416626,0.7148557901382446
1695712701956945000,0.53794482421875,8.595617294311523,5.670989513397217,0.24526432156562805
1695712701966944300,0.5479443359375,7.963912010192871,5.704489231109619,0.2309073805809021
1695712701976975000,0.55797509765625,6.967899322509766,5.259424209594727,0.542572557926178
1695712701987045600,0.568045654296875,3.5916268825531006,4.2586259841918945,1.1359925270080566
1695712701997080000,0.578080078125,5.1290154457092285,6.03529691696167,-0.21415762603282928
1695712702007101200,0.58810107421875,6.402595043182373,6.5042901039123535,-0.6209374666213989
1695712702017134300,0.59813427734375,5.900102615356445,4.847858905792236,0.6574280261993408
1695712702027168000,0.60816796875,5.473581790924072,5.426921844482422,0.5234299302101135
1695712702037201400,0.618201416015625,5.588437080383301,5.460421085357666,-0.1950150430202484
1695712702047205600,0.62820556640625,6.340381622314453,5.963512420654297,0.13519448041915894
1695712702057236000,0.638236083984375,7.307680130004883,6.092724800109863,0.04426721855998039
1695712702067282000,0.648281982421875,6.776473522186279,5.326423168182373,-0.008374879136681557
1695712702077313800,0.658313720703125,5.861817359924316,4.517050743103027,0.5186443328857422
1695712702087355000,0.66835498046875,4.96630334854126,3.937987804412842,1.1312068700790405
1695712702097387500,0.678387451171875,4.171288013458252,3.8470606803894043,1.1694921255111694
1695712702107399700,0.688399658203125,4.12343168258667,3.7034912109375,1.0259226560592651
1695712702117430300,0.69843017578125,5.526223659515381,4.019343852996826,0.7962117195129395
1695712702127476200,0.708476318359375,6.7280192375183105,3.9571304321289062,0.3798605799674988
1695712702137676300,0.71867626953125,6.474380016326904,3.1381869316101074,0.4085744619369507
1695712702147709700,0.728709716796875,3.8841493129730225,1.7114664316177368,-0.33858439326286316
1695712702157742000,0.7387421875,5.033302307128906,0.5383850932121277,-0.43908295035362244
1695712702167618300,0.748618408203125,8.12662410736084,1.0600204467773438,0.7292127013206482
1695712702177638700,0.758638671875,7.025327205657959,-0.9176474809646606,0.2356930375099182
1695712702187691300,0.768691162109375,7.834699630737305,-0.7405785918235779,0.4468596279621124
1695712702197715000,0.77871484375,7.09711217880249,-0.5826523303985596,0.389431893825531
1695712702207735300,0.7887353515625,5.938387393951416,-1.6456637382507324,0.4707878530025482
1695712702217758700,0.7987587890625,4.985445976257324,-3.0340991020202637,1.0689935684204102
1695712702227798800,0.808798828125,3.2374889850616455,-4.00618314743042,1.4333007335662842
1695712702237824000,0.818823974609375,1.4847464561462402,-4.470390796661377,0.9206385016441345
1695712702247865000,0.828864990234375,0.9391828775405884,-5.107480049133301,1.0402796268463135
1695712702257891800,0.838891845703125,0.7573283910751343,-6.093921184539795,1.5720844268798828
1695712702267923500,0.84892333984375,0.38344982266426086,-7.2335028648376465,2.2612173557281494
1695712702277950700,0.85895068359375,0.5946164131164551,-8.449654579162598,3.218944549560547
1695712702288003800,0.86900390625,1.1353943347930908,-9.2255277633667,4.483551502227783
1695712702298033700,0.87903369140625,1.7150555849075317,-9.7998046875,5.661418437957764
1695712702308053500,0.889053466796875,2.4472594261169434,-10.73838996887207,7.351349353790283
1695712702318082300,0.899082275390625,3.1800613403320312,-11.270195007324219,9.022735595703125
1695712702328128000,0.9091279296875,4.31007194519043,-11.341979026794434,11.187044143676758
1695712702338158600,0.91915869140625,5.373083114624023,-11.198410034179688,13.461421966552734
1695712702348185900,0.929185791015625,5.723033428192139,-10.575677871704102,16.100107192993164
1695712702358216200,0.93921630859375,6.2638115882873535,-9.718449592590332,19.06421661376953
1695712702368260900,0.9492607421875,6.340381622314453,-8.353941917419434,21.865015029907227
1695712702378292500,0.95929248046875,6.14417028427124,-6.898507595062256,24.47020149230957
1695712702388324000,0.969323974609375,5.057230472564697,-4.983053207397461,26.85464859008789
1695712702398355700,0.979355712890625,4.961517810821533,-2.8187451362609863,29.703901290893555
1695712702408377300,0.98937744140625,5.468796253204346,-0.09391828626394272,31.916067123413086
1695712702418408000,0.999407958984375,5.621936798095703,2.3336002826690674,32.40898895263672
1695712702428444700,1.009444580078125,5.718247890472412,4.229912281036377,31.039695739746094
1695712702438476000,1.01947607421875,4.511068820953369,6.092724800109863,28.712675094604492
1695712702448503300,1.02950341796875,2.5764718055725098,7.0887370109558105,26.86900520324707
1695712702458534100,1.0395341796875,0.6807580590248108,7.682157039642334,25.52364158630371
1695712702468578000,1.049578125,-1.2873386144638062,8.194819450378418,23.703899383544922
1695712702478610200,1.059610107421875,-2.7529425621032715,8.395816802978516,21.046072006225586
1695712702488641500,1.0696416015625,-3.772883176803589,8.515457153320312,17.900108337402344
1695712702498673400,1.07967333984375,-5.333601474761963,8.424530029296875,14.989239692687988
1695712702508694300,1.0896943359375,-9.016156196594238,7.989036560058594,12.608979225158691
1695712702518725000,1.09972509765625,-15.336796760559082,7.131807804107666,10.679765701293945
1695712702528771800,1.109771728515625,-30.08017349243164,3.717848300933838,5.067399978637695
1695712702538804200,1.11980419921875,-16.643877029418945,2.0608184337615967,7.576872825622559
1695712702548825000,1.1298251953125,-1.7377874851226807,1.5098711252212524,9.434301376342773
1695712702558856400,1.1398564453125,0.6616154313087463,-0.7166503667831421,4.718048095703125
1695712702568895700,1.149895751953125,-4.227519512176514,-2.723032236099243,1.0402796268463135
1695712702578927900,1.159927978515625,-6.942774772644043,-0.8602197170257568,3.4301111698150635
1695712702588930000,1.169929931640625,0.9104689955711365,-0.03170489892363548,6.331408500671387
1695712702598959000,1.179958984375,8.164909362792969,-0.5970092415809631,7.93579626083374
1695712702609016600,1.1900166015625,0.3068794906139374,-2.263011932373047,6.69571590423584
1695712702619048700,1.200048583984375,-8.718847274780273,1.7497515678405762,4.459623336791992
1695712702629094000,1.210093994140625,0.30209386348724365,-0.3810569941997528,9.218947410583496
1695712702639127000,1.220126953125,8.150551795959473,0.5575276613235474,8.151150703430176
1695712702649152800,1.23015283203125,4.549354076385498,-0.357128769159317,7.868797302246094
1695712702659185400,1.240185302734375,-2.9108686447143555,0.28893333673477173,7.859225749969482
1695712702669219600,1.250219482421875,-4.299304008483887,-2.3778674602508545,10.358529090881348
1695712702679252200,1.260252197265625,-1.550549030303955,-4.734199523925781,15.577873229980469
1695712702689286000,1.270285888671875,0.6951149702072144,-3.8291144371032715,17.344972610473633
1695712702699318500,1.280318603515625,0.49351966381073,-6.065207004547119,11.752347946166992
1695712702709336000,1.290336181640625,-0.28654050827026367,-10.881958961486816,9.674181938171387
1695712702719367400,1.300367431640625,-1.0671988725662231,-12.012567520141602,8.668598175048828
1695712702729401300,1.3104013671875,-1.5314065217971802,-11.839686393737793,8.548358917236328
1695712702739433000,1.320432861328125,-2.0344974994659424,-14.617155075073242,10.837692260742188
1695712702749467400,1.33046728515625,-1.8765711784362793,-9.034101486206055,8.514859199523926
1695712702759499300,1.340499267578125,-2.14935302734375,-6.419344902038574,10.88554859161377
1695712702769529900,1.35052978515625,-1.8717855215072632,-6.13699197769165,11.464611053466797
1695712702779561500,1.3605615234375,-0.7800601720809937,-7.238288402557373,10.837692260742188
1695712702789603800,1.370603759765625,-0.9427721500396729,-6.0747785568237305,10.191031455993652
1695712702799636500,1.380636474609375,-1.1868400573730469,-5.437689304351807,9.927821159362793
1695712702809658600,1.39065869140625,-0.8470591902732849,-5.811567783355713,9.132805824279785
1695712702819690200,1.400690185546875,0.10588239878416061,-6.471987247467041,8.093722343444824
1695712702829721900,1.410721923828125,1.6049858331680298,-7.482356548309326,7.413562774658203
1695712702839919900,1.420919921875,2.3132612705230713,-7.089933395385742,6.925426959991455
1695712702849951500,1.430951416015625,1.638485312461853,-6.452844619750977,7.360920429229736
1695712702859976400,1.4409765625,0.33080771565437317,-6.6969122886657715,8.093722343444824
1695712702870007600,1.451007568359375,-1.7856439352035522,-5.633901119232178,8.026723861694336
1695712702879876900,1.460876953125,-1.2681959867477417,-4.599603176116943,7.193423271179199
1695712702889888300,1.47088818359375,1.2550355195999146,-3.9391841888427734,7.653443336486816
1695712702899963000,1.480962890625,1.8681962490081787,-2.38265323638916,7.562515735626221
1695712702909981200,1.490981201171875,1.2502498626708984,-1.420140266418457,8.936594009399414
1695712702920005400,1.50100537109375,-1.5601203441619873,0.31764721870422363,9.875179290771484
1695712702930024200,1.511024169921875,5.109872817993164,0.494716078042984,9.520442962646484
1695712702940075300,1.5210751953125,5.473581790924072,1.0121639966964722,12.820145606994629
1695712702950097400,1.531097412109375,-15.025131225585938,4.838287353515625,14.476576805114746
1695712702960158500,1.541158447265625,-10.969895362854004,5.915655612945557,14.739787101745605
1695712702970184700,1.551184814453125,0.2063809484243393,5.91087007522583,14.246866226196289
1695712702980222000,1.561221923828125,0.1824527233839035,5.431707382202148,12.7818603515625
1695712702990249500,1.57124951171875,-4.744967460632324,4.8574299812316895,12.28834056854248
1695712703000287200,1.581287353515625,-7.033702373504639,5.115854740142822,12.45105266571045
1695712703010315500,1.5913154296875,-4.8502516746521,4.330410957336426,13.145569801330566
1695712703020343800,1.60134375,-3.064009428024292,3.7226338386535645,13.04507064819336
1695712703030372000,1.6113720703125,-2.5609183311462402,3.5162527561187744,11.627323150634766
1695712703040411100,1.6214111328125,-1.77607262134552,3.008974552154541,11.325827598571777
1695712703050440400,1.6314404296875,-0.32961133122444153,3.487539052963257,11.848061561584473
1695712703060441000,1.641441162109375,1.968694806098938,4.967499732971191,14.447863578796387
1695712703070467300,1.65146728515625,2.7493531703948975,3.8662030696868896,13.571492195129395
1695712703080533800,1.66153369140625,2.644068956375122,3.229114055633545,12.111271858215332
1695712703090564000,1.671564208984375,3.328416347503662,2.400599241256714,12.235698699951172
1695712703100588800,1.6815888671875,1.4321043491363525,0.9308080077171326,12.307483673095703
1695712703110618600,1.69161865234375,5.7756757736206055,-1.6504493951797485,10.25324535369873
1695712703120671000,1.7016708984375,6.896114826202393,-7.300501823425293,4.372883319854736
1695712703130702800,1.711702880859375,5.196014404296875,-11.10748291015625,-2.1583259105682373
1695712703140698400,1.721698486328125,1.3124631643295288,-21.560527801513672,-4.351347923278809
1695712703150726400,1.731726318359375,-0.4731806814670563,-36.02155303955078,-3.2548370361328125
1695712703160787000,1.741786865234375,-2.9347970485687256,-24.59642219543457,-1.6504493951797485
1695712703170818300,1.751818359375,-13.095918655395508,-13.01815128326416,3.195016384124756
1695712703180846000,1.76184619140625,-16.5577335357666,-8.698508262634277,6.455835342407227
1695712703190877200,1.771877197265625,-14.513067245483398,-6.290132522583008,9.381659507751465
1695712703200892200,1.78189208984375,-7.59362268447876,-4.432105541229248,10.286744117736816
1695712703210921500,1.79192138671875,1.7581263780593872,-3.22552490234375,8.481359481811523
1695712703220980000,1.80197998046875,9.385847091674805,-2.9958138465881348,6.293123722076416
1695712703231012000,1.81201220703125,11.44965648651123,-4.935196876525879,5.97727108001709
1695712703241041400,1.82204150390625,13.838890075683594,-6.471987247467041,6.120840549468994
1695712703251073300,1.8320732421875,12.105888366699219,-3.326023578643799,8.151150703430176
1695712703261079000,1.8420791015625,5.61236572265625,-4.66660213470459,8.678169250488281
1695712703271107800,1.85210791015625,1.1018948554992676,-8.435297966003418,10.583454132080078
1695712703281172700,1.8621728515625,-1.5601203441619873,-9.896116256713867,13.064213752746582
1695712703291205000,1.872205078125,-0.5306084156036377,-10.810174942016602,12.944572448730469
1695712703301229300,1.882229248046875,3.012563705444336,-11.413763999938965,11.388041496276855
1695712703311261000,1.892260986328125,5.473581790924072,-8.540582656860352,7.864011764526367
1695712703321299200,1.90229931640625,4.894518852233887,-3.6711881160736084,3.5641093254089355
1695712703331331600,1.91233154296875,5.277370452880859,-3.541377544403076,2.582453727722168
1695712703341358000,1.922358154296875,4.491926193237305,-5.107480049133301,3.52103853225708
1695712703351390000,1.932389892578125,2.7349963188171387,-8.435297966003418,5.292325496673584
1695712703361415200,1.942415283203125,-1.7569299936294556,-11.169695854187012,7.399205684661865
1695712703371446000,1.952446044921875,-9.10229778289795,-14.19601821899414,10.415956497192383
1695712703381509000,1.962509033203125,-10.820941925048828,-12.002996444702148,10.459028244018555
1695712703391543600,1.97254345703125,-4.3280181884765625,-6.97986364364624,7.624729156494141
1695712703401551400,1.98255126953125,-0.06161518394947052,-7.534998416900635,4.770689964294434
1695712703411583500,1.99258349609375,-0.5210371017456055,-7.937591075897217,4.033102512359619
1695712703421599000,2.002598876953125,-0.8566305041313171,-7.683353424072266,4.469194412231445
1695712703431629300,2.01262939453125,-0.3200400173664093,-7.539783954620361,5.2971110343933105
1695712703441670700,2.022670654296875,-0.511465847492218,-6.7351975440979,5.670989513397217
1695712703451702000,2.032701904296875,-0.6029912829399109,-7.2574310302734375,5.771488189697266
1695712703461736000,2.04273583984375,-1.2969099283218384,-4.532604217529297,5.642275810241699
1695712703471767800,2.052767822265625,-0.38703906536102295,5.9060845375061035,3.022733211517334
1695712703481796000,2.062796142578125,-1.4021940231323242,-1.6169499158859253,1.4811571836471558
1695712703491827200,2.0728271484375,-1.8813568353652954,-0.4624129831790924,1.6390835046768188
1695712703501868500,2.08286865234375,2.988635540008545,-0.23748764395713806,1.950150489807129
1695712703511901000,2.09290087890625,6.201598167419434,-1.975873351097107,2.5537400245666504
1695712703521956900,2.102956787109375,7.858627796173096,-6.845865726470947,3.9278182983398438
1695712703531991300,2.1129912109375,8.131409645080566,-5.835496425628662,2.936591625213623
1695712703541994500,2.122994384765625,3.841078519821167,-5.974279880523682,0.5904290080070496
1695712703552025900,2.13302587890625,-0.8662018179893494,-5.385047435760498,-0.36729827523231506
1695712703562057200,2.14305712890625,1.0875378847122192,-2.833101987838745,-1.7270197868347168
1695712703572088600,2.153088623046875,-1.3878371715545654,-3.3786656856536865,-1.363310694694519
1695712703582115300,2.163115234375,-7.8526458740234375,-6.27577543258667,0.4707878530025482
1695712703592146400,2.173146484375,-6.573681831359863,-9.321240425109863,2.2707886695861816
1695712703602208000,2.1832080078125,0.0005982056609354913,-20.487945556640625,4.8568315505981445
1695712703612242200,2.1932421875,4.832305431365967,-30.979276657104492,1.4859428405761719
1695712703622254800,2.2032548828125,5.56450891494751,-31.352556228637695,1.337587833404541
1695712703632286700,2.21328662109375,2.7828526496887207,-22.36989974975586,2.5633113384246826
1695712703642334500,2.22333447265625,0.7716853022575378,-15.239887237548828,2.510669231414795
1695712703652367600,2.23336767578125,-0.004187439568340778,-10.269396781921387,2.376671075820923
1695712703662371300,2.243371337890625,-0.33918261528015137,-7.601997375488281,1.174277663230896
1695712703672401400,2.2534013671875,-1.3208380937576294,-11.528619766235352,-0.9613165259361267
1695712703682463500,2.26346337890625,-0.4205385744571686,-20.487945556640625,-3.0442686080932617
1695712703692496600,2.27349658203125,2.050050735473633,-18.035900115966797,-8.517251968383789
1695712703702514000,2.283513916015625,2.7637102603912354,-9.17288589477539,-14.34018611907959
1695712703712545800,2.2935458984375,1.8346967697143555,-4.345963954925537,-13.133007049560547
1695712703722573800,2.30357373046875,-0.12382857501506805,-2.2821545600891113,-10.595418930053711
1695712703732605200,2.313605224609375,-2.3647069931030273,-2.4161527156829834,-9.18305492401123
1695712703742632700,2.3236328125,-3.6532418727874756,-4.207180500030518,-6.410371780395508
1695712703752663600,2.33366357421875,-2.8582265377044678,-6.7351975440979,-3.9876389503479004
1695712703762703600,2.34370361328125,-1.0049854516983032,-8.660223007202148,-3.5467612743377686
1695712703772735200,2.3537353515625,1.3316057920455933,-10.48953628540039,-3.2452657222747803
1695712703782790000,2.363789794921875,1.542174220085144,-12.103495597839355,-2.8911280632019043
1695712703792824000,2.373823974609375,1.8634105920791626,-12.577274322509766,-2.1200408935546875
1695712703802836000,2.3838359375,2.610569477081299,-11.447263717651367,-1.3872389793395996
1695712703812867600,2.39386767578125,2.7637102603912354,-9.818947792053223,-1.7270197868347168
1695712703822895400,2.403895263671875,2.2606191635131836,-8.626724243164062,-2.445464849472046
1695712703832926700,2.4139267578125,1.6289139986038208,-7.980661869049072,-3.455834150314331
1695712703842973400,2.423973388671875,0.7573283910751343,-8.11944580078125,-4.064209461212158
1695712703853006000,2.434006103515625,0.16809579730033875,-8.363512992858887,-4.3657050132751465
1695712703863049200,2.44404931640625,-0.3487538993358612,-8.73200798034668,-4.2795634269714355
1695712703873083100,2.454083251953125,-0.8039883971214294,-9.168100357055664,-3.8530426025390625
1695712703883082000,2.46408203125,-0.9858429431915283,-9.732806205749512,-3.3409786224365234
1695712703893112300,2.4741123046875,-0.8087740540504456,-9.920044898986816,-2.7278177738189697
1695712703903141600,2.4841416015625,-0.41096729040145874,-9.89133071899414,-2.1439690589904785
1695712703913172200,2.494172119140625,-0.5018945336341858,-9.522237777709961,-2.1104695796966553
1695712703923204600,2.50420458984375,-0.5258227586746216,-8.995817184448242,-2.3401806354522705
1695712703933235200,2.514235107421875,-0.21954147517681122,-8.722436904907227,-1.9525432586669922
1695712703943293000,2.52429296875,-0.20518454909324646,-8.85224723815918,-1.3872389793395996
1695712703953326000,2.534326171875,-0.3678964674472809,-9.019744873046875,-1.119242787361145
1695712703963345200,2.54434521484375,-0.8039883971214294,-8.957531929016113,-0.711864709854126
1695712703973377000,2.554376953125,-0.727418065071106,-9.129815101623535,-0.745364248752594
1695712703983423500,2.564423583984375,-0.49710890650749207,-9.804591178894043,-1.602592945098877
1695712703993457000,2.574456787109375,-0.8757730722427368,-10.436894416809082,-2.2683959007263184
1695712704003471400,2.584471435546875,-1.5846468210220337,-10.546963691711426,-2.737389087677002
1695712704013503000,2.5945029296875,-1.9818553924560547,-10.221540451049805,-3.039483070373535
1695712704023539500,2.60453955078125,-1.9435701370239258,-9.857233047485352,-3.1447670459747314
1695712704033571600,2.614571533203125,-1.6660027503967285,-9.632308006286621,-3.2452657222747803
1695712704043584500,2.62458447265625,-1.526620864868164,-9.493523597717285,-3.3505499362945557
1695712704053614300,2.6346142578125,-1.301695466041565,-9.278169631958008,-3.3170504570007324
1695712704063681000,2.644680908203125,-1.129412293434143,-9.10110092163086,-3.2165517807006836
1695712704073714700,2.654714599609375,-1.038485050201416,-9.010173797607422,-3.149552822113037
1695712704083748400,2.664748291015625,-0.9427721500396729,-9.273384094238281,-2.9485557079315186
1695712704093782000,2.674781982421875,-0.914058268070221,-9.42173957824707,-2.579462766647339
1695712704103816400,2.68481640625,-0.8183453679084778,-9.440881729125977,-2.249253273010254
1695712704113850000,2.69485009765625,-0.7513462901115417,-9.254241943359375,-2.029113531112671
1695712704123852500,2.7048525390625,-0.7226324677467346,-8.96231746673584,-2.0865414142608643
1695712704133883100,2.714883056640625,-0.8805587291717529,-8.617152214050293,-2.3497519493103027
1695712704143922400,2.72492236328125,-1.0959128141403198,-8.459226608276367,-2.775674343109131
1695712704153954000,2.7349541015625,-1.2490534782409668,-8.665008544921875,-3.111267566680908
1695712704164003800,2.74500390625,-1.430907964706421,-9.014959335327148,-3.273979663848877
1695712704174037200,2.755037353515625,-1.622931957244873,-9.292527198791504,-3.2452657222747803
1695712704184068600,2.765068603515625,-1.7042878866195679,-9.33559799194336,-3.1304101943969727
1695712704194102000,2.77510205078125,-1.6755740642547607,-9.33559799194336,-2.919841766357422
1695712704204125200,2.785125244140625,-1.6612170934677124,-9.282955169677734,-2.4598217010498047
1695712704214157300,2.7951572265625,-1.5314065217971802,-9.158528327941895,-2.187039852142334
1695712704224172800,2.8051728515625,-1.2873386144638062,-9.153742790222168,-2.014756679534912
1695712704234203100,2.815203125,-0.9906286001205444,-9.215956687927246,-2.225325107574463
1695712704244233700,2.825233642578125,-0.7657032608985901,-9.239884376525879,-2.5698914527893066
1695712704254264300,2.835264404296875,-0.6460621356964111,-9.349954605102539,-2.723032236099243
1695712704264311600,2.8453115234375,-0.7369893789291382,-9.493523597717285,-2.651247501373291
1695712704274343700,2.85534375,-0.8231309652328491,-9.622735977172852,-2.478964328765869
1695712704284380200,2.865380126953125,-0.97148597240448,-9.632308006286621,-2.4406790733337402
1695712704294412800,2.875412841796875,-1.0863415002822876,-9.483952522277832,-2.4837498664855957
1695712704304464100,2.885464111328125,-1.2299108505249023,-9.354740142822266,-2.4837498664855957
1695712704314498600,2.89549853515625,-1.306481122970581,-9.244669914245605,-2.612962245941162
1695712704324656000,2.90565625,-1.2203395366668701,-9.139386177062988,-2.416750907897949
1695712704334701600,2.91570166015625,-1.2203395366668701,-9.268598556518555,-2.531606435775757
1695712704344747000,2.9257470703125,-1.1724830865859985,-9.359525680541992,-2.3641088008880615
1695712704354600000,2.935599853515625,-1.191625714302063,-9.531808853149414,-2.273181438446045
1695712704364631300,2.94563134765625,-1.129412293434143,-9.57487964630127,-2.2301106452941895
1695712704374669600,2.955669677734375,-0.9762716293334961,-9.364311218261719,-2.5986053943634033
1695712704384701400,2.965701416015625,-0.7800601720809937,-9.139386177062988,-2.6943182945251465
1695712704394752500,2.97575244140625,-0.6699903607368469,-9.053244590759277,-2.6847469806671143
1695712704404786200,2.9857861328125,-0.7034898400306702,-9.067601203918457,-2.6799614429473877
1695712704414789000,2.9957890625,-0.8422735929489136,-9.17288589477539,-2.5363919734954834
1695712704424819700,3.00581982421875,-1.0001999139785767,-9.273384094238281,-2.4406790733337402
1695712704434852400,3.015852294921875,-1.057627558708191,-9.383454322814941,-2.4119651317596436
1695712704444883000,3.025883056640625,-1.0432707071304321,-9.469595909118652,-2.392822742462158
1695712704454918400,3.03591845703125,-1.0001999139785767,-9.541379928588867,-2.5938198566436768
1695712704464949500,3.045949462890625,-0.851844847202301,-9.57487964630127,-2.7326035499572754
1695712704474998500,3.05599853515625,-0.8662018179893494,-9.378668785095215,-2.7182464599609375
1695712704485031700,3.06603173828125,-0.885344386100769,-9.053244590759277,-2.6177480220794678
1695712704495044900,3.076044921875,-0.8039883971214294,-9.08674430847168,-2.8139593601226807
1695712704505075700,3.08607568359375,-0.7896314859390259,-9.254241943359375,-2.867199659347534
1695712704515109400,3.096109375,-1.0145567655563354,-9.21117115020752,-2.66560435295105
1695712704525140500,3.106140380859375,-0.9858429431915283,-9.235098838806152,-2.737389087677002
1695712704535175200,3.116175048828125,-0.9475577473640442,-9.268598556518555,-2.8426733016967773
1695712704545206800,3.126206787109375,-0.9762716293334961,-9.345169067382812,-2.8043880462646484
1695712704555268600,3.1362685546875,-1.0001999139785767,-9.340383529663086,-2.905484914779663
1695712704565303300,3.14630322265625,-0.8709874153137207,-9.349954605102539,-2.929413080215454
1695712704575328500,3.15632861328125,-0.9236295223236084,-9.33559799194336,-2.7804598808288574
1695712704585362200,3.166362060546875,-0.9810572862625122,-9.33559799194336,-2.526820659637451
1695712704595388200,3.17638818359375,-1.0289137363433838,-9.215956687927246,-2.455035924911499
1695712704605421000,3.186421142578125,-0.914058268070221,-9.292527198791504,-2.4263222217559814
1695712704615453200,3.196453125,-1.0528420209884644,-8.9910306930542,-1.8951154947280884
1695712704625486000,3.206486083984375,-0.9762716293334961,-9.517452239990234,-2.785245656967163
1695712704635507000,3.2165068359375,-1.2011969089508057,-9.354740142822266,-2.368894338607788
1695712704645538600,3.22653857421875,-1.1437692642211914,-9.56052303314209,-3.0729825496673584
1695712704655585800,3.236585693359375,-1.2634103298187256,-9.383454322814941,-2.6608188152313232
1695712704665619200,3.246619140625,-1.3639088869094849,-9.096315383911133,-2.5986053943634033
1695712704675636700,3.25663671875,-1.2346965074539185,-9.10110092163086,-2.87198543548584
1695712704685668600,3.266668701171875,-1.210768222808838,-9.04845905303955,-2.4981069564819336
1695712704695682600,3.2766826171875,-1.153340458869934,-8.900103569030762,-2.6464617252349854
1695712704705712600,3.286712646484375,-0.9044869542121887,-9.230313301086426,-2.9629125595092773
1695712704715769600,3.29676953125,-0.8135597109794617,-9.483952522277832,-3.2691938877105713
1695712704725802200,3.30680224609375,-0.8087740540504456,-9.378668785095215,-3.197409152984619
1695712704735835400,3.31683544921875,-0.8805587291717529,-9.349954605102539,-3.3026933670043945
1695712704745868000,3.326867919921875,-1.0863415002822876,-9.034101486206055,-3.092125177383423
1695712704755877400,3.33687744140625,-1.0671988725662231,-9.168100357055664,-3.202194929122925
1695712704765907700,3.34690771484375,-1.1389836072921753,-9.469595909118652,-3.197409152984619
1695712704775957800,3.356957763671875,-1.3399807214736938,-9.632308006286621,-3.235694408416748
1695712704785990100,3.366990234375,-1.5894324779510498,-9.067601203918457,-2.3976082801818848
1695712704796177700,3.377177734375,-1.8143577575683594,-8.794221878051758,-2.493321180343628
1695712704806210000,3.3872099609375,-1.709073543548584,-9.282955169677734,-2.8043880462646484
1695712704816235500,3.397235595703125,-1.8909281492233276,-9.656235694885254,-2.6608188152313232
1695712704826267600,3.407267578125,-2.015354871749878,-9.963115692138672,-3.1208388805389404
1695712704836300300,3.41730029296875,-1.77607262134552,-9.934401512145996,-2.8767709732055664
1695712704846323500,3.427323486328125,-1.3160524368286133,-9.689735412597656,-2.761317253112793
1695712704856349000,3.437348876953125,-1.1820544004440308,-9.230313301086426,-2.2301106452941895
1695712704866381600,3.447381591796875,-0.9762716293334961,-8.890532493591309,-2.3258235454559326
1695712704876432100,3.45743212890625,-0.7465606927871704,-8.684151649475098,-2.282752752304077
1695712704886476300,3.467476318359375,-0.6556333899497986,-8.435297966003418,-2.4263222217559814
1695712704896508700,3.4775087890625,-0.7178468108177185,-8.464012145996094,-2.837887763977051
1695712704906517800,3.487517822265625,-0.7800601720809937,-8.655437469482422,-2.982055187225342
1695712704916550000,3.4975498046875,-1.0145567655563354,-8.631509780883789,-3.1591241359710693
1695712704926582300,3.507582275390625,-1.2299108505249023,-8.574081420898438,-3.809971809387207
1695712704936614700,3.51761474609375,-1.5553346872329712,-8.325227737426758,-4.346562385559082
1695712704946647000,3.52764697265625,-1.771286964416504,-8.301300048828125,-4.432703971862793
1695712704956676900,3.5376767578125,-1.9100706577301025,-8.24387264251709,-4.265206336975098
1695712704966706400,3.54770654296875,-2.1206390857696533,-8.301300048828125,-3.9493536949157715
1695712704976577000,3.557576904296875,-2.407777786254883,-8.444869041442871,-3.699902057647705
1695712704986594300,3.56759423828125,-2.407777786254883,-8.741579055786133,-3.5132617950439453
1695712704996672000,3.577672119140625,-1.9674984216690063,-9.780662536621094,-2.493321180343628
1695712705006695400,3.5876953125,-1.6516457796096802,-10.049257278442383,-2.091326951980591
1695712705016715300,3.59771533203125,-1.4691931009292603,-9.987043380737305,-1.7174484729766846
1695712705026738200,3.60773828125,-1.1389836072921753,-9.77109146118164,-1.7653049230575562
1695712705036798700,3.617798828125,-0.7992027401924133,-9.479166984558105,-2.0003998279571533
1695712705046825500,3.627825439453125,-0.49232324957847595,-9.192028045654297,-2.287538528442383
1695712705056832800,3.637832763671875,-0.5407779216766357,-9.034101486206055,-2.541177749633789
1695712705066857500,3.647857421875,-0.7417750358581543,-8.9910306930542,-2.6177480220794678
1695712705076926500,3.657926513671875,-0.9044869542121887,-9.019744873046875,-2.6177480220794678
1695712705086955800,3.667955810546875,-1.0289137363433838,-9.177671432495117,-2.651247501373291
1695712705096989700,3.67798974609375,-1.1341979503631592,-9.282955169677734,-2.6177480220794678
1695712705107019500,3.68801953125,-0.97148597240448,-9.45045280456543,-2.6464617252349854
1695712705117048800,3.698048828125,-0.6364908218383789,-9.570094108581543,-2.8767709732055664
1695712705127078400,3.708078369140625,-0.3152543902397156,-9.651450157165527,-2.895913600921631
1695712705137123800,3.718123779296875,0.019740786403417587,-9.512666702270508,-2.809173822402954
1695712705147155200,3.7281552734375,0.3595215976238251,-9.45045280456543,-2.746960401535034
1695712705157186600,3.7381865234375,0.7286145091056824,-9.273384094238281,-2.5603201389312744
1695712705167369000,3.748368896484375,0.7286145091056824,-9.148957252502441,-2.5220351219177246
1695712705177407500,3.758407470703125,0.9343972206115723,-9.058030128479004,-2.431107759475708
1695712705187428600,3.7684287109375,1.0109676122665405,-9.058030128479004,-2.321038007736206
1695712705197460000,3.7784599609375,0.9631111025810242,-9.053244590759277,-2.148754835128784
1695712705207498200,3.788498291015625,0.9248259663581848,-9.067601203918457,-2.172683000564575
1695712705217502500,3.79850244140625,0.8578268885612488,-9.091529846191406,-2.2205393314361572
1695712705227533800,3.808533935546875,0.6137589812278748,-9.091529846191406,-2.359323024749756
1695712705237598200,3.81859814453125,0.268594354391098,-9.06281566619873,-2.5076780319213867
1695712705247629600,3.828629638671875,0.2829512655735016,-9.148957252502441,-2.60339093208313
1695712705257642500,3.838642578125,0.3978067636489868,-9.330811500549316,-2.7182464599609375
1695712705267674000,3.848674072265625,0.7094719409942627,-9.66102123260498,-2.785245656967163
1695712705277707800,3.858707763671875,1.0205388069152832,-9.958329200744629,-2.723032236099243
1695712705287741400,3.868741455078125,1.1162517070770264,-10.183255195617676,-2.4263222217559814
1695712705297774800,3.87877490234375,1.0109676122665405,-10.240682601928711,-2.1822543144226074
1695712705307808500,3.88880859375,0.9296116232872009,-10.049257278442383,-1.8131613731384277
1695712705317842200,3.89884228515625,0.9439685344696045,-9.818947792053223,-1.5451651811599731
1695712705327875800,3.908875732421875,0.900897741317749,-9.6466646194458,-1.3968101739883423
1695712705337905000,3.91890478515625,0.9104689955711365,-9.579665184020996,-1.4398809671401978
1695712705347923000,3.9289228515625,0.9726824164390564,-9.359525680541992,-1.5595221519470215
1695712705357941000,3.93894091796875,1.1832507848739624,-9.206384658813477,-1.8616160154342651
1695712705367959000,3.948958984375,1.293320655822754,-9.07717227935791,-1.8807586431503296
1695712705377977000,3.95897705078125,1.2837493419647217,-8.890532493591309,-2.0578274726867676
1695712705387995100,3.9689951171875,1.2598211765289307,-8.70807933807373,-2.1678972244262695
1695712705398013000,3.979012939453125,1.1497513055801392,-8.516654014587402,-2.407179594039917
1695712705408031200,3.98903125,0.9631111025810242,-8.679366111755371,-2.699103832244873
1695712705418049000,3.999049072265625,0.9056833982467651,-8.842676162719727,-2.4023938179016113
1695712705428067300,4.0090673828125,0.8482556343078613,-9.129815101623535,-2.0482561588287354
1695712705438085000,4.019085205078125,0.7046862840652466,-10.274182319641113,-1.6791633367538452
1695712705448114700,4.02911474609375,0.747757077217102,-10.676176071166992,-1.1288141012191772
1695712705458146800,4.039146728515625,0.35473597049713135,-10.73838996887207,-0.18065811693668365
1695712705468178700,4.0491787109375,-0.07118647545576096,-10.164112091064453,0.18783657252788544
1695712705478210800,4.0592109375,0.019740786403417587,-10.087542533874512,0.2548356056213379
1695712705488242700,4.06924267578125,-0.12861421704292297,-9.742377281188965,0.5617151260375977
1695712705498274800,4.07927490234375,-2.2881367206573486,-7.491927623748779,0.633499801158905
1695712705508306700,4.089306640625,4.664209365844727,-8.11944580078125,-0.6879364848136902
1695712705518338800,4.0993388671875,4.070789337158203,-8.277371406555176,-3.9014973640441895
1695712705528370700,4.10937060546875,2.179263114929199,-8.129016876220703,-5.280361175537109
1695712705538402800,4.11940283203125,0.4217349886894226,-8.430512428283691,-5.557928562164307
1695712705548432600,4.1294326171875,-1.1102696657180786,-8.74636459350586,-4.9160542488098145
1695712705558464500,4.139464599609375,-1.435693621635437,-9.18724250793457,-3.906282901763916
1695712705568496000,4.14949609375,-0.550349235534668,-9.555737495422363,-3.149552822113037
1695712705578527700,4.15952783203125,0.45523449778556824,-9.818947792053223,-2.6560330390930176
1695712705588559600,4.1695595703125,1.0923235416412354,-9.896116256713867,-2.2540390491485596
1695712705598591200,4.17959130859375,1.4464613199234009,-9.790233612060547,-1.832902193069458
1695712705608622800,4.189622802734375,1.6767704486846924,-9.507881164550781,-1.4829518795013428
1695712705618654500,4.199654541015625,1.8011972904205322,-9.32602596282959,-1.0713863372802734
1695712705628686300,4.209686279296875,1.9878374338150024,-9.302098274230957,-0.9278169870376587
1695712705638718000,4.219718017578125,2.050050735473633,-9.33559799194336,-1.033101201057434
1695712705648748300,4.229748291015625,2.217548370361328,-9.550951957702637,-1.3489537239074707
1695712705658780700,4.23978076171875,2.5334010124206543,-9.814162254333496,-1.6456637382507324
1695712705668813000,4.24981298828125,2.8115665912628174,-10.049257278442383,-1.94297194480896
1695712705678845400,4.259845458984375,2.878565549850464,-10.006186485290527,-2.1918256282806396
1695712705688877800,4.2698779296875,2.6488547325134277,-10.039685249328613,-2.5220351219177246
1695712705698910200,4.27991015625,2.2271196842193604,-10.05404281616211,-2.9102704524993896
1695712705708942600,4.289942626953125,1.6719847917556763,-10.211968421936035,-3.1591241359710693
1695712705718975000,4.29997509765625,1.0348957777023315,-10.446465492248535,-3.40797758102417
1695712705729007400,4.31000732421875,0.5132604837417603,-10.570892333984375,-3.518047571182251
1695712705739039700,4.320039794921875,0.03409772366285324,-10.72403335571289,-3.4510483741760254
1695712705749072100,4.330072021484375,-0.2721835672855377,-10.695319175720215,-3.3409786224365234
1695712705759106800,4.34010693359375,-0.49710890650749207,-10.623534202575684,-3.1064820289611816
1695712705769162500,4.35016259765625,-0.6652047038078308,-10.695319175720215,-2.641676187515259
1695712705779218200,4.36021826171875,-0.4731806814670563,-11.011770248413086,-2.0003998279571533
1695712705789273900,4.37027392578125,-0.023330021649599075,-11.552547454833984,-1.3537393808364868
1695712705799329500,4.38032958984375,0.4265206456184387,-12.194422721862793,-0.6927221417427063
1695712705809385000,4.390385009765625,0.5228317379951477,-12.850055694580078,0.05383851006627083
1695712705819440600,4.400440673828125,0.20159530639648438,-13.367504119873047,0.6717849373817444
1695712705829496300,4.410496337890625,-0.5258227586746216,-13.611571311950684,1.0689935684204102
1695712705839527700,4.420527587890625,-1.6755740642547607,-13.458431243896484,0.9589236974716187
1695712705849544700,4.430544677734375,-2.695514678955078,-13.137792587280273,0.11605189740657806
1695712705859562200,4.440562255859375,-3.078366279602051,-12.538989067077637,-1.1479566097259521
1695712705869579300,4.450579345703125,-3.3750762939453125,-11.7056884765625,-2.3497519493103027
1695712705879596500,4.460596435546875,-4.222733974456787,-10.858031272888184,-3.3122646808624268
1695712705889613800,4.47061376953125,-4.711467742919922,-10.384251594543457,-4.432703971862793
1695712705899631000,4.480631103515625,-3.5569307804107666,-10.393823623657227,-5.6344990730285645
1695712705909648400,4.4906484375,-1.0480563640594482,-10.149755477905273,-6.372086524963379
1695712705919665700,4.500665771484375,1.6767704486846924,-9.920044898986816,-6.156732559204102
1695712705929683000,4.510682861328125,3.7645082473754883,-9.934401512145996,-5.361717224121094
1695712705939700200,4.5207001953125,6.172883987426758,-10.202397346496582,-4.83469820022583
1695712705949731000,4.53073095703125,5.420939922332764,-11.284551620483398,-4.470989227294922
1695712705959760600,4.5407607421875,3.218346357345581,-11.849257469177246,-3.675973892211914
1695712705969790500,4.55079052734375,1.9208383560180664,-11.447263717651367,-2.6847469806671143
1695712705979820000,4.560820068359375,2.0404794216156006,-11.241480827331543,-2.0003998279571533
1695712705989849900,4.570849853515625,1.231107234954834,-11.84447193145752,-1.363310694694519
1695712705999879400,4.58087939453125,0.6376872062683105,-12.2135648727417,-1.186241865158081
1695712706009909200,4.5909091796875,0.5563312768936157,-12.247064590454102,-1.2867404222488403
1695712706019938800,4.600938720703125,0.27816563844680786,-12.52463150024414,-1.6169499158859253
1695712706029968600,4.61096875,-0.1381855010986328,-12.77348518371582,-2.091326951980591
1695712706039998200,4.620998291015625,0.1824527233839035,-12.242279052734375,-2.187039852142334
1695712706050030000,4.631030029296875,0.5946164131164551,-11.0835542678833,-2.0578274726867676
1695712706060065800,4.641065673828125,0.833898663520813,-9.603593826293945,-2.0578274726867676
1695712706070101500,4.6511015625,0.6329016089439392,-8.100302696228027,-2.163111686706543
1695712706080137200,4.66113720703125,0.12502498924732208,-6.826723098754883,-2.3401806354522705
1695712706090173000,4.6711728515625,0.268594354391098,-5.600401401519775,-2.3162522315979004
1695712706100208600,4.681208740234375,0.7716853022575378,-4.633102893829346,-2.148754835128784
1695712706110244400,4.691244384765625,0.6664010882377625,-4.2454657554626465,-2.0243279933929443
1695712706120280000,4.701280029296875,0.8961120843887329,-4.140181541442871,-2.124826431274414
1695712706130315800,4.711315673828125,0.6711867451667786,-4.479962348937988,-2.014756679534912
1695712706140351500,4.7213515625,0.46480581164360046,-4.825126647949219,-1.9573289155960083
1695712706150382800,4.7313828125,0.129810631275177,-4.892126083374023,-1.94297194480896
1695712706160412200,4.741412109375,-0.0568295381963253,-4.815555572509766,-2.076970100402832
1695712706170441500,4.75144140625,0.005383851006627083,-4.700700283050537,-1.8999011516571045
1695712706180470800,4.761470703125,-0.12861421704292297,-4.393820762634277,-2.091326951980591
1695712706190499800,4.771499755859375,-0.550349235534668,-4.207180500030518,-2.6847469806671143
1695712706200529200,4.781529052734375,-0.5742774605751038,-4.111467361450195,-2.746960401535034
1695712706210558500,4.791558349609375,-0.8087740540504456,-4.221537113189697,-2.713460922241211
1695712706220587800,4.801587890625,-1.1341979503631592,-4.489533424377441,-2.641676187515259
1695712706230617000,4.8116171875,-1.7282161712646484,-4.628317356109619,-2.493321180343628
1695712706240646400,4.821646484375,-2.719442844390869,-4.618745803833008,-2.3497519493103027
1695712706250681300,4.831681396484375,-3.8638103008270264,-4.647459983825684,-2.335394859313965
1695712706260734700,4.841734619140625,-4.893322467803955,-4.858626365661621,-2.5220351219177246
1695712706270787800,4.851787841796875,-5.381458282470703,-5.212764263153076,-3.015554666519165
1695712706280841200,4.86184130859375,-5.956333637237549,-5.902495384216309,-3.3553354740142822
1695712706290894600,4.87189453125,-9.355937004089355,-7.597211837768555,-3.6568312644958496
1695712706300948000,4.881947998046875,-14.192429542541504,-10.274182319641113,-4.202992916107178
1695712706311001300,4.89200146484375,-16.54816246032715,-13.04207992553711,-4.638486862182617
1695712706321054700,4.9020546875,-16.160526275634766,-15.87159252166748,-5.256433010101318
1695712706331086000,4.912086181640625,-12.99960708618164,-18.792631149291992,-5.175076961517334
1695712706341105200,4.922105224609375,-8.259425163269043,-19.396221160888672,-3.2452657222747803
1695712706351124200,4.932124267578125,-4.677370071411133,-17.025531768798828,-1.186241865158081
1695712706361143000,4.94214306640625,-3.6430723667144775,-13.688141822814941,-0.5635097622871399
1695712706371162000,4.952162109375,-4.385445594787598,-10.259825706481934,-1.51166570186615
1695712706381181200,4.96218115234375,-5.027320384979248,-7.788637638092041,-3.9014973640441895
1695712706391200000,4.972199951171875,-4.965106964111328,-7.027719974517822,-5.754140377044678
1695712706401219000,4.982218994140625,-5.314459323883057,-7.262216567993164,-6.104090690612793
1695712706411238100,4.992238037109375,-4.203591346740723,-9.153742790222168,-5.352146148681641
1695712706421257000,5.002257080078125,-0.7513462901115417,-12.07478141784668,-4.11206579208374
1695712706431276000,5.012276123046875,3.5676984786987305,-14.435300827026367,-2.7326035499572754
1695712706441307100,5.02230712890625,3.486342668533325,-14.325230598449707,-2.5938198566436768
1695712706451337000,5.0323369140625,3.4097721576690674,-11.428120613098145,-2.967698335647583
1695712706461366500,5.042366455078125,5.36351203918457,-7.109076023101807,-3.604189157485962
1695712706471396400,5.052396240234375,5.511867046356201,-3.896113395690918,-5.557928562164307
1695712706481426000,5.062426025390625,2.854637384414673,-2.5357937812805176,-7.578667640686035
1695712706491455700,5.072455810546875,0.589830756187439,-1.8993029594421387,-9.474979400634766
1695712706501485600,5.082485595703125,0.8434699773788452,-2.5597219467163086,-9.20698356628418
1695712706511515100,5.09251513671875,2.217548370361328,-4.226323127746582,-7.167101860046387
1695712706521544700,5.102544677734375,3.2709884643554688,-7.3292155265808105,-5.007579803466797
1695712706531574500,5.112574462890625,3.1178479194641113,-10.36510944366455,-3.393620729446411
1695712706541604400,5.122604248046875,1.6193426847457886,-12.381062507629395,-2.407179594039917
1695712706551636000,5.132635986328125,0.7668996453285217,-12.893126487731934,-1.9860427379608154
1695712706561670700,5.142670654296875,1.1210373640060425,-12.357133865356445,-1.832902193069458
1695712706571705000,5.152705078125,1.7485551834106445,-11.466405868530273,-1.7078771591186523
1695712706581739800,5.16273974609375,2.002194404602051,-10.432108879089355,-1.9046868085861206
1695712706591774500,5.1727744140625,2.2989044189453125,-9.431310653686523,-1.9764715433120728
1695712706601809000,5.182808837890625,1.9543378353118896,-8.93838882446289,-2.335394859313965
1695712706611843600,5.192843505859375,1.8299111127853394,-8.779864311218262,-2.3306093215942383
1695712706621878000,5.2028779296875,2.0644078254699707,-8.545368194580078,-2.249253273010254
1695712706631912700,5.21291259765625,2.1888344287872314,-8.416155815124512,-2.0865414142608643
1695712706641947100,5.222947021484375,1.9399809837341309,-8.598010063171387,-1.9142581224441528
1695712706651981800,5.23298193359375,1.7150555849075317,-8.822935104370117,-1.7270197868347168
1695712706662013400,5.243013427734375,1.5906288623809814,-9.105886459350586,-1.6121642589569092
1695712706672043500,5.25304345703125,1.211964726448059,-9.278169631958008,-1.3824533224105835
1695712706682073900,5.263073974609375,0.9104689955711365,-9.426525115966797,-1.44945228099823
1695712706692104000,5.27310400390625,0.3978067636489868,-9.153742790222168,-1.6360924243927002
1695712706702134300,5.28313427734375,0.010169495828449726,-8.900103569030762,-1.8424733877182007
1695712706712164600,5.29316455078125,-0.20039889216423035,-8.688937187194824,-2.0673987865448
1695712706722194700,5.303194580078125,-0.3487538993358612,-8.559724807739258,-2.2923240661621094
1695712706732225000,5.31322509765625,-0.38225340843200684,-8.602795600891113,-2.5076780319213867
1695712706742255000,5.323255126953125,-0.46839502453804016,-8.679366111755371,-2.5842485427856445
1695712706752285400,5.333285400390625,-0.20518454909324646,-8.60758113861084,-2.359323024749756
1695712706762315800,5.343315673828125,0.22073788940906525,-8.550153732299805,-2.0865414142608643
1695712706772351700,5.353351806640625,0.4983053207397461,-8.545368194580078,-1.828116536140442
1695712706782416000,5.363415771484375,0.8578268885612488,-8.617152214050293,-1.5595221519470215
1695712706792480000,5.37347998046875,1.1736794710159302,-8.784649848937988,-1.4350954294204712
1695712706802544000,5.383544189453125,1.4656038284301758,-9.139386177062988,-1.3920245170593262
1695712706812608300,5.393608154296875,1.293320655822754,-9.292527198791504,-1.5451651811599731
1695712706822672400,5.40367236328125,0.43609192967414856,-9.378668785095215,-1.6408780813217163
1695712706832704500,5.41370458984375,-0.914058268070221,-9.603593826293945,-1.5451651811599731
1695712706842722000,5.42372216796875,-2.3503501415252686,-10.245468139648438,-0.875174880027771
1695712706852739600,5.433739501953125,-2.662015199661255,-11.255837440490723,0.13519448041915894
1695712706862757000,5.443757080078125,-1.368694543838501,-12.180065155029297,0.8201399445533752
1695712706872774700,5.453774658203125,0.5659025311470032,-12.625130653381348,0.7435696125030518
1695712706882792200,5.463792236328125,1.8873388767242432,-12.227921485900879,0.2309073805809021
1695712706892809700,5.473809814453125,2.1649062633514404,-11.298908233642578,-0.20937198400497437
1695712706902827000,5.483826904296875,2.0404794216156006,-10.920842170715332,-0.6496513485908508
1695712706912844500,5.493844482421875,1.470389485359192,-11.365907669067383,-1.052243709564209
1695712706922862000,5.503862060546875,0.4408775866031647,-11.801401138305664,-1.5978072881698608
1695712706932879600,5.513879638671875,-0.8422735929489136,-12.194422721862793,-2.196611166000366
1695712706942912000,5.523912109375,-1.8813568353652954,-12.888340950012207,-2.7565317153930664
1695712706952943900,5.53394384765625,-1.948355793952942,-13.568500518798828,-3.5228331089019775
1695712706962976000,5.54397607421875,-1.4213366508483887,-13.554143905639648,-3.7094733715057373
1695712706973008100,5.554008056640625,-1.6037893295288086,-13.089936256408691,-2.6081767082214355
1695712706983040000,5.5640400390625,-1.6564314365386963,-12.802199363708496,-1.1240284442901611
1695712706993072000,5.574072021484375,-0.9954141974449158,-12.826128005981445,-0.4007977843284607
1695712707003104300,5.584104248046875,-0.6508477330207825,-12.696915626525879,-0.3194418251514435
1695712707013136100,5.59413623046875,-1.6516457796096802,-12.237493515014648,-0.8847461938858032
1695712707023168300,5.604168212890625,-3.212364435195923,-11.59561824798584,-1.7988044023513794
1695712707033200000,5.6142001953125,-2.8007988929748535,-10.954341888427734,-2.651247501373291
1695712707043232300,5.624232177734375,0.010169495828449726,-10.523036003112793,-3.3888349533081055
1695712707053265000,5.634264892578125,3.0029923915863037,-10.50389289855957,-4.222135543823242
1695712707063298600,5.644298583984375,4.501497745513916,-10.915458679199219,-4.959722995758057
1695712707073332500,5.65433251953125,4.238286972045898,-11.58126163482666,-5.67756986618042
1695712707083366400,5.664366455078125,3.0269205570220947,-12.108281135559082,-6.0466628074646
1695712707093400300,5.674400390625,1.9160526990890503,-12.390633583068848,-6.075376510620117
1695712707103434000,5.68443408203125,1.322034478187561,-12.610773086547852,-5.620141983032227
1695712707113468000,5.694468017578125,1.6767704486846924,-11.998210906982422,-4.969294548034668
1695712707123501800,5.704501708984375,2.499901533126831,-11.270195007324219,-4.078566074371338
1695712707133535500,5.714535400390625,1.7150555849075317,-11.270195007324219,-3.36969256401062
1695712707143569400,5.7245693359375,0.7429714202880859,-11.303693771362305,-2.770888566970825
1695712707153603300,5.734603271484375,0.3690928816795349,-11.193624496459961,-2.3736801147460938
1695712707163635200,5.74463525390625,0.656829833984375,-11.030912399291992,-1.9956140518188477
1695712707173665000,5.7546650390625,0.9152546525001526,-10.954341888427734,-1.5499508380889893
1695712707183694600,5.764694580078125,1.2023934125900269,-10.451251029968262,-1.5260226726531982
1695712707193724400,5.774724365234375,1.475175142288208,-9.66102123260498,-1.5260226726531982
1695712707203754000,5.78475390625,1.4321043491363525,-8.425726890563965,-1.6313068866729736
1695712707213783800,5.79478369140625,1.0013962984085083,-7.204789161682129,-1.8424733877182007
1695712707223813400,5.8048134765625,0.8003991842269897,-6.026922225952148,-2.2540390491485596
1695712707233843200,5.81484326171875,0.9104689955711365,-5.093122959136963,-2.4885356426239014
1695712707243872800,5.824872802734375,1.1832507848739624,-4.661816596984863,-2.4598217010498047
1695712707253902600,5.834902587890625,1.0683952569961548,-4.202394962310791,-2.550748825073242
1695712707263932200,5.84493212890625,0.9391828775405884,-3.857828378677368,-2.7326035499572754
1695712707273968600,5.85496875,0.8626125454902649,-3.7908291816711426,-2.794816732406616
1695712707284030500,5.865030517578125,0.7334001660346985,-3.9008991718292236,-2.809173822402954
1695712707294092300,5.87509228515625,0.589830756187439,-3.8865420818328857,-2.895913600921631
1695712707304154000,5.885154052734375,0.388235479593277,-4.240679740905762,-2.87198543548584
1695712707314216000,5.8952158203125,0.2063809484243393,-3.996612071990967,-2.9150562286376953
1695712707324277800,5.90527783203125,-0.023330021649599075,-3.7334015369415283,-3.4749767780303955
1695712707334310400,5.915310302734375,0.048454657196998596,-3.589233875274658,-3.6951162815093994
1695712707344329200,5.9253291015625,-0.17647066712379456,-3.738187074661255,-3.723830223083496
1695712707354348000,5.93534814453125,-0.4013960063457489,-3.9008991718292236,-3.6233317852020264
1695712707364366800,5.945366943359375,-0.914058268070221,-4.11625337600708,-3.3074791431427
1695712707374386000,5.955385986328125,-1.8239290714263916,-4.422534465789795,-2.857030153274536
1695712707384404700,5.96540478515625,-3.198007345199585,-4.8059844970703125,-2.493321180343628
1695712707394423600,5.975423583984375,-4.716253280639648,-5.361119270324707,-2.3976082801818848
1695712707404442400,5.9854423828125,-5.654240131378174,-6.036493301391602,-2.5220351219177246
1695712707414461200,5.995461181640625,-7.9627156257629395,-7.262216567993164,-2.8767709732055664
1695712707424480300,6.005480224609375,-12.832109451293945,-9.680164337158203,-3.5706896781921387
1695712707434499000,6.0154990234375,-16.978870391845703,-12.706486701965332,-4.786841869354248
1695712707444531200,6.02553125,-17.376678466796875,-16.106088638305664,-5.730212211608887
1695712707454560500,6.035560546875,-16.126428604125977,-19.592432022094727,-6.5252275466918945
1695712707464589600,6.045589599609375,-11.44845962524414,-21.201005935668945,-4.906482696533203
1695712707474619000,6.055618896484375,-6.013761520385742,-19.29572105407715,-1.8083757162094116
1695712707484648200,6.065648193359375,-3.9116668701171875,-15.670595169067383,-0.17108681797981262
1695712707494677500,6.075677490234375,-4.538586139678955,-11.528619766235352,-0.33858439326286316
1695712707504706800,6.085706787109375,-5.7888360023498535,-8.052446365356445,-1.339382529258728
1695712707514735900,6.09573583984375,-5.108676433563232,-5.734997749328613,-3.235694408416748
1695712707524765200,6.10576513671875,-4.1078782081604,-5.284548759460449,-4.480560302734375
1695712707534794500,6.11579443359375,-3.221935749053955,-6.874579429626465,-4.628915309906006
1695712707544827100,6.1258271484375,-0.7417750358581543,-9.354740142822266,-3.857828378677368
1695712707554861800,6.13586181640625,4.4584269523620605,-12.165708541870117,-3.053839921951294
1695712707564896300,6.145896240234375,5.866602897644043,-13.826925277709961,-3.4654054641723633
1695712707574931000,6.155930908203125,4.281357765197754,-13.39143180847168,-4.2556352615356445
1695712707584965600,6.165965576171875,4.698307037353516,-11.131410598754883,-4.552345275878906
1695712707595000300,6.176000244140625,4.999803066253662,-8.124231338500977,-5.486144065856934
1695712707605035000,6.186034912109375,3.376272678375244,-5.993422508239746,-7.013363361358643
1695712707615069400,6.1960693359375,1.5278172492980957,-4.164109706878662,-8.742177963256836
1695712707625104100,6.206104248046875,1.815554141998291,-3.2350962162017822,-8.837890625
1695712707635138800,6.216138916015625,2.7397818565368652,-3.565305709838867,-8.297112464904785
1695712707645171500,6.22617138671875,3.0173492431640625,-5.078765869140625,-7.008577346801758
1695712707655204600,6.23620458984375,2.4951157569885254,-7.592426300048828,-4.863411903381348
1695712707665237800,6.24623779296875,1.1976077556610107,-9.920044898986816,-3.2309088706970215
1695712707675271000,6.25627099609375,0.6424728631973267,-11.26062297821045,-1.6217355728149414
1695712707685304000,6.266303955078125,0.8626125454902649,-11.504691123962402,-1.3250255584716797
1695712707695337200,6.276337158203125,1.1880364418029785,-10.89153003692627,-1.454237937927246
1695712707705370400,6.286370361328125,1.6815561056137085,-10.580463409423828,-1.1958130598068237
1695712707715403500,6.296403564453125,1.4081761837005615,-10.690533638000488,-1.334596872329712
1695712707725436700,6.306436767578125,1.4368900060653687,-10.566106796264648,-1.5499508380889893
1695712707735469600,6.316469482421875,1.542174220085144,-10.288538932800293,-1.44945228099823
1695712707745504800,6.3265048828125,1.0301101207733154,-9.871589660644531,-1.3298112154006958
1695712707755551700,6.3365517578125,0.776470959186554,-9.321240425109863,-1.1575279235839844
1695712707765598500,6.346598388671875,0.7238288521766663,-8.919246673583984,-0.7890332937240601
1695712707775645200,6.356645263671875,0.8243274092674255,-8.368298530578613,-0.6161518096923828
1695712707785692000,6.36669189453125,0.6903293132781982,-8.071588516235352,-0.5204389095306396
1695712707795738600,6.376738525390625,0.2877369225025177,-7.913662910461426,-0.7692924737930298
1695712707805785300,6.386785400390625,-0.6125625967979431,-7.740781307220459,-1.2915260791778564
1695712707815832000,6.39683203125,-1.4165509939193726,-7.683353424072266,-1.9286150932312012
1695712707825879000,6.406879150390625,-1.685145378112793,-7.937591075897217,-2.3018953800201416
1695712707835911200,6.4169111328125,-1.2394821643829346,-8.38265609741211,-2.287538528442383
1695712707845932000,6.42693212890625,-0.7322037220001221,-8.669795036315918,-2.2779672145843506
1695712707855953000,6.436952880859375,-0.3248256742954254,-8.698508262634277,-2.163111686706543
1695712707865973800,6.446973876953125,0.19680966436862946,-8.444869041442871,-2.0721843242645264
1695712707875994600,6.45699462890625,0.5802595019340515,-8.014161109924316,-2.043470621109009
1695712707886015200,6.46701513671875,0.747757077217102,-7.678567886352539,-2.3976082801818848
1695712707896036000,6.4770361328125,1.1018948554992676,-7.793423175811768,-2.9102704524993896
1695712707906057000,6.487056884765625,1.5667005777359009,-8.334799766540527,-3.173480987548828
1695712707916077800,6.497077880859375,1.6815561056137085,-9.144171714782715,-3.1064820289611816
1695712707926098700,6.5070986328125,1.2215359210968018,-9.910472869873047,-2.761317253112793
1695712707936119600,6.51711962890625,0.13938191533088684,-10.561321258544922,-2.187039852142334
1695712707946151200,6.527151123046875,-1.3639088869094849,-11.193624496459961,-1.425524115562439
1695712707956180000,6.537179931640625,-2.3264217376708984,-11.815757751464844,-0.7310073375701904
1695712707966209000,6.547208984375,-2.053640127182007,-12.400205612182617,-0.10887342691421509
1695712707976238000,6.557238037109375,-0.7992027401924133,-12.682558059692383,0.2602194547653198
1695712707986267000,6.567266845703125,0.34995031356811523,-12.68734359741211,0.47557350993156433
1695712707996296000,6.5772958984375,1.2215359210968018,-12.711272239685059,0.6095715761184692
1695712708006325000,6.587324951171875,1.4656038284301758,-13.185648918151855,0.4420739710330963
1695712708016353800,6.597353759765625,1.0061819553375244,-13.721641540527344,-0.15194423496723175
1695712708026382800,6.6073828125,-0.20039889216423035,-14.1194486618042,-1.0091729164123535
1695712708036412000,6.617411865234375,-1.8287147283554077,-14.736796379089355,-2.273181438446045
1695712708046443800,6.62744384765625,-3.1070802211761475,-14.377873420715332,-3.7573297023773193
1695712708056476700,6.6374765625,-3.882952928543091,-13.429717063903809,-3.738187074661255
1695712708066509600,6.647509521484375,-3.9738802909851074,-13.243077278137207,-1.9142581224441528
1695712708076542500,6.65754248046875,-3.623929977416992,-13.458431243896484,-0.7501499056816101
1695712708086575400,6.667575439453125,-3.1453654766082764,-13.161721229553223,-0.7214360237121582
1695712708096608300,6.677608154296875,-1.8717855215072632,-12.16092300415039,-1.7126628160476685
1695712708106641200,6.68764111328125,-0.20518454909324646,-11.279766082763672,-2.9964120388031006
1695712708116674000,6.697674072265625,1.7868403196334839,-11.097911834716797,-4.509274482727051
1695712708126707000,6.70770703125,3.912863254547119,-11.447263717651367,-5.816353797912598
1695712708136739800,6.71773974609375,4.918447017669678,-12.29970645904541,-6.558726787567139
1695712708146771700,6.727771728515625,3.941577196121216,-12.792628288269043,-7.679165840148926
1695712708156803300,6.73780322265625,2.3084757328033447,-12.931411743164062,-8.096115112304688
1695712708166835200,6.747835205078125,1.5571293830871582,-13.118650436401367,-7.765307903289795
1695712708176867000,6.7578671875,1.412961721420288,-12.519845962524414,-7.210172653198242
1695712708186898700,6.767898681640625,2.246262311935425,-11.700902938842773,-6.175875186920166
1695712708196930600,6.7779306640625,1.456032633781433,-11.758330345153809,-4.959722995758057
1695712708206962400,6.78796240234375,-0.7465606927871704,-11.983854293823242,-3.7525441646575928
1695712708216994000,6.797994140625,-0.8422735929489136,-11.772686958312988,-2.651247501373291
1695712708227026000,6.80802587890625,0.21595224738121033,-11.609975814819336,-1.358525037765503
1695712708237057800,6.818057861328125,0.6616154313087463,-11.265409469604492,-0.5252245664596558
1695712708247092700,6.8280927734375,1.0971091985702515,-10.556535720825195,0.10169496387243271
1695712708257143300,6.838143310546875,1.7150555849075317,-9.440881729125977,0.4612165689468384
1695712708267193600,6.848193603515625,1.9256240129470825,-7.94716215133667,0.3655036687850952
1695712708277244000,6.858243896484375,1.3986048698425293,-6.529414653778076,-0.28594231605529785
1695712708287294500,6.86829443359375,1.5038890838623047,-5.107480049133301,-0.8991031050682068
1695712708297344800,6.8783447265625,1.9974087476730347,-4.111467361450195,-1.3824533224105835
1695712708307395000,6.88839501953125,2.1122641563415527,-3.3164522647857666,-1.856830358505249
1695712708317445400,6.8984453125,2.2271196842193604,-2.8522446155548096,-2.3162522315979004
1695712708327496000,6.908495849609375,2.1888344287872314,-2.737389087677002,-2.6943182945251465
1695712708337527300,6.91852734375,1.9639091491699219,-2.9383862018585205,-2.982055187225342
1695712708347544300,6.92854443359375,1.7485551834106445,-3.273381471633911,-3.0681967735290527
1695712708357561000,6.93856103515625,1.4416756629943848,-3.4265220165252686,-3.1208388805389404
1695712708367578000,6.948578125,1.1210373640060425,-3.345165967941284,-3.2931220531463623
1695712708377595100,6.95859521484375,0.8243274092674255,-3.1345977783203125,-3.5994033813476562
1695712708387612000,6.96861181640625,0.7046862840652466,-2.991028308868408,-3.8147575855255127
1695712708397629000,6.97862890625,0.7094719409942627,-3.014956474304199,-3.8673996925354004
1695712708407645700,6.988645751953125,0.5659025311470032,-3.345165967941284,-3.7669010162353516
1695712708417662700,6.998662841796875,0.13938191533088684,-3.7429728507995605,-3.6233317852020264
1695712708427679700,7.0086796875,-0.511465847492218,-4.05403995513916,-3.2931220531463623
1695712708437696500,7.018696533203125,-1.6420745849609375,-4.178466320037842,-2.958127021789551
1695712708447728400,7.028728271484375,-3.1549365520477295,-4.369892120361328,-2.6560330390930176
1695712708457761800,7.03876171875,-4.883750915527344,-4.882554531097412,-2.4981069564819336
1695712708467795500,7.04879541015625,-9.504291534423828,-6.2327046394348145,-2.991626501083374
1695712708477828900,7.058828857421875,-20.057836532592773,-9.10110092163086,-4.590630054473877
1695712708487862300,7.0688623046875,-22.610380172729492,-12.720843315124512,-6.7070817947387695
1695712708497896000,7.07889599609375,-19.39263153076172,-18.467206954956055,-8.282755851745605
1695712708507929300,7.088929443359375,-18.793827056884766,-25.487150192260742,-9.3457670211792
1695712708517962800,7.098962646484375,-10.849656105041504,-26.458637237548828,-6.960721015930176
1695712708527996200,7.10899609375,-4.955535888671875,-20.866012573242188,-4.102494239807129
1695712708538029800,7.11902978515625,-4.428516387939453,-14.59322738647461,-2.3162522315979004
1695712708548061700,7.129061767578125,-5.314459323883057,-8.736793518066406,-1.669592022895813
1695712708558094300,7.13909423828125,-5.587240695953369,-4.3172502517700195,-2.550748825073242
1695712708568126700,7.149126708984375,-4.989035129547119,-2.5597219467163086,-4.021138668060303
1695712708578159000,7.1591591796875,-4.031308174133301,-3.6472599506378174,-4.475774765014648
1695712708588191700,7.169191650390625,-0.9762716293334961,-6.687341213226318,-2.867199659347534
1695712708598224100,7.17922412109375,5.464010715484619,-9.732806205749512,-1.516451358795166
1695712708608256500,7.189256591796875,9.91286563873291,-11.95454216003418,-1.4446666240692139
1695712708618289200,7.1992890625,7.997411251068115,-12.854841232299805,-2.6608188152313232
1695712708628321500,7.209321533203125,3.879363775253296,-12.328420639038086,-3.9014973640441895
1695712708638354000,7.21935400390625,1.1784651279449463,-10.3890380859375,-5.80199670791626
1695712708648386000,7.229385986328125,0.4695914387702942,-8.564510345458984,-7.832306861877441
1695712708658417700,7.239417724609375,1.1306086778640747,-6.884150981903076,-9.16869831085205
1695712708668449500,7.249449462890625,3.390629768371582,-5.260620594024658,-8.660821914672852
1695712708678481200,7.259481201171875,4.391427993774414,-4.523033142089844,-7.454240798950195
1695712708688513000,7.269512939453125,3.0029923915863037,-4.892126083374023,-6.357729911804199
1695712708698544600,7.279544677734375,1.7485551834106445,-6.8554368019104,-4.604987144470215
1695712708708576500,7.289576416015625,1.2167502641677856,-9.517452239990234,-2.9150562286376953
1695712708718608100,7.299608154296875,0.6951149702072144,-11.294122695922852,-1.94297194480896
1695712708728640000,7.309639892578125,0.7525427341461182,-11.83011531829834,-1.5020943880081177
1695712708738671600,7.319671630859375,1.3124631643295288,-11.672188758850098,-1.2005987167358398
1695712708748706800,7.329706787109375,1.0683952569961548,-11.361122131347656,-1.3872389793395996
1695712708758757400,7.33975732421875,1.451246976852417,-11.10748291015625,-1.1288141012191772
1695712708768808000,7.349807861328125,2.222334146499634,-10.52782154083252,-2.00518536567688
1695712708778858500,7.3598583984375,2.3946173191070557,-9.818947792053223,-2.368894338607788
1695712708788909000,7.369908935546875,1.724626898765564,-8.803792953491211,-2.50289249420166
1695712708798959400,7.37995947265625,0.9104689955711365,-8.282156944274902,-2.2540390491485596
1695712708809010000,7.390010009765625,0.7573283910751343,-8.042875289916992,-1.731805443763733
1695712708819060500,7.400060546875,0.8626125454902649,-7.716853141784668,-1.4398809671401978
1695712708829111000,7.410111083984375,0.5659025311470032,-7.458428382873535,-1.1431710720062256
1695712708839142400,7.420142333984375,-0.06640082597732544,-7.420143127441406,-0.9900303483009338
1695712708849157600,7.43015771484375,-0.7034898400306702,-7.2574310302734375,-1.272383451461792
1695712708859173000,7.440173095703125,-1.1150553226470947,-7.133004188537598,-1.7078771591186523
1695712708869188400,7.450188232421875,-1.0001999139785767,-7.190432071685791,-1.8233308792114258
1695712708879203600,7.46020361328125,-0.33439695835113525,-7.625925540924072,-1.7222341299057007
1695712708889218800,7.47021875,0.5467599630355835,-8.253443717956543,-1.6265212297439575
1695712708899234000,7.480234130859375,1.211964726448059,-8.502297401428223,-1.6121642589569092
1695712708909249500,7.49024951171875,1.7629120349884033,-8.34437084197998,-1.7222341299057007
1695712708919264800,7.5002646484375,2.050050735473633,-8.162516593933105,-2.029113531112671
1695712708929280000,7.510280029296875,1.7820546627044678,-8.263014793395996,-2.589034080505371
1695712708939311600,7.5203115234375,1.293320655822754,-8.827720642089844,-3.187838077545166
1695712708949343000,7.530343017578125,0.6664010882377625,-9.6466646194458,-3.5132617950439453
1695712708959374300,7.540374267578125,-0.3008974492549896,-10.546963691711426,-2.9485557079315186
1695712708969405700,7.55040576171875,-1.526620864868164,-11.241480827331543,-1.8424733877182007
1695712708979437000,7.56043701171875,-2.455634355545044,-11.901900291442871,-0.745364248752594
1695712708989468700,7.57046875,-2.4699912071228027,-12.639487266540527,0.005982056725770235
1695712708999500000,7.5805,-1.6612170934677124,-13.16650676727295,0.26979073882102966
1695712709009531400,7.590531494140625,-0.6125625967979431,-12.979268074035645,0.3415754437446594
1695712709019562800,7.600562744140625,0.3643072545528412,-12.242279052734375,0.19262222945690155
1695712709029594000,7.610593994140625,1.1880364418029785,-11.979068756103516,-0.017946170642971992
1695712709039625700,7.620625732421875,1.3268201351165771,-12.352348327636719,-0.49651068449020386
1695712709049657900,7.630657958984375,0.4743770956993103,-13.037294387817383,-1.277169108390808
1695712709059693600,7.640693603515625,-0.7034898400306702,-13.558929443359375,-2.1918256282806396
1695712709069729500,7.6507294921875,-1.8909281492233276,-14.277374267578125,-3.029911756515503
1695712709079765200,7.66076513671875,-2.575275421142578,-14.272588729858398,-3.7286159992218018
1695712709089801000,7.670801025390625,-3.040081262588501,-13.26700496673584,-3.7429728507995605
1695712709099836700,7.680836669921875,-3.3367912769317627,-12.720843315124512,-2.1535403728485107
1695712709109872400,7.690872314453125,-2.80558443069458,-12.912269592285156,-0.4007977843284607
1695712709119908400,7.700908447265625,-2.393420934677124,-12.936197280883789,-0.1423729509115219
1695712709129944000,7.710944091796875,-2.4699912071228027,-12.136994361877441,-1.2293126583099365
1695712709139979800,7.720979736328125,-1.8813568353652954,-11.461620330810547,-2.5459632873535156
1695712709150012000,7.731011962890625,0.8626125454902649,-11.274980545043945,-3.604189157485962
1695712709160043000,7.74104296875,4.085146427154541,-11.825329780578613,-4.619344234466553
1695712709170074400,7.751074462890625,4.995017051696777,-12.854841232299805,-5.261219024658203
1695712709180105500,7.76110546875,4.113860130310059,-13.688141822814941,-5.859424591064453
1695712709190136600,7.771136474609375,2.4568307399749756,-14.042878150939941,-6.022734642028809
1695712709200168000,7.78116796875,0.9248259663581848,-14.138590812683105,-6.056233882904053
1695712709210199000,7.791198974609375,0.8865407705307007,-13.444073677062988,-5.309075355529785
1695712709220230400,7.80123046875,1.3316057920455933,-12.361920356750488,-4.552345275878906
1695712709230261800,7.81126171875,1.6289139986038208,-11.696117401123047,-3.6185460090637207
1695712709240292900,7.82129296875,1.0205388069152832,-11.351551055908203,-2.991626501083374
1695712709250328600,7.83132861328125,0.41216370463371277,-10.896316528320312,-2.555534601211548
1695712709260380400,7.84138037109375,0.4695914387702942,-10.36510944366455,-2.478964328765869
1695712709270432500,7.8514326171875,0.9583254456520081,-9.847661972045898,-2.0865414142608643
1695712709280484600,7.861484619140625,2.011765718460083,-9.33559799194336,-1.5499508380889893
1695712709290536400,7.871536376953125,2.3467607498168945,-8.698508262634277,-1.2867404222488403
1695712709300588500,7.881588623046875,2.1649062633514404,-7.918448448181152,-0.9517452120780945
1695712709310640600,7.891640625,1.810768485069275,-6.951149940490723,-1.1431710720062256
1695712709320692500,7.9016923828125,1.7533408403396606,-5.528616905212402,-2.00518536567688
1695712709330744600,7.91174462890625,2.107478618621826,-4.681557655334473,-0.5108676552772522
1695712709340776400,7.9217763671875,1.9830517768859863,-4.058825492858887,-2.091326951980591
1695712709350793000,7.93179296875,1.6815561056137085,-3.579662561416626,-2.867199659347534
1695712709360809500,7.9418095703125,1.7581263780593872,-3.3068809509277344,-1.6408780813217163
1695712709370825700,7.95182568359375,1.6241283416748047,-3.483949661254883,-1.856830358505249
1695712709380842200,7.96184228515625,1.2502498626708984,-3.6323046684265137,-2.9102704524993896
1695712709390858800,7.971858642578125,1.1736794710159302,-3.8386857509613037,-2.8426733016967773
1695712709400875300,7.981875244140625,0.8195417523384094,-4.030111312866211,-2.9772696495056152
1695712709410891800,7.991891845703125,0.5419743061065674,-3.809971809387207,-3.360121250152588
1695712709420908000,8.001907958984376,0.24945175647735596,-3.589233875274658,-3.685544967651367
1695712709430924500,8.011924560546875,0.03409772366285324,-3.2685956954956055,-3.833899974822998
1695712709440941000,8.021941162109375,-0.22911277413368225,-3.10109806060791,-3.8434712886810303
1695712709450973000,8.031972900390626,-0.5407779216766357,-3.2829527854919434,-3.776472330093384
1695712709461005600,8.042005615234375,-1.0911271572113037,-3.6131622791290283,-3.5324044227600098
1695712709471038200,8.0520380859375,-1.9722840785980225,-3.972683906555176,-3.273979663848877
1695712709481070800,8.06207080078125,-3.1166515350341797,-4.4273200035095215,-3.015554666519165
1695712709491103500,8.072103515625,-4.361517429351807,-5.0356950759887695,-2.9341988563537598
1695712709501136100,8.08213623046875,-7.258627414703369,-6.40020227432251,-3.5324044227600098
1695712709511168800,8.092168701171875,-14.374283790588379,-9.029315948486328,-4.978865623474121
1695712709521201400,8.102201416015625,-20.814565658569336,-12.414562225341797,-7.013363361358643
1695712709531234000,8.112234130859376,-19.66541290283203,-16.604394912719727,-8.57468032836914
1695712709541266400,8.122266357421875,-18.137596130371094,-21.9864501953125,-9.771689414978027
1695712709551298000,8.132298095703124,-13.081561088562012,-24.217758178710938,-7.2436723709106445
1695712709561326600,8.14232666015625,-6.401398658752441,-20.425731658935547,-3.197409152984619
1695712709571355400,8.15235546875,-4.490729808807373,-15.000006675720215,-1.1240284442901611
1695712709581384200,8.16238427734375,-4.66779899597168,-9.17288589477539,-0.21415762603282928
1695712709591413000,8.1724130859375,-5.036891460418701,-4.484747886657715,0.2356930375099182
1695712709601441800,8.18244189453125,-4.189234256744385,-2.186441659927368,-1.0091729164123535
1695712709611470600,8.192470703125,-2.977867841720581,-3.3164522647857666,-2.7278177738189697
1695712709621499100,8.2024990234375,-0.6029912829399109,-5.9647088050842285,-2.3784656524658203
1695712709631528000,8.21252783203125,4.899304389953613,-8.583653450012207,-2.076970100402832
1695712709641556700,8.222556640625,9.91286563873291,-10.819746017456055,-3.2787652015686035
1695712709651588400,8.23258837890625,8.662615776062012,-13.032508850097656,-5.289932727813721
1695712709661621000,8.24262109375,-2.3647069931030273,-15.091532707214355,-6.711867332458496
1695712709671653600,8.252653564453125,-6.367899417877197,-14.612369537353516,-9.058030128479004
1695712709681686300,8.262686279296876,1.317248821258545,-12.385848045349121,-10.130613327026367
1695712709691718700,8.27271875,6.306882381439209,-9.728020668029785,-8.909674644470215
1695712709701751300,8.282751220703124,7.125825881958008,-6.32363224029541,-8.028517723083496
1695712709711784000,8.292783935546876,6.048457622528076,-3.407379388809204,-7.147959232330322
1695712709721816600,8.302816650390625,3.38105845451355,-2.675175666809082,-5.830710411071777
1695712709731849200,8.31284912109375,0.9487541913986206,-3.579662561416626,-4.561916351318359
1695712709741881600,8.322881591796875,1.5134602785110474,-5.86421012878418,-3.005983352661133
1695712709751914200,8.332914306640625,2.7014968395233154,-8.876175880432129,-2.0673987865448
1695712709761950200,8.3429501953125,2.145763635635376,-11.212766647338867,-1.7270197868347168
1695712709772010800,8.3530107421875,1.1593226194381714,-12.629916191101074,-1.6265212297439575
1695712709782071300,8.3630712890625,0.7716853022575378,-13.314861297607422,-1.5690934658050537
1695712709792131600,8.373131591796875,1.2167502641677856,-13.11386489868164,-1.3058829307556152
1695712709802192100,8.383192138671875,1.6959130764007568,-11.490334510803223,-1.3250255584716797
1695712709812252700,8.393252685546875,2.2989044189453125,-9.90568733215332,-1.454237937927246
1695712709822313000,8.40331298828125,1.7485551834106445,-8.478368759155273,-1.3728820085525513
1695712709832344800,8.4133447265625,1.058824062347412,-7.348358154296875,-0.9900303483009338
1695712709842361600,8.423361572265625,0.7908278703689575,-6.91765022277832,-0.8081758618354797
1695712709852378400,8.43337841796875,0.4456632137298584,-6.879364967346191,-0.7645068168640137
1695712709862395000,8.443394775390624,0.1824527233839035,-7.219145774841309,-0.9756734371185303
1695712709872411600,8.45341162109375,-0.4205385744571686,-7.798209190368652,-1.3728820085525513
1695712709882428200,8.46342822265625,-1.0432707071304321,-8.162516593933105,-1.578664779663086
1695712709892445000,8.47344482421875,-1.2634103298187256,-8.655437469482422,-1.516451358795166
1695712709902461400,8.48346142578125,-1.1676974296569824,-9.096315383911133,-1.1479566097259521
1695712709912478200,8.493478271484374,-1.0911271572113037,-9.498309135437012,-0.8129615187644958
1695712709922494700,8.50349462890625,-0.8231309652328491,-9.507881164550781,-0.8703892230987549
1695712709932511500,8.513511474609375,0.0771685317158699,-8.392227172851562,-1.3202399015426636
1695712709942542800,8.52354296875,1.0396814346313477,-7.357929706573486,-2.062613010406494
1695712709952572200,8.533572265625,1.537388563156128,-6.879364967346191,-3.101696252822876
1695712709962601500,8.5436015625,1.8634105920791626,-6.788437843322754,-3.9637107849121094
1695712709972630800,8.553630859375,2.145763635635376,-6.7932233810424805,-4.638486862182617
1695712709982660000,8.56366015625,1.8203397989273071,-7.554141044616699,-5.098506927490234
1695712709992689400,8.573689453125,0.8530412912368774,-8.86660385131836,-4.686343193054199
1695712710002718700,8.58371875,-0.6125625967979431,-10.025328636169434,-3.556332588195801
1695712710012748000,8.593748046875,-2.7385854721069336,-11.308480262756348,-2.416750907897949
1695712710022777300,8.60377734375,-3.8111681938171387,-12.519845962524414,-1.3441680669784546
1695712710032806700,8.613806640625,-2.671586513519287,-13.367504119873047,-0.24287149310112
1695712710042846700,8.6238466796875,-1.2634103298187256,-13.195219993591309,0.2793620526790619
1695712710052961300,8.633961181640625,-0.7034898400306702,-12.333206176757812,0.5042873620986938
1695712710063076000,8.644076171875,-0.38225340843200684,-11.834900856018066,0.5138586759567261
1695712710073116000,8.654115966796875,-0.641276478767395,-12.141779899597168,0.355932354927063
1695712710083143200,8.66414306640625,-1.709073543548584,-13.066007614135742,-0.26201409101486206
1695712710093170400,8.67417041015625,-2.8582265377044678,-14.090734481811523,-1.2197413444519043
1695712710103210500,8.68421044921875,-3.150151014328003,-15.541382789611816,-1.9621145725250244
1695712710113250300,8.694250244140624,-2.4604198932647705,-16.039091110229492,-2.1918256282806396
1695712710123113200,8.70411328125,-2.9347970485687256,-14.851652145385742,-1.6360924243927002
1695712710133138400,8.714138427734374,-3.7633118629455566,-13.554143905639648,-0.20937198400497437
1695712710143324700,8.72432470703125,-2.3359930515289307,-13.60200023651123,0.15912270545959473
1695712710153388300,8.73438818359375,0.14416755735874176,-13.75035572052002,-0.6592226624488831
1695712710163413200,8.744413330078125,0.900897741317749,-13.83649730682373,-2.306680917739868
1695712710173420800,8.7544208984375,1.6193426847457886,-13.525429725646973,-4.025924205780029
1695712710183445800,8.76444580078125,3.2470602989196777,-13.47757339477539,-5.275575637817383
1695712710193488600,8.774488525390625,3.596412420272827,-13.506287574768066,-6.051448345184326
1695712710203541200,8.784541259765625,2.610569477081299,-13.573286056518555,-6.898507595062256
1695712710213566500,8.79456640625,0.6520441770553589,-13.415360450744629,-7.262814998626709
1695712710223608300,8.8046083984375,-0.6556333899497986,-13.161721229553223,-7.191030025482178
1695712710233612300,8.8146123046875,1.4368900060653687,-12.56291675567627,-6.6831536293029785
1695712710243637200,8.82463720703125,2.854637384414673,-11.337193489074707,-6.45822811126709
1695712710253691100,8.834691162109374,2.3132612705230713,-10.853245735168457,-5.534000396728516
1695712710263717600,8.844717529296876,0.2877369225025177,-10.762317657470703,-4.408775806427002
1695712710273752300,8.85475244140625,-0.6508477330207825,-10.594820022583008,-3.580260992050171
1695712710283786800,8.864786865234375,0.16809579730033875,-10.408180236816406,-2.478964328765869
1695712710293821400,8.874821533203125,1.077966570854187,-10.202397346496582,-1.1958130598068237
1695712710303855900,8.88485595703125,1.7389838695526123,-9.795019149780273,-0.003589233849197626
1695712710313890600,8.894890625,2.217548370361328,-9.120243072509766,0.7627122402191162
1695712710323925000,8.904925048828124,2.246262311935425,-8.248658180236816,0.8679963946342468
1695712710333951700,8.91495166015625,2.011765718460083,-7.018148899078369,0.5665007829666138
1695712710343959600,8.92495947265625,1.944766640663147,-5.73978328704834,-0.04666004329919815
1695712710353986300,8.934986328125,2.3994028568267822,-4.767699241638184,-0.5491527915000916
1695712710364029400,8.945029541015625,2.840280532836914,-4.207180500030518,-0.9900303483009338
1695712710374056000,8.955055908203125,2.7014968395233154,-3.675973892211914,-1.5068800449371338
1695712710384109300,8.965109375,2.523829698562622,-3.3930225372314453,-2.139183521270752
1695712710394123800,8.975123779296876,2.2654049396514893,-3.335594654083252,-2.6081767082214355
1695712710404150300,8.985150390625,1.8921245336532593,-3.321237802505493,-2.943770170211792
1695712710414187800,8.995187744140624,1.6241283416748047,-3.0867412090301514,-3.187838077545166
1695712710424214500,9.005214599609374,1.2741780281066895,-2.7900311946868896,-3.4366915225982666
1695712710434242000,9.015241943359374,0.7190431952476501,-2.5645077228546143,-3.776472330093384
1695712710444289300,9.025289306640625,0.30209386348724365,-2.492722988128662,-4.001996040344238
1695712710454310100,9.03531005859375,0.19202402234077454,-2.5645077228546143,-4.016352653503418
1695712710464338400,9.04533837890625,0.1010967567563057,-3.005385160446167,-3.978067636489868
1695712710474374700,9.055374755859376,-0.3678964674472809,-3.675973892211914,-3.7286159992218018
1695712710484411000,9.065410888671876,-1.1485549211502075,-4.221537113189697,-3.250051259994507
1695712710494447000,9.075447021484376,-2.465205430984497,-4.791627407073975,-2.7804598808288574
1695712710504483300,9.0854833984375,-4.0456647872924805,-5.4951171875,-2.4119651317596436
1695712710514519600,9.09551953125,-5.252245903015137,-6.251847267150879,-2.2636101245880127
1695712710524556000,9.10555615234375,-8.163712501525879,-7.51585578918457,-2.8426733016967773
1695712710534584300,9.115584228515624,-14.647065162658691,-9.838089942932129,-4.126422882080078
1695712710544564000,9.12556396484375,-18.812969207763672,-12.615559577941895,-5.691926956176758
1695712710554458400,9.135458251953125,-18.257835388183594,-16.54218101501465,-6.884150981903076
1695712710564472000,9.14547216796875,-17.74517250061035,-21.464815139770508,-8.134400367736816
1695712710574534700,9.15553466796875,-11.510673522949219,-23.42812728881836,-6.58265495300293
1695712710584553200,9.16555322265625,-5.381458282470703,-20.20020866394043,-3.527618885040283
1695712710594618600,9.17561865234375,-4.165306091308594,-15.4360990524292,-1.7078771591186523
1695712710604641800,9.185641845703126,-4.686941146850586,-10.259825706481934,-0.6640082597732544
1695712710614658800,9.195658935546875,-4.8502516746521,-5.251049518585205,-0.23330020904541016
1695712710624681500,9.205681396484374,-3.9260237216949463,-2.224726915359497,-0.9708877801895142
1695712710634730800,9.215730712890625,-2.503490686416626,-2.578864574432373,-3.250051259994507
1695712710644756000,9.225755859375,-1.368694543838501,-5.581258773803711,-3.446262836456299
1695712710654811000,9.235810791015625,1.8011972904205322,-8.38265609741211,-2.2301106452941895
1695712710664839200,9.245839111328126,5.742176055908203,-11.059626579284668,-2.421536445617676
1695712710674879000,9.25587890625,6.967899322509766,-13.544572830200195,-3.661616802215576
1695712710684908300,9.265908203125,0.8291130661964417,-15.589239120483398,-4.978865623474121
1695712710694935800,9.275935791015625,-5.376672267913818,-15.445670127868652,-6.994220733642578
1695712710704965000,9.285965087890625,-1.0145567655563354,-12.917055130004883,-9.441479682922363
1695712710714999000,9.2959990234375,5.516652584075928,-9.57487964630127,-10.188638687133789
1695712710725028600,9.306028564453126,7.489534854888916,-6.548557281494141,-9.45583724975586
1695712710735046700,9.316046630859375,5.986244201660156,-3.4265220165252686,-8.780462265014648
1695712710745177600,9.326177490234375,3.697509288787842,-1.6983058452606201,-7.76052188873291
1695712710755308300,9.336308349609375,1.412961721420288,-1.7796618938446045,-6.233303070068359
1695712710765337600,9.346337646484375,0.48873403668403625,-3.5365917682647705,-4.265206336975098
1695712710775366100,9.3563662109375,2.5286152362823486,-6.5629143714904785,-2.3784656524658203
1695712710785389600,9.3663896484375,3.548556089401245,-9.737591743469238,-1.1575279235839844
1695712710795435800,9.376435791015625,1.973480463027954,-11.993425369262695,-0.7740781307220459
1695712710805464600,9.386464599609376,0.7286145091056824,-13.00379467010498,-1.2532408237457275
1695712710815473000,9.396472900390625,0.867398202419281,-13.334004402160645,-1.3250255584716797
1695712710825489700,9.40648974609375,2.035693883895874,-13.40578842163086,-0.9852447509765625
1695712710835518500,9.4165185546875,2.8929226398468018,-12.53420352935791,-0.7405785918235779
1695712710845570800,9.42657080078125,2.715853691101074,-10.757532119750977,-0.9230313301086426
1695712710855599400,9.436599365234375,2.466402053833008,-8.83250617980957,-0.9421738982200623
1695712710865628200,9.446628173828126,2.179263114929199,-7.396214962005615,-0.6640082597732544
1695712710875660000,9.456659912109375,1.7341982126235962,-7.109076023101807,-0.3002992272377014
1695712710885692000,9.46669189453125,1.3746765851974487,-7.056434154510498,-0.5060819983482361
1695712710895723800,9.476723876953125,0.9391828775405884,-7.286144733428955,-1.2340983152389526
1695712710905755600,9.486755615234374,0.1537388563156128,-7.51585578918457,-2.172683000564575
1695712710915787300,9.496787353515625,-1.215553879737854,-7.64028263092041,-2.8139593601226807
1695712710925816300,9.50681640625,-1.8813568353652954,-7.712067604064941,-3.101696252822876
1695712710935842300,9.51684228515625,-2.039283037185669,-7.961519241333008,-3.039483070373535
1695712710945868000,9.526867919921875,-1.9914265871047974,-8.411369323730469,-2.7038896083831787
1695712710955777000,9.536777099609376,-1.28255295753479,-8.698508262634277,-2.4023938179016113
1695712710965932800,9.546932861328125,-0.22432711720466614,-8.751151084899902,-1.9573289155960083
1695712710976016100,9.55701611328125,0.7812566161155701,-8.550153732299805,-1.94297194480896
1695712710986033400,9.567033447265626,1.4799607992172241,-8.34437084197998,-2.3641088008880615
1695712710996071000,9.57707080078125,2.0883359909057617,-8.540582656860352,-2.799602508544922
1695712711006101200,9.587101318359375,2.2989044189453125,-8.947959899902344,-3.0490541458129883
1695712711016118300,9.5971181640625,1.815554141998291,-9.675378799438477,-2.8522446155548096
1695712711026146300,9.607146240234375,0.6472585201263428,-10.465607643127441,-2.1774685382843018
1695712711036185600,9.617185546875,-0.8135597109794617,-11.164910316467285,-1.0043872594833374
1695712711046202600,9.62720263671875,-2.8151557445526123,-11.590832710266113,-0.02751746028661728
1695712711056241200,9.6372412109375,-5.036891460418701,-11.940184593200684,0.6765705943107605
1695712711066287000,9.647287109375,-5.6685967445373535,-12.03649616241455,1.179063320159912
1695712711076304400,9.657304443359376,-3.882952928543091,-12.041281700134277,1.5433706045150757
1695712711086321400,9.6673212890625,-1.4787644147872925,-12.022139549255371,1.3615161180496216
1695712711096418600,9.67741845703125,0.27337998151779175,-12.385848045349121,1.0785647630691528
1695712711106440700,9.687440673828124,0.6999006271362305,-13.286148071289062,0.7627122402191162
1695712711116458000,9.6974580078125,0.4456632137298584,-14.473586082458496,0.02512463741004467
1695712711126475500,9.7074755859375,-1.0767701864242554,-15.474384307861328,-1.3920245170593262
1695712711136497400,9.717497314453125,-3.432504177093506,-15.574882507324219,-2.8624141216278076
1695712711146532000,9.727531982421874,-5.103890895843506,-14.712868690490723,-2.6943182945251465
1695712711156583200,9.737583251953126,-5.625525951385498,-13.731212615966797,-0.9613165259361267
1695712711166605300,9.747605224609375,-4.270590305328369,-13.295719146728516,-0.0849452018737793
1695712711176620500,9.75762060546875,-1.4883357286453247,-12.605987548828125,-0.841675341129303
1695712711186647300,9.767647216796876,0.714257538318634,-12.42413330078125,-2.746960401535034
1695712711196691200,9.777691162109376,3.0556344985961914,-12.931411743164062,-4.89691162109375
1695712711206713000,9.787713134765625,4.741377830505371,-13.879568099975586,-6.697510719299316
1695712711216765000,9.797764892578124,4.501497745513916,-14.91865062713623,-8.287541389465332
1695712711226815700,9.807815673828125,3.4576287269592285,-15.756736755371094,-9.264410972595215
1695712711236838000,9.817837890625,1.8059829473495483,-15.89552116394043,-10.293923377990723
1695712711246860000,9.827860107421875,1.4177473783493042,-15.460026741027832,-10.557133674621582
1695712711256883500,9.837883544921874,1.3794622421264648,-13.879568099975586,-9.599406242370605
1695712711266915000,9.8479150390625,1.7820546627044678,-12.644272804260254,-7.9519476890563965
1695712711276947000,9.857947021484375,0.8434699773788452,-12.031710624694824,-6.156732559204102
1695712711286978600,9.867978515625,-0.20039889216423035,-11.552547454833984,-4.758127689361572
1695712711297010200,9.87801025390625,0.14895321428775787,-10.771889686584473,-3.551547050476074
1695712711307041800,9.888041748046875,0.6664010882377625,-9.876375198364258,-2.4837498664855957
1695712711317073400,9.898073486328125,1.4464613199234009,-9.33559799194336,-1.583450436592102
1695712711327105300,9.908105224609375,1.8586249351501465,-8.521439552307129,-0.8895317912101746
1695712711337127200,9.918127197265624,2.255833625793457,-7.759923934936523,-0.3529413342475891
1695712711347143400,9.928143310546876,2.38983154296875,-6.634698867797852,-0.3577269911766052
1695712711357159700,9.93815966796875,2.169692039489746,-5.327619552612305,-0.5443671345710754
1695712711367175700,9.94817578125,1.8011972904205322,-4.307679176330566,-0.778863787651062
1695712711377192000,9.95819189453125,1.7437695264816284,-3.421736478805542,-1.3776676654815674
1695712711387208000,9.9682080078125,2.3946173191070557,-2.7661030292510986,-1.6265212297439575
1695712711397224200,9.97822412109375,2.682354211807251,-2.430509567260742,-1.7988044023513794
1695712711407240400,9.988240478515625,2.754138946533203,-1.999801516532898,-2.043470621109009
1695712711417256400,9.99825634765625,2.3994028568267822,-1.913659930229187,-2.3258235454559326
1695712711427272700,10.008272705078125,1.8729819059371948,-1.9471594095230103,-2.5746772289276123
1695712711437289000,10.0182890625,1.3746765851974487,-1.9663020372390747,-2.8863422870635986
1695712711447313400,10.0283134765625,0.6903293132781982,-1.8993029594421387,-3.1830523014068604
1695712711457349400,10.038349365234374,0.21595224738121033,-1.846660852432251,-3.4606196880340576
1695712711467385600,10.048385498046875,-0.03290131315588951,-1.9280169010162354,-3.5994033813476562
1695712711477421800,10.058421875,-0.23389841616153717,-2.349153518676758,-3.556332588195801
1695712711487457800,10.068457763671875,-0.5886343717575073,-2.967100143432617,-3.3888349533081055
1695712711497494000,10.078493896484375,-1.2203395366668701,-3.7429728507995605,-2.895913600921631
1695712711507530000,10.088530029296875,-2.1397817134857178,-4.436891555786133,-2.1104695796966553
1695712711517566200,10.098566162109375,-3.456432342529297,-4.978267669677734,-1.3872389793395996
1695712711527602400,10.1086025390625,-4.922036170959473,-5.547759532928467,-1.1623135805130005
1695712711537638400,10.118638427734375,-7.416553974151611,-6.309275150299072,-1.8472590446472168
1695712711547665200,10.1286650390625,-14.59920883178711,-7.9758758544921875,-3.8291144371032715
1695712711557700900,10.138700927734375,-20.26361846923828,-11.3180513381958,-6.702296257019043
1695712711567736800,10.14873681640625,-18.669401168823242,-16.221542358398438,-9.384052276611328
1695712711577772800,10.158772705078125,-18.113666534423828,-23.37488555908203,-11.002198219299316
1695712711587808800,10.168808837890625,-12.482757568359375,-27.5360050201416,-8.541180610656738
1695712711597844700,10.1788447265625,-5.851049423217773,-24.534208297729492,-4.322634220123291
1695712711607880400,10.18888037109375,-4.083950042724609,-18.91227149963379,-2.201396942138672
1695712711617916400,10.19891650390625,-4.112663745880127,-12.002996444702148,-1.4590235948562622
1695712711627952400,10.208952392578125,-4.246662139892578,-5.68175745010376,-1.7796618938446045
1695712711637988400,10.21898828125,-4.007379531860352,-1.9950158596038818,-3.4366915225982666
1695712711648018700,10.229018798828125,-3.4755749702453613,-1.0612168312072754,-5.663212776184082
1695712711658067200,10.239067138671874,-2.977867841720581,-2.325225353240967,-6.616154670715332
1695712711668116000,10.249115966796875,-1.4021940231323242,-5.040481090545654,-5.557928562164307
1695712711678164500,10.25916455078125,2.1888344287872314,-8.411369323730469,-3.723830223083496
1695712711688213000,10.269212890625,5.071587562561035,-10.963912963867188,-2.148754835128784
1695712711698261800,10.27926171875,4.113860130310059,-12.52463150024414,-1.9286150932312012
1695712711708310300,10.289310302734375,2.806781053543091,-12.816555976867676,-3.2069804668426514
1695712711718359000,10.299359130859376,1.8394824266433716,-11.696117401123047,-4.9160542488098145
1695712711728407600,10.309407470703125,0.7908278703689575,-9.953543663024902,-6.97986364364624
1695712711738456300,10.319456298828126,1.4368900060653687,-8.14815902709961,-8.790034294128418
1695712711748486700,10.329486572265624,3.960719585418701,-6.749554634094238,-8.47896671295166
1695712711758486000,10.339486083984376,5.79481840133667,-6.026922225952148,-7.238886833190918
1695712711768516400,10.349516357421875,5.545366287231445,-5.566901683807373,-6.453442573547363
1695712711778391800,10.359391845703126,3.290131092071533,-6.079564094543457,-4.925625324249268
1695712711788591600,10.369591552734375,1.2263215780258179,-7.8658061027526855,-2.6799614429473877
1695712711798652000,10.37965185546875,0.19680966436862946,-9.4121675491333,-1.334596872329712
1695712711808669200,10.389669189453125,0.38344982266426086,-10.341180801391602,-0.7549355626106262
1695712711818695000,10.39969482421875,0.9487541913986206,-10.810174942016602,-0.9278169870376587
1695712711828751400,10.40975146484375,1.1545369625091553,-11.131410598754883,-1.277169108390808
1695712711838768600,10.4197685546875,0.7429714202880859,-11.140982627868652,-1.6360924243927002
1695712711848783000,10.429783203125,0.6329016089439392,-10.838888168334961,-1.9573289155960083
1695712711858851800,10.439851806640625,0.8482556343078613,-10.039685249328613,-2.3880369663238525
1695712711868869400,10.449869384765625,1.077966570854187,-8.986245155334473,-2.517249345779419
1695712711878896600,10.459896728515625,1.0444670915603638,-8.23430061340332,-2.493321180343628
1695712711888912600,10.46991259765625,1.0205388069152832,-7.8179497718811035,-2.225325107574463
1695712711898930200,10.47993017578125,1.1976077556610107,-7.625925540924072,-1.8951154947280884
1695712711908947500,10.489947509765624,0.9726824164390564,-7.813164234161377,-1.3680963516235352
1695712711918968600,10.499968505859375,0.43609192967414856,-8.320442199707031,-0.7890332937240601
1695712711929015300,10.510015380859375,0.1010967567563057,-8.502297401428223,-0.31465616822242737
1695712711939062300,10.520062255859376,-0.25304099917411804,-8.775078773498535,-0.04187439754605293
1695712711949109000,10.53010888671875,-0.9523434042930603,-8.933603286743164,-0.22851456701755524
1695712711959156000,10.540156005859375,-1.196411371231079,-9.235098838806152,-0.5252245664596558
1695712711969176800,10.5501767578125,-1.1581261157989502,-9.373882293701172,-0.8129615187644958
1695712711979153200,10.560153076171876,-0.7369893789291382,-9.292527198791504,-0.9996016621589661
1695712711989055200,10.57005517578125,-0.09990034252405167,-8.904889106750488,-1.296311616897583
1695712711999064000,10.58006396484375,0.27816563844680786,-8.46879768371582,-1.674377679824829
1695712712009264000,10.59026416015625,0.2829512655735016,-8.124231338500977,-1.9094724655151367
1695712712019273000,10.60027294921875,0.25423741340637207,-8.033304214477539,-2.234896421432495
1695712712029383400,10.610383544921875,0.22552353143692017,-8.459226608276367,-2.5746772289276123
1695712712039416600,10.62041650390625,0.12023933976888657,-9.115457534790039,-2.794816732406616
1695712712049412600,10.63041259765625,-0.31046873331069946,-9.866804122924805,-2.7182464599609375
1695712712059421400,10.64042138671875,-1.2873386144638062,-10.408180236816406,-2.4119651317596436
1695712712069496000,10.65049609375,-2.6907291412353516,-10.959127426147461,-1.9046868085861206
1695712712079555600,10.6605556640625,-3.7872400283813477,-11.667403221130371,-0.9756734371185303
1695712712089564400,10.670564453125,-3.3415768146514893,-12.093923568725586,-0.07058826833963394
1695712712099583200,10.680583251953125,-1.6420745849609375,-12.280564308166504,0.1782652884721756
1695712712109599000,10.690598876953125,0.09152546525001526,-12.117852210998535,0.10648060590028763
1695712712119654400,10.700654296875,0.9822536706924438,-12.065210342407227,0.18305093050003052
1695712712129709800,10.710709716796876,0.3116651475429535,-12.141779899597168,0.04905286431312561
1695712712139765200,10.72076513671875,-1.3495519161224365,-12.586845397949219,-0.7166503667831421
1695712712149820700,10.730820556640625,-3.174079179763794,-13.300504684448242,-1.6839489936828613
1695712712159876000,10.7408759765625,-4.155734539031982,-14.277374267578125,-2.641676187515259
1695712712169891800,10.750891845703125,-4.576871395111084,-14.866008758544922,-3.3170504570007324
1695712712179816700,10.760816650390625,-6.037689685821533,-13.932209968566895,-2.641676187515259
1695712712189832400,10.77083251953125,-7.22034215927124,-12.950553894042969,-1.095314621925354
1695712712199759400,10.78075927734375,-4.088735580444336,-12.792628288269043,-0.5874379873275757
1695712712209949400,10.790949462890625,0.3978067636489868,-12.735199928283691,-0.745364248752594
1695712712219958300,10.800958251953125,3.510270833969116,-12.558131217956543,-2.029113531112671
1695712712230008800,10.8110087890625,5.785246849060059,-13.152149200439453,-3.1830523014068604
1695712712240049400,10.82104931640625,5.540580749511719,-14.181661605834961,-4.715056896209717
1695712712250057000,10.831056884765625,4.1521453857421875,-15.038291931152344,-6.405586242675781
1695712712260065800,10.841065673828124,2.51425838470459,-15.512669563293457,-7.124031066894531
1695712712270155000,10.851155029296875,0.6281159520149231,-15.560525894165039,-7.076174736022949
1695712712280166100,10.861166259765625,-0.08075776696205139,-15.014364242553711,-6.7310099601745605
1695712712290231800,10.871231689453126,1.5038890838623047,-13.798212051391602,-6.333801746368408
1695712712300240600,10.88124072265625,1.810768485069275,-12.67298698425293,-5.347360610961914
1695712712310249500,10.89124951171875,0.4504488706588745,-12.113066673278809,-4.442275047302246
1695712712320291800,10.901291748046875,-0.17168502509593964,-11.629117965698242,-4.021138668060303
1695712712330304300,10.91130419921875,-0.01375873014330864,-10.805388450622559,-3.833899974822998
1695712712340319700,10.92131982421875,0.9200403094291687,-9.934401512145996,-3.3505499362945557
1695712712350335500,10.93133544921875,1.5858432054519653,-9.278169631958008,-2.431107759475708
1695712712360351200,10.941351318359375,2.0213370323181152,-8.641080856323242,-1.5547364950180054
1695712712370366700,10.95136669921875,1.815554141998291,-7.880163192749023,-1.0187442302703857
1695712712380382500,10.961382568359374,1.2646067142486572,-7.061219692230225,-0.9326026439666748
1695712712390398000,10.97139794921875,1.2741780281066895,-5.974279880523682,-1.339382529258728
1695712712400413700,10.98141357421875,1.6719847917556763,-4.738985061645508,-1.688734531402588
1695712712410429400,10.991429443359374,1.949552297592163,-4.034897327423096,-1.9286150932312012
1695712712420445000,11.00144482421875,2.222334146499634,-3.4408788681030273,-2.053041934967041
1695712712430462000,11.0114619140625,2.2749760150909424,-3.0340991020202637,-2.1678972244262695
1695712712440499200,11.021499267578125,2.169692039489746,-2.7661030292510986,-2.148754835128784
1695712712450536400,11.031536376953126,1.9112670421600342,-2.6081767082214355,-2.234896421432495
1695712712460573700,11.04157373046875,1.3076776266098022,-2.5597219467163086,-2.383251428604126
1695712712470611000,11.05161083984375,1.0636097192764282,-2.6321048736572266,-2.5603201389312744
1695712712480648200,11.061648193359375,0.7525427341461182,-2.492722988128662,-2.9772696495056152
1695712712490685400,11.071685546875,0.5078766345977783,-2.296511650085449,-3.422334671020508
1695712712500723000,11.081722900390625,0.23030917346477509,-2.176870346069336,-3.6807594299316406
1695712712510760200,11.09176025390625,-0.3439682424068451,-2.3682961463928223,-3.747758388519287
1695712712520797400,11.10179736328125,-0.7704889178276062,-2.823530673980713,-3.5994033813476562
1695712712530817000,11.111817138671874,-1.2011969089508057,-3.239881753921509,-3.077768087387085
1695712712540849200,11.12184912109375,-1.8957136869430542,-3.6227335929870605,-2.4358935356140137
1695712712550881300,11.13188134765625,-3.001796007156372,-3.9774694442749023,-1.9621145725250244
1695712712560913200,11.1419130859375,-4.098307132720947,-4.4751763343811035,-1.7078771591186523
1695712712570945300,11.1519453125,-6.521039962768555,-5.3802618980407715,-2.1200408935546875
1695712712580977400,11.161977294921876,-13.909478187561035,-7.424928665161133,-3.786043643951416
1695712712591009500,11.172009521484375,-21.41337013244629,-11.169695854187012,-6.305087566375732
1695712712601041400,11.18204150390625,-18.769899368286133,-16.398611068725586,-8.177471160888672
1695712712611073500,11.192073486328125,-17.328821182250977,-23.135604858398438,-9.690333366394043
1695712712621105700,11.202105712890624,-13.454841613769531,-27.023941040039062,-7.2197442054748535
1695712712631127800,11.2121279296875,-6.2051873207092285,-24.00718879699707,-2.4885356426239014
1695712712641160000,11.222159912109374,-3.8733816146850586,-18.050256729125977,-0.4534398913383484
1695712712651191800,11.23219189453125,-3.8877387046813965,-11.337193489074707,-0.137587308883667
1695712712661224000,11.242223876953124,-4.217947959899902,-5.533402442932129,-0.592223584651947
1695712712671255800,11.252255859375,-4.050450325012207,-2.9144580364227295,-2.56510591506958
1695712712681288000,11.262287841796875,-3.346362352371216,-3.5126636028289795,-4.604987144470215
1695712712691320000,11.272320068359376,-2.2737796306610107,-5.236692428588867,-4.810770034790039
1695712712701352000,11.28235205078125,-0.3535395562648773,-7.7455668449401855,-3.9349968433380127
1695712712711384000,11.292384033203126,2.586043119430542,-11.13619613647461,-3.4031920433044434
1695712712721416000,11.302416015625,4.109074592590332,-14.368301391601562,-3.250051259994507
1695712712731448000,11.312447998046874,-0.2626122832298279,-16.25025749206543,-3.5850465297698975
1695712712741499600,11.322499755859376,-0.5742774605751038,-14.755939483642578,-4.274777889251709
1695712712751551200,11.33255126953125,3.170490026473999,-10.75274658203125,-5.1080780029296875
1695712712761603000,11.34260302734375,5.9814581871032715,-6.922435760498047,-6.032305717468262
1695712712771654700,11.352654541015625,5.718247890472412,-3.8769710063934326,-7.22452974319458
1695712712781706200,11.362706298828124,4.037290096282959,-2.0859432220458984,-7.415955543518066
1695712712791757800,11.3727578125,2.3706889152526855,-1.4536397457122803,-7.502097129821777
1695712712801809400,11.382809326171875,0.6041877269744873,-2.0572292804718018,-7.372884750366211
1695712712811861000,11.392861083984375,1.3507484197616577,-4.499104976654053,-5.778068542480469
1695712712821912600,11.40291259765625,2.7014968395233154,-8.191229820251465,-4.135993957519531
1695712712831937300,11.412937255859376,2.0931215286254883,-11.547761917114258,-2.785245656967163
1695712712841952300,11.4229521484375,0.747757077217102,-13.558929443359375,-2.1104695796966553
1695712712851967500,11.432967529296874,0.16809579730033875,-14.023137092590332,-1.8855443000793457
1695712712861982500,11.442982421875,0.7573283910751343,-13.434502601623535,-1.3968101739883423
1695712712871997400,11.45299755859375,1.3555340766906738,-12.270992279052734,-1.0378868579864502
1695712712882012400,11.463012451171876,1.6241283416748047,-10.910673141479492,-1.0761719942092896
1695712712892027400,11.47302734375,1.5667005777359009,-9.814162254333496,-1.0666006803512573
1695712712902042400,11.48304248046875,1.5278172492980957,-8.947959899902344,-1.0378868579864502
1695712712912057300,11.493057373046875,1.6911274194717407,-8.626724243164062,-1.0618150234222412
1695712712922072300,11.503072265625,1.85383939743042,-8.521439552307129,-1.0235298871994019
1695712712932087300,11.51308740234375,1.9256240129470825,-8.483154296875,-0.9517452120780945
1695712712942113800,11.52311376953125,1.7581263780593872,-8.033304214477539,-0.9900303483009338
1695712712952147200,11.533147216796875,1.4225330352783203,-7.712067604064941,-0.9756734371185303
1695712712962180600,11.5431806640625,0.9487541913986206,-7.520641803741455,-1.2005987167358398
1695712712972214000,11.553214111328124,0.0005982056609354913,-7.525427341461182,-1.7174484729766846
1695712712982247400,11.563247314453125,-0.8039883971214294,-7.587640762329102,-2.2301106452941895
1695712712992281000,11.573281005859375,-0.6556333899497986,-7.889734268188477,-2.407179594039917
1695712713002314500,11.583314453125,-0.1860419660806656,-8.191229820251465,-2.4358935356140137
1695712713012348000,11.593347900390626,0.12502498924732208,-8.339585304260254,-2.5938198566436768
1695712713022381300,11.60338134765625,0.10588239878416061,-8.210372924804688,-2.6225335597991943
1695712713032414700,11.613414794921875,-0.2961117923259735,-8.143373489379883,-2.7038896083831787
1695712713042448100,11.6234482421875,-0.550349235534668,-8.152944564819336,-2.8139593601226807
1695712713052479000,11.63347900390625,-0.14775680005550385,-8.282156944274902,-3.0442686080932617
1695712713062534100,11.6435341796875,0.4217349886894226,-8.612366676330566,-3.0729825496673584
1695712713072589300,11.65358935546875,0.43609192967414856,-9.139386177062988,-2.66560435295105
1695712713082644700,11.663644775390624,-0.33439695835113525,-9.555737495422363,-2.0673987865448
1695712713092700000,11.673699951171875,-1.5361921787261963,-10.298110008239746,-0.9996016621589661
1695712713102755000,11.683755126953125,-2.4939193725585938,-11.504691123962402,0.4181457459926605
1695712713112810500,11.693810546875,-2.1876380443573,-12.79741382598877,1.5194423198699951
1695712713122865700,11.70386572265625,-1.3112667798995972,-13.281362533569336,1.7491533756256104
1695712713132920800,11.7139208984375,-0.5018945336341858,-13.061222076416016,1.5960127115249634
1695712713142951400,11.723951416015625,0.048454657196998596,-13.11386489868164,1.3471591472625732
1695712713152980700,11.733980712890625,-0.25782662630081177,-13.58764362335205,0.8632107973098755
1695712713163010000,11.744010009765624,-1.7425731420516968,-13.597214698791504,-0.4534398913383484
1695712713172871000,11.753870849609376,-4.184448719024658,-13.300504684448242,-1.9956140518188477
1695712713182884000,11.763884033203125,-5.985047817230225,-13.980066299438477,-3.417548894882202
1695712713192953900,11.773953857421875,-5.472385406494141,-14.91865062713623,-4.25084924697876
1695712713202972400,11.783972412109375,-5.194818019866943,-14.770296096801758,-3.800400495529175
1695712713213042000,11.7940419921875,-5.898906230926514,-13.860424995422363,-2.0721843242645264
1695712713223065900,11.80406591796875,-4.174877166748047,-13.094721794128418,-0.486939400434494
1695712713233074000,11.814073974609375,-0.4492524564266205,-12.342777252197266,-0.05623133108019829
1695712713243096300,11.824096435546876,1.8729819059371948,-11.854043006896973,-0.9996016621589661
1695712713253125600,11.834125732421874,3.060420274734497,-11.940184593200684,-2.7517459392547607
1695712713263148500,11.8441484375,4.085146427154541,-12.577274322509766,-4.078566074371338
1695712713273203200,11.854203125,4.305285930633545,-13.60200023651123,-5.098506927490234
1695712713283229400,11.8642294921875,3.5772697925567627,-14.353944778442383,-6.065805435180664
1695712713293265200,11.87426513671875,2.341975212097168,-14.497513771057129,-6.912864685058594
1695712713303292400,11.88429248046875,1.3986048698425293,-14.79422378540039,-7.2436723709106445
1695712713313340700,11.894340576171874,0.7286145091056824,-14.459229469299316,-6.7692952156066895
1695712713323370000,11.904369873046875,0.8099704384803772,-13.3770751953125,-6.104090690612793
1695712713333395200,11.914395263671874,0.40737804770469666,-12.716057777404785,-5.663212776184082
1695712713343560700,11.924560791015624,-0.9858429431915283,-12.43848991394043,-5.045864582061768
1695712713353613000,11.934613037109376,-1.0193424224853516,-11.906685829162598,-4.4374895095825195
1695712713363641900,11.944641845703124,0.0005982056609354913,-10.661819458007812,-4.102494239807129
1695712713373657000,11.954656982421875,0.8386843204498291,-9.546165466308594,-3.173480987548828
1695712713383686100,11.96468603515625,1.5086746215820312,-8.617152214050293,-2.2540390491485596
1695712713393751300,11.974751220703125,1.815554141998291,-7.635497093200684,-1.4781662225723267
1695712713403802400,11.98480224609375,1.475175142288208,-6.5868425369262695,-1.210170030593872
1695712713413831400,11.99483154296875,1.2885349988937378,-5.614758491516113,-1.1575279235839844
1695712713423836700,12.004836669921875,1.4464613199234009,-4.767699241638184,-1.1288141012191772
1695712713433851600,12.0148515625,2.0165512561798096,-4.025325775146484,-1.3776676654815674
1695712713443880700,12.024880615234375,2.461616277694702,-3.5270206928253174,-1.6217355728149414
1695712713453933800,12.034933837890625,2.3611178398132324,-3.6568312644958496,-1.8131613731384277
1695712713463963000,12.044962890625,2.0452651977539062,-3.5461630821228027,-2.0961127281188965
1695712713473991700,12.05499169921875,1.8873388767242432,-3.0628130435943604,-2.1200408935546875
1695712713484020700,12.065020751953124,1.6289139986038208,-2.9048867225646973,-1.8903298377990723
1695712713494052400,12.07505224609375,1.207179069519043,-2.7421748638153076,-1.7126628160476685
1695712713504105500,12.08510546875,0.8003991842269897,-2.7900311946868896,-1.5738791227340698
1695712713514137000,12.09513720703125,0.43609192967414856,-2.6799614429473877,-1.7126628160476685
1695712713524166100,12.105166259765625,0.16331014037132263,-2.435295343399048,-2.043470621109009
1695712713534177500,12.115177490234375,-0.31046873331069946,-2.5980072021484375,-2.3306093215942383
1695712713544209200,12.125209228515626,-0.5886343717575073,-3.16331148147583,-2.5603201389312744
1695712713554259000,12.135259033203125,-0.7657032608985901,-3.7286159992218018,-2.6608188152313232
1695712713564293600,12.145293701171875,-1.28255295753479,-4.197608947753906,-2.5220351219177246
1695712713574325200,12.1553251953125,-2.407777786254883,-4.489533424377441,-2.455035924911499
1695712713584356900,12.16535693359375,-3.8733816146850586,-4.968696117401123,-2.3018953800201416
1695712713594385700,12.1753857421875,-5.252245903015137,-5.787639617919922,-2.455035924911499
1695712713604402200,12.185402099609375,-9.241081237792969,-7.061219692230225,-3.3792638778686523
1695712713614419000,12.1954189453125,-17.233108520507812,-9.608379364013672,-5.505286693572998
1695712713624435500,12.205435546875,-20.465213775634766,-13.04207992553711,-7.971090316772461
1695712713634452000,12.215451904296875,-18.985252380371094,-17.590835571289062,-9.910472869873047
1695712713644468700,12.22546875,-16.749160766601562,-22.83889389038086,-10.724631309509277
1695712713654485200,12.2354853515625,-10.227521896362305,-24.716062545776367,-7.674380302429199
1695712713664501800,12.245501708984374,-5.032105922698975,-21.416959762573242,-3.723830223083496
1695712713674518300,12.255518310546876,-4.064807415008545,-16.26461410522461,-1.7126628160476685
1695712713684535000,12.26553515625,-4.246662139892578,-10.427323341369629,-1.2340983152389526
1695712713694551600,12.275551513671875,-4.615156650543213,-5.260620594024658,-1.2867404222488403
1695712713704580900,12.285580810546875,-4.036093711853027,-1.908874273300171,-2.713460922241211
1695712713714612500,12.295612548828124,-2.953939437866211,-1.109073281288147,-4.561916351318359
1695712713724644000,12.30564404296875,-2.915654420852661,-2.8283164501190186,-5.103292465209961
1695712713734676000,12.315676025390625,-1.862214207649231,-6.175277233123779,-3.556332588195801
1695712713744707600,12.32570751953125,0.8961120843887329,-10.058828353881836,-2.2396819591522217
1695712713754739200,12.3357392578125,3.3714871406555176,-13.62592887878418,-2.0865414142608643
1695712713764770800,12.345770751953125,1.6241283416748047,-16.02473258972168,-2.612962245941162
1695712713774802700,12.355802734375,-0.6795616149902344,-16.053447723388672,-3.776472330093384
1695712713784834300,12.365834228515626,2.644068956375122,-12.443276405334473,-5.49092960357666
1695712713794866000,12.375865966796875,4.563711166381836,-8.50708293914795,-6.874579429626465
1695712713804906000,12.385906005859376,4.649852752685547,-5.4041900634765625,-8.651249885559082
1695712713815009000,12.396009033203125,3.975076675415039,-3.0245277881622314,-9.288339614868164
1695712713825112300,12.4061123046875,3.012563705444336,-2.028515338897705,-9.000602722167969
1695712713835147800,12.416147705078124,1.2550355195999146,-2.2199411392211914,-7.813164234161377
1695712713845165800,12.426165771484374,0.9439685344696045,-4.106681823730469,-5.6584272384643555
1695712713855184000,12.436183837890624,2.7110681533813477,-7.439285755157471,-3.9110686779022217
1695712713865202200,12.4462021484375,3.046063184738159,-10.475179672241211,-2.746960401535034
1695712713875220200,12.45622021484375,1.9591234922409058,-12.467204093933105,-1.9573289155960083
1695712713885238300,12.46623828125,1.1593226194381714,-13.094721794128418,-1.832902193069458
1695712713895256300,12.47625634765625,0.8769695162773132,-12.979268074035645,-1.7270197868347168
1695712713905274400,12.4862744140625,1.23589289188385,-12.601202011108398,-1.3968101739883423
1695712713915292400,12.49629248046875,1.9016958475112915,-11.72004508972168,-1.2628121376037598
1695712713925310700,12.506310791015625,2.1984057426452637,-10.594820022583008,-1.4638092517852783
1695712713935328800,12.516328857421875,2.2606191635131836,-9.321240425109863,-1.674377679824829
1695712713945363500,12.526363525390625,2.0309081077575684,-8.416155815124512,-1.7461622953414917
1695712713955395600,12.5363955078125,1.9304096698760986,-7.76470947265625,-1.5499508380889893
1695712713965427700,12.546427734375,1.4991034269332886,-7.707281589508057,-1.3441680669784546
1695712713975459600,12.55645947265625,1.2789636850357056,-7.937591075897217,-1.3010972738265991
1695712713985491700,12.56649169921875,0.8386843204498291,-8.042875289916992,-1.3728820085525513
1695712713995523600,12.576523681640625,0.388235479593277,-8.038089752197266,-1.51166570186615
1695712714005555700,12.5865556640625,-0.47796630859375,-8.157731056213379,-1.1335997581481934
1695712714015587600,12.596587646484375,-1.3208380937576294,-8.377870559692383,-0.9469595551490784
1695712714025619700,12.60661962890625,-1.7282161712646484,-8.703293800354004,-0.8656035661697388
1695712714035651600,12.616651611328125,-1.6372889280319214,-8.900103569030762,-0.7890332937240601
1695712714045692700,12.626692626953124,-1.5170495510101318,-9.072386741638184,-0.6448656916618347
1695712714055788500,12.63678857421875,-0.8709874153137207,-9.17288589477539,-0.6448656916618347
1695712714065884700,12.646884765625,-0.09990034252405167,-9.354740142822266,-0.7740781307220459
1695712714075925500,12.656925537109375,0.46480581164360046,-9.440881729125977,-1.0666006803512573
1695712714085970400,12.666970458984375,1.0157532691955566,-9.388239860534668,-1.4733805656433105
1695712714096015000,12.67701513671875,1.231107234954834,-9.268598556518555,-2.029113531112671
1695712714105866000,12.686865966796875,0.8434699773788452,-9.177671432495117,-2.5124638080596924
1695712714115890000,12.696889892578126,-0.09032905846834183,-9.306883811950684,-2.895913600921631
1695712714126107400,12.707107421875,-1.4021940231323242,-9.6466646194458,-3.0107691287994385
1695712714136134400,12.717134521484375,-2.7672994136810303,-10.130613327026367,-2.9150562286376953
1695712714146158300,12.727158447265625,-3.245863914489746,-10.930414199829102,-2.1583259105682373
1695712714156202200,12.7372021484375,-2.1541385650634766,-11.538190841674805,-1.3537393808364868
1695712714166237200,12.7472373046875,-0.8805587291717529,-11.212766647338867,-1.5020943880081177
1695712714176261000,12.75726123046875,-0.08554340898990631,-10.690533638000488,-1.5978072881698608
1695712714186283000,12.767282958984374,0.2638086974620819,-10.680961608886719,-1.1240284442901611
1695712714196341200,12.77734130859375,0.048454657196998596,-11.868400573730469,-0.5060819983482361
1695712714206365000,12.787364990234375,-0.6173482537269592,-13.195219993591309,-0.5635097622871399
1695712714216390400,12.797390380859374,-1.77607262134552,-14.066805839538574,-0.6161518096923828
1695712714226415400,12.807415283203126,-3.236292600631714,-14.751152992248535,-0.6448656916618347
1695712714236446200,12.8174462890625,-3.542573928833008,-15.182459831237793,-0.8129615187644958
