time,seconds_elapsed,z,y,x
1695713653935888100,0.21288818359375,8.36590576171875,3.62153697013855,1.236491084098816
1695713653945899300,0.222899169921875,8.912068367004395,3.6604204177856445,1.8783657550811768
1695713653955910100,0.23291015625,8.988637924194336,3.9188451766967773,2.203789710998535
1695713653965805800,0.242805908203125,8.538188934326172,3.8949170112609863,2.0793628692626953
1695713653975767800,0.252767822265625,7.714460372924805,3.104687452316284,2.2085752487182617
1695713653985859000,0.262859130859375,6.819544315338135,2.693121910095215,3.0993034839630127
1695713653995875800,0.272875732421875,6.6418776512146,3.4923245906829834,2.936591625213623
1695713654005957400,0.282957275390625,7.054041385650635,3.152543783187866,1.643869161605835
1695713654016001300,0.293001220703125,6.196812629699707,2.2618155479431152,0.05383851006627083
1695713654025987300,0.3029873046875,6.335596084594727,1.893320918083191,-0.6017948985099792
1695713654036007000,0.3130068359375,7.747959613800049,1.8023936748504639,-0.28594231605529785
1695713654046051600,0.323051513671875,9.031708717346191,1.1748759746551514,0.9445667266845703
1695713654056082000,0.33308203125,9.908080101013184,1.1940184831619263,2.313859462738037
1695713654066116000,0.3431162109375,10.195219039916992,1.6923238039016724,3.3577284812927246
1695713654076148000,0.35314794921875,9.419346809387207,1.3280165195465088,2.8600213527679443
1695713654086183200,0.36318310546875,8.715258598327637,0.9786644577980042,2.5058834552764893
1695713654096216300,0.37321630859375,6.7621169090271,1.1222338676452637,2.0985054969787598
1695713654106263800,0.383263916015625,5.473581790924072,0.576670229434967,1.5002998113632202
1695713654116302800,0.393302734375,5.196014404296875,0.030508488416671753,2.347957134246826
1695713654126336000,0.4033359375,5.852245807647705,-0.3762713670730591,2.7260231971740723
1695713654136372500,0.41337255859375,6.450451850891113,-0.8123632669448853,3.195016384124756
1695713654146396700,0.423396728515625,6.388238430023193,-1.32921302318573,3.678964853286743
1695713654156428000,0.433427978515625,6.407381057739258,-1.9615163803100586,3.999603033065796
1695713654166454800,0.443454833984375,6.718447685241699,-2.6560330390930176,4.052245140075684
1695713654176483800,0.45348388671875,7.561319351196289,-3.407379388809204,3.865604877471924
1695713654186525400,0.463525390625,8.676973342895508,-4.211966037750244,3.6646077632904053
1695713654196560000,0.473559814453125,9.811769485473633,-4.89691162109375,2.974876642227173
1695713654206610400,0.4836103515625,9.917651176452637,-5.466403484344482,2.486740827560425
1695713654216651800,0.49365185546875,8.590831756591797,-5.68175745010376,2.4388844966888428
1695713654226645800,0.503645751953125,6.259026050567627,-6.079564094543457,2.9557342529296875
1695713654236666600,0.51366650390625,4.286143779754639,-6.304489612579346,3.923032760620117
1695713654246728700,0.523728759765625,3.1130621433258057,-6.5150580406188965,4.7611188888549805
1695713654256767200,0.533767333984375,3.060420274734497,-7.396214962005615,5.580062389373779
1695713654266774800,0.54377490234375,3.841078519821167,-8.253443717956543,6.049055576324463
1695713654276810200,0.553810302734375,5.665007591247559,-8.74636459350586,5.79063081741333
1695713654286836000,0.5638359375,7.465606689453125,-8.876175880432129,4.842474937438965
1695713654296870400,0.573870361328125,8.672187805175781,-8.70807933807373,4.914259433746338
1695713654306904600,0.583904541015625,7.872984886169434,-8.129016876220703,6.791429042816162
1695713654316938800,0.593938720703125,6.014957904815674,-8.23430061340332,8.807381629943848
1695713654326995700,0.60399560546875,4.324428558349609,-9.072386741638184,12.034701347351074
1695713654337032400,0.614032470703125,3.1992039680480957,-7.3052873611450195,14.232508659362793
1695713654347065000,0.624065185546875,2.644068956375122,-5.5860443115234375,15.2620210647583
1695713654357101300,0.634101318359375,2.801995277404785,-4.978267669677734,15.597016334533691
1695713654367122700,0.644122802734375,3.5820555686950684,-4.345963954925537,15.67358684539795
1695713654377157400,0.654157470703125,4.133002758026123,-2.919243574142456,16.741384506225586
1695713654387190500,0.6641904296875,4.089931964874268,-2.239083766937256,17.909679412841797
1695713654397225000,0.674224853515625,4.405784606933594,-1.200000524520874,19.59063720703125
1695713654407246600,0.68424658203125,4.147359848022461,0.5718846321105957,21.65923309326172
1695713654417279700,0.69427978515625,3.3332018852233887,1.5774682760238647,23.440689086914062
1695713654427291000,0.704290771484375,2.485544443130493,1.6923238039016724,23.991037368774414
1695713654437322000,0.714322021484375,1.638485312461853,2.1469600200653076,23.440689086914062
1695713654447373300,0.724373291015625,0.9583254456520081,2.851048231124878,21.979869842529297
1695713654457406500,0.734406494140625,0.40259242057800293,3.2099716663360596,20.624935150146484
1695713654467590100,0.744590087890625,-0.43489551544189453,2.606980323791504,19.571495056152344
1695713654477453000,0.754453125,-2.039283037185669,1.5098711252212524,19.600208282470703
1695713654487469800,0.7644697265625,-4.648656368255615,0.22193430364131927,19.317855834960938
1695713654497538600,0.77453857421875,-8.350353240966797,-0.5635097622871399,17.56989860534668
1695713654507560400,0.784560546875,-24.568904876708984,-1.784447431564331,8.639883995056152
1695713654517612000,0.794612060546875,-32.7421875,-2.6177480220794678,1.2077772617340088
1695713654527637200,0.80463720703125,4.794020175933838,-0.45284169912338257,9.281160354614258
1695713654537666800,0.814666748046875,2.7637102603912354,-6.884150981903076,7.730013370513916
1695713654547692300,0.8246923828125,0.46480581164360046,-10.01575756072998,2.9940192699432373
1695713654557732600,0.834732666015625,-0.8279166221618652,-7.985447406768799,1.0259226560592651
1695713654567759600,0.844759521484375,-1.124626636505127,-7.223931789398193,3.5306098461151123
1695713654577779700,0.85477978515625,-0.9284151792526245,-7.0755767822265625,5.3593244552612305
1695713654587806000,0.864805908203125,-0.4827519655227661,-6.898507595062256,5.00997257232666
1695713654597859300,0.874859375,0.6472585201263428,-7.683353424072266,6.652645111083984
1695713654607888400,0.884888427734375,-1.28255295753479,-4.983053207397461,5.599205017089844
1695713654617926700,0.8949267578125,-1.1629117727279663,-5.547759532928467,8.060222625732422
1695713654627956700,0.904956787109375,-0.31046873331069946,-5.413761138916016,9.08973503112793
1695713654638001000,0.9150009765625,0.22073788940906525,-4.796412944793701,10.334601402282715
1695713654648032300,0.9250322265625,-0.32961133122444153,-4.892126083374023,10.966904640197754
1695713654658029800,0.93502978515625,-2.015354871749878,-3.4552359580993652,10.387243270874023
1695713654668057600,0.9450576171875,-4.404588222503662,-3.493520975112915,8.749954223632812
1695713654678123300,0.955123291015625,-5.328815937042236,-2.6177480220794678,9.91825008392334
1695713654688155000,0.96515478515625,-1.4835500717163086,-3.201596736907959,13.470993041992188
1695713654698201300,0.975201416015625,-3.940380573272705,-0.5300102233886719,15.802799224853516
1695713654708234500,0.985234375,1.571486234664917,-1.9806588888168335,22.06122589111328
1695713654718245600,0.99524560546875,10.836495399475098,-7.200003147125244,20.026729583740234
1695713654728276700,1.00527685546875,9.127422332763672,-7.937591075897217,16.98604965209961
1695713654738312000,1.01531201171875,2.706282377243042,-5.4759745597839355,11.502896308898926
1695713654748343300,1.02534326171875,-4.663012981414795,-4.97348165512085,10.549955368041992
1695713654758384400,1.03538427734375,-4.529015064239502,-5.279763221740723,10.052248001098633
1695713654768417000,1.0454169921875,-1.862214207649231,-4.691128730773926,8.912666320800781
1695713654778455000,1.055455078125,0.8003991842269897,-4.609174728393555,6.297909259796143
1695713654788488000,1.065488037109375,0.7812566161155701,-3.9391841888427734,4.603192329406738
1695713654798503400,1.07550341796875,-0.01375873014330864,-2.435295343399048,3.7842490673065186
1695713654808534500,1.085534423828125,-0.6221339106559753,-1.2095718383789062,3.5258240699768066
1695713654818576000,1.095575927734375,-0.2913261651992798,-0.15613168478012085,4.037888050079346
1695713654828608000,1.10560791015625,-0.07118647545576096,0.9978070259094238,5.2971110343933105
1695713654838635300,1.11563525390625,0.17766708135604858,2.3670997619628906,3.741178274154663
1695713654848667100,1.125667236328125,-0.44446679949760437,2.5920250415802,3.401397466659546
1695713654858694400,1.1356943359375,-1.8239290714263916,3.410968780517578,3.9086756706237793
1695713654868725800,1.145725830078125,-2.3886351585388184,5.120640277862549,3.33858585357666
1695713654878774000,1.15577392578125,-1.953141450881958,4.843072891235352,3.2715866565704346
1695713654888807200,1.16580712890625,-2.268994092941284,4.814359188079834,1.8783657550811768
1695713654898831400,1.175831298828125,-1.0289137363433838,4.7473602294921875,0.7004988193511963
1695713654908863500,1.185863525390625,0.4504488706588745,3.434896945953369,1.4141582250595093
1695713654918896000,1.195896240234375,0.867398202419281,0.26979073882102966,3.9948174953460693
1695713654928928000,1.205927978515625,1.5134602785110474,-2.5597219467163086,7.255636692047119
1695713654938946600,1.215946533203125,-0.33918261528015137,-5.447260856628418,8.170292854309082
1695713654948977200,1.22597705078125,-0.28654050827026367,-9.407382011413574,11.306685447692871
1695713654959030800,1.23603076171875,0.9822536706924438,-17.30369758605957,23.689542770385742
1695713654969064000,1.24606396484375,-6.928418159484863,-16.168901443481445,14.299508094787598
1695713654979090700,1.256090576171875,-3.1405797004699707,-12.280564308166504,11.177473068237305
1695713654989123000,1.266123046875,-1.9818553924560547,-7.942376613616943,4.890331268310547
1695713654999153000,1.27615283203125,2.404188632965088,-8.540582656860352,6.111268997192383
1695713655009185000,1.28618505859375,3.2709884643554688,-11.624332427978516,11.201400756835938
1695713655019217000,1.296216796875,1.475175142288208,-13.831710815429688,13.035499572753906
1695713655029248800,1.306248779296875,-0.5934200286865234,-12.43848991394043,14.117653846740723
1695713655039291000,1.316290771484375,0.19680966436862946,-8.325227737426758,12.503694534301758
1695713655049324000,1.326323974609375,-0.5647061467170715,-4.523033142089844,8.47178840637207
1695713655059337500,1.33633740234375,-0.43489551544189453,-3.2446675300598145,8.184649467468262
1695713655069368600,1.34636865234375,2.107478618621826,-1.8562321662902832,7.490133285522461
1695713655079430000,1.356429931640625,1.8346967697143555,-1.7078771591186523,7.226922512054443
1695713655089464000,1.366464111328125,1.0923235416412354,-2.9240293502807617,7.6869425773620605
1695713655099485200,1.376485107421875,0.3451646566390991,-3.2303106784820557,6.992425918579102
1695713655109518000,1.38651806640625,-0.7322037220001221,-3.5509488582611084,6.206982135772705
1695713655119549000,1.396548828125,-1.77607262134552,-4.140181541442871,5.493920803070068
1695713655129581600,1.40658154296875,-1.9579271078109741,-5.107480049133301,5.048257350921631
1695713655139618300,1.416618408203125,-1.953141450881958,-6.879364967346191,5.392824172973633
1695713655149651500,1.4266513671875,-1.7521443367004395,-9.014959335327148,6.474977970123291
1695713655159671300,1.43667138671875,-0.8135597109794617,-10.312467575073242,7.667799949645996
1695713655169703000,1.446702880859375,-0.43489551544189453,-9.934401512145996,9.558728218078613
1695713655179738600,1.456738525390625,-0.4205385744571686,-10.369894981384277,10.823334693908691
1695713655189770800,1.466770751953125,-1.1485549211502075,-9.029315948486328,9.760323524475098
1695713655199803400,1.476803466796875,-1.1772687435150146,-0.9415757060050964,6.958926677703857
1695713655209835500,1.48683544921875,0.12023933976888657,4.043272018432617,5.881557941436768
1695713655219865900,1.496865966796875,1.2406785488128662,2.884547710418701,4.847260475158691
1695713655229897700,1.506897705078125,1.0444670915603638,0.7872386574745178,5.311468124389648
1695713655239932200,1.51693212890625,1.6145570278167725,1.6301103830337524,4.789832592010498
1695713655249964300,1.52696435546875,1.1784651279449463,2.4053850173950195,2.582453727722168
1695713655259955500,1.53695556640625,-0.6699903607368469,2.0991036891937256,0.11126625537872314
1695713655269983500,1.5469833984375,-1.2203395366668701,2.324028968811035,-1.2675977945327759
1695713655280067000,1.557067138671875,0.4408775866031647,1.0839486122131348,-0.1423729509115219
1695713655290100700,1.567100830078125,3.5916268825531006,-2.2582263946533203,2.021935224533081
1695713655300131800,1.5771318359375,6.781259536743164,-4.345963954925537,2.2468605041503906
1695713655310165200,1.587165283203125,4.971088886260986,-9.249456405639648,1.643869161605835
1695713655320187400,1.5971875,3.927220106124878,-14.21994686126709,1.8735800981521606
1695713655330219500,1.607219482421875,5.3108696937561035,-28.66661262512207,7.121638298034668
1695713655340234800,1.61723486328125,10.367502212524414,-40.39802551269531,6.149554252624512
1695713655350265300,1.627265380859375,4.5206403732299805,-35.27439498901367,1.5720844268798828
1695713655360305700,1.6373056640625,-4.749752998352051,-25.027130126953125,0.6478567123413086
1695713655370337300,1.647337158203125,-8.37428092956543,-15.450455665588379,1.7491533756256104
1695713655380381200,1.657381103515625,-7.536194801330566,-13.075579643249512,0.6239284873008728
1695713655390413800,1.667413818359375,-7.000202655792236,-11.897113800048828,-0.6065805554389954
1695713655400434400,1.677434326171875,-4.792823791503906,-9.273384094238281,-1.430309772491455
1695713655410465800,1.6874658203125,-2.221137523651123,-7.688138961791992,-1.7700905799865723
1695713655420499700,1.697499755859375,-0.7034898400306702,-6.879364967346191,-1.607378602027893
1695713655430531300,1.70753125,0.23030917346477509,-6.798008918762207,-0.9469595551490784
1695713655440563500,1.7175634765625,0.04366901144385338,-6.716054916381836,-0.07537391036748886
1695713655450595300,1.72759521484375,-0.04247260093688965,-6.946363925933838,0.6382854580879211
1695713655460628700,1.737628662109375,-0.4013960063457489,-7.314858913421631,1.6390835046768188
1695713655470660600,1.74766064453125,-0.06161518394947052,-8.215158462524414,1.8592232465744019
1695713655480698000,1.757697998046875,0.5078766345977783,-9.115457534790039,1.954936146736145
1695713655490730500,1.76773046875,-0.12382857501506805,-9.689735412597656,2.1607189178466797
1695713655500781300,1.77778125,-0.6508477330207825,-10.41775131225586,2.3330020904541016
1695713655510815500,1.7878154296875,-1.1341979503631592,-11.160124778747559,2.4532413482666016
1695713655520848000,1.797847900390625,-0.35832518339157104,-10.566106796264648,3.3672995567321777
1695713655530882000,1.807882080078125,-0.5742774605751038,-10.01575756072998,3.865604877471924
1695713655540915000,1.8179150390625,-1.4452649354934692,-9.546165466308594,4.512265205383301
1695713655550948900,1.827948974609375,-1.7808582782745361,-9.531808853149414,4.598406791687012
1695713655560974000,1.83797412109375,-1.9148563146591187,-9.33559799194336,3.841676712036133
1695713655571007200,1.84800732421875,-1.6037893295288086,-9.10110092163086,3.362514019012451
1695713655581017300,1.858017333984375,-1.3591232299804688,-8.70807933807373,2.874378204345703
1695713655591048200,1.868048095703125,-1.7425731420516968,-8.449654579162598,2.448455810546875
1695713655601110500,1.878110595703125,-2.1062822341918945,-7.861020565032959,2.486740827560425
1695713655611144400,1.88814453125,-2.1684954166412354,-7.9758758544921875,2.496312141418457
1695713655621173200,1.89817333984375,-3.1788649559020996,-8.478368759155273,2.9892337322235107
1695713655631207000,1.90820703125,-0.885344386100769,-9.081958770751953,2.974876642227173
1695713655641248500,1.91824853515625,-0.25782662630081177,-9.766305923461914,2.6733810901641846
1695713655651282700,1.92828271484375,-0.8662018179893494,-9.751948356628418,2.2133610248565674
1695713655661278000,1.93827783203125,-1.933998942375183,-9.747162818908691,1.8065811395645142
1695713655671308300,1.948308349609375,-2.6087749004364014,-9.278169631958008,2.045863389968872
1695713655681335300,1.958335205078125,-2.4987051486968994,-9.182456970214844,2.9700911045074463
1695713655691365400,1.968365478515625,-1.689931035041809,-9.21117115020752,3.8608193397521973
1695713655701429200,1.97842919921875,-1.215553879737854,-9.603593826293945,4.028316974639893
1695713655711462700,1.988462646484375,-1.6085749864578247,-9.680164337158203,4.167100429534912
1695713655721495000,1.9984951171875,-2.3264217376708984,-9.455238342285156,3.6646077632904053
1695713655731528400,2.008528564453125,-2.6763720512390137,-9.416953086853027,3.1902308464050293
1695713655741537800,2.018537841796875,-2.0297117233276367,-9.407382011413574,2.5776681900024414
1695713655751568600,2.028568603515625,-1.3878371715545654,-9.364311218261719,1.911865234375
1695713655761620500,2.038620361328125,-0.9667003750801086,-9.378668785095215,2.1367905139923096
1695713655771653600,2.048653564453125,-1.1629117727279663,-9.034101486206055,2.4053850173950195
1695713655781687000,2.05868701171875,-1.2251251935958862,-9.235098838806152,2.266003131866455
1695713655791720200,2.06872021484375,-1.1485549211502075,-9.488738059997559,2.337787628173828
1695713655801751600,2.07875146484375,-1.7904295921325684,-9.235098838806152,2.659024238586426
1695713655811784400,2.088784423828125,-2.465205430984497,-8.895318031311035,2.7451658248901367
1695713655821813200,2.098813232421875,-2.6907291412353516,-8.679366111755371,2.4388844966888428
1695713655831845600,2.108845703125,-2.3886351585388184,-8.650651931762695,1.9405791759490967
1695713655841891000,2.11889111328125,-1.5361921787261963,-8.612366676330566,1.911865234375
1695713655851925000,2.128925048828125,-1.459621787071228,-8.641080856323242,2.122433662414551
1695713655861927000,2.138927001953125,-1.7665013074874878,-8.736793518066406,2.2229323387145996
1695713655871957500,2.14895751953125,-1.866999864578247,-8.986245155334473,2.313859462738037
1695713655882014500,2.159014404296875,-1.77607262134552,-9.244669914245605,2.8217360973358154
1695713655892047600,2.169047607421875,-1.5649060010910034,-9.522237777709961,2.9700911045074463
1695713655902070300,2.1790703125,-1.215553879737854,-9.541379928588867,2.5872395038604736
1695713655912102400,2.189102294921875,-1.196411371231079,-9.29731273651123,2.6638097763061523
1695713655922135000,2.199135009765625,-1.4691931009292603,-8.813364028930664,2.5537400245666504
1695713655932167200,2.209167236328125,-1.5553346872329712,-8.425726890563965,2.289931297302246
1695713655942214000,2.2192138671875,-1.397408366203308,-8.909674644470215,1.887937068939209
1695713655952247300,2.229247314453125,-1.6468602418899536,-8.9910306930542,1.8544375896453857
1695713655962258000,2.2392578125,-1.7904295921325684,-9.08674430847168,2.0793628692626953
1695713655972289300,2.249289306640625,-2.369492530822754,-8.727222442626953,2.764308452606201
1695713655982337000,2.2593369140625,-2.2307088375091553,-8.895318031311035,2.927020311355591
1695713655992370000,2.269369873046875,-1.9052850008010864,-9.081958770751953,2.8552355766296387
1695713656002397700,2.279397705078125,-2.2163519859313965,-9.220742225646973,2.4915266036987305
1695713656012430000,2.28943017578125,-2.245065927505493,-9.522237777709961,2.1128623485565186
1695713656022465800,2.2994658203125,-2.077568292617798,-9.32602596282959,2.1511476039886475
1695713656032498400,2.30949853515625,-2.235494613647461,-9.153742790222168,2.0554347038269043
1695713656042526200,2.319526123046875,-2.331207513809204,-9.105886459350586,1.8544375896453857
1695713656052558300,2.329558349609375,-2.3599212169647217,-9.067601203918457,2.472383975982666
1695713656062579200,2.3395791015625,-2.7050859928131104,-8.531010627746582,3.817748546600342
1695713656072610300,2.3496103515625,-2.1397817134857178,-8.665008544921875,3.865604877471924
1695713656082663400,2.359663330078125,-1.2346965074539185,-9.694520950317383,2.7499513626098633
1695713656092696600,2.369696533203125,-0.8279166221618652,-10.949556350708008,2.3910279273986816
1695713656102721000,2.379720947265625,-1.7377874851226807,-10.609177589416504,3.2620155811309814
1695713656112753400,2.38975341796875,-2.3359930515289307,-9.498309135437012,3.544966697692871
1695713656122786600,2.39978662109375,-2.565704107284546,-8.138587951660156,3.975674867630005
1695713656132819000,2.40981884765625,-2.1158533096313477,-7.80837869644165,3.5928232669830322
1695713656142858800,2.419858642578125,-1.8478572368621826,-7.861020565032959,3.4157543182373047
1695713656152892000,2.429891845703125,-2.0440688133239746,-8.535796165466309,2.960519790649414
1695713656162916000,2.439916015625,-1.8574285507202148,-9.57487964630127,2.5872395038604736
1695713656172948200,2.4499482421875,-1.7521443367004395,-9.598808288574219,2.7260231971740723
1695713656182988300,2.45998828125,-1.454836130142212,-9.747162818908691,2.7690939903259277
1695713656193021200,2.470021240234375,-1.7617156505584717,-9.024530410766602,3.4444682598114014
1695713656203044000,2.480044189453125,-2.1158533096313477,-9.330811500549316,2.692523717880249
1695713656213076000,2.490075927734375,-1.4739787578582764,-8.349156379699707,2.5250260829925537
1695713656223108900,2.50010888671875,-1.4404792785644531,-7.923233985900879,1.9357935190200806
1695713656233140700,2.510140625,-2.134995937347412,-7.861020565032959,1.1168500185012817
1695713656243183400,2.520183349609375,-2.7433712482452393,-7.980661869049072,0.0729810893535614
1695713656253216500,2.530216552734375,-2.283350944519043,-8.215158462524414,-0.1902294009923935
1695713656263234000,2.540234130859375,-1.6037893295288086,-8.636295318603516,0.8105686902999878
1695713656273265400,2.550265380859375,-1.0480563640594482,-9.354740142822266,1.1024930477142334
1695713656283308500,2.56030859375,-0.914058268070221,-10.073184967041016,1.9597218036651611
1695713656293341200,2.570341064453125,-1.2969099283218384,-10.518250465393066,2.8313074111938477
1695713656303366400,2.580366455078125,-1.526620864868164,-10.475179672241211,3.2715866565704346
1695713656313398300,2.590398193359375,-1.6085749864578247,-10.092328071594238,3.4396824836730957
1695713656323441000,2.60044091796875,-1.5750755071640015,-9.637093544006348,3.3098719120025635
1695713656333473800,2.610473876953125,-1.3112667798995972,-9.306883811950684,3.142374277114868
1695713656343471000,2.62047119140625,-1.4165509939193726,-8.928817749023438,2.8313074111938477
1695713656353500400,2.63050048828125,-0.6939185857772827,-8.770293235778809,2.8935208320617676
1695713656363539000,2.6405390625,-0.5790630578994751,-8.981459617614746,2.6973092555999756
1695713656373569300,2.6505693359375,-0.9284151792526245,-8.895318031311035,2.410170555114746
1695713656383601700,2.6606015625,-0.7561319470405579,-8.770293235778809,2.448455810546875
1695713656393632300,2.67063232421875,-0.6699903607368469,-8.904889106750488,2.5154547691345215
1695713656403693800,2.68069384765625,-0.698704183101654,-8.967103004455566,2.5393829345703125
1695713656413727500,2.6907275390625,-0.6364908218383789,-9.067601203918457,2.5872395038604736
1695713656423750400,2.70075048828125,-0.49710890650749207,-9.244669914245605,2.7260231971740723
1695713656433783000,2.710782958984375,-0.5258227586746216,-9.306883811950684,2.7834508419036865
1695713656443826700,2.72082666015625,-0.641276478767395,-9.407382011413574,2.7595226764678955
1695713656453860600,2.730860595703125,-0.7513462901115417,-9.445667266845703,2.7260231971740723
1695713656463890700,2.740890625,-0.7465606927871704,-9.488738059997559,2.6255247592926025
1695713656473924000,2.750924072265625,-0.6795616149902344,-9.469595909118652,2.534597396850586
1695713656483946800,2.76094677734375,-0.6556333899497986,-9.431310653686523,2.410170555114746
1695713656493979000,2.770978759765625,-0.7417750358581543,-9.42173957824707,2.2325034141540527
1695713656503992800,2.780992919921875,-0.8566305041313171,-9.531808853149414,2.0745773315429688
1695713656514023200,2.791023193359375,-0.9332008361816406,-9.742377281188965,2.0506489276885986
1695713656524053500,2.801053466796875,-0.9619147181510925,-9.881759643554688,2.0745773315429688
1695713656534278400,2.8112783203125,-1.0001999139785767,-9.876375198364258,2.084148406982422
1695713656544285000,2.821284912109375,-1.1341979503631592,-9.728020668029785,2.122433662414551
1695713656554315300,2.831315185546875,-1.2681959867477417,-9.479166984558105,2.242074728012085
1695713656564348200,2.84134814453125,-1.4787644147872925,-9.17288589477539,2.510669231414795
1695713656574378500,2.85137841796875,-1.7234305143356323,-8.967103004455566,2.9078776836395264
1695713656584431900,2.861431884765625,-1.8717855215072632,-8.822935104370117,3.362514019012451
1695713656594450700,2.87145068359375,-2.0823538303375244,-8.808578491210938,3.789034605026245
1695713656604481000,2.88148095703125,-2.1302103996276855,-8.808578491210938,4.018745422363281
1695713656614503700,2.891503662109375,-2.1302103996276855,-8.83250617980957,4.128815650939941
1695713656624553700,2.9015537109375,-2.072782516479492,-8.847461700439453,4.0666022300720215
1695713656634581000,2.9115810546875,-1.2634103298187256,-9.06281566619873,3.946960926055908
1695713656644595000,2.921594970703125,-0.7369893789291382,-9.354740142822266,3.731606960296631
1695713656654609000,2.93160888671875,-0.5258227586746216,-9.617950439453125,3.597608804702759
1695713656664622800,2.941622802734375,-0.6173482537269592,-9.82373332977295,3.3194432258605957
1695713656674636500,2.951636474609375,-0.9619147181510925,-10.001399993896484,3.0275187492370605
1695713656684650500,2.961650390625,-1.1772687435150146,-10.05404281616211,2.7451658248901367
1695713656694664400,2.97166455078125,-1.6037893295288086,-10.144969940185547,2.376671075820923
1695713656704678400,2.981678466796875,-1.9196419715881348,-10.216754913330078,2.132004976272583
1695713656714692400,2.9916923828125,-2.268994092941284,-10.216754913330078,1.8687944412231445
1695713656724706300,3.001706298828125,-2.465205430984497,-10.211968421936035,1.7204394340515137
1695713656734734300,3.011734375,-2.589632272720337,-10.197611808776855,1.643869161605835
1695713656744766500,3.021766357421875,-2.8342983722686768,-10.269396781921387,1.667797327041626
1695713656754798300,3.03179833984375,-3.1453654766082764,-10.427323341369629,1.7012969255447388
1695713656764830500,3.04183056640625,-3.480360507965088,-10.719246864318848,1.7539390325546265
1695713656774862600,3.051862548828125,-3.906881093978882,-11.078768730163574,1.7156537771224976
1695713656784894700,3.061894775390625,-4.457230567932129,-11.26062297821045,1.6247265338897705
1695713656794926600,3.071926513671875,-5.079962253570557,-11.394621849060059,1.552941918373108
1695713656804958700,3.081958740234375,-5.529813289642334,-11.274980545043945,1.155135154724121
1695713656814990800,3.091990966796875,-5.01296329498291,-10.86281681060791,1.0019944906234741
1695713656825022700,3.102022705078125,-3.432504177093506,-10.111470222473145,0.844068169593811
1695713656835051800,3.1120517578125,-1.306481122970581,-9.455238342285156,0.48035913705825806
1695713656845085000,3.1220849609375,0.5802595019340515,-8.636295318603516,-0.017946170642971992
1695713656855117800,3.132117919921875,1.3746765851974487,-7.7216386795043945,-0.33858439326286316
1695713656865150700,3.142150634765625,0.6664010882377625,-7.070790767669678,-0.25722843408584595
1695713656875183600,3.15218359375,-2.1589243412017822,-6.725626468658447,-0.09451649338006973
1695713656885216800,3.162216796875,-4.5098724365234375,-6.692126750946045,0.12083754688501358
1695713656895249700,3.172249755859375,-5.4867424964904785,-7.032505512237549,0.48514479398727417
1695713656905282600,3.182282470703125,-5.170889854431152,-7.630711555480957,0.6909275650978088
1695713656915315700,3.192315673828125,-4.270590305328369,-8.02373218536377,0.5234299302101135
1695713656925348600,3.2023486328125,-3.758526086807251,-8.205587387084961,0.6191428303718567
1695713656935378200,3.212378173828125,-3.6191442012786865,-8.129016876220703,0.753140926361084
1695713656945410600,3.22241064453125,-3.647858142852783,-7.592426300048828,0.9828519225120544
1695713656955442700,3.232442626953125,-3.662813186645508,-6.965506553649902,1.2987045049667358
1695713656965475000,3.24247509765625,-3.284149169921875,-6.328417778015137,1.4141582250595093
1695713656975507200,3.252507080078125,-3.2650065422058105,-5.979065418243408,1.236491084098816
1695713656985539600,3.26253955078125,-3.6335012912750244,-5.523830890655518,0.7100701332092285
1695713656995571700,3.27257177734375,-3.720241069793701,-5.265406131744385,0.4420739710330963
1695713657005604000,3.28260400390625,-3.662813186645508,-5.413761138916016,0.19262222945690155
1695713657015636200,3.29263623046875,-3.638286828994751,-5.55733060836792,0.10169496387243271
1695713657025668400,3.30266845703125,-3.5330026149749756,-5.696114540100098,0.1782652884721756
1695713657035701800,3.31270166015625,-3.513859987258911,-5.787639617919922,0.22133609652519226
1695713657045754000,3.322754150390625,-3.6430723667144775,-6.0987067222595215,0.2745763957500458
1695713657055806200,3.33280615234375,-3.8111681938171387,-6.40020227432251,0.32721850275993347
1695713657065858300,3.3428583984375,-4.0217366218566895,-6.845865726470947,0.31764721870422363
1695713657075910400,3.352910400390625,-4.452444553375244,-7.200003147125244,0.26500511169433594
1695713657085962800,3.362962646484375,-4.596014022827148,-7.458428382873535,0.04426721855998039
1695713657096014800,3.373014892578125,-4.490729808807373,-7.472784996032715,-0.08015955984592438
1695713657106067000,3.38306689453125,-4.29451847076416,-7.223931789398193,-0.22372891008853912
1695713657116119000,3.393119140625,-4.95074987411499,-6.836294174194336,-0.36251261830329895
1695713657126152400,3.40315234375,-5.38624382019043,-6.6490559577941895,-0.41994038224220276
1695713657136178200,3.41317822265625,-5.453242778778076,-6.7932233810424805,-0.36251261830329895
1695713657146211600,3.423211669921875,-5.501099109649658,-7.152146816253662,-0.22372891008853912
1695713657156099000,3.43309912109375,-5.6925249099731445,-7.774280548095703,-0.02751746028661728
1695713657166282500,3.443282470703125,-6.080760478973389,-8.59322452545166,0.24047867953777313
1695713657176336000,3.4533359375,-6.726822853088379,-9.507881164550781,0.6287141442298889
1695713657186356700,3.463356689453125,-7.440482139587402,-10.518250465393066,1.1694921255111694
1695713657196411400,3.473411376953125,-7.862216949462891,-11.509476661682129,1.9070796966552734
1695713657206428700,3.4834287109375,-7.905287742614746,-12.352348327636719,2.7451658248901367
1695713657216449500,3.493449462890625,-7.3639116287231445,-12.6347017288208,3.5066816806793213
1695713657226493700,3.50349365234375,-6.320042610168457,-11.901900291442871,3.6646077632904053
1695713657236545000,3.513544921875,-5.539384365081787,-10.475179672241211,3.1615169048309326
1695713657246566000,3.52356591796875,-4.629513740539551,-9.2255277633667,2.242074728012085
1695713657256578300,3.533578369140625,-4.251447677612305,-9.570094108581543,1.3184453248977661
1695713657266629000,3.543629150390625,-4.586442947387695,-11.274980545043945,0.4085744619369507
1695713657276648700,3.553648681640625,-4.945964336395264,-12.28534984588623,-0.15194423496723175
1695713657286663700,3.56366357421875,-5.2283172607421875,-12.117852210998535,-0.6400800347328186
1695713657296678400,3.573678466796875,-4.95074987411499,-11.337193489074707,-0.9996016621589661
1695713657306693400,3.583693359375,-4.4859442710876465,-10.853245735168457,-0.7938188910484314
1695713657316708000,3.5937080078125,-3.4947173595428467,-10.814960479736328,-0.07058826833963394
1695713657326722800,3.603722900390625,-2.4508485794067383,-10.935199737548828,0.9828519225120544
1695713657336737800,3.61373779296875,-2.9347970485687256,-10.685748100280762,1.8305093050003052
1695713657346752500,3.62375244140625,-4.945964336395264,-10.116255760192871,1.6295121908187866
1695713657356767500,3.633767578125,-6.832705020904541,-9.617950439453125,1.0115658044815063
1695713657366782200,3.6437822265625,-7.296912670135498,-8.981459617614746,0.6239284873008728
1695713657376804000,3.65380419921875,-5.994618892669678,-8.085946083068848,0.42771705985069275
1695713657386835700,3.663835693359375,-3.566502094268799,-7.324429988861084,0.3032902777194977
1695713657396867600,3.67386767578125,-1.2586246728897095,-6.888936519622803,0.28893333673477173
1695713657406899200,3.683899169921875,0.06281159073114395,-6.831508636474609,0.37507495284080505
1695713657416930800,3.693930908203125,0.37866419553756714,-7.137789726257324,0.5904290080070496
1695713657426962700,3.703962646484375,0.3930211067199707,-7.692924976348877,1.179063320159912
1695713657436994300,3.713994384765625,0.6329016089439392,-8.21994400024414,1.6917256116867065
1695713657447026000,3.72402587890625,1.073180913925171,-8.401798248291016,1.9310078620910645
1695713657457057800,3.734057861328125,1.1306086778640747,-8.34437084197998,2.1894326210021973
1695713657467089400,3.74408935546875,0.8051848411560059,-8.325227737426758,2.5872395038604736
1695713657477113900,3.75411376953125,1.1066805124282837,-8.473583221435547,3.0753753185272217
1695713657487150300,3.764150390625,1.9351953268051147,-8.847461700439453,3.242872953414917
1695713657497186600,3.7741865234375,2.538186550140381,-9.282955169677734,2.8791637420654297
1695713657507223000,3.78422314453125,2.341975212097168,-9.78544807434082,2.6255247592926025
1695713657517259300,3.79425927734375,1.5086746215820312,-9.833304405212402,1.9022940397262573
1695713657527295700,3.804295654296875,0.053240302950143814,-9.397810935974121,1.3040883541107178
1695713657537332200,3.814332275390625,-0.4061816334724426,-8.799007415771484,0.8201399445533752
1695713657547368400,3.824368408203125,0.1537388563156128,-8.301300048828125,0.7435696125030518
1695713657557405000,3.834405029296875,0.7334001660346985,-7.908876895904541,0.9589236974716187
1695713657567441200,3.844441162109375,1.1018948554992676,-7.750352382659912,1.059422254562378
1695713657577466600,3.854466552734375,1.0157532691955566,-8.124231338500977,1.495514154434204
1695713657587496200,3.86449609375,1.4608181715011597,-8.554939270019531,2.1511476039886475
1695713657597525500,3.874525390625,1.6002001762390137,-9.292527198791504,2.788236618041992
1695713657607554800,3.884554931640625,1.3076776266098022,-9.987043380737305,3.497110366821289
1695713657617584000,3.894584228515625,1.6576279401779175,-10.274182319641113,4.023531436920166
1695713657627613700,3.90461376953125,1.1736794710159302,-10.355538368225098,4.603192329406738
1695713657637643000,3.91464306640625,0.48873403668403625,-9.876375198364258,4.387240409851074
1695713657647672600,3.924672607421875,-0.3152543902397156,-9.756733894348145,4.133601188659668
1695713657657702000,3.934701904296875,-0.267397940158844,-9.550951957702637,3.865604877471924
1695713657667731200,3.944731201171875,-0.2961117923259735,-9.18724250793457,3.4396824836730957
1695713657677758200,3.95475830078125,-0.20039889216423035,-8.928817749023438,2.7978079319000244
1695713657687791400,3.964791259765625,0.589830756187439,-8.74636459350586,2.4388844966888428
1695713657697824800,3.97482470703125,1.058824062347412,-8.74636459350586,2.132004976272583
1695713657707858200,3.984858154296875,1.3794622421264648,-8.871390342712402,1.978864312171936
1695713657717891300,3.994891357421875,1.9256240129470825,-8.74636459350586,1.797009825706482
1695713657727924700,4.0049248046875,2.0165512561798096,-8.660223007202148,1.7443677186965942
1695713657737958000,4.0149580078125,1.8011972904205322,-8.535796165466309,1.734796404838562
1695713657747991300,4.0249912109375,1.4368900060653687,-8.267800331115723,1.576870083808899
1695713657758024700,4.035024658203125,1.0923235416412354,-8.11944580078125,1.4476577043533325
1695713657768057900,4.045057861328125,0.8626125454902649,-8.071588516235352,1.4859428405761719
1695713657778085600,4.055085693359375,0.5563312768936157,-8.545368194580078,1.5337992906570435
1695713657788117000,4.065116943359375,-0.10468599200248718,-9.034101486206055,1.2891331911087036
1695713657798148600,4.075148681640625,-0.6556333899497986,-9.82373332977295,1.3184453248977661
1695713657808180000,4.085179931640625,-0.8757730722427368,-10.29332447052002,1.4524433612823486
1695713657818211300,4.09521142578125,-0.9284151792526245,-10.412965774536133,1.6103696823120117
1695713657828243000,4.105242919921875,-1.215553879737854,-10.307682037353516,2.3431715965270996
1695713657838274300,4.1152744140625,-1.4500504732131958,-10.216754913330078,3.4779677391052246
1695713657848305700,4.1253056640625,-1.1820544004440308,-10.03011417388916,4.938187599182129
1695713657858337300,4.135337158203125,-1.1198409795761108,-9.987043380737305,5.962913990020752
1695713657868368600,4.14536865234375,-1.2203395366668701,-10.570892333984375,6.628716945648193
1695713657878397400,4.1553974609375,-0.8422735929489136,-10.695319175720215,6.278766632080078
1695713657888430800,4.165430908203125,-0.5162515044212341,-10.164112091064453,5.187041282653809
1695713657898464300,4.17546435546875,0.09152546525001526,-9.852447509765625,4.301098823547363
1695713657908497700,4.18549755859375,0.6089733839035034,-10.188040733337402,3.8608193397521973
1695713657918531300,4.19553125,0.5228317379951477,-10.59960651397705,3.5497524738311768
1695713657928564700,4.205564697265625,-0.25782662630081177,-11.227124214172363,3.2237303256988525
1695713657938598100,4.21559814453125,-1.0911271572113037,-12.17527961730957,3.4444682598114014
1695713657948631800,4.2256318359375,-1.6037893295288086,-13.841282844543457,4.191029071807861
1695713657958665200,4.235665283203125,-1.6803597211837769,-14.032708168029785,4.880760192871094
1695713657968698600,4.24569873046875,-1.0911271572113037,-12.610773086547852,5.2109694480896
1695713657978728400,4.255728515625,-0.5162515044212341,-11.538190841674805,5.737988471984863
1695713657988762600,4.2657626953125,-0.49710890650749207,-10.96869945526123,5.838487148284912
1695713657998796800,4.275796875,-0.4540380835533142,-10.680961608886719,5.1343994140625
1695713658008831000,4.2858310546875,0.5850451588630676,-10.546963691711426,4.047459602355957
1695713658018865400,4.295865478515625,1.6432709693908691,-10.594820022583008,3.511467218399048
1695713658028899300,4.3058994140625,2.475973129272461,-11.145768165588379,3.108874797821045
1695713658038933800,4.315933837890625,2.964707374572754,-12.385848045349121,2.8935208320617676
1695713658048968000,4.325968017578125,2.7254250049591064,-13.654642105102539,2.266003131866455
1695713658059002000,4.336002197265625,2.7972097396850586,-14.473586082458496,2.2133610248565674
1695713658069036300,4.346036376953125,3.19441819190979,-14.741581916809082,2.0410776138305664
1695713658079066600,4.356066650390625,3.476771354675293,-14.449657440185547,1.8544375896453857
1695713658089099000,4.36609912109375,3.697509288787842,-13.673785209655762,1.9692929983139038
1695713658099131100,4.376131103515625,2.4472594261169434,-13.223934173583984,2.132004976272583
1695713658109163500,4.38616357421875,-0.3200400173664093,-13.348361015319824,3.2859437465667725
1695713658119196000,4.39619580078125,-2.235494613647461,-13.51585865020752,3.726821184158325
1695713658129228300,4.406228271484375,-2.5609183311462402,-12.974482536315918,2.850450038909912
1695713658139260700,4.4162607421875,-1.7569299936294556,-11.547761917114258,2.410170555114746
1695713658149293000,4.42629296875,-0.43489551544189453,-10.111470222473145,2.386242389678955
1695713658159325400,4.436325439453125,1.0971091985702515,-8.943174362182617,2.7930221557617188
1695713658169357600,4.446357666015625,2.207977056503296,-8.090731620788574,3.1280174255371094
1695713658179389200,4.45638916015625,2.7493531703948975,-6.414559364318848,2.9557342529296875
1695713658189427000,4.466427001953125,2.475973129272461,-5.346762180328369,2.927020311355591
1695713658199464400,4.47646435546875,2.2510478496551514,-4.432105541229248,2.5872395038604736
1695713658209502000,4.486501953125,1.6002001762390137,-3.8051862716674805,2.2995026111602783
1695713658219539500,4.49653955078125,1.2598211765289307,-3.5126636028289795,1.8783657550811768
1695713658229577000,4.506576904296875,1.3316057920455933,-3.3786656856536865,1.3663017749786377
1695713658239614500,4.516614501953125,1.470389485359192,-3.3164522647857666,0.8344969153404236
1695713658249652000,4.52665185546875,1.2406785488128662,-3.311666488647461,0.2745763957500458
1695713658259689500,4.536689453125,0.7334001660346985,-3.517449378967285,-0.08015955984592438
1695713658269727000,4.54672705078125,0.29730820655822754,-3.872185230255127,-0.3433700501918793
1695713658279758600,4.556758544921875,-0.1621137410402298,-4.207180500030518,-1.1431710720062256
1695713658289788700,4.56678857421875,-0.4013960063457489,-4.719842433929443,-1.6360924243927002
1695713658299819000,4.576819091796875,-0.6652047038078308,-5.059623718261719,-2.273181438446045
1695713658309849000,4.58684912109375,-1.0145567655563354,-5.054837703704834,-2.321038007736206
1695713658319879400,4.59687939453125,-1.6372889280319214,-4.9399824142456055,-2.445464849472046
1695713658329909500,4.606909423828125,-2.4269204139709473,-4.892126083374023,-2.3401806354522705
1695713658339939800,4.61693994140625,-3.4851462841033936,-4.920839786529541,-2.2444677352905273
1695713658349970000,4.626969970703125,-4.395017147064209,-4.810770034790039,-2.062613010406494
1695713658360000300,4.637000244140625,-5.008177757263184,-4.839483737945557,-1.6121642589569092
1695713658370030300,4.6470302734375,-5.817550182342529,-4.97348165512085,-1.2388839721679688
1695713658380063500,4.6570634765625,-8.312067985534668,-5.676971912384033,-0.6927221417427063
1695713658390104800,4.667104736328125,-12.348759651184082,-8.028517723083496,-0.5730810165405273
1695713658400146200,4.677146240234375,-15.279369354248047,-11.748759269714355,-0.7645068168640137
1695713658410187500,4.6871875,-16.045072555541992,-17.135601043701172,0.17347964644432068
1695713658420228900,4.697228759765625,-15.533008575439453,-23.76312255859375,1.6917256116867065
1695713658430270200,4.707270263671875,-12.817752838134766,-27.071796417236328,4.152743816375732
1695713658440311600,4.7173115234375,-7.670193195343018,-23.20260238647461,4.555335998535156
1695713658450353000,4.727352783203125,-4.9124650955200195,-16.0103759765625,3.7363924980163574
1695713658460394200,4.737394287109375,-5.458028316497803,-8.9910306930542,2.606382131576538
1695713658470435600,4.747435546875,-6.052046775817871,-4.087539196014404,0.633499801158905
1695713658480466200,4.757466064453125,-5.166104316711426,-3.2350962162017822,-1.5499508380889893
1695713658490485200,4.7674853515625,-3.049652576446533,-6.084349632263184,-2.1678972244262695
1695713658500504600,4.777504638671875,-1.5553346872329712,-9.182456970214844,-1.669592022895813
1695713658510523600,4.787523681640625,1.4943177700042725,-11.796615600585938,-0.875174880027771
1695713658520543000,4.79754296875,4.937589645385742,-14.291731834411621,0.877567708492279
1695713658530562000,4.80756201171875,4.209573268890381,-15.67538070678711,2.7020950317382812
1695713658540581400,4.817581298828125,1.0013962984085083,-15.177674293518066,6.595217227935791
1695713658550600400,4.827600341796875,1.077966570854187,-12.802199363708496,6.982854843139648
1695713658560619800,4.837619873046875,3.7405800819396973,-9.632308006286621,5.254040241241455
1695713658570638800,4.847638916015625,3.6400814056396484,-7.750352382659912,3.252444267272949
1695713658580671000,4.8576708984375,2.375474691390991,-6.318846225738525,0.5665007829666138
1695713658590709000,4.867708984375,1.29810631275177,-5.045266628265381,-1.8376877307891846
1695713658600746800,4.877746826171875,1.8251254558563232,-4.753342151641846,-2.823530673980713
1695713658610784800,4.88778466796875,2.9694929122924805,-5.303691387176514,-2.6608188152313232
1695713658620822500,4.897822509765625,3.404986619949341,-6.160920143127441,-1.8035900592803955
1695713658630860500,4.907860595703125,3.122633457183838,-8.25822925567627,0.2548356056213379
1695713658640898600,4.917898681640625,2.706282377243042,-10.202397346496582,2.6973092555999756
1695713658650936300,4.927936279296875,1.8442680835723877,-11.308480262756348,3.741178274154663
1695713658660974300,4.937974365234375,1.3076776266098022,-11.820544242858887,4.329812526702881
1695713658671012000,4.94801220703125,1.1018948554992676,-11.499905586242676,4.296313285827637
1695713658681044000,4.9580439453125,0.49351966381073,-10.633105278015137,3.5928232669830322
1695713658691074000,4.968073974609375,-0.607776939868927,-9.603593826293945,2.8313074111938477
1695713658701104000,4.978104248046875,-1.4069796800613403,-8.861818313598633,2.6398816108703613
1695713658711134200,4.98813427734375,-1.459621787071228,-8.473583221435547,2.6733810901641846
1695713658721164300,4.998164306640625,-0.9236295223236084,-8.24387264251709,2.2851455211639404
1695713658731194400,5.0081943359375,-0.38225340843200684,-8.205587387084961,1.7156537771224976
1695713658741224400,5.018224365234375,-0.3200400173664093,-7.956733703613281,1.0546365976333618
1695713658751254500,5.028254638671875,-0.6317051649093628,-7.487142086029053,0.6047859191894531
1695713658761284600,5.03828466796875,-0.8039883971214294,-7.109076023101807,0.32721850275993347
1695713658771314700,5.048314697265625,-0.31046873331069946,-6.951149940490723,0.2793620526790619
1695713658781348400,5.058348388671875,0.4456632137298584,-7.04207706451416,0.5282155871391296
1695713658791389700,5.0683896484375,1.3124631643295288,-7.2430739402771,0.9445667266845703
1695713658801431300,5.078431396484375,2.3994028568267822,-7.7455668449401855,1.423729419708252
1695713658811473000,5.088472900390625,3.06999135017395,-8.435297966003418,2.280359983444214
1695713658821514200,5.09851416015625,3.0317063331604004,-8.34437084197998,2.692523717880249
1695713658831555800,5.108555908203125,2.32761812210083,-8.315656661987305,2.9796624183654785
1695713658841597400,5.118597412109375,1.3076776266098022,-8.511868476867676,3.1615169048309326
1695713658851639000,5.12863916015625,-0.1094716340303421,-8.93838882446289,3.171088218688965
1695713658861680400,5.138680419921875,-1.2538390159606934,-9.80937671661377,3.2955150604248047
1695713658871722000,5.148721923828125,-2.0201404094696045,-10.50389289855957,3.4779677391052246
1695713658881754000,5.158754150390625,-2.8630123138427734,-10.604392051696777,3.6598222255706787
1695713658891779600,5.168779541015625,-3.5234313011169434,-10.795817375183105,4.253242015838623
1695713658901805000,5.17880517578125,-3.6191442012786865,-11.030912399291992,5.124827861785889
1695713658911830500,5.18883056640625,-3.0687949657440186,-11.394621849060059,5.929414749145508
1695713658921856300,5.198856201171875,-1.948355793952942,-11.662617683410645,6.082555294036865
1695713658931881700,5.2088818359375,-0.6317051649093628,-11.169695854187012,5.455037593841553
1695713658941907200,5.2189072265625,0.7956135272979736,-10.848459243774414,5.191826820373535
1695713658951932700,5.2289326171875,1.073180913925171,-10.781460762023926,5.776273727416992
1695713658961958400,5.23895849609375,0.3355933725833893,-11.576476097106934,6.259624004364014
1695713658971984000,5.24898388671875,-0.5742774605751038,-12.826128005981445,5.814558982849121
1695713658982016000,5.25901611328125,-1.8095721006393433,-14.425729751586914,5.206183910369873
1695713658992048000,5.269048095703125,-2.915654420852661,-15.464812278747559,4.837689399719238
1695713659002080300,5.279080322265625,-3.4947173595428467,-14.176876068115234,4.219742774963379
1695713659012112100,5.289112060546875,-2.977867841720581,-12.730414390563965,4.540979385375977
1695713659022144300,5.299144287109375,-1.6037893295288086,-12.17527961730957,5.124827861785889
1695713659032176400,5.30917626953125,-0.5886343717575073,-11.69133186340332,4.818546772003174
1695713659042208500,5.31920849609375,0.747757077217102,-10.814960479736328,3.242872953414917
1695713659052240600,5.32924072265625,1.8681962490081787,-10.570892333984375,2.0267207622528076
1695713659062272500,5.3392724609375,2.6297121047973633,-11.586047172546387,1.4572290182113647
1695713659072304600,5.3493046875,3.314059257507324,-13.02772331237793,0.9445667266845703
1695713659082337000,5.3593369140625,3.2853455543518066,-14.492728233337402,0.4612165689468384
1695713659092369700,5.36936962890625,2.8689942359924316,-15.421741485595703,-0.20458634197711945
1695713659102402000,5.379402099609375,2.7110681533813477,-15.613167762756348,-0.5970092415809631
1695713659112435000,5.38943505859375,3.19441819190979,-15.455241203308105,-0.33379876613616943
1695713659122467600,5.399467529296875,3.8841493129730225,-14.937793731689453,0.02512463741004467
1695713659132500000,5.4095,2.778067111968994,-14.387444496154785,0.2793620526790619
1695713659142532900,5.419532958984375,0.27337998151779175,-14.296517372131348,0.6957131624221802
1695713659152565500,5.4295654296875,-3.7298123836517334,-14.330016136169434,2.400599241256714
1695713659162598000,5.439597900390625,-4.8502516746521,-13.544572830200195,1.7922241687774658
1695713659172630500,5.449630615234375,-4.299304008483887,-11.519047737121582,1.8161523342132568
1695713659182663200,5.4596630859375,-2.163709878921509,-10.025328636169434,2.730808734893799
1695713659192696600,5.469696533203125,1.2646067142486572,-8.722436904907227,3.305086374282837
1695713659202730200,5.479730224609375,3.855435371398926,-7.601997375488281,3.4923245906829834
1695713659212763600,5.489763671875,3.826721668243408,-5.859424591064453,3.2859437465667725
1695713659222797000,5.499797119140625,3.376272678375244,-4.197608947753906,2.927020311355591
1695713659232830700,5.509830810546875,3.5198421478271484,-2.833101987838745,2.7451658248901367
1695713659242864000,5.519864013671875,2.8977081775665283,-1.784447431564331,2.4580271244049072
1695713659252897800,5.529897705078125,2.375474691390991,-1.3818551301956177,2.266003131866455
1695713659262931200,5.53993115234375,2.2127628326416016,-1.6360924243927002,1.710868239402771
1695713659272964900,5.54996484375,1.9160526990890503,-2.224726915359497,1.0067801475524902
1695713659282996700,5.559996826171875,1.662413477897644,-3.0245277881622314,0.5186443328857422
1695713659293026600,5.570026611328125,1.470389485359192,-3.4552359580993652,0.0011964113218709826
1695713659303056600,5.580056640625,1.0253244638442993,-3.5844483375549316,-0.4630111753940582
1695713659313086500,5.59008642578125,0.6664010882377625,-3.6424741744995117,-1.210170030593872
1695713659323116300,5.6001162109375,0.37866419553756714,-3.6711881160736084,-1.8376877307891846
1695713659333146000,5.61014599609375,-0.04247260093688965,-3.9487555027008057,-2.4358935356140137
1695713659343176200,5.62017626953125,-0.607776939868927,-4.178466320037842,-2.579462766647339
1695713659353206000,5.6302060546875,-1.3256237506866455,-4.4273200035095215,-2.249253273010254
1695713659363235800,5.64023583984375,-2.235494613647461,-4.661816596984863,-1.832902193069458
1695713659373266000,5.650265869140625,-3.6580276489257812,-4.762913703918457,-2.3162522315979004
1695713659383298300,5.66029833984375,-5.266602516174316,-5.078765869140625,-1.6648063659667969
1695713659393332500,5.67033251953125,-7.115057945251465,-5.643472194671631,-0.7890332937240601
1695713659403366700,5.68036669921875,-10.653444290161133,-7.022934436798096,-0.7938188910484314
1695713659413400800,5.69040087890625,-15.738790512084961,-9.89133071899414,-2.392822742462158
1695713659423435000,5.70043505859375,-15.982858657836914,-14.263017654418945,-3.9972102642059326
1695713659433469400,5.710469482421875,-14.07278823852539,-20.8564395904541,-3.0107691287994385
1695713659443503600,5.720503662109375,-14.828920364379883,-26.305496215820312,-1.2245270013809204
1695713659453537800,5.730537841796875,-13.28255844116211,-26.636302947998047,0.5377869009971619
1695713659463572200,5.740572265625,-9.298508644104004,-21.546171188354492,1.4093725681304932
1695713659473606400,5.7506064453125,-6.257829189300537,-14.727225303649902,1.059422254562378
1695713659483638800,5.760638671875,-5.285745143890381,-9.373882293701172,0.015553346835076809
1695713659493671000,5.7706708984375,-4.907679080963135,-5.676971912384033,-2.225325107574463
1695713659503703300,5.780703369140625,-4.931607246398926,-5.002195835113525,-4.164707660675049
1695713659513735400,5.7907353515625,-5.697310924530029,-7.061219692230225,-4.485345840454102
1695713659523767800,5.800767822265625,-3.221935749053955,-10.039685249328613,-2.5603201389312744
1695713659533800000,5.810800048828125,3.0412776470184326,-12.404991149902344,1.0163514614105225
1695713659543832300,5.820832275390625,5.526223659515381,-12.873984336853027,4.24367094039917
1695713659553864400,5.830864501953125,7.3746795654296875,-11.523834228515625,5.680561065673828
1695713659563896800,5.840896728515625,7.432106971740723,-9.958329200744629,5.536991596221924
1695713659573929000,5.850928955078125,5.665007591247559,-8.967103004455566,4.291527271270752
1695713659583961000,5.860961181640625,3.2709884643554688,-8.239086151123047,1.7395820617675781
1695713659593991200,5.8709912109375,0.8051848411560059,-8.14815902709961,0.9876375198364258
1695713659604021500,5.881021484375,-0.008973085321485996,-8.229515075683594,-1.2819547653198242
1695713659614051600,5.891051513671875,0.9726824164390564,-8.143373489379883,-3.4127633571624756
1695713659624081700,5.90108154296875,2.8689942359924316,-8.196015357971191,-4.054637908935547
1695713659634112000,5.911112060546875,2.571686029434204,-9.10110092163086,-3.2691938877105713
1695713659644142000,5.92114208984375,1.5571293830871582,-10.824531555175781,-0.7070791125297546
1695713659654172200,5.931172119140625,1.8059829473495483,-11.974282264709473,1.6390835046768188
1695713659664202500,5.941202392578125,2.3611178398132324,-11.959925651550293,2.7116663455963135
1695713659674232600,5.951232666015625,2.145763635635376,-11.006983757019043,2.682952404022217
1695713659684264700,5.9612646484375,1.700698733329773,-9.565308570861816,2.227717876434326
1695713659694297000,5.971297119140625,1.3794622421264648,-8.703293800354004,2.4436700344085693
1695713659704329500,5.98132958984375,1.6959130764007568,-8.368298530578613,2.7738797664642334
1695713659714361900,5.99136181640625,1.1066805124282837,-8.114660263061523,2.922234535217285
1695713659724394200,6.001394287109375,0.09152546525001526,-7.990232944488525,3.3003005981445312
1695713659734426600,6.011426513671875,-0.97148597240448,-8.066802978515625,3.583251953125
1695713659744459000,6.021458984375,-1.430907964706421,-8.210372924804688,3.434896945953369
1695713659754491600,6.03149169921875,-1.3543375730514526,-8.564510345458984,3.180659532546997
1695713659764524000,6.04152392578125,-1.430907964706421,-8.674580574035645,2.6733810901641846
1695713659774556400,6.051556396484375,-1.6037893295288086,-8.334799766540527,1.7874385118484497
1695713659784588800,6.0615888671875,-1.430907964706421,-8.081160545349121,1.0546365976333618
1695713659794622700,6.071622802734375,-0.550349235534668,-7.8418779373168945,0.7770691514015198
1695713659804656600,6.08165673828125,-0.7417750358581543,-7.6977105140686035,0.4133601188659668
1695713659814690800,6.09169091796875,-0.27696922421455383,-7.635497093200684,0.4420739710330963
1695713659824724700,6.101724853515625,1.0109676122665405,-7.621140003204346,0.5617151260375977
1695713659834758700,6.111758544921875,2.1026928424835205,-7.616354465484619,0.7579265832901001
1695713659844792600,6.12179248046875,2.4951157569885254,-7.6737823486328125,1.0163514614105225
1695713659854826800,6.13182666015625,2.303689956665039,-7.880163192749023,1.2317054271697998
1695713659864860700,6.141860595703125,1.609771490097046,-8.416155815124512,1.1455638408660889
1695713659874894600,6.15189453125,0.3451646566390991,-9.723235130310059,1.1934202909469604
1695713659884936400,6.1619365234375,-1.34476637840271,-11.006983757019043,1.6055840253829956
1695713659895103500,6.172103515625,-2.695514678955078,-11.571690559387207,2.3575284481048584
1695713659905145300,6.182145263671875,-3.188436269760132,-11.576476097106934,2.974876642227173
1695713659915151400,6.1921513671875,-3.6675989627838135,-11.979068756103516,3.6406795978546143
1695713659925193200,6.202193115234375,-3.820739507675171,-12.08913803100586,3.9948174953460693
1695713659935105500,6.21210546875,-3.0352954864501953,-11.413763999938965,3.607180118560791
1695713659945136600,6.22213671875,-1.7282161712646484,-10.570892333984375,3.084946632385254
1695713659955144200,6.232144287109375,0.129810631275177,-10.135398864746094,2.998805046081543
1695713659965173000,6.242173095703125,1.1784651279449463,-10.671390533447266,3.875176191329956
1695713659975215900,6.2522158203125,0.8769695162773132,-11.772686958312988,4.914259433746338
1695713659985246200,6.26224609375,-0.15732808411121368,-12.692129135131836,5.14875602722168
1695713659995287000,6.272287109375,-1.5170495510101318,-13.549358367919922,5.3353962898254395
1695713660005318100,6.282318115234375,-2.551347255706787,-15.546168327331543,5.7858452796936035
1695713660015358200,6.292358154296875,-3.355933666229248,-15.373885154724121,5.287539958953857
1695713660025390300,6.302390380859375,-4.060021877288818,-13.75035572052002,4.286741733551025
1695713660035425500,6.312425537109375,-4.811966419219971,-13.075579643249512,4.133601188659668
1695713660045458000,6.3224580078125,-3.710669755935669,-12.596416473388672,3.6406795978546143
1695713660055479300,6.332479248046875,-1.124626636505127,-11.787044525146484,2.472383975982666
1695713660065510700,6.3425107421875,1.3746765851974487,-11.212766647338867,1.5912270545959473
1695713660075534300,6.352534423828125,3.5820555686950684,-11.676974296569824,1.1359925270080566
1695713660085564700,6.362564697265625,4.884947299957275,-12.582059860229492,0.8392825126647949
1695713660095611600,6.372611572265625,4.7126641273498535,-13.893924713134766,0.22133609652519226
1695713660105779000,6.382779052734375,3.912863254547119,-14.6937255859375,-0.4630111753940582
1695713660115844900,6.392844970703125,3.280559778213501,-14.92822265625,-1.0809576511383057
1695713660125877000,6.402876953125,3.208775281906128,-14.578869819641113,-0.9852447509765625
1695713660135899600,6.412899658203125,3.4480574131011963,-13.927424430847168,-0.6065805554389954
1695713660145921000,6.422921142578125,2.816352367401123,-13.348361015319824,-0.6496513485908508
1695713660155953200,6.432953125,1.293320655822754,-13.176077842712402,-0.8033902049064636
1695713660165975000,6.44297509765625,-2.7050859928131104,-13.60200023651123,-0.2763710021972656
1695713660176007200,6.453007080078125,-5.13739013671875,-13.597214698791504,-0.39601215720176697
1695713660186062600,6.4630625,-4.677370071411133,-12.56291675567627,-0.4247260093688965
1695713660196076800,6.473076904296875,-2.8390841484069824,-11.83011531829834,0.7962117195129395
1695713660206109000,6.48310888671875,1.1784651279449463,-10.422536849975586,1.7922241687774658
1695713660216150000,6.49314990234375,3.38105845451355,-9.302098274230957,1.8831514120101929
1695713660226181600,6.503181640625,4.429712772369385,-7.410571575164795,1.2891331911087036
1695713660236203300,6.513203369140625,4.5445685386657715,-5.845067501068115,0.9158528447151184
1695713660246234600,6.523234619140625,4.161716938018799,-4.782055854797363,0.7818548083305359
1695713660256256800,6.5332568359375,3.697509288787842,-3.9248273372650146,0.7339983582496643
1695713660266278700,6.543278564453125,3.2374889850616455,-2.9527430534362793,0.7435696125030518
1695713660276169200,6.553169189453125,2.6488547325134277,-2.239083766937256,0.7435696125030518
1695713660286369300,6.563369384765625,2.341975212097168,-1.8897316455841064,0.7387840151786804
1695713660296420600,6.573420654296875,2.1361923217773438,-1.6360924243927002,0.6382854580879211
1695713660306439400,6.583439453125,1.8299111127853394,-2.052443504333496,0.39421752095222473
1695713660316488700,6.59348876953125,1.638485312461853,-2.775674343109131,0.06340979784727097
1695713660326521900,6.60352197265625,1.552343726158142,-3.6131622791290283,-0.8464609980583191
1695713660336540700,6.613540771484375,1.2741780281066895,-4.106681823730469,-1.832902193069458
1695713660346561500,6.6235615234375,0.7956135272979736,-4.393820762634277,-2.4263222217559814
1695713660356624100,6.6336240234375,0.13938191533088684,-4.46560525894165,-2.737389087677002
1695713660366633700,6.6436337890625,-0.8135597109794617,-4.46560525894165,-2.8624141216278076
1695713660376652500,6.653652587890625,-2.039283037185669,-4.422534465789795,-2.991626501083374
1695713660386694700,6.663694580078125,-3.403790235519409,-4.594817638397217,-2.6703901290893555
1695713660396712400,6.67371240234375,-4.716253280639648,-4.954339504241943,-1.9094724655151367
1695713660406726100,6.68372607421875,-7.201199531555176,-5.356333255767822,-2.541177749633789
1695713660416739800,6.69373974609375,-11.156535148620605,-7.037291526794434,-2.9341988563537598
1695713660426753300,6.703753173828125,-17.70688819885254,-10.006186485290527,-6.410371780395508
1695713660436767000,6.71376708984375,-15.585650444030762,-14.027922630310059,-8.531609535217285
1695713660446780700,6.72378076171875,-15.140584945678711,-20.50708770751953,-7.727022647857666
1695713660456794000,6.733794189453125,-15.121442794799805,-25.304697036743164,-6.860222339630127
1695713660466807800,6.743807861328125,-12.449257850646973,-25.448266983032227,-4.3417768478393555
1695713660476821500,6.753821533203125,-10.217950820922852,-22.451255798339844,-1.9908283948898315
1695713660486835000,6.7638349609375,-7.076773166656494,-16.805391311645508,-0.7890332937240601
1695713660496856300,6.773856201171875,-4.184448719024658,-10.14018440246582,-0.9517452120780945
1695713660506894000,6.78389404296875,-2.709871530532837,-5.461617469787598,-2.881556749343872
1695713660516931600,6.793931640625,-2.8103702068328857,-3.0963125228881836,-4.872983455657959
1695713660526969000,6.803968994140625,-5.280959606170654,-3.483949661254883,-5.55314302444458
1695713660537006600,6.814006591796875,-4.883750915527344,-6.180062770843506,-3.2883365154266357
1695713660547044000,6.824044189453125,1.877767562866211,-9.704092025756836,0.9876375198364258
1695713660557081600,6.83408154296875,4.3483567237854,-11.988639831542969,3.597608804702759
1695713660567119400,6.844119384765625,4.961517810821533,-12.586845397949219,3.8321053981781006
1695713660577156900,6.854156982421875,5.1529436111450195,-12.079566955566406,3.9086756706237793
1695713660587194400,6.8641943359375,4.2000017166137695,-10.98305606842041,3.45882511138916
1695713660597217500,6.874217529296875,3.500699520111084,-9.972686767578125,2.084148406982422
1695713660607249400,6.88424951171875,3.2470602989196777,-8.97667407989502,-0.2907279431819916
1695713660617281000,6.894281005859375,2.778067111968994,-8.033304214477539,-2.6273193359375
1695713660627313000,6.90431298828125,3.0891339778900146,-7.314858913421631,-4.179064750671387
1695713660637344500,6.914344482421875,3.769293785095215,-7.467999458312988,-4.198207378387451
1695713660647376100,6.924376220703125,3.716651678085327,-8.760722160339355,-3.3266217708587646
1695713660657408000,6.934407958984375,2.375474691390991,-10.312467575073242,-2.172683000564575
1695713660667439600,6.944439697265625,1.3411771059036255,-11.743973731994629,-0.6161518096923828
1695713660677471500,6.954471435546875,1.1976077556610107,-12.471989631652832,0.3846462368965149
1695713660687503000,6.964503173828125,1.1497513055801392,-12.117852210998535,0.5042873620986938
1695713660697528600,6.974528564453125,1.3507484197616577,-11.490334510803223,0.14476576447486877
1695713660707563300,6.984563232421875,1.1545369625091553,-10.786246299743652,-0.1663011759519577
1695713660717598000,6.994597900390625,1.2646067142486572,-10.317253112792969,-0.2189432680606842
1695713660727632600,7.004632568359375,1.2885349988937378,-10.101899147033691,-0.18065811693668365
1695713660737667300,7.014667236328125,1.3986048698425293,-9.053244590759277,-0.46779683232307434
1695713660747702000,7.024701904296875,1.700698733329773,-7.985447406768799,-0.6879364848136902
1695713660757736400,7.034736328125,1.0205388069152832,-7.410571575164795,-0.7549355626106262
1695713660767771100,7.044771240234375,0.11545369029045105,-7.41535758972168,-0.6496513485908508
1695713660777805800,7.054805908203125,-0.6508477330207825,-7.51585578918457,-1.033101201057434
1695713660787840500,7.064840576171875,-1.6420745849609375,-7.544569969177246,-1.0618150234222412
1695713660797867500,7.074867431640625,-1.7186448574066162,-7.338787078857422,-0.8273184299468994
1695713660807900400,7.084900390625,-0.5934200286865234,-7.008577346801758,-0.7166503667831421
1695713660817933600,7.09493359375,-0.03290131315588951,-7.219145774841309,-0.2907279431819916
1695713660827966700,7.104966796875,0.5467599630355835,-7.549355506896973,0.010767702013254166
1695713660837999900,7.114999755859375,1.8681962490081787,-7.82273530960083,0.19262222945690155
1695713660848032800,7.12503271484375,3.0795626640319824,-7.80837869644165,0.3846462368965149
1695713660858066000,7.13506591796875,3.1992039680480957,-7.908876895904541,0.4181457459926605
1695713660868099000,7.14509912109375,2.667997360229492,-8.090731620788574,-0.017946170642971992
1695713660878132200,7.15513232421875,1.9208383560180664,-8.909674644470215,-0.5491527915000916
1695713660888165000,7.1651650390625,0.6041877269744873,-10.283753395080566,-0.6496513485908508
1695713660898192600,7.175192626953125,-1.0145567655563354,-11.437692642211914,-0.4295116662979126
1695713660908222000,7.185221923828125,-2.671586513519287,-12.017353057861328,0.05383851006627083
1695713660918251300,7.195251220703125,-4.189234256744385,-11.734402656555176,0.6478567123413086
1695713660928280600,7.205280517578125,-4.284946918487549,-11.519047737121582,1.399801254272461
1695713660938310000,7.215309814453125,-3.2410783767700195,-11.834900856018066,2.1846470832824707
1695713660948339200,7.225339111328125,-1.8765711784362793,-12.337991714477539,2.486740827560425
1695713660958368500,7.235368408203125,-0.23389841616153717,-12.189637184143066,2.1415762901306152
1695713660968397800,7.245397705078125,1.1306086778640747,-11.667403221130371,1.6390835046768188
1695713660978427100,7.25542724609375,1.700698733329773,-11.672188758850098,1.7587246894836426
1695713660988456400,7.26545654296875,1.8394824266433716,-12.247064590454102,2.2995026111602783
1695713660998485500,7.275485595703125,1.3124631643295288,-12.940982818603516,2.227717876434326
1695713661008521700,7.285521728515625,0.8147560954093933,-12.778270721435547,1.4141582250595093
1695713661018558200,7.29555810546875,-0.97148597240448,-12.337991714477539,0.21655045449733734
1695713661028594700,7.3055947265625,-3.5569307804107666,-13.204792022705078,-1.2484551668167114
1695713661038631200,7.315631103515625,-4.562514781951904,-14.425729751586914,-1.8616160154342651
1695713661048667600,7.325667724609375,-3.79681134223938,-13.965709686279297,-0.8273184299468994
1695713661058704100,7.3357041015625,-3.4947173595428467,-13.305290222167969,0.42771705985069275
1695713661068740400,7.345740234375,-3.480360507965088,-12.629916191101074,1.217348575592041
1695713661078776800,7.35577685546875,-3.1453654766082764,-11.834900856018066,1.3806586265563965
1695713661088813300,7.365813232421875,-1.5846468210220337,-11.174481391906738,1.0259226560592651
1695713661098842400,7.37584228515625,0.8721838593482971,-10.99741268157959,0.48514479398727417
1695713661108872000,7.385871826171875,3.1130621433258057,-11.519047737121582,-0.3002992272377014
1695713661118901800,7.39590185546875,4.12343168258667,-12.749557495117188,-1.0809576511383057
1695713661128931300,7.405931396484375,3.965505361557007,-13.999208450317383,-1.8472590446472168
1695713661138961000,7.4159609375,3.9846479892730713,-14.626726150512695,-2.148754835128784
1695713661148990500,7.425990478515625,4.405784606933594,-14.722439765930176,-2.053041934967041
1695713661159020000,7.43602001953125,4.324428558349609,-14.420944213867188,-1.8711873292922974
1695713661169049600,7.446049560546875,4.027718544006348,-13.735998153686523,-1.7174484729766846
1695713661179079200,7.4560791015625,2.7589244842529297,-13.013365745544434,-2.1343977451324463
1695713661189108700,7.466108642578125,1.412961721420288,-12.165708541870117,-3.0251259803771973
1695713661199139000,7.47613916015625,-0.09032905846834183,-11.557332992553711,-3.235694408416748
1695713661209175000,7.486175048828125,-1.8095721006393433,-11.538190841674805,-2.526820659637451
1695713661219210800,7.496210693359375,-2.8725836277008057,-11.227124214172363,-1.5308083295822144
1695713661229246500,7.50624658203125,-1.9674984216690063,-10.331609725952148,-0.49172505736351013
1695713661239282200,7.5162822265625,0.24945175647735596,-9.378668785095215,0.5952146053314209
1695713661249318000,7.52631787109375,2.3515465259552,-8.526225090026855,0.9828519225120544
1695713661259353600,7.536353515625,3.1274192333221436,-7.875377655029297,0.719641387462616
1695713661269389300,7.546389404296875,3.3571300506591797,-7.10429048538208,0.4325026869773865
1695713661279425000,7.556425048828125,3.486342668533325,-5.696114540100098,0.13998012244701385
1695713661289460700,7.566460693359375,3.242274761199951,-4.691128730773926,-0.17108681797981262
1695713661299491300,7.5764912109375,2.5914268493652344,-4.087539196014404,-0.4342973232269287
1695713661309523500,7.5865234375,1.9256240129470825,-3.531806230545044,-0.3242274820804596
1695713661319555300,7.596555419921875,1.456032633781433,-3.16331148147583,-0.41515472531318665
1695713661329587500,7.60658740234375,1.1545369625091553,-3.1920254230499268,-0.6017948985099792
1695713661339619600,7.61661962890625,0.8961120843887329,-3.8291144371032715,-0.875174880027771
1695713661349651500,7.6266513671875,0.9726824164390564,-4.594817638397217,-1.3058829307556152
1695713661359683600,7.63668359375,1.140179991722107,-5.073980331420898,-1.8233308792114258
1695713661369715500,7.646715576171875,1.0636097192764282,-5.255835056304932,-2.455035924911499
1695713661379747600,7.65674755859375,0.6999006271362305,-5.207978248596191,-3.1543383598327637
1695713661389779700,7.66677978515625,0.17766708135604858,-5.0356950759887695,-3.6568312644958496
1695713661399814100,7.676814208984375,-0.6747759580612183,-4.743771076202393,-3.9397823810577393
1695713661409869800,7.686869873046875,-1.4739787578582764,-4.3794636726379395,-3.954139471054077
1695713661419925200,7.69692529296875,-2.292922258377075,-3.934398651123047,-3.8673996925354004
1695713661429980700,7.706980712890625,-3.5712878704071045,-3.6568312644958496,-3.6951162815093994
1695713661440036000,7.7170361328125,-5.520241737365723,-3.8434712886810303,-3.3649067878723145
1695713661450091500,7.727091552734375,-9.346364974975586,-4.925625324249268,-3.5324044227600098
1695713661460126200,7.737126220703125,-16.758731842041016,-7.506284713745117,-5.935994625091553
1695713661470178600,7.747178466796875,-18.3248348236084,-9.924830436706543,-9.709476470947266
1695713661480079400,7.757079345703125,-14.441283226013184,-14.181661605834961,-10.169496536254883
1695713661490100000,7.767099853515625,-16.682161331176758,-21.967308044433594,-8.924032211303711
1695713661500115700,7.77711572265625,-13.770694732666016,-25.731218338012695,-7.128817081451416
1695713661510135800,7.7871357421875,-8.613563537597656,-22.992034912109375,-3.944568157196045
1695713661520339200,7.797339111328125,-5.582455158233643,-16.09651756286621,-2.723032236099243
1695713661530381800,7.8073818359375,-4.347160339355469,-9.924830436706543,-1.8664016723632812
1695713661540402200,7.817402099609375,-4.6438703536987305,-5.365904808044434,-2.3976082801818848
1695713661550441500,7.82744140625,-2.417349100112915,-2.4400808811187744,-4.078566074371338
1695713661560476400,7.837476318359375,-0.8805587291717529,-2.191227436065674,-5.0602216720581055
1695713661570496800,7.847496826171875,1.705484390258789,-4.585246562957764,-4.001996040344238
1695713661580534500,7.857534423828125,4.491926193237305,-7.314858913421631,-2.4023938179016113
1695713661590582300,7.867582275390625,3.4672000408172607,-10.302896499633789,-0.9373882412910461
1695713661600602600,7.8776025390625,2.6057839393615723,-13.094721794128418,-0.3290131092071533
1695713661610634000,7.887634033203125,0.714257538318634,-15.900306701660156,-0.1663011759519577
1695713661620656600,7.89765673828125,-1.124626636505127,-17.164913177490234,-0.9708877801895142
1695713661630694000,7.90769384765625,2.2606191635131836,-15.641881942749023,-1.296311616897583
1695713661640731100,7.917731201171875,5.6793646812438965,-12.739986419677734,-1.1383854150772095
1695713661650768400,7.927768310546875,6.048457622528076,-10.04447078704834,-1.8035900592803955
1695713661660805600,7.9378056640625,4.654638290405273,-7.82273530960083,-3.0251259803771973
1695713661670828300,7.947828369140625,3.2470602989196777,-6.414559364318848,-4.121636867523193
1695713661680854000,7.95785400390625,2.538186550140381,-6.270989894866943,-4.566701889038086
1695713661690879500,7.96787939453125,1.4847464561462402,-7.118647575378418,-3.906282901763916
1695713661700797200,7.977797119140625,1.077966570854187,-8.598010063171387,-2.3497519493103027
1695713661710912000,7.987912109375,1.2598211765289307,-9.991828918457031,-1.0378868579864502
1695713661721026600,7.998026611328125,1.168893814086914,-10.728818893432617,-0.23330020904541016
1695713661731067600,8.008067626953125,1.3076776266098022,-10.89153003692627,-0.013160524889826775
1695713661741080600,8.01808056640625,1.4225330352783203,-10.52782154083252,0.5042873620986938
1695713661751088600,8.028088623046875,1.4656038284301758,-10.068399429321289,0.2745763957500458
1695713661761157000,8.0381572265625,1.3268201351165771,-9.493523597717285,-0.013160524889826775
1695713661771169800,8.048169677734375,1.8921245336532593,-8.277371406555176,-0.11844471842050552
1695713661781214000,8.0582138671875,1.2502498626708984,-7.6498541831970215,-0.008374879136681557
1695713661791223600,8.0682236328125,0.268594354391098,-7.759923934936523,-0.08973085135221481
1695713661801301000,8.078301025390624,0.2590230405330658,-8.13380241394043,-0.23330020904541016
1695713661811314000,8.08831396484375,-0.14775680005550385,-8.449654579162598,-0.6975077986717224
1695713661821326600,8.09832666015625,-0.760917603969574,-8.588438987731934,-1.052243709564209
1695713661831342800,8.1083427734375,-1.709073543548584,-8.641080856323242,-1.2675977945327759
1695713661841381000,8.118381103515626,-1.7425731420516968,-8.373085021972656,-1.339382529258728
1695713661851419400,8.12841943359375,-2.307279348373413,-8.162516593933105,-1.4015958309173584
1695713661861457700,8.138457763671875,-2.0057835578918457,-7.837092399597168,-1.1958130598068237
1695713661871496000,8.148495849609375,-0.8566305041313171,-7.635497093200684,-1.052243709564209
1695713661881512000,8.158511962890625,0.6999006271362305,-7.654639720916748,-0.875174880027771
1695713661891518200,8.168518310546874,2.050050735473633,-7.8179497718811035,-0.6735795736312866
1695713661901411600,8.17841162109375,3.0317063331604004,-7.9280195236206055,-0.5826523303985596
1695713661911415800,8.188415771484374,3.428914785385132,-8.263014793395996,-0.534795880317688
1695713661921468700,8.19846875,3.1561331748962402,-8.861818313598633,-0.5156532526016235
1695713661931477800,8.208477783203126,2.169692039489746,-9.627521514892578,-0.5156532526016235
1695713661941604000,8.21860400390625,0.49351966381073,-10.465607643127441,-0.1423729509115219
1695713661951730200,8.228730224609375,-1.5990036725997925,-11.274980545043945,0.5904290080070496
1695713661961777400,8.23877734375,-3.4229328632354736,-11.863615036010742,1.3758729696273804
1695713661971827500,8.248827392578125,-4.079164505004883,-12.462418556213379,2.1655044555664062
1695713661981836800,8.2588369140625,-3.1549365520477295,-13.070794105529785,2.7499513626098633
1695713661991858400,8.2688583984375,-1.1676974296569824,-12.940982818603516,2.6733810901641846
1695713662001933600,8.27893359375,0.41216370463371277,-12.52463150024414,2.146361827850342
1695713662011942700,8.288942626953125,1.1306086778640747,-11.940184593200684,1.6390835046768188
1695713662021969700,8.2989697265625,0.5946164131164551,-12.270992279052734,1.6247265338897705
1695713662032021000,8.30902099609375,-0.27696922421455383,-13.02772331237793,1.0929217338562012
1695713662042030000,8.319030029296876,-0.8374879360198975,-13.23829174041748,0.4325026869773865
1695713662052040400,8.32904052734375,-1.6755740642547607,-13.635499954223633,-0.5682953596115112
1695713662062056200,8.33905615234375,-2.3886351585388184,-14.631512641906738,-1.430309772491455
1695713662072072000,8.349072021484375,-2.4460630416870117,-14.267803192138672,-1.339382529258728
1695713662082087700,8.359087646484374,-2.5609183311462402,-13.329218864440918,-0.17587246000766754
1695713662092103400,8.369103515625,-2.695514678955078,-13.137792587280273,1.1599208116531372
1695713662102119200,8.379119140625,-3.2267212867736816,-13.147363662719727,1.7635103464126587
1695713662112135000,8.389135009765624,-2.7433712482452393,-12.572488784790039,1.332802176475525
1695713662122150700,8.399150634765626,-0.6652047038078308,-11.408978462219238,0.16390834748744965
1695713662132166400,8.40916650390625,1.23589289188385,-11.37069320678711,-1.1001001596450806
1695713662142182100,8.41918212890625,2.864208698272705,-12.194422721862793,-2.1104695796966553
1695713662152237000,8.429237060546875,3.572484254837036,-13.372289657592773,-3.2452657222747803
1695713662162292000,8.4392919921875,3.5054850578308105,-14.373087882995605,-4.4135613441467285
1695713662172347000,8.449346923828125,3.1657042503356934,-14.684154510498047,-5.007579803466797
1695713662182402000,8.459402099609376,2.998206853866577,-14.80379581451416,-5.577071189880371
1695713662192457000,8.46945703125,3.8841493129730225,-14.712868690490723,-5.950351715087891
1695713662202512100,8.47951220703125,4.746163845062256,-14.08116340637207,-5.653641700744629
1695713662212567000,8.489567138671875,3.721437454223633,-12.917055130004883,-5.395216941833496
1695713662222622000,8.4996220703125,1.6289139986038208,-12.136994361877441,-5.184648513793945
1695713662232640300,8.50964013671875,-0.7848458290100098,-11.504691123962402,-4.121636867523193
1695713662242643700,8.519643798828126,-3.3176486492156982,-11.279766082763672,-2.555534601211548
1695713662252662000,8.529662109375,-3.4612178802490234,-10.680961608886719,-1.186241865158081
1695713662262680600,8.5396806640625,-0.8709874153137207,-10.073184967041016,0.9014959335327148
1695713662272767700,8.549767822265625,1.6241283416748047,-9.45045280456543,2.424527645111084
1695713662282826000,8.559825927734375,2.8594231605529785,-8.822935104370117,2.9078776836395264
1695713662292870000,8.569869873046875,3.3571300506591797,-7.966304779052734,2.5489542484283447
1695713662302888200,8.57988818359375,3.2279176712036133,-6.390631198883057,2.2468605041503906
1695713662312913700,8.58991357421875,3.036491870880127,-4.801198482513428,1.9692929983139038
1695713662322944300,8.5999443359375,2.562114953994751,-3.6807594299316406,1.5098711252212524
1695713662332982300,8.609982177734375,2.1744775772094727,-2.9144580364227295,1.0067801475524902
1695713662343000800,8.620000732421875,2.222334146499634,-2.66560435295105,0.48035913705825806
1695713662353058300,8.630058349609374,2.3563320636749268,-2.7182464599609375,0.16390834748744965
1695713662363075600,8.64007568359375,2.279761791229248,-3.029313564300537,-0.5491527915000916
1695713662373088800,8.6500888671875,2.1984057426452637,-3.4265220165252686,-1.057029366493225
1695713662383102000,8.66010205078125,2.0213370323181152,-3.699902057647705,-1.4781662225723267
1695713662393115400,8.670115478515624,1.4847464561462402,-3.848257064819336,-2.0817556381225586
1695713662403128600,8.680128662109375,1.0396814346313477,-3.7908291816711426,-2.469393014907837
1695713662413141800,8.690141845703126,0.6472585201263428,-3.786043643951416,-2.723032236099243
1695713662423155000,8.700155029296875,0.06759724020957947,-3.8386857509613037,-3.0251259803771973
1695713662433168100,8.710168212890625,-0.6269195079803467,-3.9774694442749023,-3.2309088706970215
1695713662443181300,8.720181396484374,-1.4452649354934692,-4.06839656829834,-3.4271202087402344
1695713662453194500,8.730194580078125,-2.843869686126709,-4.288536548614502,-3.6951162815093994
1695713662463215400,8.74021533203125,-4.280161380767822,-4.618745803833008,-3.776472330093384
1695713662473250600,8.75025048828125,-5.817550182342529,-5.045266628265381,-3.8530426025390625
1695713662483285800,8.76028564453125,-9.475577354431152,-5.720640659332275,-5.419145107269287
1695713662493321200,8.7703212890625,-14.077573776245117,-7.3675007820129395,-9.900901794433594
1695713662503356400,8.7803564453125,-16.514663696289062,-11.499905586242676,-14.947962760925293
1695713662513391900,8.790391845703125,-16.37109375,-21.03350830078125,-15.551552772521973
1695713662523427000,8.800427001953125,-16.150955200195312,-28.657041549682617,-14.636896133422852
1695713662533462500,8.810462646484375,-11.985050201416016,-27.387649536132812,-13.70788288116455
1695713662543497700,8.820497802734375,-7.3399834632873535,-19.43929100036621,-11.145768165588379
1695713662553533200,8.830533203125,-3.9260237216949463,-12.247064590454102,-6.118447303771973
1695713662563556400,8.840556396484375,-2.9970104694366455,-5.710471153259277,-2.455035924911499
1695713662573590500,8.850590576171875,-3.1788649559020996,-1.7892330884933472,-0.9996016621589661
1695713662583624700,8.860624755859375,-1.5990036725997925,0.2554338276386261,-1.334596872329712
1695713662593659000,8.870658935546874,-0.5407779216766357,-0.3332005441188812,-2.809173822402954
1695713662603693000,8.880693115234376,-0.8470591902732849,-3.34995174407959,-4.633700847625732
1695713662613727200,8.890727294921875,1.552343726158142,-7.089933395385742,-3.9637107849121094
1695713662623761700,8.90076171875,0.6329016089439392,-12.007781982421875,-0.745364248752594
1695713662633795800,8.9107958984375,-0.5455635786056519,-16.594823837280273,1.8305093050003052
1695713662643830000,8.920830078125,-0.2626122832298279,-18.443279266357422,2.242074728012085
1695713662653864200,8.9308642578125,2.035693883895874,-17.351552963256836,1.7060825824737549
1695713662663889200,8.94088916015625,2.902493953704834,-14.980864524841309,1.1120643615722656
1695713662673921500,8.950921630859375,4.424927234649658,-12.309277534484863,-0.5970092415809631
1695713662683954200,8.9609541015625,4.487140655517578,-9.68494987487793,-2.785245656967163
1695713662693986800,8.97098681640625,3.2374889850616455,-7.267002582550049,-4.480560302734375
1695713662704019500,8.98101953125,2.32761812210083,-5.447260856628418,-5.663212776184082
1695713662714051800,8.9910517578125,2.145763635635376,-5.107480049133301,-6.041877269744873
1695713662724084500,9.00108447265625,1.700698733329773,-6.117849349975586,-5.155934810638428
1695713662734117000,9.0111171875,1.0875378847122192,-7.592426300048828,-3.580260992050171
1695713662744149500,9.0211494140625,1.2789636850357056,-9.000602722167969,-1.578664779663086
1695713662754182100,9.03118212890625,1.1306086778640747,-10.221540451049805,-0.33379876613616943
1695713662764208000,9.0412080078125,0.8386843204498291,-10.75274658203125,0.4133601188659668
1695713662774239200,9.0512392578125,0.9918249845504761,-10.987841606140137,0.9541380405426025
1695713662784270000,9.06127001953125,1.1976077556610107,-10.834102630615234,1.2795618772506714
1695713662794301000,9.071301025390625,1.3651052713394165,-10.369894981384277,1.241276741027832
1695713662804331800,9.081331787109375,2.294118642807007,-9.43609619140625,1.6390835046768188
1695713662814363000,9.09136279296875,1.537388563156128,-8.813364028930664,1.7252250909805298
1695713662824393700,9.101393798828125,1.1353943347930908,-8.363512992858887,1.9166508913040161
1695713662834424600,9.111424560546874,0.6376872062683105,-8.3300142288208,1.9070796966552734
1695713662844455400,9.121455322265625,0.1824527233839035,-8.602795600891113,1.3280165195465088
1695713662854486500,9.131486572265626,-0.5306084156036377,-8.914461135864258,0.3607180118560791
1695713662864514300,9.141514404296874,-1.459621787071228,-8.986245155334473,-0.5635097622871399
1695713662874549800,9.1515498046875,-2.2642083168029785,-8.679366111755371,-1.5212370157241821
1695713662884585200,9.161585205078126,-1.9914265871047974,-8.215158462524414,-2.478964328765869
1695713662894621000,9.171620849609376,-1.397408366203308,-7.966304779052734,-2.7804598808288574
1695713662904656400,9.181656494140626,-0.3152543902397156,-7.625925540924072,-3.0203404426574707
1695713662914691800,9.19169189453125,1.1784651279449463,-7.2574310302734375,-3.40797758102417
1695713662924727600,9.2017275390625,2.3850460052490234,-6.994220733642578,-3.6233317852020264
1695713662934763000,9.211762939453125,3.046063184738159,-7.1473612785339355,-3.541975736618042
1695713662944798500,9.221798583984375,3.074777126312256,-7.525427341461182,-3.149552822113037
1695713662954834000,9.231833984375,2.926422119140625,-8.200801849365234,-2.5938198566436768
1695713662964862000,9.241862060546875,1.9878374338150024,-9.2255277633667,-1.7748762369155884
1695713662974890500,9.251890380859376,0.7286145091056824,-10.283753395080566,-0.8321040868759155
1695713662984919000,9.2619189453125,-0.7704889178276062,-11.150553703308105,0.039481572806835175
1695713662994947600,9.271947509765624,-2.2067806720733643,-11.763115882873535,1.1455638408660889
1695713663004976000,9.28197607421875,-3.2315070629119873,-12.342777252197266,2.2707886695861816
1695713663015004700,9.292004638671875,-3.322434186935425,-12.902697563171387,3.2237303256988525
1695713663025033200,9.302033203125,-1.9866410493850708,-13.16650676727295,3.851248025894165
1695713663035061800,9.312061767578125,-0.3774677813053131,-12.926626205444336,3.6646077632904053
1695713663045090000,9.322090087890626,0.5946164131164551,-12.113066673278809,2.9413771629333496
1695713663055118600,9.33211865234375,0.47916272282600403,-12.122637748718262,3.032304525375366
1695713663065148000,9.34214794921875,-0.44446679949760437,-12.926626205444336,3.4301111698150635
1695713663075182600,9.3521826171875,-1.9004993438720703,-13.769497871398926,2.328216314315796
1695713663085217300,9.36221728515625,-3.3032915592193604,-13.64028549194336,0.4133601188659668
1695713663095252000,9.372251953125,-4.610371112823486,-13.917853355407715,-1.8472590446472168
1695713663105286700,9.38228662109375,-4.95074987411499,-14.253446578979492,-3.527618885040283
1695713663115321300,9.3923212890625,-4.35673189163208,-12.964911460876465,-3.666402578353882
1695713663125356000,9.40235595703125,-2.9491539001464844,-11.83011531829834,-2.053041934967041
1695713663135390700,9.412390625,-0.5210371017456055,-11.643474578857422,-0.18065811693668365
1695713663145425400,9.42242529296875,1.2550355195999146,-12.146566390991211,0.9924231767654419
1695713663155460000,9.432460205078126,1.8346967697143555,-11.810972213745117,0.494716078042984
1695713663165493800,9.44249365234375,1.7198412418365479,-11.767901420593262,-0.966102123260498
1695713663175549200,9.452549072265626,1.5230315923690796,-12.586845397949219,-1.9142581224441528
1695713663185604600,9.4626044921875,1.609771490097046,-13.697712898254395,-2.9006991386413574
1695713663195660000,9.472659912109375,1.9399809837341309,-14.540584564208984,-3.5706896781921387
1695713663205715500,9.482715576171875,2.45204496383667,-14.822937965393066,-3.685544967651367
1695713663215771000,9.49277099609375,2.998206853866577,-14.732010841369629,-3.857828378677368
1695713663225826300,9.502826416015624,3.951148271560669,-14.373087882995605,-4.0833516120910645
1695713663235881700,9.5128818359375,4.391427993774414,-13.697712898254395,-4.016352653503418
1695713663245937200,9.522937255859375,2.51425838470459,-12.940982818603516,-3.9254255294799805
1695713663255971000,9.53297119140625,0.6089733839035034,-12.251850128173828,-4.155136585235596
1695713663265979400,9.5429794921875,-0.6604190468788147,-11.552547454833984,-3.9110686779022217
1695713663275880700,9.552880615234375,-1.4452649354934692,-10.819746017456055,-2.5363919734954834
1695713663285900800,9.56290087890625,-2.101496458053589,-10.465607643127441,-0.7890332937240601
1695713663295910700,9.57291064453125,-0.5838487148284912,-9.708877563476562,0.8057830333709717
1695713663305929500,9.582929443359374,1.9639091491699219,-9.541379928588867,2.0793628692626953
1695713663315977200,9.592977294921875,2.9790642261505127,-9.043673515319824,2.6159534454345703
1695713663325999000,9.6029990234375,3.5533416271209717,-8.38265609741211,2.3958137035369873
1695713663336075500,9.613075439453125,3.4815568923950195,-7.271788120269775,1.9453648328781128
1695713663346102800,9.623102783203125,3.290131092071533,-5.902495384216309,1.7539390325546265
1695713663356112000,9.63311181640625,3.1417760848999023,-4.661816596984863,1.4189438819885254
1695713663366137300,9.643137451171874,2.806781053543091,-3.9487555027008057,1.0067801475524902
1695713663376202800,9.65320263671875,2.547757863998413,-3.4169507026672363,0.5377869009971619
1695713663386232000,9.663232177734375,2.3850460052490234,-3.263810157775879,0.16869398951530457
1695713663396265000,9.673264892578125,2.303689956665039,-3.2925238609313965,-0.36251261830329895
1695713663406294800,9.683294677734375,2.160120725631714,-3.4648072719573975,-0.8991031050682068
1695713663416300000,9.693300048828124,1.968694806098938,-3.7190446853637695,-1.607378602027893
1695713663426327300,9.703327392578124,1.6432709693908691,-3.762115478515625,-2.1583259105682373
1695713663436363300,9.71336328125,1.1736794710159302,-3.8434712886810303,-2.737389087677002
1695713663446391600,9.7233916015625,0.45523449778556824,-4.092324733734131,-3.1926236152648926
1695713663456460800,9.733460693359374,-0.31046873331069946,-4.312464714050293,-3.3744781017303467
1695713663466493200,9.7434931640625,-1.2394821643829346,-4.508676052093506,-3.4031920433044434
1695713663476538600,9.75353857421875,-2.2737796306610107,-4.637888431549072,-3.2883365154266357
1695713663486572300,9.763572265625,-3.3128628730773926,-4.820341110229492,-3.331407308578491
1695713663496610000,9.773610107421876,-4.227519512176514,-5.174479007720947,-3.422334671020508
1695713663506644000,9.78364404296875,-5.0943193435668945,-5.648257732391357,-3.9397823810577393
1695713663516636400,9.793636474609375,-8.70927619934082,-6.821937561035156,-5.280361175537109
1695713663526666200,9.803666259765626,-14.269000053405762,-9.249456405639648,-8.301898002624512
1695713663536696800,9.81369677734375,-16.744375228881836,-12.720843315124512,-11.251649856567383
1695713663546727000,9.823726806640625,-17.242679595947266,-18.60599136352539,-11.179865837097168
1695713663556751600,9.833751708984375,-17.903099060058594,-23.609981536865234,-9.637691497802734
1695713663566781000,9.843781005859375,-13.03370475769043,-23.317459106445312,-7.119245529174805
1695713663576861400,9.853861328125,-8.73320484161377,-17.619548797607422,-4.820341110229492
1695713663586896000,9.863895751953125,-7.014559745788574,-12.19920825958252,-2.761317253112793
1695713663596892700,9.873892578125,-5.678168296813965,-8.14815902709961,-1.3537393808364868
1695713663606923300,9.88392333984375,-3.236292600631714,-5.566901683807373,-1.8233308792114258
1695713663616976400,9.893976318359375,-2.355135679244995,-4.618745803833008,-4.001996040344238
1695713663627009500,9.904009521484374,-3.451646566390991,-5.385047435760498,-5.127220630645752
1695713663637047600,9.914047607421875,-1.6420745849609375,-7.6498541831970215,-3.6711881160736084
1695713663647081000,9.9240810546875,4.578067779541016,-10.935199737548828,-0.3529413342475891
1695713663657089500,9.934089599609376,6.963113784790039,-12.984053611755371,1.911865234375
1695713663667120400,9.944120361328125,6.407381057739258,-13.223934173583984,1.8592232465744019
1695713663677156400,9.95415625,5.780461311340332,-12.52463150024414,1.3088740110397339
1695713663687187700,9.964187744140625,4.750949382781982,-10.671390533447266,-0.4486542344093323
1695713663697235000,9.97423486328125,3.0317063331604004,-9.541379928588867,-2.455035924911499
1695713663707267800,9.984267822265625,2.8833513259887695,-8.971888542175293,-4.432703971862793
1695713663717300000,9.994300048828125,3.462414264678955,-8.11944580078125,-5.883352756500244
1695713663727332900,10.004332763671876,3.462414264678955,-7.5637125968933105,-6.553941249847412
1695713663737353200,10.014353271484374,3.452843189239502,-7.769495010375977,-6.620940208435059
1695713663747384800,10.024384765625,2.912065267562866,-8.698508262634277,-5.644070625305176
1695713663757445400,10.0344453125,1.9112670421600342,-10.034899711608887,-3.738187074661255
1695713663767480000,10.04447998046875,1.4321043491363525,-11.251051902770996,-1.4877375364303589
1695713663777498600,10.05449853515625,1.0683952569961548,-11.734402656555176,-0.3194418251514435
1695713663787531500,10.064531494140626,1.322034478187561,-11.37069320678711,0.020338991656899452
1695713663797560300,10.074560302734374,1.815554141998291,-10.5421781539917,0.3367897868156433
1695713663807593000,10.084593017578126,2.2893331050872803,-9.915258407592773,0.7962117195129395
1695713663817628000,10.0946279296875,3.4719855785369873,-9.043673515319824,1.059422254562378
1695713663827660500,10.10466064453125,2.7828526496887207,-8.334799766540527,0.7722834944725037
1695713663837692200,10.114692138671876,1.6815561056137085,-7.837092399597168,0.9349954724311829
1695713663847724800,10.124724853515625,1.3938192129135132,-7.616354465484619,1.2795618772506714
1695713663857706500,10.13470654296875,0.714257538318634,-8.028517723083496,1.1407781839370728
1695713663867734000,10.144734130859375,-0.5306084156036377,-8.81814956665039,0.6957131624221802
1695713663877820400,10.1548203125,-1.6660027503967285,-9.129815101623535,0.07776673883199692
1695713663887853800,10.164853759765625,-2.757728099822998,-9.153742790222168,-0.5970092415809631
1695713663897886500,10.174886474609375,-2.915654420852661,-8.69372272491455,-1.2197413444519043
1695713663907920000,10.184919921875,-2.8725836277008057,-8.334799766540527,-1.3202399015426636
1695713663917951200,10.194951171875,-2.197209358215332,-8.090731620788574,-1.119242787361145
1695713663927984400,10.204984375,-0.41575294733047485,-7.755138397216797,-1.1001001596450806
1695713663938018300,10.215018310546874,1.456032633781433,-7.57806921005249,-1.1383854150772095
1695713663948051500,10.225051513671875,2.8115665912628174,-7.401000499725342,-1.4015958309173584
1695713663958075000,10.235074951171875,3.4337005615234375,-7.348358154296875,-1.731805443763733
1695713663968107000,10.24510693359375,3.2374889850616455,-7.966304779052734,-1.9812572002410889
1695713663978129000,10.25512890625,2.2271196842193604,-9.067601203918457,-2.053041934967041
1695713663988160000,10.265159912109375,0.9152546525001526,-10.111470222473145,-1.947757601737976
1695713663998207500,10.27520751953125,-0.6747759580612183,-11.294122695922852,-1.1766705513000488
1695713664008240400,10.285240478515625,-2.1589243412017822,-11.648261070251465,-0.39601215720176697
1695713664018274600,10.295274658203125,-3.7776687145233154,-11.49512004852295,0.3320041298866272
1695713664028307500,10.305307373046874,-4.859822750091553,-11.385049819946289,1.064207911491394
1695713664038327800,10.315327880859375,-4.155734539031982,-11.887542724609375,1.8065811395645142
1695713664048359700,10.325359619140626,-2.2067806720733643,-12.022139549255371,1.8592232465744019
1695713664058389800,10.3353896484375,-0.14775680005550385,-11.657832145690918,1.5146567821502686
1695713664068421400,10.34542138671875,1.2885349988937378,-11.447263717651367,1.5481562614440918
1695713664078473500,10.355473388671875,1.6863417625427246,-12.170494079589844,2.2085752487182617
1695713664088507000,10.3655068359375,1.2263215780258179,-13.688141822814941,2.9030921459198
1695713664098514200,10.37551416015625,0.5850451588630676,-15.278172492980957,2.7020950317382812
1695713664108545000,10.385544921875,-0.04247260093688965,-15.78545093536377,1.8975083827972412
1695713664118602500,10.3956025390625,-1.8957136869430542,-15.335599899291992,0.6478567123413086
1695713664128636000,10.405635986328125,-4.5338006019592285,-13.86521053314209,-0.5395814776420593
1695713664138663200,10.4156630859375,-5.414957523345947,-13.080365180969238,-0.20458634197711945
1695713664148696300,10.4256962890625,-4.265804767608643,-13.185648918151855,0.5617151260375977
1695713664158708200,10.435708251953125,-2.245065927505493,-12.821341514587402,0.6047859191894531
1695713664168739000,10.445739013671876,-0.3487538993358612,-12.347562789916992,-0.04666004329919815
1695713664178797300,10.45579736328125,1.1162517070770264,-11.815757751464844,-1.1096714735031128
1695713664188831000,10.4658310546875,2.0069799423217773,-11.949756622314453,-2.9150562286376953
1695713664198857700,10.475857666015624,2.715853691101074,-12.486347198486328,-4.451846599578857
1695713664208890600,10.485890625,2.825923442840576,-13.209577560424805,-5.787639617919922
1695713664218927000,10.495927001953126,2.7876384258270264,-13.735998153686523,-6.5252275466918945
1695713664228960300,10.505960205078125,2.6871397495269775,-14.09552001953125,-6.807580471038818
1695713664238984400,10.515984375,2.9312076568603516,-14.09552001953125,-6.97986364364624
1695713664249016800,10.526016845703126,3.793222188949585,-13.357932090759277,-6.912864685058594
1695713664259060000,10.53606005859375,4.281357765197754,-12.42413330078125,-6.238088607788086
1695713664269093400,10.54609326171875,2.7972097396850586,-11.68175983428955,-5.409573554992676
1695713664279112400,10.556112548828125,1.0875378847122192,-11.093125343322754,-4.451846599578857
1695713664289144300,10.566144287109376,-0.5599204897880554,-10.65224838256836,-3.187838077545166
1695713664299177000,10.576177001953125,-2.163709878921509,-10.111470222473145,-1.5068800449371338
1695713664309208800,10.586208740234374,-2.906083106994629,-9.934401512145996,-0.09451649338006973
1695713664319244000,10.596244140625,-0.5838487148284912,-9.694520950317383,1.5146567821502686
1695713664329276200,10.606276123046875,1.6576279401779175,-9.6466646194458,2.376671075820923
1695713664339308000,10.61630810546875,2.7732813358306885,-9.17288589477539,2.1990039348602295
1695713664349340400,10.62634033203125,3.0077781677246094,-8.23430061340332,1.648654818534851
1695713664359370200,10.636370361328124,2.586043119430542,-7.008577346801758,1.4141582250595093
1695713664369402000,10.646402099609375,2.2031915187835693,-5.499902725219727,1.1934202909469604
1695713664379448300,10.6564482421875,1.8203397989273071,-4.226323127746582,0.6957131624221802
1695713664389481700,10.666481689453125,1.7629120349884033,-3.570091485977173,0.4085744619369507
1695713664399500500,10.67650048828125,1.9591234922409058,-3.211168050765991,0.010767702013254166
1695713664409532400,10.686532470703124,1.8969101905822754,-2.9288148880004883,-0.4342973232269287
1695713664419573500,10.696573486328125,1.8011972904205322,-2.8809585571289062,-0.8799605369567871
1695713664429606400,10.7066064453125,1.571486234664917,-2.785245656967163,-1.4159528017044067
1695713664439638000,10.716637939453125,1.1066805124282837,-2.7661030292510986,-2.062613010406494
1695713664449670700,10.726670654296875,0.6329016089439392,-2.794816732406616,-2.837887763977051
1695713664459691000,10.73669091796875,0.3403790295124054,-2.8426733016967773,-3.3074791431427
1695713664469722400,10.746722412109374,0.08673982322216034,-3.067598581314087,-3.551547050476074
1695713664479763500,10.756763427734375,-0.28654050827026367,-3.4025938510894775,-3.661616802215576
1695713664489795800,10.7667958984375,-0.8949156403541565,-3.738187074661255,-3.613760471343994
1695713664499826700,10.77682666015625,-2.12542462348938,-4.11625337600708,-3.5132617950439453
1695713664509858800,10.78685888671875,-3.8111681938171387,-4.456034183502197,-3.446262836456299
1695713664519901000,10.79690087890625,-5.822335720062256,-4.911268711090088,-3.3553354740142822
1695713664529934000,10.80693408203125,-9.011369705200195,-5.845067501068115,-3.930211305618286
1695713664539963600,10.816963623046876,-15.446866989135742,-8.00937557220459,-6.6113691329956055
1695713664549996500,10.82699658203125,-18.113666534423828,-11.155339241027832,-10.15035343170166
1695713664560021200,10.837021240234375,-14.498710632324219,-16.4129695892334,-11.596217155456543
1695713664570053400,10.847053466796876,-14.895918846130371,-22.479970932006836,-12.630514144897461
1695713664580089300,10.85708935546875,-12.52582836151123,-24.615564346313477,-11.983854293823242
1695713664590121700,10.867121826171875,-8.254639625549316,-20.765512466430664,-8.93838882446289
1695713664600153900,10.87715380859375,-5.726024627685547,-15.393028259277344,-4.8538408279418945
1695713664610186200,10.887186279296875,-3.8015968799591064,-10.164112091064453,-1.033101201057434
1695713664620218000,10.897218017578124,-3.55214524269104,-5.4041900634765625,0.039481572806835175
1695713664630250500,10.90725048828125,-3.394218921661377,-2.5262224674224854,-1.5020943880081177
1695713664640298000,10.917298095703124,-3.2315070629119873,-2.2582263946533203,-3.848257064819336
1695713664650331600,10.92733154296875,-3.772883176803589,-4.2933220863342285,-5.261219024658203
1695713664660310500,10.937310546875,-0.18125630915164948,-7.334001541137695,-3.8147575855255127
1695713664670338800,10.9473388671875,4.142574310302734,-10.336395263671875,-1.755733609199524
1695713664680395000,10.95739501953125,3.7884364128112793,-12.227921485900879,-1.7270197868347168
1695713664690426000,10.967426025390624,2.1649062633514404,-13.630714416503906,-1.5068800449371338
1695713664700457200,10.977457275390625,0.6089733839035034,-14.325230598449707,-1.8035900592803955
1695713664710488300,10.98748828125,1.5810575485229492,-13.147363662719727,-2.4981069564819336
1695713664720523000,10.99752294921875,4.037290096282959,-11.188838958740234,-2.833101987838745
1695713664730554400,11.007554443359375,5.373083114624023,-9.613164901733398,-3.1686954498291016
1695713664740588800,11.0175888671875,4.985445976257324,-8.339585304260254,-3.8769710063934326
1695713664750620400,11.027620361328125,3.8315072059631348,-6.874579429626465,-4.3657050132751465
1695713664760660000,11.037659912109374,3.5533416271209717,-6.443273067474365,-4.025924205780029
1695713664770692600,11.047692626953125,2.8929226398468018,-7.161718368530273,-3.0825538635253906
1695713664780716300,11.05771630859375,1.815554141998291,-8.703293800354004,-1.784447431564331
1695713664790748000,11.067747802734376,1.0205388069152832,-10.451251029968262,-0.6161518096923828
1695713664800813600,11.0778134765625,1.2215359210968018,-11.777473449707031,0.32721850275993347
1695713664810848500,11.0878486328125,1.8921245336532593,-12.247064590454102,0.9110672473907471
1695713664820867800,11.097867919921875,1.8011972904205322,-12.337991714477539,1.150349497795105
1695713664830901500,11.107901611328124,1.470389485359192,-11.499905586242676,1.241276741027832
1695713664840929300,11.11792919921875,1.633699655532837,-10.116255760192871,1.0354939699172974
1695713664850962200,11.127962158203125,1.882553219795227,-8.516654014587402,0.542572557926178
1695713664860956200,11.1379560546875,1.6289139986038208,-7.501499176025391,0.6143572330474854
1695713664870985200,11.147985107421874,1.2837493419647217,-7.195217609405518,0.7339983582496643
1695713664881060400,11.158060302734375,-0.17647066712379456,-7.611568927764893,0.020338991656899452
1695713664891093800,11.16809375,-1.4883357286453247,-8.196015357971191,-0.7740781307220459
1695713664901121000,11.17812109375,-2.1397817134857178,-8.60758113861084,-1.205384373664856
1695713664911154000,11.18815380859375,-3.4277184009552,-8.669795036315918,-1.578664779663086
1695713664921192200,11.198192138671875,-3.8877387046813965,-8.50708293914795,-1.7461622953414917
1695713664931225600,11.2082255859375,-3.2745778560638428,-8.392227172851562,-1.5643078088760376
1695713664941256400,11.21825634765625,-1.8574285507202148,-8.172087669372559,-1.2915260791778564
1695713664951289600,11.22828955078125,-0.03768695518374443,-7.9040913581848145,-1.2293126583099365
1695713664961311500,11.2383115234375,1.3938192129135132,-7.544569969177246,-1.3058829307556152
1695713664971343600,11.248343505859374,2.4807589054107666,-7.200003147125244,-1.578664779663086
1695713664981381000,11.258381103515624,3.122633457183838,-7.142575740814209,-1.8616160154342651
1695713664991413800,11.268413818359376,3.1274192333221436,-7.625925540924072,-2.1583259105682373
1695713665001443300,11.278443359375,2.5914268493652344,-8.540582656860352,-2.148754835128784
1695713665011475700,11.288475830078125,1.4847464561462402,-9.80937671661377,-1.6983058452606201
1695713665021517300,11.298517333984375,0.0005982056609354913,-10.910673141479492,-1.1958130598068237
1695713665031550700,11.30855078125,-1.430907964706421,-11.547761917114258,-0.7692924737930298
1695713665041577700,11.31857763671875,-2.748156785964966,-11.743973731994629,-0.20458634197711945
1695713665051610000,11.328610107421875,-3.892524242401123,-11.810972213745117,0.48514479398727417
1695713665061651500,11.3386513671875,-4.308875560760498,-12.180065155029297,1.064207911491394
1695713665071684900,11.348684814453126,-3.355933666229248,-12.404991149902344,1.3423734903335571
1695713665081704700,11.35870458984375,-1.4883357286453247,-12.03649616241455,1.059422254562378
1695713665091736600,11.368736572265625,0.11066804826259613,-11.490334510803223,0.6143572330474854
1695713665101767400,11.378767333984374,1.3363914489746094,-11.016555786132812,0.5186443328857422
1695713665111799300,11.38879931640625,1.8299111127853394,-11.308480262756348,1.3902299404144287
1695713665121839000,11.398839111328124,1.0971091985702515,-12.237493515014648,2.289931297302246
1695713665131872000,11.4088720703125,-0.09511470049619675,-13.195219993591309,2.1846470832824707
1695713665141902300,11.41890234375,-1.0193424224853516,-14.152947425842285,1.6055840253829956
1695713665151934700,11.428934814453125,-2.0201404094696045,-15.091532707214355,0.8967102766036987
1695713665161972000,11.438971923828126,-2.417349100112915,-14.894722938537598,0.4133601188659668
1695713665172004900,11.4490048828125,-3.2650065422058105,-13.798212051391602,0.5521438121795654
1695713665182034000,11.459033935546875,-4.35673189163208,-12.744771957397461,0.719641387462616
1695713665192066300,11.46906640625,-4.735395908355713,-11.998210906982422,0.4181457459926605
1695713665202075000,11.479074951171874,-2.316850423812866,-11.26062297821045,-0.7214360237121582
1695713665212105000,11.48910498046875,0.7286145091056824,-10.75274658203125,-2.225325107574463
1695713665222161700,11.49916162109375,3.4672000408172607,-11.160124778747559,-2.9868409633636475
1695713665232194600,11.509194580078125,4.496711730957031,-12.529417991638184,-3.1447670459747314
1695713665242225700,11.5192255859375,4.2622151374816895,-14.013566017150879,-3.6951162815093994
1695713665252258300,11.52925830078125,3.548556089401245,-14.866008758544922,-4.059423446655273
1695713665262274000,11.539274169921875,3.0556344985961914,-15.158531188964844,-4.231706619262695
1695713665272305000,11.549304931640625,3.012563705444336,-15.05264949798584,-4.480560302734375
1695713665282355200,11.559355224609375,3.826721668243408,-14.487942695617676,-4.490131855010986
1695713665292388000,11.56938818359375,3.7884364128112793,-13.688141822814941,-4.025924205780029
1695713665302400500,11.579400390625,2.5334010124206543,-13.080365180969238,-3.809971809387207
1695713665312431000,11.58943115234375,1.1258230209350586,-12.878769874572754,-3.384049415588379
1695713665322482700,11.599482666015625,-1.9100706577301025,-12.850055694580078,-2.6225335597991943
1695713665332515300,11.609515380859374,-4.385445594787598,-12.543774604797363,-1.8711873292922974
1695713665342551300,11.61955126953125,-2.4508485794067383,-11.475976943969727,-0.6400800347328186
1695713665352584400,11.62958447265625,0.3451646566390991,-10.144969940185547,0.5617151260375977
1695713665362626600,11.63962646484375,2.3946173191070557,-9.192028045654297,1.3950155973434448
1695713665372660500,11.649660400390625,3.716651678085327,-8.492725372314453,1.7826528549194336
1695713665382677200,11.65967724609375,3.404986619949341,-7.16650390625,1.3471591472625732
1695713665392709600,11.669709716796875,3.012563705444336,-5.715256690979004,1.0785647630691528
1695713665402754600,11.679754638671875,2.7828526496887207,-4.470390796661377,1.0546365976333618
1695713665412788000,11.6897880859375,2.4089741706848145,-3.5509488582611084,0.997208833694458
1695713665422812400,11.6998125,2.3515465259552,-3.029313564300537,0.786640465259552
1695713665432845000,11.709844970703125,2.1888344287872314,-2.8761727809906006,0.42771705985069275
1695713665442871800,11.719871826171875,1.9160526990890503,-2.837887763977051,-0.20937198400497437
1695713665452904000,11.729904052734375,1.700698733329773,-3.0580272674560547,-0.7549355626106262
1695713665462915800,11.739915771484375,1.6767704486846924,-3.3164522647857666,-1.272383451461792
1695713665472946000,11.74994580078125,1.5038890838623047,-3.555734395980835,-1.9812572002410889
1695713665483010000,11.760010009765624,1.3603196144104004,-3.738187074661255,-2.6081767082214355
1695713665493043500,11.77004345703125,1.0875378847122192,-3.8051862716674805,-3.101696252822876
1695713665503076400,11.780076416015625,0.8434699773788452,-3.90568470954895,-3.2644083499908447
1695713665513109800,11.79010986328125,0.25423741340637207,-4.058825492858887,-3.3984062671661377
1695713665523133400,11.800133544921875,-0.6652047038078308,-4.235894203186035,-3.5371899604797363
1695713665533165800,11.810165771484375,-2.0201404094696045,-4.283750534057617,-3.6711881160736084
1695713665543204900,11.820204833984375,-3.67238450050354,-4.4512481689453125,-3.637688636779785
1695713665553238000,11.830238037109375,-5.041677474975586,-4.743771076202393,-3.441477060317993
1695713665563263700,11.840263671875,-6.678966045379639,-5.274977684020996,-3.446262836456299
1695713665573296000,11.850296142578125,-10.931610107421875,-6.7692952156066895,-4.686343193054199
1695713665583324200,11.86032421875,-17.534605026245117,-9.503094673156738,-7.277172088623047
1695713665593356000,11.87035595703125,-14.962918281555176,-12.902697563171387,-8.531609535217285
1695713665603400000,11.88039990234375,-14.690135955810547,-17.212770462036133,-8.636893272399902
1695713665613433000,11.89043310546875,-15.820146560668945,-20.444875717163086,-8.57468032836914
1695713665623455000,11.900455078125,-12.382259368896484,-20.176280975341797,-6.965506553649902
1695713665633486800,11.91048681640625,-8.536993026733398,-16.29332733154297,-4.231706619262695
1695713665643516700,11.9205166015625,-6.238687038421631,-12.81177043914795,-1.6360924243927002
1695713665653548300,11.93054833984375,-4.697110652923584,-9.402596473693848,-0.4103690981864929
1695713665663595300,11.94059521484375,-3.135794162750244,-6.184848308563232,-1.6408780813217163
1695713665673628700,11.950628662109375,-1.435693621635437,-5.174479007720947,-4.131208419799805
1695713665683646000,11.96064599609375,-2.321636199951172,-6.266204357147217,-6.44387149810791
1695713665693677600,11.970677490234374,-4.060021877288818,-8.033304214477539,-6.711867332458496
1695713665703724800,11.980724853515625,-1.215553879737854,-10.604392051696777,-4.116851329803467
1695713665713758200,11.99075830078125,1.9639091491699219,-13.142578125,-1.272383451461792
1695713665723784000,12.000783935546876,1.944766640663147,-14.1194486618042,-1.0235298871994019
1695713665733816300,12.01081640625,1.3028919696807861,-14.167304992675781,-0.5300102233886719
1695713665743845400,12.020845458984375,0.3164508044719696,-13.147363662719727,-0.6927221417427063
1695713665753877500,12.03087744140625,1.4799607992172241,-10.86281681060791,-1.5260226726531982
1695713665763913200,12.040913330078125,3.0317063331604004,-8.406583786010742,-2.7421748638153076
1695713665773945600,12.050945556640626,3.2518460750579834,-6.395416736602783,-3.809971809387207
1695713665783981000,12.06098095703125,3.012563705444336,-4.83469820022583,-4.509274482727051
1695713665794014000,12.071013916015625,3.7836508750915527,-4.331607341766357,-5.002793788909912
1695713665804018700,12.081018798828126,4.803591251373291,-5.0356950759887695,-4.705485820770264
1695713665814048500,12.091048583984374,5.253442287445068,-6.951149940490723,-3.8386857509613037
1695713665824119600,12.10111962890625,3.160918712615967,-9.177671432495117,-2.867199659347534
1695713665834153700,12.11115380859375,1.29810631275177,-11.461620330810547,-1.3250255584716797
1695713665844151600,12.121151611328125,0.33080771565437317,-13.219148635864258,-0.4007977843284607
1695713665854182000,12.131181884765626,0.833898663520813,-13.329218864440918,-0.25244277715682983
1695713665864214500,12.141214599609375,1.7533408403396606,-12.615559577941895,-0.1950150430202484
1695713665874245000,12.1512451171875,1.85383939743042,-11.504691123962402,0.11126625537872314
1695713665884313000,12.16131298828125,2.1170499324798584,-10.077970504760742,0.45164528489112854
1695713665894347500,12.171347412109375,2.2510478496551514,-8.794221878051758,0.4995017349720001
1695713665904378600,12.181378662109376,1.451246976852417,-7.875377655029297,0.37028929591178894
1695713665914412500,12.19141259765625,0.5754738450050354,-7.683353424072266,0.5521438121795654
1695713665924442600,12.201442626953124,-0.5407779216766357,-8.181658744812012,0.22133609652519226
1695713665934476300,12.211476318359376,-1.4404792785644531,-8.789435386657715,-0.4007977843284607
1695713665944506000,12.221506103515624,-2.2163519859313965,-8.885746955871582,-1.1623135805130005
1695713665954539500,12.23153955078125,-2.906083106994629,-8.574081420898438,-1.6217355728149414
1695713665964538600,12.24153857421875,-3.0927233695983887,-8.334799766540527,-1.6600207090377808
1695713665974568400,12.251568359375,-2.9108686447143555,-8.196015357971191,-1.4015958309173584
1695713665984621800,12.261621826171876,-1.8287147283554077,-8.306085586547852,-1.1048858165740967
1695713665994654200,12.271654296875,-0.6939185857772827,-8.401798248291016,-0.9613165259361267
1695713666004683300,12.281683349609375,0.6329016089439392,-8.325227737426758,-1.090528964996338
1695713666014715000,12.29171484375,2.279761791229248,-8.196015357971191,-1.2149556875228882
1695713666024756000,12.301755859375,3.524627685546875,-8.124231338500977,-1.3298112154006958
1695713666034788600,12.31178857421875,3.865006685256958,-8.081160545349121,-1.5499508380889893
1695713666044815600,12.321815673828125,3.625126361846924,-8.138587951660156,-1.602592945098877
1695713666054847700,12.33184765625,2.926422119140625,-8.392227172851562,-1.5690934658050537
1695713666064875500,12.34187548828125,2.1122641563415527,-9.010173797607422,-1.4159528017044067
1695713666074907100,12.3519072265625,0.9966106414794922,-9.78544807434082,-1.2484551668167114
1695713666084945000,12.36194482421875,-0.44446679949760437,-10.484750747680664,-0.9134600162506104
1695713666094977300,12.371977294921875,-1.9244276285171509,-10.905887603759766,-0.3242274820804596
1695713666105011200,12.38201123046875,-2.9347970485687256,-11.150553703308105,0.37507495284080505
1695713666115043600,12.392043701171875,-3.3894333839416504,-11.576476097106934,1.1216355562210083
1695713666125071000,12.402071044921875,-2.513062000274658,-12.113066673278809,1.7587246894836426
1695713666135103000,12.41210302734375,-0.698704183101654,-12.046067237854004,1.9357935190200806
1695713666145139500,12.422139404296875,0.27337998151779175,-11.643474578857422,1.8592232465744019
1695713666155171800,12.432171875,0.5659025311470032,-11.657832145690918,2.242074728012085
1695713666165197600,12.442197509765625,-0.1621137410402298,-12.352348327636719,2.7930221557617188
1695713666175229200,12.452229248046875,-1.0863415002822876,-13.085150718688965,2.4580271244049072
1695713666185269000,12.46226904296875,-2.0297117233276367,-13.056436538696289,1.1072787046432495
1695713666195301400,12.47230126953125,-3.174079179763794,-13.104292869567871,-0.1902294009923935
1695713666205331700,12.482331787109375,-3.355933666229248,-13.879568099975586,-1.1001001596450806
1695713666215364000,12.492364013671875,-1.7234305143356323,-13.869996070861816,-1.3680963516235352
1695713666225397800,12.502397705078126,-0.9284151792526245,-13.448859214782715,-0.6305087804794312
1695713666235430100,12.51243017578125,-1.622931957244873,-13.094721794128418,0.29850462079048157
1695713666245459200,12.522459228515626,-1.6995022296905518,-12.68734359741211,0.32721850275993347
1695713666255491000,12.532490966796875,-0.22911277413368225,-12.012567520141602,-0.2907279431819916
1695713666265522000,12.54252197265625,0.7908278703689575,-11.341979026794434,-1.3441680669784546
1695713666275553800,12.5525537109375,2.0069799423217773,-11.662617683410645,-2.3162522315979004
1695713666285590500,12.562590576171875,3.13220477104187,-12.845270156860352,-3.1064820289611816
1695713666295623000,12.572622802734376,3.5820555686950684,-14.143376350402832,-3.8913278579711914
1695713666305655300,12.5826552734375,3.610769271850586,-14.808581352233887,-4.23649263381958
1695713666315687700,12.592687744140624,3.716651678085327,-14.947364807128906,-4.293920040130615
1695713666325721900,12.602721923828126,3.683152198791504,-14.574084281921387,-4.322634220123291
1695713666335754200,12.612754150390625,3.3236305713653564,-13.716856002807617,-4.418346881866455
1695713666345799700,12.622799560546875,3.342773199081421,-13.137792587280273,-4.466203689575195
1695713666355833600,12.63283349609375,2.241476535797119,-12.711272239685059,-4.394418716430664
1695713666365857500,12.642857421875,0.7812566161155701,-12.232707977294922,-4.537988185882568
1695713666375890400,12.652890380859375,-0.2721835672855377,-12.079566955566406,-3.7525441646575928
1695713666385931500,12.662931640625,-1.4644074440002441,-11.940184593200684,-2.4981069564819336
1695713666395965200,12.672965087890624,-1.6277176141738892,-11.643474578857422,-0.875174880027771
1695713666405991200,12.6829912109375,-0.004187439568340778,-10.867602348327637,0.7962117195129395
1695713666416023800,12.69302392578125,1.6528422832489014,-10.092328071594238,2.069791555404663
1695713666426054700,12.7030546875,2.778067111968994,-9.488738059997559,2.5298118591308594
1695713666436087300,12.71308740234375,3.4097721576690674,-8.904889106750488,2.203789710998535
1695713666446122000,12.7231220703125,3.3236305713653564,-7.463213920593262,1.6199408769607544
1695713666456155000,12.73315478515625,3.0412776470184326,-5.768496990203857,1.2939188480377197
1695713666466181400,12.743181396484376,2.6871397495269775,-4.599603176116943,0.9541380405426025
1695713666476213500,12.753213623046875,2.5573291778564453,-3.9152560234069824,0.7100701332092285
1695713666486249700,12.763249755859375,2.2845473289489746,-3.6323046684265137,0.3032902777194977
1695713666496282400,12.773282470703125,2.2749760150909424,-3.661616802215576,-0.137587308883667
1695713666506321700,12.78332177734375,2.279761791229248,-3.786043643951416,-0.7022934556007385
1695713666516354800,12.793354736328125,2.1266210079193115,-3.90568470954895,-1.2340983152389526
1695713666526382300,12.80338232421875,1.7676976919174194,-3.8147575855255127,-2.0961127281188965
1695713666536415000,12.8134150390625,1.412961721420288,-3.738187074661255,-2.9246275424957275
1695713666546447400,12.823447265625,1.0827522277832031,-3.5270206928253174,-3.149552822113037
1695713666556480000,12.83347998046875,0.9200403094291687,-3.6568312644958496,-3.336193084716797
1695713666566503400,12.84350341796875,0.6951149702072144,-3.8769710063934326,-3.6711881160736084
1695713666576535000,12.85353515625,0.32123643159866333,-3.9535412788391113,-3.7669010162353516
1695713666586573800,12.86357373046875,-0.4492524564266205,-3.9631125926971436,-3.786043643951416
1695713666596606200,12.873606201171874,-1.4739787578582764,-4.13060998916626,-3.6807594299316406
1695713666606635000,12.883635009765625,-2.6141586303710938,-4.580460548400879,-3.503690481185913
1695713666616667000,12.8936669921875,-4.016951084136963,-5.155336380004883,-3.809971809387207
