time,seconds_elapsed,z,y,x
1695713211351244800,0.247244873046875,-1.5951213836669922,5.224555969238281,-2.908968925476074
1695713211370318000,0.266318115234375,-2.6956090927124023,4.780398845672607,-2.9385125637054443
1695713211389452800,0.285452880859375,-4.719611644744873,3.7619595527648926,-3.1485767364501953
1695713211408526000,0.304526123046875,-5.716358184814453,4.2313995361328125,-4.130289077758789
1695713211427630000,0.323630126953125,-6.326137542724609,5.575494289398193,-4.6591105461120605
1695713211446703600,0.34270361328125,-3.249420166015625,5.672460079193115,-3.43432354927063
1695713211465807600,0.3618076171875,-1.1213669776916504,5.158345699310303,-2.3507907390594482
1695713211484881200,0.380881103515625,-0.8690695762634277,4.56062650680542,-1.937806248664856
1695713211503985200,0.399985107421875,-1.4052457809448242,4.64781379699707,-2.8662118911743164
1695713211523089200,0.419089111328125,-1.9348492622375488,4.651858329772949,-3.136514186859131
1695713211542162700,0.43816259765625,-1.8404312133789062,3.7162961959838867,-2.7682442665100098
1695713211561266700,0.4572666015625,-0.8228917121887207,3.074413299560547,-2.177288055419922
1695713211580340200,0.47634033203125,-0.6444191932678223,4.285843372344971,-2.661672353744507
1695713211599444200,0.4954443359375,-1.2088618278503418,4.923982620239258,-3.9477663040161133
1695713211618517500,0.514517578125,-1.498812198638916,3.8328351974487305,-3.9686527252197266
1695713211637621800,0.533621826171875,-1.2180190086364746,2.530128002166748,-3.303622245788574
1695713211656695000,0.552695068359375,-1.064422607421875,3.853222370147705,-3.762917995452881
1695713211675829800,0.571829833984375,-2.431875705718994,5.4582061767578125,-3.5742082595825195
1695713211694933800,0.590933837890625,-3.622422695159912,4.254366874694824,-2.724891185760498
1695713211714007000,0.610007080078125,-1.6535210609436035,1.3891868591308594,-2.2164435386657715
1695713211733111000,0.629111083984375,-0.8774309158325195,1.7925820350646973,-2.125666618347168
1695713211752184600,0.6481845703125,-2.9410014152526855,4.250106334686279,-2.999441146850586
1695713211771288600,0.66728857421875,-1.6249351501464844,3.754796028137207,-2.818047285079956
1695713211790362000,0.686362060546875,-0.5405511856079102,4.189459323883057,-2.263648271560669
1695713211809466000,0.705466064453125,-1.6934680938720703,4.526401519775391,-2.1948254108428955
1695713211828539600,0.72453955078125,-1.5273175239562988,4.341287612915039,-2.294084072113037
1695713211847643600,0.7436435546875,-2.013308525085449,3.965737819671631,-2.2409934997558594
1695713211866717200,0.76271728515625,-2.0864949226379395,3.8368430137634277,-1.9917817115783691
1695713211885821200,0.7818212890625,-0.03139352798461914,4.778903961181641,-1.221200942993164
1695713211904925200,0.80092529296875,1.520303726196289,5.628262519836426,-0.4539494514465332
1695713211923998500,0.81999853515625,2.279402256011963,6.559096336364746,0.08451509475708008
1695713211943102500,0.8391025390625,2.1557936668395996,7.8795390129089355,0.2438201904296875
1695713211962206700,0.858206787109375,0.6109342575073242,8.265843391418457,-0.2836322784423828
1695713211981310700,0.877310791015625,0.6342086791992188,7.060521602630615,-0.6872081756591797
1695713212000384000,0.896384033203125,1.6815478801727295,5.695099830627441,-0.9545755386352539
1695713212019488000,0.915488037109375,1.5534100532531738,5.507789611816406,-1.4045934677124023
1695713212038561500,0.9345615234375,-0.7703840732574463,4.647979736328125,-3.507801055908203
1695713212057665500,0.95366552734375,-3.6872377395629883,4.800483703613281,-5.299106597900391
1695713212076769500,0.97276953125,-5.581959247589111,3.560253143310547,-6.735474586486816
1695713212095843000,0.991843017578125,-6.579115390777588,2.8495032787323,-7.457552909851074
1695713212114947000,1.010947021484375,-6.524009704589844,1.633095383644104,-7.6476545333862305
1695713212134020600,1.0300205078125,-6.4333391189575195,0.967782735824585,-7.776858329772949
1695713212153124600,1.04912451171875,-5.773958206176758,0.8467131853103638,-7.084305763244629
1695713212172198100,1.0681982421875,-2.9906554222106934,0.4617650508880615,-5.1223649978637695
1695713212191302100,1.08730224609375,5.741692066192627,3.2340316772460938,-1.7978096008300781
1695713212210375400,1.10637548828125,4.46165132522583,2.430203437805176,-2.1110963821411133
1695713212229479400,1.1254794921875,0.8227188587188721,1.2109196186065674,-1.3162612915039062
1695713212248614100,1.1446142578125,-7.192410945892334,2.6012542247772217,-1.6973209381103516
1695713212267687700,1.163687744140625,-5.4757771492004395,1.037747859954834,-1.0658063888549805
1695713212286791700,1.182791748046875,-5.509238243103027,-0.5801763534545898,-1.1707849502563477
1695713212305865000,1.201864990234375,-6.510836601257324,-0.10927414894104004,-1.2076044082641602
1695713212324969000,1.220968994140625,-5.271341323852539,-0.24501538276672363,0.7393569946289062
1695713212344042500,1.24004248046875,-1.4741621017456055,-0.12450265884399414,4.403354644775391
1695713212363238100,1.259238037109375,-2.268108367919922,1.529780626296997,2.7859272956848145
1695713212382464300,1.27846435546875,-5.097164154052734,2.8046908378601074,-1.031139850616455
1695713212401690000,1.297690185546875,-4.38672399520874,2.366964340209961,-2.564319610595703
1695713212420916200,1.316916259765625,-3.217942714691162,1.123737096786499,-0.6390800476074219
1695713212439471000,1.33547119140625,-6.0773186683654785,2.1308131217956543,-1.7489867210388184
1695713212458575000,1.3545751953125,-8.407305717468262,4.3624677658081055,-4.170297145843506
1695713212477679000,1.37367919921875,-2.1698358058929443,-4.427077770233154,5.338161468505859
1695713212496783000,1.392783203125,0.28470611572265625,-0.7746720314025879,1.757169246673584
1695713212515887000,1.41188720703125,-4.722260475158691,-0.5424361228942871,-1.4459972381591797
1695713212534991000,1.4309912109375,-4.116870880126953,-0.6316404342651367,2.326763153076172
1695713212554064400,1.450064453125,-4.266496658325195,-1.6195769309997559,3.717604637145996
1695713212573168400,1.46916845703125,-6.295991897583008,-2.6599063873291016,5.031045436859131
1695713212592272600,1.488272705078125,-8.439627647399902,-4.226787090301514,-0.9104838371276855
1695713212611346000,1.507345947265625,-6.9528913497924805,-1.2685394287109375,-5.5324225425720215
1695713212630450000,1.526449951171875,-4.92575216293335,-0.37949323654174805,-1.6189475059509277
1695713212649523500,1.5455234375,2.4345648288726807,0.08888578414916992,1.853311538696289
1695713212668658000,1.564657958984375,-0.6728997230529785,3.9754271507263184,0.9290492534637451
1695713212687681500,1.583681640625,-4.057207107543945,7.321907043457031,-2.4144606590270996
1695713212706785500,1.60278564453125,-4.997241497039795,6.251657485961914,-3.2302932739257812
1695713212725859000,1.621859130859375,-5.776496887207031,2.396815299987793,0.858360767364502
1695713212744963000,1.640963134765625,-4.388848304748535,-0.45885181427001953,3.1542210578918457
1695713212764067000,1.660067138671875,-3.655327796936035,0.2333202362060547,1.2337226867675781
1695713212783140600,1.679140625,-4.317358016967773,0.9844827651977539,-0.5984468460083008
1695713212802244600,1.69824462890625,-4.581930637359619,0.7849626541137695,-0.9526007175445557
1695713212821348600,1.7173486328125,-4.033780097961426,0.0845794677734375,-0.9971320629119873
1695713212840452600,1.73645263671875,-3.471691608428955,-0.5336856842041016,-0.08021855354309082
1695713212859526100,1.755526123046875,-4.057067394256592,-1.7295513153076172,0.9337202310562134
1695713212878630100,1.774630126953125,-4.329226970672607,-2.6300926208496094,1.543676733970642
1695713212897703700,1.79370361328125,-5.507420539855957,-1.9824333190917969,0.7448937892913818
1695713212916807700,1.8128076171875,-4.339577674865723,-1.1415929794311523,0.6675993204116821
1695713212935881000,1.831880859375,-4.383157253265381,-6.733675003051758,4.843066215515137
1695713212954985000,1.85098486328125,-2.906947374343872,-11.142383575439453,3.2547109127044678
1695713212974089000,1.8700888671875,-2.9944965839385986,-10.771355628967285,1.5167959928512573
1695713212993162500,1.88916259765625,-0.7021515369415283,0.40167999267578125,0.4774491786956787
1695713213012266500,1.9082666015625,-7.592333793640137,-6.43758487701416,2.3396036624908447
1695713213031340000,1.927340087890625,-5.173168182373047,2.5538339614868164,-0.03328227996826172
1695713213050444000,1.946444091796875,-7.219857215881348,10.65147876739502,-1.014898657798767
1695713213069517600,1.965517578125,-1.0094201564788818,23.217512130737305,-2.9280648231506348
1695713213088652000,1.984652099609375,-3.341404676437378,14.595813751220703,-1.6392135620117188
1695713213107725600,2.0037255859375,-3.782944917678833,3.2278966903686523,-4.965882301330566
1695713213126829600,2.02282958984375,-3.2920608520507812,-3.040435791015625,-0.44283246994018555
1695713213145933600,2.04193359375,-4.486203193664551,-1.5684022903442383,2.585484266281128
1695713213165007000,2.061007080078125,-2.969893455505371,2.2321786880493164,2.14188289642334
1695713213184111000,2.080111083984375,-2.9006752967834473,1.455465316772461,1.8503468036651611
1695713213203184600,2.0991845703125,-4.101120948791504,-0.35068511962890625,1.2908960580825806
1695713213222288600,2.11828857421875,-4.6624321937561035,-2.5488853454589844,0.9783921241760254
1695713213241362000,2.13736181640625,-3.2169909477233887,-2.966273307800293,2.459256887435913
1695713213260466000,2.1564658203125,-3.4809372425079346,-0.7995080947875977,2.436640739440918
1695713213279539500,2.17553955078125,-3.3795409202575684,2.591122627258301,1.3420969247817993
1695713213298643500,2.1946435546875,-2.829709053039551,3.089358329772949,1.2015475034713745
1695713213317747500,2.21374755859375,-4.950047016143799,2.7502927780151367,2.030909299850464
1695713213336821000,2.232821044921875,-5.974913597106934,3.2546634674072266,2.3308215141296387
1695713213355925000,2.251925048828125,-4.961379051208496,3.1665563583374023,1.7678513526916504
1695713213375029000,2.271029052734375,-3.5959458351135254,1.9420480728149414,1.1678006649017334
1695713213394133000,2.290133056640625,-2.6437931060791016,1.9442815780639648,1.2236862182617188
1695713213413206500,2.30920654296875,-2.436279773712158,2.458531379699707,1.2474185228347778
1695713213432310500,2.328310546875,-5.189794540405273,1.8229684829711914,0.2890129089355469
1695713213451384000,2.347384033203125,-4.1014018058776855,1.1141471862792969,-0.21193121373653412
1695713213470488000,2.366488037109375,-6.4767045974731445,0.12891674041748047,-0.4456109404563904
1695713213489592000,2.385592041015625,-4.306873321533203,-0.17857646942138672,-2.212981939315796
1695713213508665600,2.40466552734375,-3.53175687789917,0.3328733444213867,-2.9638049602508545
1695713213527769600,2.42376953125,-1.8456525802612305,1.8108539581298828,-1.9977917671203613
1695713213546843000,2.4428427734375,-0.8735861778259277,2.4924545288085938,-0.05234822630882263
1695713213565947000,2.46194677734375,-1.4831552505493164,2.451364517211914,1.0774861574172974
1695713213585020400,2.4810205078125,-5.9413042068481445,2.818915367126465,1.0916873216629028
1695713213604124400,2.50012451171875,-7.395669937133789,3.214244842529297,0.9491700530052185
1695713213623198000,2.519197998046875,-6.281198501586914,3.3473587036132812,1.0629340410232544
1695713213642302000,2.538302001953125,-5.205550670623779,2.647693634033203,1.4724984169006348
1695713213661406000,2.557406005859375,-3.6683478355407715,1.6684026718139648,1.33505117893219
1695713213680510000,2.576510009765625,-3.8701682090759277,1.1749544143676758,0.5019875764846802
1695713213699614000,2.595614013671875,-4.875776290893555,1.1356801986694336,-0.3271472156047821
1695713213718687500,2.6146875,-5.537082195281982,1.0489082336425781,-0.6504955887794495
1695713213737791500,2.63379150390625,-5.204766750335693,0.45393896102905273,-0.5999959111213684
1695713213756865000,2.652864990234375,-4.809305667877197,-0.15026378631591797,-0.5009788274765015
1695713213775969000,2.671968994140625,-4.384299278259277,-0.2270665168762207,-0.25994548201560974
1695713213795042300,2.691042236328125,-4.346691131591797,-0.7620029449462891,-0.1964295208454132
1695713213814146300,2.710146240234375,-4.188735485076904,-1.1460065841674805,-0.16328412294387817
1695713213833250600,2.72925048828125,-3.9966659545898438,-1.188302993774414,-0.05131363868713379
1695713213852323800,2.74832373046875,-3.6710963249206543,-0.9126534461975098,0.31489139795303345
1695713213871427800,2.767427734375,-2.883028984069824,-0.593900203704834,0.9012578725814819
1695713213890501400,2.78650146484375,-1.8090415000915527,0.07238245010375977,1.520364761352539
1695713213909605400,2.80560546875,-1.4540996551513672,1.481943130493164,1.953521728515625
1695713213928679000,2.824678955078125,-0.6827793121337891,2.5161237716674805,2.140634536743164
1695713213947783000,2.843782958984375,0.0017428398132324219,2.9603137969970703,2.5811617374420166
1695713213966887000,2.862886962890625,0.7594690322875977,3.4764761924743652,3.067293643951416
1695713213985991000,2.881990966796875,-0.1446847915649414,3.076545238494873,2.6976404190063477
1695713214005095000,2.901094970703125,-2.4139461517333984,1.278562068939209,1.861444115638733
1695713214024168400,2.92016845703125,-0.8868069648742676,0.05072784423828125,0.8554457426071167
1695713214043272400,2.9392724609375,0.47571802139282227,-0.120269775390625,0.6428329348564148
1695713214062346000,2.958345947265625,2.829254150390625,4.915253162384033,1.9016766548156738
1695713214081450000,2.977449951171875,0.9009437561035156,15.033833503723145,1.709364891052246
1695713214100523300,2.996523193359375,-13.427003860473633,14.794720649719238,-3.06719970703125
1695713214119627300,3.015627197265625,-1.23429536819458,-4.238755226135254,-1.6113040447235107
1695713214138700800,3.03470068359375,-7.834339618682861,-13.425992965698242,-1.7305982112884521
1695713214157804800,3.0538046875,-8.951229095458984,-7.544599533081055,-3.5782032012939453
1695713214176878300,3.07287841796875,-5.16931676864624,5.846742630004883,2.75834321975708
1695713214195982300,3.091982421875,-11.054445266723633,13.097915649414062,7.58601188659668
1695713214215086300,3.11108642578125,-7.399068355560303,7.34123420715332,4.423524856567383
1695713214234190300,3.1301904296875,-1.6906352043151855,-1.7286558151245117,-0.33735302090644836
1695713214253294300,3.14929443359375,-1.7072768211364746,-3.308717727661133,-1.9342628717422485
1695713214272367900,3.168367919921875,-5.696734428405762,-1.2325353622436523,-0.8750604391098022
1695713214291472000,3.187471923828125,-7.664529800415039,1.730093002319336,1.1666711568832397
1695713214310545400,3.20654541015625,-5.033079624176025,1.8458690643310547,2.9143800735473633
1695713214329649400,3.2256494140625,-3.4291090965270996,-0.34430789947509766,2.9077136516571045
1695713214348723000,3.244722900390625,-4.2888007164001465,-1.1956243515014648,1.6836243867874146
1695713214367857400,3.263857421875,-4.856105327606201,-0.42059993743896484,1.095287561416626
1695713214386931000,3.282930908203125,-3.9358408451080322,0.2046060562133789,1.2326557636260986
1695713214406004200,3.302004150390625,-3.264705181121826,-0.1486978530883789,1.2907344102859497
1695713214425108200,3.321108154296875,-3.8498475551605225,-0.7863445281982422,1.1931540966033936
1695713214444181800,3.340181640625,-3.8641672134399414,-0.5821256637573242,1.2500243186950684
1695713214463285800,3.35928564453125,-2.870499610900879,0.061028480529785156,1.39613938331604
1695713214482359300,3.378359375,-1.9647142887115479,0.632568359375,1.5634267330169678
1695713214501463300,3.39746337890625,-2.2244834899902344,0.7330169677734375,1.6198216676712036
1695713214520567300,3.4165673828125,-2.7712748050689697,0.7540721893310547,1.5682156085968018
1695713214539671300,3.43567138671875,-2.973208427429199,1.3152656555175781,2.0539650917053223
1695713214558775300,3.454775390625,-3.6728386878967285,2.0190258026123047,3.521674156188965
1695713214577848800,3.473848876953125,-3.739535093307495,2.2349681854248047,4.094066143035889
1695713214596952800,3.492952880859375,-0.8352510929107666,2.8445138931274414,2.9423584938049316
1695713214616026400,3.5120263671875,-0.4557673931121826,3.008878707885742,2.782797336578369
1695713214635130400,3.53113037109375,-2.6050572395324707,3.8622846603393555,3.9378647804260254
1695713214654204000,3.550203857421875,-4.63784122467041,3.630558967590332,4.803842544555664
1695713214673308000,3.569307861328125,-4.531381607055664,3.8958139419555664,3.420433759689331
1695713214692381200,3.588381103515625,-4.479080677032471,3.109990119934082,1.3864431381225586
1695713214711485200,3.607485107421875,-4.483396053314209,2.1727685928344727,-1.30185866355896
1695713214730589200,3.626589111328125,-4.630973815917969,2.3504295349121094,-3.8469178676605225
1695713214749662700,3.645662841796875,-4.18463659286499,3.0374069213867188,-4.297359466552734
1695713214768766700,3.6647666015625,-2.617608070373535,4.480354309082031,-3.290789842605591
1695713214787840300,3.68384033203125,-1.557046890258789,4.770801544189453,-1.0460948944091797
1695713214806944300,3.7029443359375,-4.1630940437316895,4.595982551574707,-0.5222811698913574
1695713214826048300,3.72204833984375,-8.070392608642578,3.8895435333251953,-0.4714042544364929
1695713214845152300,3.74115234375,-9.411593437194824,2.4553909301757812,0.6169586181640625
1695713214864225800,3.760225830078125,-6.587416648864746,0.14462661743164062,1.654510736465454
1695713214883329800,3.779329833984375,-5.235846519470215,-0.8939127922058105,1.0568294525146484
1695713214902433800,3.798433837890625,-5.066427707672119,-0.8742079734802246,-0.00921863317489624
1695713214921507300,3.81750732421875,-5.1428937911987305,-0.68206787109375,-0.8312917351722717
1695713214940611300,3.836611328125,-5.47406005859375,-0.6259217262268066,-1.0601680278778076
1695713214959684900,3.855684814453125,-5.797200679779053,-1.0231451988220215,-0.9043554067611694
1695713214978788900,3.874788818359375,-5.934994697570801,-1.8975095748901367,-0.47459548711776733
1695713214997862100,3.893862060546875,-5.256731033325195,-2.5973973274230957,-0.08596783876419067
1695713215016966100,3.912966064453125,-4.281811237335205,-2.7640433311462402,0.01053851842880249
1695713215036039700,3.932039794921875,-3.4032840728759766,-2.700699806213379,0.06844061613082886
1695713215055143700,3.951143798828125,-2.486334800720215,-2.3109145164489746,0.40521520376205444
1695713215074247700,3.97024755859375,-1.4593005180358887,-0.6814413070678711,1.0643103122711182
1695713215093351700,3.9893515625,0.37266111373901367,2.911020278930664,2.086297035217285
1695713215112455700,4.00845556640625,2.5965514183044434,8.416610717773438,4.116913795471191
1695713215131529200,4.027529296875,3.721378803253174,12.549718856811523,4.066925048828125
1695713215150633200,4.04663330078125,1.518056869506836,8.018699645996094,0.588624119758606
1695713215169706800,4.065706787109375,-1.576125144958496,-2.480834484100342,-1.0722318887710571
1695713215188810800,4.084810791015625,-0.1534557342529297,-7.3946404457092285,-2.225029945373535
1695713215207884300,4.10388427734375,2.042459011077881,-1.765883445739746,-1.0633509159088135
1695713215226988300,4.12298828125,-0.23953485488891602,11.076896667480469,0.13865453004837036
1695713215246092300,4.14209228515625,-12.627311706542969,19.241331100463867,-1.6916064023971558
1695713215265165800,4.161165771484375,-2.4796628952026367,3.1500649452209473,3.919013023376465
1695713215284269800,4.180269775390625,-13.193632125854492,-10.102750778198242,3.0914502143859863
1695713215303343000,4.199343017578125,-8.600109100341797,-7.233835220336914,-2.8133490085601807
1695713215322447000,4.218447021484375,-5.684452533721924,3.9020237922668457,0.04293334484100342
1695713215341520600,4.237520751953125,-8.74893569946289,10.403083801269531,3.416139841079712
1695713215360624600,4.256624755859375,-4.486910820007324,6.652338981628418,4.317334175109863
1695713215379728600,4.275728759765625,-1.6652522087097168,0.13228225708007812,-0.2678043842315674
1695713215398832600,4.29483251953125,-3.905397891998291,-2.2714128494262695,-2.32776141166687
1695713215417936600,4.3139365234375,-8.740467071533203,-0.9873533248901367,-0.9741784334182739
1695713215437010200,4.33301025390625,-7.6037421226501465,1.373570442199707,1.1424155235290527
1695713215456114200,4.3521142578125,-3.0571441650390625,0.706324577331543,1.9796124696731567
1695713215475187700,4.371187744140625,-3.3102550506591797,-0.7684783935546875,1.3982512950897217
1695713215494291700,4.390291748046875,-5.009758472442627,-1.0803842544555664,0.41602739691734314
1695713215513365200,4.409365234375,-5.0132856369018555,-0.8662586212158203,0.2443360537290573
1695713215532469200,4.42846923828125,-3.885410785675049,-0.7932024002075195,0.8896289467811584
1695713215551542800,4.447542724609375,-2.9079031944274902,-0.9567356109619141,1.156651258468628
1695713215570646800,4.466646728515625,-2.7064177989959717,-0.9513473510742188,0.904705286026001
1695713215589750800,4.485750732421875,-2.350803852081299,-0.33972644805908203,0.9430273771286011
1695713215608824000,4.504823974609375,-1.3366849422454834,0.6297616958618164,1.4259567260742188
1695713215627928000,4.523927978515625,-1.3438317775726318,1.0235395431518555,1.6428132057189941
1695713215647001600,4.543001708984375,-1.9709928035736084,0.9985923767089844,1.8327529430389404
1695713215666105600,4.562105712890625,-2.259213447570801,1.307896614074707,2.8337738513946533
1695713215685209600,4.581209716796875,-3.378415822982788,1.6684341430664062,4.533078670501709
1695713215704313600,4.600313720703125,-2.347551107406616,2.5501394271850586,4.598552227020264
1695713215723387100,4.61938720703125,0.25434279441833496,3.5516786575317383,3.4589157104492188
1695713215742491100,4.6384912109375,-1.169632911682129,4.365105628967285,3.2137506008148193
1695713215761595100,4.65759521484375,-3.400017499923706,4.999277114868164,2.8680739402770996
1695713215780668700,4.676668701171875,-5.153497219085693,4.41989803314209,2.3366847038269043
1695713215799772700,4.695772705078125,-4.250214576721191,2.467038154602051,0.08652287721633911
1695713215818846200,4.71484619140625,-4.151663780212402,1.588094711303711,-3.013638973236084
1695713215837950200,4.7339501953125,-4.428046703338623,2.4601659774780273,-4.8137383460998535
1695713215857023700,4.753023681640625,-3.190401554107666,4.471064567565918,-4.953375339508057
1695713215876127700,4.772127685546875,-0.825538158416748,6.782766342163086,-3.876763343811035
1695713215895201000,4.791200927734375,-0.8234601020812988,7.004234313964844,-2.2472379207611084
1695713215914305000,4.810304931640625,-6.436826229095459,5.048007488250732,-0.9038913249969482
1695713215933378600,4.829378662109375,-9.287786483764648,4.498292922973633,-0.9970568418502808
1695713215952513000,4.848512939453125,-8.419021606445312,1.9538216590881348,0.8152520656585693
1695713215971617000,4.867616943359375,-5.784852981567383,-0.7818689346313477,1.34829843044281
1695713215990690600,4.886690673828125,-5.616179466247559,-1.7602252960205078,0.6252023577690125
1695713216009794600,4.905794677734375,-5.805924892425537,-1.8615012168884277,-0.5370259881019592
1695713216028868000,4.9248681640625,-5.652719497680664,-1.613039493560791,-1.5031358003616333
1695713216047972000,4.94397216796875,-5.963706016540527,-1.822453498840332,-1.7312419414520264
1695713216067076000,4.963076171875,-6.244048595428467,-2.57051420211792,-1.2175416946411133
1695713216086149600,4.982149658203125,-5.709299564361572,-3.545278549194336,-0.3210242986679077
1695713216105223200,5.00122314453125,-4.9386162757873535,-3.8531665802001953,0.09961497783660889
1695713216124327200,5.0203271484375,-4.37728214263916,-3.3084511756896973,-0.24777808785438538
1695713216143431200,5.03943115234375,-3.7203516960144043,-2.7817444801330566,-0.2538543939590454
1695713216162504700,5.058504638671875,-2.4042367935180664,-0.7872977256774902,0.025316357612609863
1695713216181608700,5.077608642578125,-0.5595974922180176,3.236208438873291,0.12850970029830933
1695713216200682000,5.096681884765625,2.418161392211914,11.25516128540039,2.07515811920166
1695713216219786000,5.115785888671875,3.727478504180908,18.3424015045166,1.104139804840088
1695713216238890000,5.134889892578125,2.964871883392334,9.595548629760742,-1.2449836730957031
1695713216257994000,5.153993896484375,-0.8204398155212402,-7.077363967895508,-0.12627190351486206
1695713216277067500,5.173067626953125,-2.1139936447143555,-12.666888236999512,-1.3728011846542358
1695713216296171500,5.192171630859375,-1.2728800773620605,-6.728894233703613,-1.040332317352295
1695713216315275500,5.211275634765625,-1.8923754692077637,8.105743408203125,0.7471524477005005
1695713216334349000,5.23034912109375,-9.260822296142578,23.60630989074707,-0.6587706804275513
1695713216353453000,5.249453125,-3.0424017906188965,16.791885375976562,0.7785025238990784
1695713216372526600,5.268526611328125,-12.684082984924316,-8.100198745727539,3.358842611312866
1695713216391630600,5.287630615234375,-7.2597503662109375,-13.006834030151367,-4.249452114105225
1695713216410704100,5.3067041015625,-2.8917131423950195,-3.691002368927002,-1.5902513265609741
1695713216429808000,5.32580810546875,-11.808597564697266,7.967763423919678,1.5124237537384033
1695713216448881700,5.344881591796875,-8.734399795532227,11.786828994750977,3.867244005203247
1695713216467985700,5.363985595703125,-1.1998038291931152,4.841935157775879,1.0237798690795898
1695713216487089700,5.383089599609375,-0.1107492446899414,-1.5076799392700195,-1.6767308712005615
1695713216506163000,5.402162841796875,-6.073787689208984,-3.2635631561279297,-1.3231751918792725
1695713216525267000,5.421266845703125,-8.997360229492188,-1.526045799255371,0.2715785801410675
1695713216544371000,5.440370849609375,-4.631329536437988,0.031037330627441406,1.5579843521118164
1695713216563475000,5.459474853515625,-2.178546905517578,-0.5188894271850586,1.6720293760299683
1695713216582548500,5.478548583984375,-3.4097297191619873,-0.9750852584838867,1.0335139036178589
1695713216601652500,5.497652587890625,-5.087803840637207,-0.3671722412109375,0.5405102968215942
1695713216620726000,5.51672607421875,-4.103908538818359,-0.12820720672607422,0.7667191028594971
1695713216639830000,5.535830078125,-2.2919580936431885,-0.2996654510498047,1.0380988121032715
1695713216658934000,5.55493408203125,-1.6316277980804443,-0.16055965423583984,1.1843557357788086
1695713216678007600,5.574007568359375,-1.5822980403900146,0.05238056182861328,1.5187904834747314
1695713216697111600,5.593111572265625,-1.9081413745880127,0.2885923385620117,1.5898828506469727
1695713216716185000,5.61218505859375,-2.1038172245025635,0.40748023986816406,1.4923992156982422
1695713216735289000,5.6312890625,-2.274517774581909,1.0105676651000977,1.5664799213409424
1695713216754362400,5.6503623046875,-2.6653342247009277,1.7674446105957031,2.074280023574829
1695713216773466600,5.669466552734375,-3.693955898284912,1.3962860107421875,2.8974828720092773
1695713216792540000,5.688539794921875,-1.9304273128509521,2.2136335372924805,2.218932628631592
1695713216811674600,5.707674560546875,0.5939962863922119,3.380800247192383,1.9187365770339966
1695713216830748000,5.726747802734375,-0.6530380249023438,4.191875457763672,3.2524945735931396
1695713216849852000,5.745851806640625,-3.708580255508423,4.294465065002441,4.249467372894287
1695713216868956000,5.764955810546875,-5.224167346954346,4.1555280685424805,3.919987440109253
1695713216888029400,5.784029541015625,-4.102025032043457,2.7068967819213867,1.6090720891952515
1695713216907133400,5.803133544921875,-3.733848810195923,1.4452037811279297,-1.459826946258545
1695713216926207000,5.82220703125,-4.777032852172852,1.7457294464111328,-4.055332183837891
1695713216945311000,5.84131103515625,-4.909283638000488,2.877638816833496,-4.281106472015381
1695713216964384500,5.860384521484375,-2.49246883392334,5.108870506286621,-3.700800895690918
1695713216983488500,5.879488525390625,-0.08252954483032227,5.377048492431641,-1.7910436391830444
1695713217002562000,5.89856201171875,-2.4359378814697266,4.650914192199707,-0.7926040291786194
1695713217021666000,5.917666015625,-7.779926300048828,4.298574447631836,-1.0224608182907104
1695713217040770000,5.93677001953125,-10.451025009155273,3.3680481910705566,-0.22320258617401123
1695713217059843300,5.95584326171875,-6.9811787605285645,0.660921573638916,1.3760077953338623
1695713217078947300,5.974947265625,-4.072452545166016,-0.6996760368347168,1.2092597484588623
1695713217098051600,5.994051513671875,-4.650434970855713,-1.0059990882873535,0.09711480140686035
1695713217117155600,6.013155517578125,-5.4459099769592285,-1.0009369850158691,-1.2432963848114014
1695713217136228900,6.032228759765625,-5.43234395980835,-1.6399073600769043,-1.707731008529663
1695713217155332900,6.051332763671875,-5.964367866516113,-2.6420955657958984,-1.210857629776001
1695713217174406400,6.070406494140625,-5.767457962036133,-3.692960739135742,-0.46962690353393555
1695713217193510400,6.089510498046875,-4.696135997772217,-4.35728645324707,0.13602077960968018
1695713217212614400,6.108614501953125,-3.9544901847839355,-4.196303367614746,0.30613553524017334
1695713217231688000,6.12768798828125,-3.4056973457336426,-3.578333854675293,0.12283027172088623
1695713217250792000,6.1467919921875,-2.6571693420410156,-2.6337718963623047,0.34556472301483154
1695713217269865500,6.165865478515625,-0.8572120666503906,0.1728682518005371,0.9303210973739624
1695713217288969500,6.184969482421875,2.0618796348571777,5.534710884094238,2.057067394256592
1695713217308043000,6.20404296875,3.6497888565063477,13.338096618652344,3.669294834136963
1695713217327147000,6.22314697265625,4.657495975494385,15.371284484863281,1.334641695022583
1695713217346220300,6.24222021484375,-0.8384466171264648,2.8301000595092773,-0.7202792167663574
1695713217365324300,6.26132421875,-1.5904722213745117,-8.560585021972656,-1.5612366199493408
1695713217384428300,6.28042822265625,0.05606651306152344,-7.504436492919922,-1.826103925704956
1695713217403532500,6.299532470703125,0.5154657363891602,4.994476795196533,-0.3592667579650879
1695713217422636500,6.318636474609375,-7.783944606781006,17.925125122070312,-1.954898476600647
1695713217441709800,6.337709716796875,-4.814863681793213,10.770095825195312,0.6860866546630859
1695713217460813800,6.356813720703125,-10.826096534729004,-6.4999775886535645,4.462308406829834
1695713217479887400,6.375887451171875,-8.895683288574219,-9.518390655517578,-1.0770207643508911
1695713217498991400,6.394991455078125,-3.668341636657715,-0.4420127868652344,0.028116464614868164
1695713217518065000,6.41406494140625,-9.075172424316406,8.572854995727539,1.639894962310791
1695713217537169000,6.4331689453125,-6.572725772857666,9.362014770507812,2.8288230895996094
1695713217556273000,6.45227294921875,-1.463594913482666,2.8027095794677734,0.3901522159576416
1695713217575346400,6.471346435546875,-1.1860747337341309,-1.6003532409667969,-1.7829118967056274
1695713217594450400,6.490450439453125,-4.94180965423584,-2.5189523696899414,-0.7763164043426514
1695713217613524000,6.50952392578125,-7.906140327453613,-0.6793804168701172,1.0888327360153198
1695713217632628000,6.5286279296875,-5.632328987121582,-0.07911396026611328,1.8860033750534058
1695713217651701200,6.547701171875,-2.548161268234253,-1.2302627563476562,1.3623831272125244
1695713217670805200,6.56680517578125,-3.020704507827759,-1.4140100479125977,0.5981199741363525
1695713217689909200,6.5859091796875,-5.089317321777344,-1.0806150436401367,0.5441217422485352
1695713217709013200,6.60501318359375,-4.519814491271973,-0.8230190277099609,1.2387847900390625
1695713217728117500,6.624117431640625,-2.245300531387329,-0.660679817199707,1.4784659147262573
1695713217747190800,6.643190673828125,-1.7541558742523193,-0.38661670684814453,1.3530030250549316
1695713217766294800,6.662294677734375,-1.5863533020019531,0.06219482421875,1.4597104787826538
1695713217785368300,6.681368408203125,-1.5672276020050049,0.27522754669189453,1.3671631813049316
1695713217804472300,6.700472412109375,-1.6722545623779297,0.5856618881225586,1.3899354934692383
1695713217823545900,6.7195458984375,-1.677184820175171,1.2484703063964844,2.6686182022094727
1695713217842649900,6.73864990234375,-2.509134531021118,2.035922050476074,3.325432062149048
1695713217861723400,6.757723388671875,-3.377103567123413,1.7364892959594727,3.9333457946777344
1695713217880827400,6.776827392578125,-1.6848115921020508,2.606088638305664,3.1543960571289062
1695713217899931400,6.795931396484375,1.7251551151275635,3.652682304382324,2.369852066040039
1695713217919005000,6.8150048828125,-0.09354448318481445,3.423323631286621,3.0528087615966797
1695713217938109000,6.83410888671875,-2.324841022491455,4.685544967651367,3.224015474319458
1695713217957213000,6.853212890625,-4.452971458435059,4.118760108947754,3.4999876022338867
1695713217976317000,6.87231689453125,-4.669159889221191,2.9086551666259766,1.9447847604751587
1695713217995390200,6.89139013671875,-3.9177489280700684,1.6155891418457031,-0.5376917123794556
1695713218014494200,6.910494140625,-4.031059265136719,1.4817018508911133,-3.3982419967651367
1695713218033567700,6.929567626953125,-4.101484298706055,3.1352338790893555,-3.7938151359558105
1695713218052671700,6.948671630859375,-1.8499102592468262,6.172271728515625,-2.4561824798583984
1695713218071745300,6.967745361328125,0.6986184120178223,6.275381088256836,0.4912288188934326
1695713218090849300,6.986849365234375,-1.8580875396728516,4.746376991271973,0.9280242919921875
1695713218109953300,7.005953369140625,-7.902325630187988,3.7921056747436523,-0.46388715505599976
1695713218129026800,7.02502685546875,-10.722137451171875,3.4275646209716797,-1.468198299407959
1695713218148130800,7.044130859375,-8.148622512817383,-0.6507387161254883,0.12607687711715698
1695713218167204400,7.063204345703125,-6.535233974456787,-1.8745288848876953,0.3058936595916748
1695713218186308400,7.082308349609375,-4.795453071594238,-1.816305160522461,0.4496389627456665
1695713218205382000,7.1013818359375,-3.7155861854553223,-1.6917357444763184,-0.20106351375579834
1695713218224486000,7.12048583984375,-4.317104339599609,-1.8108301162719727,-0.7288466691970825
1695713218243590000,7.13958984375,-5.765655994415283,-2.623037815093994,-0.4975302219390869
1695713218262694000,7.15869384765625,-6.046975135803223,-3.6389594078063965,0.03747677803039551
1695713218281798000,7.1777978515625,-5.3546953201293945,-4.454959392547607,0.44313085079193115
1695713218300871200,7.19687109375,-4.357943534851074,-4.68230676651001,0.5442897081375122
1695713218319975200,7.21597509765625,-3.6397781372070312,-4.033613204956055,0.3766956329345703
1695713218339048700,7.235048583984375,-2.435662269592285,-2.5486531257629395,0.7097972631454468
1695713218358152700,7.254152587890625,-0.05542945861816406,0.9267430305480957,1.3756953477859497
1695713218377226200,7.273226318359375,3.9601168632507324,7.26561164855957,3.3507044315338135
1695713218396330200,7.292330322265625,3.8306074142456055,14.168621063232422,3.880023717880249
1695713218415403800,7.31140380859375,4.378958702087402,12.904786109924316,0.4551053047180176
1695713218434507800,7.3305078125,0.802192211151123,0.518404483795166,-0.7683733701705933
1695713218453611800,7.34961181640625,-1.286149024963379,-9.137474060058594,-0.9738208055496216
1695713218472685300,7.368685302734375,-0.7564697265625,-6.988860130310059,-1.148185133934021
1695713218491789300,7.387789306640625,3.226010799407959,5.132406711578369,0.7171779870986938
1695713218510862800,7.40686279296875,-5.372554302215576,17.528976440429688,-1.3507347106933594
1695713218529997300,7.425997314453125,-9.853824615478516,11.574349403381348,-2.1041464805603027
1695713218549070800,7.44507080078125,-3.924370765686035,-6.4751877784729,4.123167991638184
1695713218568174800,7.4641748046875,-11.05311107635498,-11.588886260986328,0.37326371669769287
1695713218587248000,7.483248046875,-3.6087307929992676,-3.0831375122070312,0.6658898591995239
1695713218606352100,7.50235205078125,-6.813830375671387,7.810174942016602,3.3689117431640625
1695713218625456000,7.5214560546875,-8.722858428955078,9.53170108795166,4.081436634063721
1695713218644529700,7.54052978515625,-3.785947322845459,4.445128440856934,1.0787681341171265
1695713218663633700,7.559633544921875,-1.0967960357666016,-0.872349739074707,-2.170630693435669
1695713218682707200,7.578707275390625,-2.902034044265747,-2.886429786682129,-1.1607943773269653
1695713218701841700,7.597841552734375,-6.6705732345581055,-1.1368322372436523,0.7963123321533203
1695713218720884700,7.616884765625,-5.6561760902404785,0.6267108917236328,1.7466522455215454
1695713218739988700,7.63598876953125,-1.8216867446899414,-0.5132532119750977,1.8331173658370972
1695713218759062300,7.655062255859375,-1.9543943405151367,-1.797372817993164,1.7078996896743774
1695713218778166300,7.674166259765625,-4.149024963378906,-1.3730926513671875,1.233361005783081
1695713218797270300,7.693270263671875,-3.8837409019470215,-0.6224651336669922,1.1701933145523071
1695713218816374300,7.712374267578125,-1.7906770706176758,-1.239455223083496,1.8044978380203247
1695713218835478300,7.731478271484375,-0.6697990894317627,-0.5896139144897461,2.8066153526306152
1695713218854551800,7.7505517578125,-1.1154298782348633,-0.1271219253540039,3.077615737915039
1695713218873655800,7.76965576171875,-1.4634671211242676,-0.47154712677001953,2.3267946243286133
1695713218892729000,7.78872900390625,-0.8828339576721191,-0.49212646484375,1.5963938236236572
1695713218911833000,7.8078330078125,0.14268028736114502,0.5277414321899414,1.9495489597320557
1695713218930906600,7.82690673828125,-0.7957733869552612,1.9340133666992188,2.604367971420288
1695713218950010600,7.8460107421875,-2.5657973289489746,1.9510536193847656,4.224818229675293
1695713218969114600,7.865114501953125,-1.9241676330566406,2.6156444549560547,4.0113935470581055
1695713218988188200,7.884188232421875,1.9502612352371216,4.054904937744141,3.1344656944274902
1695713219007292200,7.903292236328125,1.019203543663025,4.416316032409668,3.781873941421509
1695713219026365700,7.92236572265625,-2.919823408126831,5.598113059997559,3.3081016540527344
1695713219045469700,7.9414697265625,-4.572429656982422,4.498435974121094,2.806112289428711
1695713219064543200,7.960543212890625,-3.9408342838287354,2.9555721282958984,1.520601511001587
1695713219083647200,7.979647216796875,-3.0287094116210938,2.025066375732422,-1.320230484008789
1695713219102751200,7.998751220703125,-3.766948699951172,2.2152061462402344,-3.4501233100891113
1695713219121855200,8.017855224609375,-3.774833917617798,4.393154144287109,-3.973214626312256
1695713219140928800,8.0369287109375,-0.7180194854736328,6.274336814880371,-2.2335264682769775
1695713219160032800,8.05603271484375,1.296654224395752,5.480623245239258,0.4009222984313965
1695713219179136800,8.07513671875,-4.194158554077148,4.3434553146362305,0.2786914110183716
1695713219198210000,8.0942099609375,-9.519891738891602,4.187902450561523,-0.9214775562286377
1695713219217314000,8.11331396484375,-10.359704971313477,1.5434460639953613,0.10803365707397461
1695713219236387600,8.1323876953125,-5.53227424621582,-0.9522585868835449,1.58644437789917
1695713219255491600,8.15149169921875,-4.426414489746094,-1.740394115447998,1.2391777038574219
1695713219274565000,8.170565185546875,-5.551234245300293,-2.411189079284668,0.31032252311706543
1695713219293669000,8.189669189453125,-5.436277389526367,-2.8848304748535156,-0.5694119930267334
1695713219312742700,8.20874267578125,-5.241222858428955,-3.2604832649230957,-0.6434991359710693
1695713219331846700,8.2278466796875,-5.499481201171875,-3.950472354888916,-0.09603190422058105
1695713219350950700,8.24695068359375,-5.140857696533203,-4.777071952819824,0.28003251552581787
1695713219370024200,8.266024169921875,-4.064301490783691,-5.306437015533447,0.5358433723449707
1695713219389158700,8.28515869140625,-3.2866406440734863,-4.95767879486084,0.7159183025360107
1695713219408232200,8.304232177734375,-2.6062111854553223,-3.4120101928710938,1.2803318500518799
1695713219427336200,8.323336181640625,-0.848792552947998,0.02891683578491211,1.797102451324463
1695713219446409700,8.34240966796875,1.876655101776123,5.969457626342773,2.4988551139831543
1695713219465513700,8.361513671875,4.834253787994385,15.983482360839844,2.698625326156616
1695713219484587000,8.3805869140625,9.377079963684082,16.025592803955078,-0.6422872543334961
1695713219503691000,8.39969091796875,0.6781201362609863,-0.6103086471557617,-1.6270923614501953
1695713219522795000,8.418794921875,-2.2949581146240234,-12.784452438354492,-1.4910056591033936
1695713219541868500,8.43786865234375,-1.1716747283935547,-9.536833763122559,-0.6736350059509277
1695713219560972500,8.45697265625,-1.3583712577819824,7.417766571044922,-0.12854313850402832
1695713219580046000,8.476046142578125,-10.39606761932373,20.5950984954834,-2.922858238220215
1695713219599150000,8.495150146484375,-3.0878562927246094,9.692768096923828,3.673341751098633
1695713219618223600,8.5142236328125,-13.37700080871582,-8.6874361038208,3.349591016769409
1695713219637327600,8.53332763671875,-2.2306947708129883,-9.957723617553711,-0.43358516693115234
1695713219656401200,8.552401123046875,-3.792954444885254,1.6860990524291992,0.4622023105621338
1695713219675535600,8.57153564453125,-8.602407455444336,8.827546119689941,2.5601375102996826
1695713219694639600,8.5906396484375,-4.925449848175049,7.464261054992676,3.8691442012786865
1695713219713713200,8.609713134765625,-2.4717159271240234,1.969386100769043,0.48760223388671875
1695713219732817200,8.628817138671875,-2.4115383625030518,-1.5026969909667969,-0.351442813873291
1695713219751890700,8.647890625,-6.065093994140625,-2.0781478881835938,0.9477841854095459
1695713219770994700,8.66699462890625,-5.764440536499023,-1.2382688522338867,1.4215664863586426
1695713219790068000,8.68606787109375,-2.0731115341186523,-0.87701416015625,0.8453431129455566
1695713219809172000,8.705171875,-1.831012487411499,-1.8521413803100586,0.7208447456359863
1695713219828245500,8.72424560546875,-3.3045971393585205,-1.7511653900146484,0.3843343257904053
1695713219847349500,8.743349609375,-3.692497491836548,-1.1155261993408203,0.8920047283172607
1695713219866453500,8.76245361328125,-2.0986979007720947,-0.7782135009765625,1.694674015045166
1695713219885527000,8.781527099609375,-0.6846542358398438,-0.9948158264160156,2.347167491912842
1695713219904631000,8.800631103515625,-0.6500275135040283,-0.8937625885009766,2.7986626625061035
1695713219923704600,8.81970458984375,-0.818273663520813,-0.06769371032714844,3.0037364959716797
1695713219942808600,8.83880859375,-0.5693295001983643,0.41883087158203125,3.086054801940918
1695713219961912600,8.85791259765625,-0.7366926670074463,1.094895362854004,2.7800967693328857
1695713219981016600,8.8770166015625,-0.9277728796005249,2.126251220703125,2.3698408603668213
1695713220000090000,8.896090087890625,-1.3108410835266113,2.2727279663085938,3.1004207134246826
1695713220019194000,8.915194091796875,-0.47497838735580444,3.1206130981445312,2.976792812347412
1695713220038267600,8.934267578125,2.090003252029419,3.8438901901245117,2.1997487545013428
1695713220057371600,8.95337158203125,1.2153949737548828,3.5429563522338867,2.5609657764434814
1695713220076475600,8.9724755859375,-1.5815606117248535,4.338275909423828,2.8451170921325684
1695713220095549000,8.991548828125,-4.329982280731201,4.766777038574219,3.8416264057159424
1695713220114653000,9.01065283203125,-4.944304466247559,3.724781036376953,3.2356724739074707
1695713220133726500,9.0297265625,-3.5070624351501465,1.5058012008666992,0.425764799118042
1695713220152830500,9.04883056640625,-2.315685987472534,0.5854101181030273,-3.5943126678466797
1695713220171904000,9.067904052734375,-2.847182035446167,3.4931983947753906,-5.113697052001953
1695713220191008000,9.087008056640625,-1.6418485641479492,5.861509323120117,-3.7602484226226807
1695713220210081500,9.10608154296875,0.6546635627746582,5.3234357833862305,-0.4034864902496338
1695713220229185500,9.125185546875,-1.7727231979370117,3.595391273498535,0.40800023078918457
1695713220248320000,9.144320068359375,-8.1650390625,3.3327102661132812,-0.5757578611373901
1695713220267393500,9.1633935546875,-11.446625709533691,2.569051742553711,-0.24068689346313477
1695713220286497500,9.18249755859375,-7.17238712310791,-0.7201385498046875,2.090524196624756
1695713220305571000,9.201571044921875,-4.986578464508057,-1.9268989562988281,2.047419786453247
1695713220324675000,9.220675048828125,-3.658614158630371,-1.9501709938049316,1.49228835105896
1695713220343748600,9.23974853515625,-4.2283525466918945,-2.1070003509521484,0.04319262504577637
1695713220362852600,9.2588525390625,-4.785747051239014,-2.1152257919311523,-0.9166011810302734
1695713220381926000,9.27792578125,-5.242398738861084,-2.7262282371520996,-0.5943999290466309
1695713220401060600,9.297060546875,-5.269690990447998,-3.602375030517578,0.08224153518676758
1695713220420134000,9.3161337890625,-4.574742317199707,-4.097836494445801,0.5762431621551514
1695713220439207400,9.33520751953125,-3.491281032562256,-4.20279598236084,0.9322977066040039
1695713220458311400,9.3543115234375,-2.969784736633301,-3.6201577186584473,1.0847206115722656
1695713220477385000,9.373385009765625,-2.147090435028076,-2.3072509765625,1.3471641540527344
1695713220496489000,9.392489013671875,0.10610342025756836,0.2759733200073242,1.3741509914398193
1695713220515562500,9.4115625,4.815068244934082,5.6095380783081055,2.1707191467285156
1695713220534697000,9.430697021484375,6.589987277984619,12.447450637817383,2.6947407722473145
1695713220553770500,9.4497705078125,5.630296230316162,13.305196762084961,0.18564867973327637
1695713220572874500,9.46887451171875,0.605781078338623,3.0884695053100586,-0.7904808521270752
1695713220591978500,9.487978515625,-0.15776872634887695,-9.076665878295898,1.0225169658660889
1695713220611052000,9.507052001953125,-0.7337503433227539,-13.063653945922852,1.5695099830627441
1695713220630156000,9.526156005859375,-1.3842334747314453,-7.302170753479004,-0.07741665840148926
1695713220649229300,9.545229248046875,-0.3738093376159668,7.155857563018799,-1.606008529663086
1695713220668333600,9.56433349609375,-3.880326747894287,22.867334365844727,-5.053178787231445
1695713220687406800,9.58340673828125,-5.292062282562256,18.13176727294922,-5.015083312988281
1695713220706510800,9.6025107421875,-8.867088317871094,-7.8065185546875,3.9622013568878174
1695713220725584400,9.62158447265625,-8.372276306152344,-14.746801376342773,-0.11527085304260254
1695713220744688400,9.6406884765625,0.8644728660583496,-6.011228561401367,1.9160878658294678
1695713220763792400,9.65979248046875,-6.207711219787598,6.526080131530762,3.7343978881835938
1695713220782866000,9.678865966796875,-8.929851531982422,11.416810035705566,3.311455726623535
1695713220801970000,9.697969970703125,-4.856718063354492,6.884748458862305,1.9594218730926514
1695713220821074000,9.717073974609375,-1.0365660190582275,-0.3208284378051758,-0.929025411605835
1695713220840178000,9.736177978515625,-0.9502356052398682,-3.031449317932129,-1.1909315586090088
1695713220859251500,9.75525146484375,-5.6366496086120605,-3.2716712951660156,0.2679123878479004
1695713220878355500,9.77435546875,-6.882479667663574,-1.2148923873901367,1.0591228008270264
1695713220897429000,9.793428955078125,-2.469881296157837,0.10272407531738281,1.6883292198181152
1695713220916533000,9.812532958984375,-0.06604433059692383,-0.16778182983398438,1.8022253513336182
1695713220935606300,9.831606201171875,-1.9263663291931152,-0.9113368988037109,1.6347732543945312
1695713220954710300,9.850710205078125,-4.425690174102783,-1.3211336135864258,1.8253865242004395
1695713220973814300,9.869814208984375,-3.289151668548584,-1.298929214477539,2.0218114852905273
1695713220992887800,9.8888876953125,-1.263047695159912,-0.9645814895629883,2.098810911178589
1695713221011991800,9.90799169921875,-0.8952233791351318,-0.9649953842163086,1.705291748046875
1695713221031065300,9.9270654296875,-1.1277996301651,-0.8479928970336914,1.0484046936035156
1695713221050169300,9.94616943359375,-0.40662604570388794,-0.12507343292236328,0.5981569290161133
1695713221069243000,9.965242919921875,0.5579741597175598,0.29572391510009766,1.3307316303253174
1695713221088347000,9.984346923828125,-0.33181577920913696,1.3239803314208984,2.3193931579589844
1695713221107451000,10.003450927734375,-0.28838473558425903,2.586359977722168,2.206374406814575
1695713221126555000,10.022554931640625,0.3839859366416931,2.4268150329589844,2.150705337524414
1695713221145659000,10.041658935546875,-0.04700136184692383,2.380293846130371,1.8221735954284668
1695713221164732400,10.060732421875,0.25920993089675903,2.9056310653686523,2.0215654373168945
1695713221183836400,10.07983642578125,0.1612699031829834,4.222158432006836,3.7439768314361572
1695713221202910000,10.098909912109375,-1.3259634971618652,5.714437484741211,4.807956218719482
1695713221222014000,10.118013916015625,-3.490291118621826,4.8522748947143555,4.300076484680176
1695713221241087200,10.137087158203125,-3.841212511062622,2.5051870346069336,1.7553386688232422
1695713221260191200,10.156191162109375,-2.4578962326049805,0.15419483184814453,-1.4715969562530518
1695713221279264800,10.1752646484375,-2.4906179904937744,1.2664356231689453,-3.3634183406829834
1695713221298368800,10.19436865234375,-3.511648654937744,3.9630374908447266,-3.320178985595703
1695713221317472800,10.21347265625,-2.772209405899048,5.671996116638184,-2.153348207473755
1695713221336546300,10.23254638671875,1.0287458896636963,4.792304992675781,0.12731266021728516
1695713221355650300,10.251650390625,-0.8391532897949219,3.365780830383301,0.3331763744354248
1695713221374723800,10.270723876953125,-7.191474437713623,3.3513174057006836,-0.8040871620178223
1695713221393858300,10.2898583984375,-11.041471481323242,2.8985347747802734,-0.5316920280456543
1695713221412931800,10.308931884765625,-7.080374717712402,0.017713546752929688,2.1023712158203125
1695713221432035800,10.328035888671875,-4.121013641357422,-0.8061032295227051,2.3395817279815674
1695713221451109400,10.347109375,-4.551860332489014,-1.5143799781799316,1.1841471195220947
1695713221470213400,10.36621337890625,-4.860693454742432,-1.80731201171875,-0.26140904426574707
1695713221489317400,10.3853173828125,-5.345489978790283,-2.309208869934082,-0.7261834144592285
1695713221508391000,10.404390869140625,-5.712016582489014,-3.4207887649536133,-0.1058659553527832
1695713221527495000,10.423494873046875,-5.19912576675415,-4.491519451141357,0.5949051380157471
1695713221546568200,10.442568115234375,-4.323644638061523,-5.025691509246826,0.9082105159759521
1695713221565672200,10.461672119140625,-3.498112201690674,-4.8287739753723145,0.9505221843719482
1695713221584745700,10.480745849609375,-2.8687281608581543,-3.9237585067749023,0.8590481281280518
1695713221603849700,10.499849609375,-1.7285709381103516,-2.0463552474975586,1.0392439365386963
1695713221622923300,10.51892333984375,0.5717191696166992,1.2771873474121094,0.9148061275482178
1695713221642027300,10.53802734375,3.62172269821167,7.022104263305664,1.3269579410552979
1695713221661131300,10.55713134765625,3.609954833984375,12.464628219604492,0.30812835693359375
1695713221680235300,10.5762353515625,7.283689498901367,10.768632888793945,-1.5327720642089844
1695713221699339300,10.59533935546875,2.261630058288574,-0.6426186561584473,-1.1083157062530518
1695713221718412800,10.614412841796875,-2.0187392234802246,-10.012081146240234,-0.05759930610656738
1695713221737516800,10.633516845703125,-1.2767038345336914,-9.536605834960938,0.07930922508239746
1695713221756590300,10.65259033203125,1.2914118766784668,1.2180252075195312,1.4455444812774658
1695713221775694300,10.6716943359375,1.4273791313171387,16.820831298828125,-0.15795326232910156
1695713221794768000,10.690767822265625,-12.788016319274902,19.806987762451172,-4.492364406585693
1695713221813871900,10.709871826171875,-4.6326446533203125,-1.2387018203735352,2.61952543258667
1695713221832945200,10.728945068359375,-11.60534381866455,-14.548105239868164,1.2192051410675049
1695713221852049200,10.748049072265625,1.6699495315551758,-9.62336254119873,0.31446266174316406
1695713221871153200,10.767153076171875,-4.095329284667969,4.0480804443359375,2.006864309310913
1695713221890226700,10.786226806640625,-9.729679107666016,10.79201602935791,2.5940310955047607
1695713221909330700,10.80533056640625,-6.842569351196289,7.511066436767578,2.125671625137329
1695713221928404200,10.824404296875,-1.5155963897705078,0.2843952178955078,-0.7567968368530273
1695713221947508200,10.84350830078125,-0.5937438011169434,-2.652921676635742,-0.13764595985412598
1695713221966612200,10.8626123046875,-4.5951433181762695,-2.3878860473632812,1.565300464630127
1695713221985716200,10.88171630859375,-4.634000778198242,-0.6773967742919922,1.6088125705718994
1695713222004789800,10.900789794921875,-1.7879958152770996,-0.32891178131103516,1.466306209564209
1695713222023893800,10.919893798828125,-0.9673581123352051,-1.756697654724121,1.9180197715759277
1695713222042997800,10.938997802734375,-2.846686840057373,-1.435502052307129,1.7140991687774658
1695713222062071300,10.9580712890625,-3.3189749717712402,-0.5965261459350586,1.4653143882751465
1695713222081175300,10.97717529296875,-1.6189768314361572,-0.6223545074462891,1.6236774921417236
1695713222100279300,10.996279296875,-0.3988720178604126,-0.8429050445556641,1.9734864234924316
1695713222119352800,11.015352783203125,0.0025190114974975586,-0.3888568878173828,2.1935946941375732
1695713222138426000,11.034426025390625,-0.007305026054382324,0.1414175033569336,2.2374207973480225
1695713222157530000,11.053530029296875,0.0667656660079956,0.39856433868408203,2.4569737911224365
1695713222176603600,11.072603759765625,-0.12103825807571411,0.9771156311035156,2.7224855422973633
1695713222195707600,11.091707763671875,-0.7216375470161438,2.1115055084228516,2.639556884765625
1695713222214811600,11.110811767578125,-0.9888406991958618,2.3768043518066406,3.2852747440338135
1695713222233885200,11.12988525390625,-0.9310975074768066,2.60007381439209,3.513455629348755
1695713222253019600,11.14901953125,1.461837887763977,3.9965286254882812,2.5572893619537354
1695713222272093200,11.16809326171875,2.3207106590270996,4.098598480224609,2.729198455810547
1695713222291197200,11.187197265625,-0.35634368658065796,4.140192985534668,3.228079319000244
1695713222310270700,11.206270751953125,-3.3039426803588867,4.107914924621582,3.716189384460449
1695713222329374700,11.225374755859375,-3.73486328125,3.4102611541748047,2.675739049911499
1695713222348448300,11.2444482421875,-2.074794054031372,1.0078315734863281,0.004944801330566406
1695713222367552300,11.26355224609375,-1.688202977180481,1.2182130813598633,-3.2639918327331543
1695713222386656300,11.28265625,-2.755096673965454,3.7345218658447266,-4.397570610046387
1695713222405729800,11.301729736328125,-2.4609920978546143,5.482809066772461,-3.4582674503326416
1695713222424833800,11.320833740234375,0.726203441619873,5.392773628234863,-0.875725269317627
1695713222443907000,11.339906982421875,-0.055657148361206055,3.7739057540893555,0.30652403831481934
1695713222463011000,11.359010986328125,-6.162904739379883,3.05523681640625,-0.0007808208465576172
1695713222482084600,11.378084716796875,-10.392034530639648,2.9862051010131836,0.08901095390319824
1695713222501188600,11.397188720703125,-8.227426528930664,-0.22176361083984375,2.048351526260376
1695713222520262100,11.41626220703125,-4.373904705047607,-1.7926764488220215,2.244521379470825
1695713222539396600,11.435396728515625,-3.7801175117492676,-2.079862594604492,1.5247411727905273
1695713222558500600,11.45450048828125,-4.460824966430664,-2.058868885040283,0.47655653953552246
1695713222577574100,11.47357421875,-4.859604358673096,-2.006702423095703,-0.2742173671722412
1695713222596678100,11.49267822265625,-5.292840003967285,-2.761293411254883,-0.12323641777038574
1695713222615751700,11.511751708984375,-4.889871120452881,-3.8374648094177246,0.4593813419342041
1695713222634855700,11.530855712890625,-4.206048011779785,-4.450302600860596,0.8683743476867676
1695713222653929200,11.54992919921875,-3.1392822265625,-4.696529388427734,1.1307001113891602
1695713222673033200,11.569033203125,-2.3126068115234375,-4.411191940307617,1.301710844039917
1695713222692138500,11.588138427734375,-1.9100961685180664,-3.3614344596862793,1.4632353782653809
1695713222711242500,11.607242431640625,-0.6016712188720703,-0.7861871719360352,1.3389999866485596
1695713222730316000,11.62631591796875,2.6607518196105957,3.909274101257324,0.8304269313812256
1695713222749420000,11.645419921875,4.939474582672119,10.211653709411621,0.6769709587097168
1695713222768524000,11.66452392578125,5.356472492218018,13.011110305786133,-0.6962120532989502
1695713222787597600,11.68359765625,6.354022026062012,5.464495658874512,-0.7543606758117676
1695713222806701600,11.70270166015625,-1.4794297218322754,-6.4850873947143555,0.5575559139251709
1695713222825805600,11.7218056640625,-0.9003839492797852,-10.854020118713379,0.5765223503112793
1695713222844909600,11.74090966796875,0.8538203239440918,-4.15220832824707,1.0579795837402344
1695713222863983000,11.759983154296876,4.429743766784668,10.843766212463379,-0.30137133598327637
1695713222883087000,11.779087158203126,-7.640973091125488,20.02382469177246,-3.6542859077453613
1695713222902160600,11.79816064453125,-8.821083068847656,5.903382301330566,-1.9502155780792236
1695713222921264600,11.8172646484375,-7.795008659362793,-12.862116813659668,3.2726125717163086
1695713222940368600,11.83636865234375,-6.3865966796875,-13.32822322845459,-2.0159997940063477
1695713222959442200,11.855442138671876,0.6222097873687744,-0.027456283569335938,-0.3001070022583008
1695713222978546200,11.874546142578126,-4.7215423583984375,10.04086971282959,1.7657647132873535
1695713222997619500,11.893619384765625,-7.028085708618164,8.556584358215332,3.070387601852417
1695713223016723500,11.912723388671875,-4.947702407836914,1.133408546447754,0.7241480350494385
1695713223035797000,11.931796875,-2.225651741027832,-1.6316452026367188,-0.3904385566711426
1695713223054901000,11.95090087890625,-3.0166289806365967,-1.059523582458496,1.1289880275726318
1695713223073974500,11.969974609375,-4.171655654907227,-0.495880126953125,1.6443634033203125
1695713223093078500,11.98907861328125,-2.07560396194458,-0.7346086502075195,1.2572219371795654
1695713223112213000,12.008212890625,-1.4693573713302612,-1.2599563598632812,0.9728188514709473
1695713223131286500,12.02728662109375,-2.82076358795166,-1.5115203857421875,0.9684507846832275
1695713223150390500,12.046390625,-1.6951733827590942,-0.8790721893310547,0.5528032779693604
1695713223169464000,12.065464111328126,-0.7812500596046448,-1.1759071350097656,1.345423936843872
1695713223188568000,12.084568115234376,-0.6369463801383972,-1.2698125839233398,2.3569207191467285
1695713223207641600,12.1036416015625,-0.8091908097267151,-0.7446250915527344,2.870145320892334
1695713223226745600,12.12274560546875,0.15294241905212402,-0.12205886840820312,2.876054525375366
1695713223245819100,12.141819091796876,0.9569291472434998,-0.05396747589111328,2.234159231185913
1695713223264923100,12.160923095703126,0.5992590188980103,-0.2453441619873047,1.0285553932189941
1695713223284027100,12.180027099609376,0.8204813003540039,0.6217470169067383,1.3437080383300781
1695713223303100400,12.199100341796875,0.48344719409942627,2.5820388793945312,2.3559162616729736
1695713223322204400,12.218204345703125,0.35735875368118286,3.1403331756591797,2.976170063018799
1695713223341278000,12.23727783203125,0.8239878416061401,3.034052848815918,2.2782328128814697
1695713223360382000,12.2563818359375,1.3749408721923828,3.4232177734375,1.7277491092681885
1695713223379455500,12.27545556640625,0.0056046172976493835,4.588958740234375,2.494699239730835
1695713223398590000,12.29458984375,-1.8696296215057373,4.800238609313965,3.290687084197998
1695713223417663500,12.31366357421875,-3.0765671730041504,3.8421459197998047,2.574489116668701
1695713223436767500,12.332767578125,-2.260120391845703,1.4245796203613281,0.3019425868988037
1695713223455841000,12.351841064453126,-1.8860224485397339,1.638784408569336,-3.2264747619628906
1695713223474945000,12.370945068359376,-2.4207868576049805,3.5500917434692383,-4.951397895812988
1695713223494049000,12.390049072265626,-2.8721673488616943,4.922380447387695,-4.575506687164307
1695713223513122600,12.40912255859375,0.634183406829834,4.76951789855957,-1.933096170425415
1695713223532226600,12.4282265625,-0.953216552734375,3.317318916320801,-0.6757972240447998
1695713223551300000,12.447300048828126,-6.0617289543151855,3.411343574523926,-1.3749334812164307
1695713223570404000,12.466404052734376,-7.028726100921631,2.589506149291992,-0.4598886966705322
1695713223589477400,12.485477294921875,-9.303442001342773,-0.22055912017822266,1.1454224586486816
1695713223608581400,12.504581298828125,-6.105968952178955,-1.4621410369873047,1.759988784790039
1695713223627655000,12.523655029296876,-4.168606281280518,-2.192368984222412,1.3883001804351807
1695713223646759000,12.542759033203126,-3.406157970428467,-2.9197983741760254,0.3569927215576172
1695713223665863000,12.56186279296875,-4.518214225769043,-3.257748603820801,-0.5956711769104004
1695713223684967000,12.580966796875,-5.465569496154785,-3.711409568786621,-0.6277587413787842
1695713223704071000,12.60007080078125,-5.58762788772583,-4.136299133300781,-0.004977226257324219
1695713223723144400,12.61914453125,-4.401618003845215,-4.078934669494629,0.8114283084869385
1695713223742248400,12.63824853515625,-3.2634401321411133,-3.512448787689209,1.344832420349121
1695713223761322000,12.657322021484376,-2.783522605895996,-2.893618106842041,1.3705708980560303
1695713223780426000,12.676426025390626,-1.463423252105713,-1.7076869010925293,1.7750957012176514
1695713223799530000,12.695530029296876,1.262777328491211,0.15895652770996094,2.1587769985198975
1695713223818603500,12.714603515625,4.418562412261963,3.9263153076171875,1.763213872909546
1695713223837707500,12.73370751953125,4.46528434753418,9.249621391296387,-0.03311276435852051
1695713223856781000,12.752781005859376,5.025818824768066,9.373672485351562,-1.6465380191802979
1695713223875885000,12.771885009765626,2.4677486419677734,1.8213701248168945,-2.5089261531829834
1695713223894958300,12.790958251953125,-0.17125177383422852,-7.465304374694824,-1.4260048866271973
1695713223914062300,12.810062255859375,-1.0984301567077637,-9.590276718139648,-1.25480318069458
1695713223933136000,12.829135986328126,-1.9166717529296875,-2.6778430938720703,-3.343912124633789
1695713223952239900,12.848239990234376,-2.527468681335449,9.224431991577148,-5.333312034606934
1695713223971344000,12.86734375,0.15561342239379883,20.825237274169922,-4.456864356994629
1695713223990447900,12.88644775390625,3.3302125930786133,9.294265747070312,5.408041000366211
1695713224009552000,12.9055517578125,-14.109994888305664,-8.579657554626465,7.163498401641846
1695713224028625400,12.92462548828125,-9.848196983337402,-12.577387809753418,1.7987372875213623
1695713224047729400,12.9437294921875,-2.1501946449279785,-2.1104536056518555,1.0800580978393555
1695713224066803000,12.962802978515626,-5.818872451782227,7.963900566101074,0.862889289855957
1695713224085907000,12.981906982421876,-6.408966541290283,9.93521785736084,1.517223596572876
1695713224104980500,13.00098046875,-2.8228046894073486,3.738534927368164,0.1436760425567627
1695713224124084500,13.02008447265625,1.147831678390503,-1.7361335754394531,-2.0816454887390137
1695713224143157800,13.03915771484375,-0.7140882015228271,-3.471673011779785,-1.078554630279541
1695713224162261800,13.05826171875,-5.196218490600586,-2.315563201904297,1.2277534008026123
1695713224181335300,13.077335205078125,-5.928739547729492,-0.11149120330810547,2.475687026977539
1695713224200439300,13.096439208984375,-1.9516078233718872,-0.5491847991943359,2.4273416996002197
1695713224219543300,13.115543212890625,-0.966788649559021,-1.610529899597168,1.9586877822875977
1695713224238616800,13.134616943359376,-2.218555450439453,-1.166855812072754,1.5964295864105225
1695713224257751300,13.153751220703125,-2.1205523014068604,-0.2930469512939453,1.78391695022583
1695713224276824800,13.172824951171876,-0.9064452648162842,-0.12924861907958984,2.1296632289886475
1695713224295928800,13.1919287109375,-0.09467315673828125,-0.1356363296508789,2.2109081745147705
1695713224315002400,13.21100244140625,0.1899479627609253,-0.08819103240966797,2.0127127170562744
1695713224334106400,13.2301064453125,-0.049907803535461426,-0.11031627655029297,1.5907373428344727
1695713224353180000,13.249179931640626,0.052536725997924805,0.19423866271972656,1.2185399532318115
1695713224372284000,13.268283935546876,0.474895179271698,0.3948783874511719,1.621845006942749
1695713224391388000,13.287387939453126,-0.5981248021125793,1.265310287475586,2.3324811458587646
1695713224410461400,13.30646142578125,-1.053735375404358,1.9695005416870117,2.644660472869873
1695713224429565400,13.3255654296875,-0.5683515071868896,1.7406244277954102,3.0596654415130615
1695713224448638700,13.344638671875,0.49015724658966064,2.302570343017578,1.8736646175384521
1695713224467742700,13.36374267578125,2.2842040061950684,3.1451969146728516,1.0095479488372803
1695713224486816300,13.382816162109375,1.3954726457595825,3.252208709716797,2.247886896133423
1695713224505920300,13.401920166015625,-1.1756999492645264,4.074135780334473,3.8039040565490723
1695713224524993800,13.420993896484376,-3.487032890319824,4.018801689147949,4.596983909606934
1695713224544128300,13.440128173828125,-2.959726572036743,2.3563528060913086,2.7630362510681152
1695713224563232300,13.459232177734375,-1.94294011592865,0.6548576354980469,-0.6232872009277344
1695713224582305800,13.478305908203126,-1.6395634412765503,1.362344741821289,-4.540033340454102
1695713224601409800,13.497409912109376,-1.5503673553466797,3.009775161743164,-5.851278305053711
1695713224620483300,13.5164833984375,-0.005950450897216797,4.532968521118164,-3.586902379989624
1695713224639587300,13.53558740234375,0.6885669231414795,4.483835220336914,0.061437368392944336
1695713224658660900,13.554660888671876,-2.0409977436065674,3.6225767135620117,0.5518994331359863
1695713224677764900,13.573764892578126,-4.375961780548096,3.5726118087768555,0.011283159255981445
1695713224696838400,13.59283837890625,-12.2623291015625,2.3010196685791016,0.07906699180603027
1695713224715942400,13.6119423828125,-9.89596939086914,0.09589099884033203,0.5488288402557373
1695713224735076900,13.631076904296876,-3.8538260459899902,-1.4793314933776855,1.522810459136963
1695713224754119700,13.65011962890625,-1.8350892066955566,-1.6638450622558594,1.1068999767303467
1695713224773223700,13.6692236328125,-3.398893356323242,-1.675346851348877,0.17041683197021484
1695713224792297200,13.688297119140625,-5.148155212402344,-1.5619440078735352,-0.599212646484375
1695713224811401200,13.707401123046875,-6.145036697387695,-1.5132150650024414,-0.6530604362487793
1695713224830505200,13.726505126953125,-5.476358890533447,-1.9641709327697754,-0.1253821849822998
1695713224849609200,13.745609130859375,-3.4254283905029297,-2.72210693359375,0.3764481544494629
1695713224868682800,13.764682861328126,-1.500978946685791,-3.3564085960388184,0.34173154830932617
1695713224887786800,13.783786865234376,-1.319706916809082,-3.302706241607666,0.1448965072631836
1695713224906860300,13.8028603515625,-1.6772193908691406,-2.8573126792907715,0.4745523929595947
1695713224925964300,13.82196435546875,-1.0846376419067383,-2.2089219093322754,0.7968108654022217
1695713224945068300,13.841068359375,0.2297959327697754,-0.4586038589477539,1.2157468795776367
1695713224964141800,13.860141845703126,1.4436883926391602,1.718501091003418,1.4451379776000977
1695713224983245800,13.879245849609376,1.9726009368896484,4.160579681396484,1.6049435138702393
1695713225002319400,13.8983193359375,2.5251312255859375,5.615454196929932,2.5506434440612793
1695713225021423400,13.91742333984375,4.393606662750244,5.570457458496094,2.196239471435547
1695713225040496600,13.93649658203125,3.121544361114502,2.619479179382324,0.814359188079834
1695713225059600600,13.9556005859375,-1.2258028984069824,-1.8890113830566406,-0.6080832481384277
1695713225078674200,13.974674072265625,-0.3999466896057129,-3.773451805114746,-2.756397247314453
1695713225097778200,13.993778076171875,-0.957247257232666,-1.1705455780029297,-5.272834777832031
1695713225116912600,14.01291259765625,-2.977531909942627,4.970830917358398,-6.022010803222656
1695713225135986200,14.031986083984375,0.04956626892089844,13.541314125061035,-4.6317338943481445
1695713225155090200,14.051090087890625,1.4558296203613281,11.30914306640625,2.0317468643188477
1695713225174163700,14.070163818359376,-12.75802230834961,-5.203956604003906,7.105655670166016
1695713225193267700,14.089267822265626,-13.821447372436523,-10.957991600036621,3.3966848850250244
1695713225212341200,14.10834130859375,-1.7342567443847656,-3.56101131439209,2.6705331802368164
1695713225231445200,14.1274453125,-2.112607479095459,7.77619743347168,0.931663990020752
1695713225250518800,14.146518798828126,-3.643191337585449,9.963519096374512,0.43692612648010254
1695713225269622800,14.165622802734376,-2.8609538078308105,3.694260597229004,0.8698525428771973
1695713225288726800,14.184726806640626,-2.379514455795288,-0.7256202697753906,-0.43298935890197754
1695713225307800300,14.20380029296875,-2.801267147064209,-2.289264678955078,0.36310362815856934
1695713225326904300,14.222904296875,-3.6816565990448,-1.519073486328125,1.3739664554595947
1695713225345977600,14.2419775390625,-4.5336713790893555,0.6759920120239258,1.5548319816589355
1695713225365081600,14.26108154296875,-4.210962295532227,1.8921794891357422,1.3333654403686523
1695713225384155100,14.280155029296875,-2.7695162296295166,0.6996698379516602,1.4937865734100342
1695713225403289600,14.29928955078125,-2.3114020824432373,-0.027329444885253906,1.0163030624389648
1695713225422363100,14.318363037109375,-1.5851211547851562,0.020965576171875,0.7624866962432861
1695713225441467100,14.337467041015625,-0.34269142150878906,0.4539375305175781,0.6044881343841553
1695713225460571100,14.356571044921875,-0.43927836418151855,0.5563688278198242,0.5571169853210449
1695713225479644700,14.375644775390626,-1.2748527526855469,-0.24269771575927734,0.6075692176818848
1695713225498748700,14.394748779296876,-1.617656946182251,-0.3354377746582031,0.43359899520874023
1695713225517822200,14.413822265625,-1.6110033988952637,0.05447578430175781,0.571782112121582
1695713225536926200,14.43292626953125,-0.7793347835540771,0.5174674987792969,1.0562665462493896
1695713225555999700,14.451999755859376,-0.415346622467041,1.0274057388305664,1.3124570846557617
1695713225575103700,14.471103759765626,-1.1357743740081787,1.2765283584594727,1.178084373474121
1695713225594177300,14.49017724609375,-1.5304733514785767,1.178624153137207,0.9344267845153809
1695713225613281300,14.50928125,-1.3221700191497803,0.8450555801391602,0.8328018188476562
1695713225632354600,14.5283544921875,-1.7094638347625732,0.3338642120361328,0.8910326957702637
1695713225651458600,14.54745849609375,-2.831273078918457,-0.10100936889648438,0.9184460639953613
1695713225670562600,14.5665625,-3.4948978424072266,-0.3640737533569336,1.4812278747558594
1695713225689666600,14.58566650390625,-3.391279935836792,-0.29018306732177734,2.641008138656616
1695713225708770600,14.6047705078125,-3.1118054389953613,0.21230316162109375,3.564858913421631
1695713225727844000,14.623843994140625,-3.05745267868042,0.8671321868896484,3.620487928390503
1695713225746948000,14.642947998046875,-2.5070767402648926,0.9452342987060547,3.2844228744506836
1695713225766021600,14.662021728515626,-2.1446094512939453,0.719207763671875,3.0707781314849854
1695713225785125600,14.681125732421876,-2.8863677978515625,0.5885457992553711,2.9767794609069824
1695713225804199200,14.70019921875,-3.656763792037964,0.9486026763916016,2.5052480697631836
1695713225823303200,14.71930322265625,-3.678668975830078,1.4680633544921875,0.9072232246398926
1695713225842407200,14.7384072265625,-2.7320146560668945,1.346384048461914,-1.0965890884399414
1695713225861480700,14.757480712890626,-2.1717262268066406,0.8381137847900391,-2.89581298828125
1695713225880584700,14.776584716796876,-2.0428926944732666,0.32417964935302734,-3.6329147815704346
1695713225899658200,14.795658203125,-2.2410569190979004,-0.19756412506103516,-3.2461836338043213
1695713225918762200,14.81476220703125,-3.344104290008545,-0.11579418182373047,-2.168055772781372
1695713225937835500,14.83383544921875,-4.156524658203125,0.0366973876953125,-1.3529949188232422
1695713225956939500,14.852939453125,-3.625969886779785,-0.044872283935546875,-1.1866323947906494
1695713225976043500,14.87204345703125,-2.5034444332122803,-0.37991905212402344,-1.2967751026153564
1695713225995147500,14.8911474609375,-1.8661353588104248,-0.6468029022216797,-1.3393878936767578
1695713226014251500,14.91025146484375,-1.678429365158081,-0.29742431640625,-1.089561939239502
1695713226033325000,14.929324951171875,-0.6843662261962891,0.10066795349121094,-0.4567115306854248
1695713226052429000,14.948428955078125,0.2179265022277832,0.12792110443115234,0.18299293518066406
1695713226071502600,14.967502685546876,-1.3993041515350342,-0.3518638610839844,0.10384774208068848
1695713226090606600,14.986606689453126,-3.780627965927124,-0.7750911712646484,-0.6262633800506592
1695713226109680000,15.00568017578125,-3.6724257469177246,-1.0509414672851562,-0.7890989780426025
1695713226128784100,15.0247841796875,-2.293562889099121,-1.2218208312988281,-0.5998678207397461
1695713226147857700,15.043857666015626,-1.396482229232788,-1.6620674133300781,-0.4264514446258545
1695713226166961700,15.062961669921876,-1.406648874282837,-1.9186897277832031,0.20311808586120605
1695713226186065700,15.082065673828126,-0.9350545406341553,-1.422719955444336,0.12702560424804688
1695713226205139200,15.10113916015625,-0.6940364837646484,-0.4676198959350586,-0.728299617767334
1695713226224243200,15.1202431640625,-1.0468924045562744,0.20287322998046875,-1.093987226486206
1695713226243316500,15.13931640625,-1.3668761253356934,0.44077014923095703,-0.6394984722137451
1695713226262451200,15.158451171875,-1.4575138092041016,0.8885564804077148,-0.034079551696777344
1695713226281524500,15.1775244140625,-0.737640380859375,1.8889989852905273,0.4414033889770508
1695713226300628500,15.19662841796875,0.03218555450439453,3.7375659942626953,0.11203169822692871
1695713226319702000,15.215701904296875,0.7264871597290039,4.573365211486816,-0.5124862194061279
1695713226338806000,15.234805908203125,0.6222562789916992,1.9671545028686523,-0.7923989295959473
1695713226357879600,15.253879638671876,0.6246719360351562,-1.2801127433776855,-0.18216800689697266
1695713226376983600,15.272983642578126,-2.7488298416137695,-3.3570709228515625,0.03434586524963379
1695713226396087600,15.292087646484376,-4.2945685386657715,-3.3054556846618652,-0.18984627723693848
1695713226415161000,15.3111611328125,-0.3764677047729492,-0.06447458267211914,0.26861071586608887
1695713226434295600,15.330295654296876,0.7269062995910645,3.275169849395752,0.5939297676086426
1695713226453338600,15.349338623046876,-1.2567272186279297,3.7148590087890625,0.41347360610961914
1695713226472442600,15.368442626953126,-1.9424023628234863,1.5256571769714355,-0.06526303291320801
1695713226491516200,15.38751611328125,-1.0063481330871582,-0.7147126197814941,-0.0635068416595459
1695713226510620200,15.4066201171875,-1.1477036476135254,-1.404712200164795,-0.18154287338256836
1695713226529693400,15.425693359375,-1.7529006004333496,-0.9237866401672363,-0.6554670333862305
1695713226548828200,15.444828125,-1.2740364074707031,0.11044692993164062,-0.5182592868804932
1695713226567932200,15.46393212890625,-0.6928563117980957,0.913670539855957,-0.24726009368896484
1695713226587005400,15.48300537109375,-0.8722848892211914,0.9096598625183105,-0.4100182056427002
1695713226606109400,15.502109375,-1.3672504425048828,0.6277942657470703,-0.407850980758667
1695713226625183000,15.521182861328125,-1.2408180236816406,0.5490579605102539,-0.16244029998779297
1695713226644287000,15.540286865234375,-1.0048112869262695,0.32487964630126953,-0.04696989059448242
1695713226663360500,15.559360595703126,-1.264805793762207,0.03409624099731445,-0.2240891456604004
1695713226682464500,15.578464599609376,-1.092958927154541,0.027584075927734375,-0.2426917552947998
1695713226701538000,15.5975380859375,-0.760319709777832,0.672783374786377,-0.19269728660583496
1695713226720642000,15.61664208984375,-0.8277420997619629,1.2584810256958008,-0.15803933143615723
1695713226739746000,15.63574609375,-1.3793425559997559,1.1812505722045898,-0.2685403823852539
1695713226758819600,15.654819580078126,-1.2731642723083496,0.992307186126709,-0.44474029541015625
1695713226777923600,15.673923583984376,-0.7443265914916992,0.8942246437072754,-0.3694593906402588
1695713226796997000,15.6929970703125,-0.8946056365966797,0.9103350639343262,-0.12886500358581543
1695713226816101000,15.71210107421875,-1.0082769393920898,1.2462000846862793,0.028304100036621094
1695713226835205000,15.731205078125,-0.8586587905883789,1.5493764877319336,0.002763032913208008
1695713226854309000,15.75030908203125,-1.056304931640625,1.1895966529846191,-0.4481394290924072
1695713226873382400,15.76938232421875,-0.7362689971923828,1.1488041877746582,-0.7041769027709961
1695713226892486400,15.788486328125,-0.8534126281738281,1.164515495300293,-0.5485036373138428
1695713226911590400,15.80759033203125,-1.0103607177734375,1.1612968444824219,-0.3656306266784668
1695713226930664000,15.826663818359375,-1.0550737380981445,1.298666000366211,-0.17855548858642578
1695713226949768000,15.845767822265625,-0.842900276184082,1.3076002597808838,-0.07404756546020508
1695713226968841500,15.864841552734376,-0.6868448257446289,1.2781593799591064,-0.29802966117858887
1695713226987945500,15.883945556640626,-0.5560226440429688,1.3044896125793457,-0.5373761653900146
1695713227007019000,15.90301904296875,-0.40079498291015625,1.6734979152679443,-0.7305381298065186
1695713227026123000,15.922123046875,-0.566192626953125,1.6941521167755127,-0.6774107217788696
1695713227045196500,15.941196533203126,-0.5404195785522461,1.5934784412384033,-0.6121025085449219
1695713227064300500,15.960300537109376,-0.4188241958618164,1.5649044513702393,-0.5651237964630127
1695713227083373800,15.979373779296875,-0.24800395965576172,1.6017954349517822,-0.3676788806915283
1695713227102477800,15.998477783203125,-0.32373523712158203,1.5605082511901855,-0.4447382688522339
1695713227121612500,16.017612548828126,-0.309234619140625,1.640169620513916,-0.6518902778625488
1695713227140686000,16.03668603515625,-0.26994991302490234,1.7254409790039062,-0.5028582811355591
1695713227159790000,16.0557900390625,-0.4310016632080078,1.4461653232574463,-0.04492926597595215
1695713227178863400,16.07486328125,-0.1789693832397461,1.3986780643463135,0.1095660924911499
1695713227197967400,16.09396728515625,-0.10785293579101562,1.5937103033065796,0.016725897789001465
1695713227217041000,16.113041015625,0.13366317749023438,1.6838523149490356,-0.391421914100647
1695713227236145000,16.132144775390625,0.24246501922607422,1.5771899223327637,-0.6782987117767334
1695713227255218400,16.151218505859376,0.21123886108398438,1.213753581047058,-0.6968969106674194
1695713227274322400,16.170322509765626,0.4220094680786133,0.8311368227005005,-0.593166708946228
1695713227293426400,16.189426513671876,0.9115848541259766,1.025853157043457,-0.7533504962921143
1695713227312500000,16.2085,1.1371049880981445,1.1191027164459229,-1.1252245903015137
1695713227331604000,16.22760400390625,1.4491033554077148,0.671514093875885,-1.3174595832824707
1695713227350677500,16.246677490234376,1.8773784637451172,0.5130575895309448,-1.338839054107666
1695713227369781500,16.265781494140626,1.934530258178711,0.7190905809402466,-1.217775583267212
1695713227388854800,16.284854736328125,1.3359546661376953,1.1966633796691895,-1.2255182266235352
1695713227407989500,16.303989501953126,0.4005460739135742,1.3164054155349731,-1.1058025360107422
1695713227427062800,16.323062744140625,-0.11400127410888672,1.1985441446304321,-1.0133085250854492
1695713227446167000,16.3421669921875,-0.5654582977294922,0.9104676842689514,-0.902212917804718
1695713227465271000,16.36127099609375,-0.5996608734130859,0.45980221033096313,-0.6821710467338562
1695713227484344300,16.38034423828125,-0.35297203063964844,0.20030617713928223,-0.5441300868988037
1695713227503448300,16.3994482421875,-0.10398292541503906,0.5215606689453125,-0.6026510000228882
1695713227522521900,16.41852197265625,-0.041141510009765625,0.9209332466125488,-0.5558769106864929
1695713227541625900,16.4376259765625,-0.0022745132446289062,1.0269287824630737,-0.5148892402648926
1695713227560699400,16.456699462890626,-0.03334808349609375,1.0960943698883057,-0.5276605486869812
1695713227579803400,16.475803466796876,-0.18398571014404297,1.322547197341919,-0.6818417310714722
1695713227598877000,16.494876953125,-0.1990528106689453,1.7052019834518433,-0.8922863006591797
1695713227617981000,16.51398095703125,-0.07751941680908203,1.6486420631408691,-1.0819894075393677
1695713227637054500,16.533054443359376,-0.14496612548828125,1.168860673904419,-1.219322681427002
1695713227656158500,16.552158447265626,-0.03458595275878906,0.889405369758606,-1.1933822631835938
1695713227675262500,16.571262451171876,-0.10987663269042969,1.175081491470337,-1.0653718709945679
1695713227694366500,16.590366455078126,-0.2538747787475586,1.4350595474243164,-1.013676643371582
1695713227713470500,16.609470458984376,-0.6431369781494141,1.3957233428955078,-0.9473606944084167
1695713227732543700,16.628543701171875,-0.81072998046875,1.0920830965042114,-0.7926231622695923
1695713227751648000,16.64764794921875,-0.7387819290161133,0.9095688462257385,-0.6340340375900269
1695713227770721300,16.66672119140625,-0.4783964157104492,0.8239790201187134,-0.603408694267273
1695713227789825300,16.6858251953125,-0.3349161148071289,0.5266964435577393,-0.584997296333313
1695713227808898800,16.70489892578125,-0.42409610748291016,0.21339847147464752,-0.4996868073940277
1695713227828002800,16.7240029296875,-0.6109189987182617,-0.3016573488712311,-0.21347570419311523
1695713227847106800,16.74310693359375,-0.7916364669799805,-0.5635384917259216,0.29982927441596985
1695713227866180400,16.762180419921876,-0.6406183242797852,-0.5087234973907471,0.624640166759491
1695713227885284400,16.781284423828126,-0.4044065475463867,-0.5034526586532593,0.6037875413894653
1695713227904358000,16.80035791015625,0.20859050750732422,-0.5137268900871277,0.5223135948181152
1695713227923462000,16.8194619140625,0.8095741271972656,-0.30710431933403015,0.6119362115859985
1695713227942535400,16.838535400390626,0.5258865356445312,-0.4048813581466675,0.7141246199607849
1695713227961639400,16.857639404296876,0.15735816955566406,-0.45803675055503845,0.7203776836395264
1695713227980743400,16.876743408203126,0.6353416442871094,-0.031843364238739014,0.7234829664230347
1695713227999847400,16.895847412109376,0.40762901306152344,0.6529199481010437,0.4970194101333618
1695713228018951400,16.914951416015626,-0.1640939712524414,1.1192045211791992,0.31041276454925537
1695713228038024700,16.934024658203125,-0.4884376525878906,1.610975980758667,0.04035860300064087
1695713228057128700,16.953128662109375,-0.5601730346679688,1.7731136083602905,0.0023436546325683594
1695713228076202200,16.9722021484375,-0.6977977752685547,1.2298381328582764,0.022608458995819092
1695713228095306200,16.99130615234375,-0.27390289306640625,1.4847067594528198,-0.0716821551322937
1695713228114379800,17.0103798828125,0.1672496795654297,1.4933549165725708,-0.2555614113807678
1695713228133514200,17.02951416015625,0.2689485549926758,1.2043418884277344,-0.4696071147918701
1695713228152557300,17.048557373046876,0.29129695892333984,1.0971180200576782,-0.6613460183143616
1695713228171661300,17.067661376953126,0.11657047271728516,1.0718951225280762,-0.7962343096733093
1695713228190765300,17.086765380859376,-0.1103668212890625,0.933690071105957,-0.9102813601493835
1695713228209838800,17.1058388671875,-0.16492366790771484,0.7498728036880493,-0.9339103698730469
1695713228228942800,17.12494287109375,-0.017545700073242188,0.5784105062484741,-0.7708269357681274
1695713228248016400,17.144016357421876,0.19960880279541016,0.4408147931098938,-0.6693071722984314
1695713228267150800,17.16315087890625,0.20942974090576172,0.395319402217865,-0.6401938199996948
1695713228286224400,17.182224365234376,0.11696338653564453,0.41581153869628906,-0.6079078316688538
1695713228305328400,17.201328369140626,-0.06108665466308594,0.3761894702911377,-0.4869675636291504
1695713228324401700,17.220401611328125,-0.17376041412353516,0.3839183747768402,-0.513205349445343
1695713228343505700,17.239505615234375,-0.11049652099609375,0.5837385654449463,-0.7662613391876221
1695713228362579200,17.2585791015625,-0.06432533264160156,0.8948339223861694,-1.181037187576294
1695713228381683200,17.27768310546875,0.041205406188964844,1.118622899055481,-1.3643653392791748
1695713228400787200,17.296787109375,0.00144195556640625,1.2390393018722534,-1.3110716342926025
1695713228419860700,17.31586083984375,-0.08014392852783203,1.271735668182373,-1.2477540969848633
1695713228438964700,17.33496484375,-0.14381980895996094,1.2960422039031982,-1.139150619506836
1695713228458038300,17.354038330078126,-0.257232666015625,1.295543909072876,-0.9843276143074036
1695713228477142300,17.373142333984376,-0.2717094421386719,1.1434082984924316,-0.8806454539299011
1695713228496215800,17.3922158203125,-0.15163135528564453,0.9346896409988403,-0.9255087971687317
1695713228515319800,17.41131982421875,0.041103363037109375,0.6723412871360779,-0.8786406517028809
1695713228534393300,17.430393310546876,0.0028886795043945312,0.6448367238044739,-0.6432777047157288
1695713228553527800,17.44952783203125,-0.18905925750732422,0.7225865721702576,-0.5686740875244141
1695713228572631800,17.4686318359375,-0.2536125183105469,0.699156641960144,-0.7162654399871826
1695713228591705300,17.487705322265626,-0.22764968872070312,0.6565477252006531,-0.8895620107650757
1695713228610809300,17.506809326171876,-0.10196971893310547,0.6031090617179871,-0.9557125568389893
1695713228629882600,17.525882568359375,0.05082130432128906,0.5967750549316406,-0.9696294069290161
1695713228648986600,17.544986572265625,0.07277488708496094,0.7456721663475037,-0.8664914965629578
1695713228668060200,17.56406005859375,-0.07991886138916016,0.6392714977264404,-0.6422683596611023
1695713228687164200,17.5831640625,-0.2585582733154297,0.7105996608734131,-0.5105644464492798
1695713228706237700,17.60223779296875,-0.23120689392089844,0.782558798789978,-0.44528573751449585
1695713228725341700,17.621341796875,-0.07900142669677734,0.8607243299484253,-0.45778197050094604
1695713228744445700,17.64044580078125,-0.07592201232910156,1.078064203262329,-0.5222830772399902
1695713228763519200,17.659519287109376,-0.06368064880371094,1.039388656616211,-0.5166565775871277
1695713228782623200,17.678623291015626,-0.04446220397949219,0.9350460767745972,-0.5097195506095886
1695713228801696800,17.69769677734375,0.011902809143066406,0.8650920987129211,-0.4959442615509033
1695713228820800800,17.71680078125,-0.049185752868652344,0.8236019611358643,-0.5061076879501343
1695713228839904800,17.73590478515625,-0.11718082427978516,0.7470564246177673,-0.5169820785522461
1695713228859008800,17.7550087890625,-0.14952945709228516,0.708158016204834,-0.4981134235858917
1695713228878082300,17.774082275390626,-0.1285228729248047,0.7497193813323975,-0.46890127658843994
1695713228897186300,17.793186279296876,-0.046843528747558594,0.8071386814117432,-0.41797518730163574
1695713228916259600,17.812259521484375,-0.018561363220214844,0.7937881946563721,-0.4149937629699707
1695713228935363600,17.831363525390625,-0.06392288208007812,0.7494899034500122,-0.48652851581573486
1695713228954467600,17.850467529296875,-0.0831003189086914,0.7687806487083435,-0.5313238501548767
1695713228973541000,17.869541015625,-0.05221366882324219,0.7935782074928284,-0.5171003341674805
1695713228992645000,17.88864501953125,-0.04742145538330078,0.782928466796875,-0.48920148611068726
1695713229011718700,17.90771875,-0.06390094757080078,0.7573092579841614,-0.495072603225708
1695713229030822700,17.92682275390625,-0.08983135223388672,0.8541543483734131,-0.5918285846710205
1695713229049896200,17.945896240234376,-0.11937427520751953,0.7570701241493225,-0.573082685470581
1695713229069000200,17.965000244140626,-0.08826160430908203,0.6840262413024902,-0.5895918607711792
1695713229088073700,17.98407373046875,-0.05121898651123047,0.6752126216888428,-0.5864760279655457
1695713229107177700,18.003177734375,-0.06888866424560547,0.6664764881134033,-0.6072732210159302
1695713229126312200,18.022312255859376,-0.09356403350830078,0.6530977487564087,-0.6213392019271851
1695713229145385700,18.0413857421875,-0.15157222747802734,0.6755510568618774,-0.6720573902130127
1695713229164489700,18.06048974609375,-0.17392730712890625,0.7133684158325195,-0.7155776023864746
1695713229183563300,18.079563232421876,-0.13094615936279297,0.7427475452423096,-0.7629332542419434
1695713229202667300,18.098667236328126,-0.1297006607055664,0.745429277420044,-0.7631559371948242
1695713229221740500,18.117740478515625,-0.1070241928100586,0.7461345791816711,-0.7349230051040649
1695713229240844500,18.136844482421875,-0.12012863159179688,0.7556107640266418,-0.7240110635757446
1695713229259918000,18.15591796875,-0.09520435333251953,0.7482877969741821,-0.6825499534606934
1695713229279022000,18.17502197265625,-0.07026386260986328,0.7320723533630371,-0.6632890701293945
1695713229298126000,18.1941259765625,-0.08699989318847656,0.7118386030197144,-0.6620000600814819
1695713229317199600,18.21319970703125,-0.1812744140625,0.6202000379562378,-0.645160436630249
1695713229336303600,18.2323037109375,-0.17787933349609375,0.6310319900512695,-0.5328215956687927
1695713229355377200,18.251377197265626,-0.07206058502197266,0.7859681844711304,-0.5556114315986633
1695713229374481200,18.270481201171876,-0.031876564025878906,0.7953146696090698,-0.5417671203613281
1695713229393554700,18.2895546875,-0.20841026306152344,0.4631730318069458,-0.46734100580215454
1695713229412689200,18.308689208984376,-0.16707801818847656,0.46270039677619934,-0.47135359048843384
1695713229431762700,18.3277626953125,-0.05061531066894531,0.6556926965713501,-0.5007615685462952
1695713229450866700,18.34686669921875,0.005469322204589844,0.7394328713417053,-0.5471921563148499
1695713229469970700,18.365970703125,-0.04672431945800781,0.6540859937667847,-0.5246609449386597
1695713229489044200,18.385044189453126,-0.04656219482421875,0.6424813270568848,-0.5239553451538086
1695713229508148200,18.404148193359376,-0.038079261779785156,0.7124953269958496,-0.5735611915588379
1695713229527221500,18.423221435546875,-0.049782752990722656,0.7255994081497192,-0.5925736427307129
1695713229546325500,18.442325439453125,-0.11856269836425781,0.7456387281417847,-0.6029472351074219
1695713229565399000,18.46139892578125,-0.13490772247314453,0.7259038686752319,-0.5441875457763672
1695713229584503000,18.4805029296875,-0.12034320831298828,0.7116244435310364,-0.47783005237579346
1695713229603576600,18.49957666015625,-0.09879493713378906,0.6997241973876953,-0.4715971052646637
1695713229622680600,18.5186806640625,-0.10962104797363281,0.6565685272216797,-0.47747835516929626
1695713229641754000,18.537754150390626,-0.09556102752685547,0.5773018598556519,-0.4845808744430542
1695713229660858000,18.556858154296876,-0.09815597534179688,0.5404738187789917,-0.4843868315219879
1695713229679962000,18.575962158203126,-0.1102914810180664,0.5175145864486694,-0.4927349090576172
1695713229699066000,18.595066162109376,-0.09501266479492188,0.5599297285079956,-0.5378899574279785
1695713229718170000,18.614170166015626,-0.06192779541015625,0.6548646688461304,-0.573035717010498
1695713229737243600,18.63324365234375,-0.060973167419433594,0.6664974689483643,-0.5770351886749268
1695713229756347600,18.65234765625,-0.03723907470703125,0.6666276454925537,-0.5828144550323486
1695713229775421200,18.671421142578126,-0.05502891540527344,0.6827841401100159,-0.6153794527053833
1695713229794525200,18.690525146484376,-0.08937644958496094,0.6857779026031494,-0.6105235815048218
1695713229813598500,18.709598388671875,-0.1607065200805664,0.680213212966919,-0.5674788355827332
1695713229832733200,18.728733154296876,-0.12004375457763672,0.7592678070068359,-0.5199279189109802
1695713229851806500,18.747806396484375,-0.06975460052490234,0.6837884783744812,-0.4281993508338928
1695713229870880000,18.7668798828125,-0.07670402526855469,0.633703887462616,-0.511278510093689
1695713229889984000,18.78598388671875,-0.1470355987548828,0.6068310737609863,-0.5649212002754211
1695713229909057500,18.8050576171875,-0.10549259185791016,0.5847236514091492,-0.540216326713562
1695713229928161500,18.82416162109375,-0.1305255889892578,0.584404706954956,-0.5180202722549438
1695713229947235000,18.843235107421876,-0.10664081573486328,0.6108441948890686,-0.5408293604850769
1695713229966339000,18.862339111328126,-0.023242950439453125,0.6428241729736328,-0.5060444474220276
1695713229985443000,18.881443115234376,-0.021994590759277344,0.6499462127685547,-0.4924740791320801
1695713230004547000,18.900547119140626,-0.06475448608398438,0.6444153189659119,-0.5042300224304199
1695713230023651000,18.919651123046876,-0.11818313598632812,0.6408790349960327,-0.5034130811691284
1695713230042724600,18.938724609375,-0.12277984619140625,0.6482718586921692,-0.517510175704956
1695713230061828600,18.95782861328125,-0.09525203704833984,0.6531286835670471,-0.5198982954025269
1695713230080902100,18.976902099609376,-0.08807945251464844,0.6395291686058044,-0.5329945683479309
1695713230100006100,18.996006103515626,-0.09293365478515625,0.6353517174720764,-0.5267729759216309
1695713230119079400,19.015079345703125,-0.09901809692382812,0.6292189955711365,-0.5187560319900513
1695713230138183400,19.034183349609375,-0.09552478790283203,0.6276726126670837,-0.5161710381507874
1695713230157257000,19.053257080078126,-0.11114692687988281,0.594593346118927,-0.5158921480178833
1695713230176361000,19.07236083984375,-0.08867835998535156,0.5913425087928772,-0.5182853937149048
1695713230195434500,19.0914345703125,-0.0816802978515625,0.5557274222373962,-0.5279011726379395
1695713230214538500,19.11053857421875,-0.05910015106201172,0.5844371914863586,-0.5181396007537842
1695713230233642500,19.129642578125,-0.06744670867919922,0.6056020855903625,-0.5247796773910522
1695713230252716000,19.148716064453126,-0.09245681762695312,0.6139264106750488,-0.5305250883102417
1695713230271850500,19.1678505859375,-0.08771896362304688,0.6187347173690796,-0.5249831676483154
1695713230290924000,19.186924072265626,-0.10677242279052734,0.6446525454521179,-0.5089619159698486
1695713230310028000,19.206028076171876,-0.11387443542480469,0.6253291368484497,-0.5046942234039307
1695713230329101600,19.2251015625,-0.10308837890625,0.6178480386734009,-0.5100343823432922
1695713230348205600,19.24420556640625,-0.057819366455078125,0.6153168678283691,-0.49904346466064453
1695713230367279000,19.263279052734376,-0.007704734802246094,0.599526584148407,-0.48261186480522156
1695713230386383000,19.282383056640626,-0.08734321594238281,0.6568116545677185,-0.5179309844970703
1695713230405487000,19.301487060546876,-0.15628910064697266,0.6007470488548279,-0.5238103270530701
1695713230424560400,19.320560302734375,-0.1468067169189453,0.5916423797607422,-0.5086359977722168
1695713230443664400,19.339664306640625,-0.056351661682128906,0.5633004307746887,-0.4873875081539154
1695713230462738000,19.358738037109376,-0.08972549438476562,0.5345780253410339,-0.47013363242149353
1695713230481842000,19.377842041015626,-0.09086322784423828,0.5372086763381958,-0.4517759680747986
1695713230500915500,19.39691552734375,-0.08488273620605469,0.5750676989555359,-0.4508609175682068
1695713230520019500,19.41601953125,-0.08011627197265625,0.5775139331817627,-0.47912532091140747
1695713230539093000,19.435093017578126,-0.06938838958740234,0.5973973274230957,-0.46797963976860046
1695713230558227500,19.4542275390625,-0.07886791229248047,0.6218340992927551,-0.4910255968570709
1695713230577331500,19.47333154296875,-0.10147953033447266,0.6104103326797485,-0.5222988128662109
1695713230596405000,19.492405029296876,-0.1134939193725586,0.6611933708190918,-0.5236563086509705
1695713230615509000,19.511509033203126,-0.08137798309326172,0.47698235511779785,-0.46647340059280396
1695713230634582500,19.53058251953125,-0.059889793395996094,0.5882207751274109,-0.4978483319282532
1695713230653686500,19.5496865234375,-0.0992574691772461,0.6027098894119263,-0.5186472535133362
1695713230672759800,19.568759765625,-0.1327228546142578,0.5435339212417603,-0.5003893375396729
1695713230691864000,19.587864013671876,-0.08989143371582031,0.5443634986877441,-0.457465261220932
1695713230710937300,19.606937255859375,-0.07430839538574219,0.572532594203949,-0.4414537847042084
1695713230730041300,19.626041259765625,-0.05875587463378906,0.5649897456169128,-0.44912484288215637
1695713230749115000,19.645114990234376,-0.03728675842285156,0.5689591765403748,-0.4579756557941437
1695713230768219000,19.664218994140626,-0.08251380920410156,0.566924512386322,-0.4546678960323334
1695713230787323000,19.683322998046876,-0.124114990234375,0.5616427063941956,-0.4691079556941986
1695713230806396400,19.702396484375,-0.11091804504394531,0.5846691131591797,-0.4639265239238739
1695713230825500400,19.72150048828125,-0.09180545806884766,0.5751118659973145,-0.47151029109954834
1695713230844604400,19.7406044921875,-0.09418869018554688,0.5871912240982056,-0.48432931303977966
1695713230863708400,19.75970849609375,-0.07039642333984375,0.592214047908783,-0.4978346824645996
1695713230882782000,19.778781982421876,-0.06446266174316406,0.5580458641052246,-0.5233760476112366
1695713230901886000,19.797885986328126,-0.09541606903076172,0.5460764765739441,-0.5135294795036316
1695713230920959500,19.81695947265625,-0.11090278625488281,0.5356829166412354,-0.4667535126209259
1695713230940063500,19.8360634765625,-0.09541893005371094,0.5396393537521362,-0.4223305284976959
1695713230959167500,19.85516748046875,-0.06567096710205078,0.5448254346847534,-0.43103981018066406
1695713230978240800,19.87424072265625,-0.05854320526123047,0.5322673916816711,-0.42436835169792175
1695713230997344800,19.8933447265625,-0.09071922302246094,0.543394148349762,-0.4240458905696869
1695713231016418300,19.912418212890625,-0.09429264068603516,0.5282531976699829,-0.4418003261089325
1695713231035522300,19.931522216796875,-0.1240692138671875,0.49521762132644653,-0.44388866424560547
1695713231054595800,19.950595947265626,-0.09429168701171875,0.6727532148361206,-0.5061460733413696
1695713231073699800,19.969699951171876,-0.09192657470703125,0.47042661905288696,-0.44552451372146606
1695713231092773400,19.9887734375,-0.05270671844482422,0.558209240436554,-0.46606650948524475
1695713231111877400,20.00787744140625,-0.06705284118652344,0.5366078615188599,-0.45709434151649475
1695713231131011800,20.02701171875,-0.09555816650390625,0.5238961577415466,-0.4383290708065033
1695713231150085400,20.04608544921875,-0.11925888061523438,0.5366337299346924,-0.44564518332481384
1695713231169189400,20.065189453125,-0.0822610855102539,0.5462626218795776,-0.4379061758518219
1695713231188263000,20.084262939453126,-0.03337383270263672,0.5530706644058228,-0.42433905601501465
1695713231207367000,20.103366943359376,-0.04398155212402344,0.5132687091827393,-0.40424397587776184
1695713231226440400,20.1224404296875,-0.09863090515136719,0.5088628530502319,-0.42321673035621643
1695713231245544400,20.14154443359375,-0.0985269546508789,0.5260087251663208,-0.43630826473236084
1695713231264617700,20.16061767578125,-0.06267642974853516,0.5180956125259399,-0.4334012269973755
1695713231283721700,20.1797216796875,-0.060057640075683594,0.5781903266906738,-0.4709712564945221
1695713231302795300,20.198795166015625,-0.14324951171875,0.5285046696662903,-0.49456456303596497
1695713231321899300,20.217899169921875,-0.1492319107055664,0.49875009059906006,-0.45547643303871155
1695713231341003300,20.237003173828125,-0.05643939971923828,0.5131560564041138,-0.4460199177265167
1695713231360076800,20.256076904296876,-0.06959724426269531,0.49301767349243164,-0.4647582769393921
1695713231379180800,20.275180908203126,-0.07318496704101562,0.5065005421638489,-0.4558810591697693
1695713231398254300,20.29425439453125,-0.087493896484375,0.5161295533180237,-0.4225868284702301
1695713231417388800,20.313388916015626,-0.06724739074707031,0.5420997738838196,-0.4357706904411316
1695713231436462300,20.33246240234375,-0.0910491943359375,0.546796977519989,-0.41493505239486694
1695713231455566300,20.35156640625,-0.10649967193603516,0.5397927761077881,-0.4271475076675415
1695713231474640000,20.370639892578126,-0.09935760498046875,0.5402353405952454,-0.4175274074077606
1695713231493743900,20.389743896484376,-0.08747196197509766,0.5362546443939209,-0.40737468004226685
1695713231512848000,20.408847900390626,-0.0672760009765625,0.5277451872825623,-0.41607096791267395
1695713231531951900,20.427951904296876,-0.08042621612548828,0.5133467316627502,-0.40611761808395386
1695713231551025400,20.447025390625,-0.07805156707763672,0.49626511335372925,-0.4240817427635193
1695713231570098700,20.4660986328125,-0.104248046875,0.4989640712738037,-0.4322024881839752
1695713231589202700,20.48520263671875,-0.09475421905517578,0.4995018243789673,-0.42176002264022827
1695713231608276200,20.504276123046875,-0.06743240356445312,0.4958658218383789,-0.41713085770606995
1695713231627380200,20.523380126953125,-0.06387996673583984,0.4719897508621216,-0.41804611682891846
1695713231646453800,20.542453857421876,-0.08052444458007812,0.46989089250564575,-0.40298253297805786
1695713231665557800,20.561557861328126,-0.082855224609375,0.48653483390808105,-0.40598824620246887
1695713231684661800,20.580661865234376,-0.07924270629882812,0.49378126859664917,-0.4119732677936554
1695713231703765800,20.599765869140626,-0.06972503662109375,0.4825062155723572,-0.4035130441188812
1695713231722869800,20.618869873046876,-0.0851907730102539,0.4875892996788025,-0.4025416672229767
1695713231741943300,20.637943359375,-0.09466552734375,0.4971957802772522,-0.40178367495536804
1695713231761047300,20.65704736328125,-0.10773658752441406,0.500799298286438,-0.3924420177936554
1695713231780120800,20.676120849609376,-0.08151912689208984,0.4962679147720337,-0.40780407190322876
1695713231799224800,20.695224853515626,-0.06477642059326172,0.4678618311882019,-0.4117964506149292
1695713231818298400,20.71429833984375,-0.06227397918701172,0.4705039858818054,-0.4490986466407776
1695713231837402400,20.73340234375,-0.06325244903564453,0.4948367476463318,-0.4678773880004883
1695713231856506400,20.75250634765625,-0.04394721984863281,0.4997522234916687,-0.4833553433418274
1695713231875579600,20.77157958984375,-0.012722969055175781,0.529401957988739,-0.4931814670562744
1695713231894683600,20.79068359375,-0.017287254333496094,0.5497426390647888,-0.48822957277297974
1695713231913757200,20.809757080078125,-0.09090232849121094,0.5310888886451721,-0.4598168134689331
1695713231932861200,20.828861083984375,-0.18712997436523438,0.48823171854019165,-0.44625017046928406
1695713231951934700,20.847934814453126,-0.20122051239013672,0.41193097829818726,-0.42652270197868347
1695713231971038700,20.867038818359376,-0.1415576934814453,0.3482479453086853,-0.4169026017189026
1695713231990142700,20.886142822265626,-0.1141366958618164,0.3121601939201355,-0.380303293466568
1695713232009246700,20.905246826171876,-0.12017154693603516,0.302878737449646,-0.3016308844089508
1695713232028320300,20.9243203125,-0.10959815979003906,0.34710878133773804,-0.22262278199195862
1695713232047424300,20.94342431640625,-0.09782791137695312,0.3980448246002197,-0.20006108283996582
1695713232066528300,20.9625283203125,-0.06576061248779297,0.46602296829223633,-0.21556109189987183
1695713232085601800,20.981601806640626,-0.028931617736816406,0.5506702065467834,-0.26720279455184937
1695713232104705800,21.000705810546876,-0.021833419799804688,0.6031320095062256,-0.30292174220085144
1695713232123779300,21.019779296875,-0.023059844970703125,0.5881201028823853,-0.33586499094963074
1695713232142883300,21.03888330078125,-0.062340736389160156,0.5687265992164612,-0.34794309735298157
1695713232161956600,21.05795654296875,-0.0800943374633789,0.5401508212089539,-0.34501051902770996
1695713232181060600,21.077060546875,-0.06564044952392578,0.5455095767974854,-0.3474252223968506
1695713232200134100,21.096134033203125,-0.07977867126464844,0.5191236734390259,-0.37655049562454224
1695713232219238100,21.115238037109375,-0.07135391235351562,0.5031337141990662,-0.396817684173584
1695713232238342100,21.134342041015625,-0.08204841613769531,0.4677155017852783,-0.40622732043266296
1695713232257415700,21.153415771484376,-0.10941505432128906,0.4161223769187927,-0.4305780827999115
1695713232276550100,21.172550048828125,-0.10703372955322266,0.3859911561012268,-0.45564401149749756
1695713232295623700,21.191623779296876,-0.08445358276367188,0.3867626190185547,-0.47580820322036743
1695713232314727700,21.210727783203126,-0.06896018981933594,0.38565826416015625,-0.46367862820625305
1695713232333801200,21.22980126953125,-0.09382057189941406,0.4879106283187866,-0.5013083815574646
1695713232352905200,21.2489052734375,-0.15927696228027344,0.45968949794769287,-0.5391696691513062
1695713232371978800,21.267978759765626,-0.16775894165039062,0.3925263285636902,-0.5308610200881958
1695713232391082800,21.287082763671876,-0.07148933410644531,0.3954029679298401,-0.5039688348770142
1695713232410186800,21.306186767578126,-0.04416084289550781,0.39497238397598267,-0.5041766166687012
1695713232429260300,21.32526025390625,-0.05243206024169922,0.49379169940948486,-0.6021082401275635
1695713232448364300,21.3443642578125,0.028844833374023438,0.878054678440094,-0.6246250867843628
1695713232467437600,21.3634375,-0.03752422332763672,0.3195258378982544,-0.7221558094024658
1695713232486541600,21.38254150390625,-0.08609676361083984,0.02094292640686035,-0.4890083074569702
1695713232505615000,21.401614990234375,-0.19176673889160156,0.41302627325057983,0.13242289423942566
1695713232524719000,21.420718994140625,-0.2318563461303711,0.4638175964355469,0.31587889790534973
1695713232543792600,21.439792724609376,-0.09943008422851562,0.4753446578979492,-0.1603282392024994
1695713232562927000,21.458927001953125,0.0006923675537109375,0.37350112199783325,-0.5612626075744629
1695713232582000600,21.478000732421876,-0.024349212646484375,0.35781383514404297,-0.23736447095870972
1695713232601104600,21.497104736328126,-0.08527851104736328,0.5083191990852356,-0.02320966124534607
1695713232620208600,21.516208740234376,-0.08777141571044922,0.5152887105941772,-0.17002364993095398
1695713232639282200,21.5352822265625,-0.07932853698730469,0.5588278770446777,-0.3190065622329712
1695713232658386200,21.55438623046875,-0.1425304412841797,0.5974599123001099,-0.2976730465888977
1695713232677459700,21.573459716796876,-0.16329097747802734,0.6180837154388428,-0.2792559564113617
1695713232696548400,21.59254833984375,-0.07470512390136719,0.521714985370636,-0.3378566801548004
1695713232715622000,21.611621826171874,0.009251594543457031,0.39377641677856445,-0.4547165036201477
1695713232734726000,21.630725830078124,0.004123687744140625,0.3464025855064392,-0.5618937611579895
1695713232753799400,21.64979931640625,-0.06992149353027344,0.3459964394569397,-0.6093747615814209
1695713232772903400,21.6689033203125,-0.13204669952392578,0.29438644647598267,-0.5801655650138855
1695713232792007400,21.68800732421875,-0.12021636962890625,0.27293896675109863,-0.557307243347168
1695713232811081000,21.7070810546875,-0.08679389953613281,0.3220263719558716,-0.5344557762145996
1695713232830185000,21.72618505859375,-0.03890037536621094,0.36596834659576416,-0.49428191781044006
1695713232849289000,21.7452890625,0.0066928863525390625,0.3930298686027527,-0.46250635385513306
1695713232868393000,21.76439306640625,-0.014420509338378906,0.43468916416168213,-0.4063177704811096
1695713232887466200,21.78346630859375,-0.054630279541015625,0.4889998435974121,-0.3613768219947815
1695713232906570200,21.8025703125,-0.10672664642333984,0.5339767336845398,-0.3178900480270386
1695713232925643800,21.821643798828124,-0.16478252410888672,0.5194875597953796,-0.3093533217906952
1695713232944747800,21.840747802734374,-0.17519092559814453,0.4954352378845215,-0.27024170756340027
1695713232963851800,21.859851806640624,-0.17614269256591797,0.5000259280204773,-0.24202227592468262
1695713232982925300,21.87892529296875,-0.11043071746826172,0.4786136746406555,-0.22429758310317993
1695713233002029300,21.898029296875,-0.053086280822753906,0.4034866690635681,-0.1872137188911438
1695713233021102800,21.917102783203124,-0.0065460205078125,0.32350945472717285,-0.15246179699897766
1695713233040206800,21.936206787109374,0.02671051025390625,0.2715398669242859,-0.12441326677799225
1695713233059280400,21.9552802734375,0.020546913146972656,0.25349557399749756,-0.15985694527626038
1695713233078384400,21.97438427734375,-0.012912750244140625,0.2591688632965088,-0.20684443414211273
1695713233097458000,21.9934580078125,-0.0854949951171875,0.2593180537223816,-0.257632315158844
1695713233116562000,22.01256201171875,-0.09247207641601562,0.27835726737976074,-0.26799827814102173
1695713233135666000,22.031666015625,-0.06362533569335938,0.30239516496658325,-0.2689952850341797
1695713233154770000,22.05077001953125,-0.054930686950683594,0.39870429039001465,-0.30161023139953613
1695713233173874000,22.0698740234375,-0.04728412628173828,0.4451800584793091,-0.3713315725326538
1695713233192947200,22.088947265625,-0.07998847961425781,0.45743393898010254,-0.38653045892715454
1695713233212051200,22.10805126953125,-0.06621360778808594,0.45305323600769043,-0.45710885524749756
1695713233231155200,22.1271552734375,-0.0584259033203125,0.4573608636856079,-0.49400264024734497
1695713233250228700,22.146228759765624,-0.02793407440185547,0.4815237522125244,-0.48371797800064087
1695713233269302300,22.16530224609375,-0.12372016906738281,0.539862334728241,-0.4739983081817627
1695713233288406300,22.18440625,-0.17084312438964844,0.42756104469299316,-0.4094897508621216
1695713233307479800,22.203479736328124,-0.1573638916015625,0.3938671946525574,-0.3628202974796295
1695713233326583800,22.222583740234374,-0.10108089447021484,0.39055073261260986,-0.37025538086891174
1695713233345687800,22.241687744140624,-0.1294536590576172,0.3664814233779907,-0.3766044080257416
1695713233364761300,22.26076123046875,-0.11741161346435547,0.3622789978981018,-0.3452805280685425
1695713233383865300,22.279865234375,-0.13409423828125,0.3589862585067749,-0.3263294994831085
1695713233402939000,22.29893896484375,-0.1305999755859375,0.3483862280845642,-0.30311378836631775
1695713233422073300,22.3180732421875,-0.08668041229248047,0.38003599643707275,-0.2788349986076355
1695713233441147000,22.33714697265625,-0.029671669006347656,0.4189900755882263,-0.2753174304962158
1695713233460251000,22.3562509765625,-0.03572654724121094,0.42346876859664917,-0.30614450573921204
1695713233479324200,22.37532421875,-0.05475139617919922,0.3892399072647095,-0.3041251003742218
1695713233498428200,22.39442822265625,-0.07976055145263672,0.396598756313324,-0.34604671597480774
1695713233517532200,22.4135322265625,-0.06191444396972656,0.4327593445777893,-0.3096437156200409
1695713233536605700,22.432605712890624,-0.08210277557373047,0.44583308696746826,-0.27295348048210144
1695713233555709700,22.451709716796874,-0.0987081527709961,0.42209911346435547,-0.30061978101730347
1695713233574783200,22.470783203125,-0.09032344818115234,0.3761664032936096,-0.3106057941913605
1695713233593887200,22.48988720703125,-0.06885623931884766,0.3554588556289673,-0.32905083894729614
1695713233612960800,22.508960693359374,-0.07476329803466797,0.33717089891433716,-0.318412721157074
1695713233632064800,22.528064697265624,-0.09258365631103516,0.3544473648071289,-0.3163183033466339
1695713233651138300,22.54713818359375,-0.09850692749023438,0.3598543405532837,-0.2787526845932007
1695713233670242300,22.5662421875,-0.08780384063720703,0.3492790460586548,-0.2719205617904663
1695713233689315600,22.585315673828124,-0.07476425170898438,0.3745269179344177,-0.25074389576911926
1695713233708450300,22.6044501953125,-0.09386348724365234,0.3795395493507385,-0.27974623441696167
1695713233727554300,22.62355419921875,-0.09865665435791016,0.37953293323516846,-0.31536048650741577
1695713233746627800,22.6426279296875,-0.08438491821289062,0.37683606147766113,-0.34048765897750854
1695713233765731800,22.66173193359375,-0.0784463882446289,0.38090789318084717,-0.34119462966918945
1695713233784805000,22.68080517578125,-0.0784616470336914,0.37449294328689575,-0.3432648777961731
1695713233803909000,22.6999091796875,-0.054688453674316406,0.37204498052597046,-0.3350744843482971
1695713233822982700,22.718982666015624,-0.05827617645263672,0.34232980012893677,-0.33384448289871216
1695713233842086700,22.738086669921874,-0.06895637512207031,0.30733680725097656,-0.32650595903396606
1695713233861160200,22.75716015625,-0.06763458251953125,0.3188837766647339,-0.3299678564071655
1695713233880264200,22.77626416015625,-0.08775901794433594,0.31102150678634644,-0.3064619302749634
1695713233899368200,22.7953681640625,-0.0971994400024414,0.3296247124671936,-0.29082560539245605
1695713233918441700,22.814441650390624,-0.09599018096923828,0.34569090604782104,-0.2724663019180298
1695713233937545700,22.833545654296874,-0.09480762481689453,0.32305485010147095,-0.26651638746261597
1695713233956619300,22.852619384765624,-0.08047866821289062,0.3200119733810425,-0.2631203532218933
1695713233975723300,22.87172314453125,-0.06370830535888672,0.34464699029922485,-0.30895331501960754
1695713233994827300,22.8908271484375,-0.055260658264160156,0.3705347180366516,-0.3167472183704376
1695713234013931300,22.90993115234375,-0.059967041015625,0.40154510736465454,-0.33565908670425415
1695713234033004800,22.9290048828125,-0.07771873474121094,0.42524969577789307,-0.334206759929657
1695713234052108800,22.94810888671875,-0.10615825653076172,0.41553378105163574,-0.3085160553455353
1695713234071212800,22.967212890625,-0.1286783218383789,0.421444833278656,-0.3064362704753876
1695713234090286000,22.9862861328125,-0.0725564956665039,0.4366855025291443,-0.3069416880607605
1695713234109390000,23.00539013671875,-0.03311634063720703,0.4281604290008545,-0.24376334249973297
1695713234128463600,23.024463623046874,-0.04368114471435547,0.43464750051498413,-0.251731812953949
1695713234147567600,23.043567626953124,-0.08540534973144531,0.35324627161026,-0.2568178176879883
1695713234166641200,23.06264111328125,-0.11412715911865234,0.29776322841644287,-0.23452134430408478
1695713234185745200,23.0817451171875,-0.05107593536376953,0.30118846893310547,-0.25274956226348877
1695713234204818700,23.100818603515624,-0.07851409912109375,0.24816018342971802,-0.28755295276641846
1695713234223922700,23.119922607421874,-0.07614803314208984,0.26252758502960205,-0.31925612688064575
1695713234242996200,23.138996337890624,-0.06071281433105469,0.29471731185913086,-0.3025195598602295
1695713234262130700,23.158130615234374,-0.0762176513671875,0.3018980026245117,-0.3311665952205658
1695713234281234700,23.177234619140624,-0.0809946060180664,0.33376163244247437,-0.320393443107605
1695713234300308200,23.19630810546875,-0.08815383911132812,0.37129032611846924,-0.32001519203186035
1695713234319412200,23.215412109375,-0.10724735260009766,0.3688456416130066,-0.325065553188324
1695713234338485800,23.23448583984375,-0.07994461059570312,0.36364102363586426,-0.2903953194618225
1695713234357589800,23.25358984375,-0.05985069274902344,0.3708121180534363,-0.28784728050231934
1695713234376663000,23.2726630859375,-0.06115245819091797,0.34807854890823364,-0.25254225730895996
1695713234395767000,23.29176708984375,-0.07193183898925781,0.3271949887275696,-0.26366937160491943
1695713234414840600,23.310840576171874,-0.09338855743408203,0.3235098719596863,-0.27978289127349854
1695713234433944600,23.329944580078124,-0.09217643737792969,0.339816153049469,-0.2777206301689148
1695713234453048600,23.349048583984374,-0.09215259552001953,0.3464834690093994,-0.2543081045150757
1695713234472122000,23.3681220703125,-0.05521202087402344,0.3309503197669983,-0.24294814467430115
1695713234491226000,23.38722607421875,-0.04092216491699219,0.3319712281227112,-0.23322182893753052
1695713234510299600,23.406299560546874,-0.06118202209472656,0.3320077061653137,-0.19996270537376404
1695713234529403600,23.425403564453124,-0.08617401123046875,0.31771302223205566,-0.20529961585998535
1695713234548507600,23.444507568359374,-0.0694284439086914,0.2935746908187866,-0.2275460660457611
1695713234567611600,23.463611572265624,-0.07055473327636719,0.30450236797332764,-0.2793038487434387
1695713234586685200,23.482685302734374,-0.05975151062011719,0.32479166984558105,-0.29709476232528687
1695713234605789200,23.5017890625,-0.06206035614013672,0.3143233060836792,-0.3179686665534973
1695713234624893200,23.52089306640625,-0.08701419830322266,0.33480381965637207,-0.308932363986969
1695713234643966500,23.539966552734374,-0.0977334976196289,0.31317830085754395,-0.3021349310874939
1695713234663070700,23.55907080078125,-0.11324882507324219,0.3097016215324402,-0.2890753448009491
1695713234682144000,23.57814404296875,-0.08589553833007812,0.3132927417755127,-0.28613612055778503
1695713234701248000,23.597248046875,-0.08594322204589844,0.32517683506011963,-0.29202693700790405
1695713234720321500,23.616321533203124,-0.06692790985107422,0.34656035900115967,-0.28552019596099854
1695713234739425500,23.635425537109374,-0.07294654846191406,0.36462485790252686,-0.2794398069381714
1695713234758499000,23.6544990234375,-0.08494853973388672,0.34628111124038696,-0.28702789545059204
1695713234777603000,23.67360302734375,-0.06950855255126953,0.332394003868103,-0.2773532271385193
1695713234796676600,23.692676513671874,-0.058798789978027344,0.3143552541732788,-0.2630321681499481
1695713234815780600,23.711780517578124,-0.04569721221923828,0.28933852910995483,-0.2333804965019226
1695713234834884600,23.730884521484374,-0.04331779479980469,0.2833825349807739,-0.23053817451000214
1695713234853988600,23.749988525390624,-0.06116294860839844,0.2747676372528076,-0.24969807267189026
1695713234873092600,23.769092529296874,-0.0896310806274414,0.2650461196899414,-0.2550380825996399
1695713234892166100,23.788166259765624,-0.11569786071777344,0.2810847759246826,-0.2483641356229782
1695713234911270100,23.807270263671874,-0.08224964141845703,0.29762011766433716,-0.24898970127105713
1695713234930374100,23.8263740234375,-0.050048828125,0.31463849544525146,-0.25956758856773376
1695713234949447400,23.845447509765624,-0.04642009735107422,0.32432812452316284,-0.2209673821926117
1695713234968521000,23.86452099609375,-0.041525840759277344,0.3605254888534546,-0.24263226985931396
1695713234987625000,23.883625,-0.08667945861816406,0.29281085729599,-0.267155259847641
1695713235006729000,23.90272900390625,-0.12354755401611328,0.28458458185195923,-0.2576921284198761
1695713235025802500,23.921802490234374,-0.05555152893066406,0.29629576206207275,-0.25080007314682007
1695713235044906500,23.940906494140624,-0.06493663787841797,0.2651166319847107,-0.2752830982208252
1695713235063980000,23.95997998046875,-0.06004524230957031,0.2874374985694885,-0.283394455909729
1695713235083084000,23.979083984375,-0.0706033706665039,0.32351160049438477,-0.2604956328868866
1695713235102157600,23.998157470703124,-0.11688995361328125,0.3311738967895508,-0.28222590684890747
1695713235121261600,24.017261474609374,-0.10364723205566406,0.35832077264785767,-0.28328585624694824
1695713235140365600,24.036365478515624,-0.09758281707763672,0.3794180154800415,-0.29452386498451233
1695713235159469600,24.055469482421874,-0.07723712921142578,0.3545314073562622,-0.25636976957321167
1695713235178573600,24.074573486328124,-0.06286239624023438,0.3453488349914551,-0.23240748047828674
