time,seconds_elapsed,z,y,x
1695713211212908500,0.108908447265625,5.175758361816406,2.0590438842773438,-3.0038204193115234
1695713211222460400,0.11846044921875,4.606197357177734,2.734312057495117,-3.460786819458008
1695713211232012500,0.128012451171875,3.6698055267333984,3.6203956604003906,-4.140247344970703
1695713211241564400,0.137564453125,3.4101791381835938,6.323863983154297,-8.147836685180664
1695713211251116500,0.147116455078125,3.8674449920654297,7.882820129394531,-8.81771469116211
1695713211260638000,0.156637939453125,6.412502288818359,6.323863983154297,-4.965541839599609
1695713211270190000,0.166190185546875,6.271759033203125,4.272006988525391,-2.094379425048828
1695713211279742000,0.175741943359375,4.734962463378906,3.1490554809570312,-1.4316883087158203
1695713211289263400,0.185263427734375,4.096227645874023,2.459413528442383,-0.9531612396240234
1695713211298815500,0.1948154296875,5.254514694213867,2.0305957794189453,-0.44588661193847656
1695713211308367400,0.204367431640625,7.465681076049805,1.5164337158203125,0.08055305480957031
1695713211317889000,0.213888916015625,8.275703430175781,0.8648223876953125,0.5279369354248047
1695713211327441000,0.22344091796875,8.180477142333984,0.31742095947265625,0.8435611724853516
1695713211336993000,0.232992919921875,8.50927734375,0.32221221923828125,0.9896945953369141
1695713211346545000,0.242544921875,9.193229675292969,0.5237445831298828,1.06365966796875
1695713211356097000,0.252096923828125,9.54598617553711,0.6231632232666016,1.358022689819336
1695713211365618400,0.261618408203125,9.960430145263672,0.9998760223388672,1.6164512634277344
1695713211375170600,0.271170654296875,10.739608764648438,1.554464340209961,1.8868579864501953
1695713211384753000,0.2807529296875,11.973957061767578,2.3384342193603516,2.1428909301757812
1695713211394305000,0.290304931640625,12.409961700439453,2.802886962890625,2.7100563049316406
1695713211403826400,0.299826416015625,12.703126907348633,2.7271251678466797,3.3535823822021484
1695713211413378600,0.309378662109375,13.246335983276367,1.9925651550292969,4.078559875488281
1695713211422930400,0.318930419921875,14.475893020629883,1.329275131225586,4.624164581298828
1695713211432482600,0.328482666015625,12.329109191894531,1.0948028564453125,4.107307434082031
1695713211442034400,0.338034423828125,10.989952087402344,1.1705646514892578,3.482646942138672
1695713211451555800,0.347555908203125,9.460042953491211,1.2651920318603516,2.8031864166259766
1695713211461108000,0.35710791015625,8.435312271118164,1.5709342956542969,2.298307418823242
1695713211470659800,0.366659912109375,7.675298690795898,1.976095199584961,1.8221759796142578
1695713211480212000,0.3762119140625,7.680089950561523,2.2911205291748047,1.5541648864746094
1695713211489733400,0.3857333984375,7.906476974487305,2.4713916778564453,1.8892536163330078
1695713211499285500,0.395285400390625,8.147237777709961,2.3788604736328125,2.549549102783203
1695713211508837400,0.40483740234375,8.461664199829102,2.2557849884033203,3.023284912109375
1695713211518389500,0.414389404296875,8.661699295043945,2.3363380432128906,3.236196517944336
1695713211527941400,0.42394140625,8.845264434814453,2.438152313232422,3.1598358154296875
1695713211537463000,0.433463134765625,8.65690803527832,3.1727123260498047,3.2481746673583984
1695713211547015000,0.443014892578125,8.452081680297852,3.6608219146728516,2.631000518798828
1695713211556567000,0.452567138671875,7.820533752441406,3.9854297637939453,2.3965282440185547
1695713211566119000,0.462118896484375,7.146463394165039,4.215110778808594,2.5519447326660156
1695713211575640300,0.471640380859375,7.167724609375,3.3338184356689453,2.6908912658691406
1695713211585192400,0.4811923828125,7.489337921142578,2.3623905181884766,3.6575279235839844
1695713211594744300,0.490744384765625,7.751659393310547,2.077909469604492,4.552295684814453
1695713211604296400,0.50029638671875,8.080459594726562,2.239015579223633,4.863428115844727
1695713211613817900,0.50981787109375,8.087646484375,2.719938278198242,5.0595703125
1695713211623370000,0.519369873046875,8.242464065551758,3.7698230743408203,4.944580078125
1695713211632921900,0.528921875,7.913663864135742,4.669981002807617,4.557086944580078
1695713211642474000,0.538473876953125,7.730098724365234,4.433113098144531,4.666986465454102
1695713211652025900,0.54802587890625,7.534854888916016,3.7129268646240234,5.0859222412109375
1695713211661547500,0.557547607421875,7.727703094482422,2.6774158477783203,5.62883186340332
1695713211671129900,0.5671298828125,8.492507934570312,1.6751441955566406,5.74382209777832
1695713211680682000,0.576681884765625,9.42919921875,1.3909626007080078,5.248525619506836
1695713211690233900,0.58623388671875,10.122434616088867,2.0353870391845703,4.853845596313477
1695713211699786000,0.595785888671875,10.127225875854492,3.2508697509765625,5.150304794311523
1695713211709307400,0.605307373046875,8.83328628540039,4.68195915222168,4.9565582275390625
1695713211718859500,0.614859619140625,7.501316070556641,6.113048553466797,4.552295684814453
1695713211728411400,0.624411376953125,6.977272033691406,6.205280303955078,4.22199821472168
1695713211737963500,0.633963623046875,7.796876907348633,3.6608219146728516,5.415920257568359
1695713211747485000,0.64348486328125,9.393264770507812,1.8410415649414062,6.229536056518555
1695713211757036800,0.653036865234375,9.53640365600586,2.959501266479492,5.432689666748047
1695713211766589000,0.6625888671875,8.65690803527832,3.120607376098633,5.607570648193359
1695713211776140800,0.672140869140625,7.76573371887207,2.423778533935547,5.951942443847656
1695713211785662500,0.681662353515625,7.136880874633789,2.3007030487060547,5.473415374755859
1695713211795214300,0.69121435546875,7.120111465454102,2.1940975189208984,5.329977035522461
1695713211804766500,0.700766357421875,7.792085647583008,1.5945911407470703,5.487789154052734
1695713211814318300,0.710318359375,8.580846786499023,2.144388198852539,5.683931350708008
1695713211823870500,0.719870361328125,8.044525146484375,2.1632537841796875,5.806108474731445
1695713211833391900,0.729391845703125,7.725307464599609,1.9027290344238281,6.10017204284668
1695713211842944000,0.738944091796875,7.946903228759766,2.4144954681396484,6.045372009277344
1695713211852496000,0.748495849609375,8.49969482421875,2.3575992584228516,6.287031173706055
1695713211862048000,0.758048095703125,8.630855560302734,2.530384063720703,6.251096725463867
1695713211871569400,0.7675693359375,7.78489875793457,2.37646484375,6.021415710449219
1695713211881121300,0.777121337890625,6.595767974853516,1.7437191009521484,5.68632698059082
1695713211890673400,0.78667333984375,5.642906188964844,1.104085922241211,5.382381439208984
1695713211900225300,0.796225341796875,4.863727569580078,0.7037162780761719,5.0907135009765625
1695713211909777400,0.80577734375,4.101018905639648,0.2913684844970703,4.870615005493164
1695713211919298800,0.815298828125,3.636566162109375,-0.19674110412597656,4.767602920532227
1695713211928851000,0.824850830078125,3.350587844848633,-0.7558212280273438,4.772394180297852
1695713211938402800,0.83440283203125,3.0550270080566406,-1.4523506164550781,4.892175674438477
1695713211947955000,0.843954833984375,3.307466506958008,-2.1893062591552734,5.291646957397461
1695713211957506800,0.8535068359375,3.948596954345703,-2.5019359588623047,5.937568664550781
1695713211967059000,0.863058837890625,4.291770935058594,-2.1656494140625,6.593072891235352
1695713211976610800,0.87261083984375,3.8485794067382812,-1.708383560180664,7.179403305053711
1695713211986163000,0.882162841796875,3.102640151977539,-1.2343482971191406,7.595643997192383
1695713211995714800,0.89171484375,2.225839614868164,-0.7177906036376953,8.710809707641602
1695713212005236500,0.901236572265625,1.3631134033203125,-0.5782451629638672,8.050214767456055
1695713212014788400,0.910788330078125,1.0774345397949219,-1.078033447265625,8.930908203125
1695713212024340500,0.920340576171875,1.2226696014404297,-1.1609821319580078,10.10566520690918
1695713212033892400,0.929892333984375,2.0162220001220703,-0.8812923431396484,11.586763381958008
1695713212043413800,0.939413818359375,3.047840118408203,-1.0852203369140625,12.818716049194336
1695713212052966000,0.9489658203125,3.943805694580078,-1.8599071502685547,13.984189987182617
1695713212062517800,0.958517822265625,4.875406265258789,-2.0614395141601562,14.874166488647461
1695713212072070000,0.96806982421875,5.304523468017578,-1.7368316650390625,15.80726432800293
1695713212081621800,0.977621826171875,5.3973541259765625,-1.4760074615478516,16.422042846679688
1695713212091143400,0.987143310546875,5.599784851074219,-1.7437191009521484,16.85774803161621
1695713212100695300,0.9966953125,5.621345520019531,-1.8623027801513672,17.008373260498047
1695713212110247400,1.006247314453125,5.24732780456543,-1.6065692901611328,16.993999481201172
1695713212119799300,1.01579931640625,4.920923233032227,-1.2059001922607422,17.245241165161133
1695713212129321000,1.025321044921875,4.863727569580078,-1.2912445068359375,17.331483840942383
1695713212138872800,1.034872802734375,4.65141487121582,-1.4807987213134766,17.080242156982422
1695713212148425000,1.044425048828125,4.403766632080078,-1.7176666259765625,16.67328453063965
1695713212157976800,1.053976806640625,3.6745967864990234,-1.7437191009521484,16.27141761779785
1695713212167529000,1.063529052734375,2.4998397827148438,-1.4050369262695312,15.613517761230469
1695713212177050400,1.07305029296875,0.08354759216308594,-1.9476470947265625,13.349946975708008
1695713212186602200,1.082602294921875,-6.461912155151367,-3.8243236541748047,11.699058532714844
1695713212196154400,1.092154296875,-8.611391067504883,-5.532407760620117,10.517114639282227
1695713212205706200,1.101706298828125,-5.251520156860352,-3.9497947692871094,10.7899169921875
1695713212215228000,1.111227783203125,-8.973430633544922,-4.262424468994141,11.56999397277832
1695713212224779800,1.12077978515625,-7.131490707397461,-2.416891098022461,9.930784225463867
1695713212234332000,1.130331787109375,-0.9124355316162109,-4.155818939208984,10.325763702392578
1695713212243914200,1.139914306640625,4.23936653137207,-5.300331115722656,10.653366088867188
1695713212253466400,1.14946630859375,3.6698055267333984,-4.897565841674805,10.12483024597168
1695713212262987800,1.15898779296875,2.4878616333007812,-3.9189510345458984,9.648698806762695
1695713212272540000,1.168539794921875,1.8182830810546875,-3.717418670654297,9.636720657348633
1695713212282091800,1.178091796875,2.631000518798828,-2.9831581115722656,9.842445373535156
1695713212291644000,1.187643798828125,1.5230216979980469,-1.9263858795166016,9.399852752685547
1695713212301165300,1.197165283203125,1.7874393463134766,-2.509122848510742,9.004873275756836
1695713212310717400,1.206717529296875,4.003396987915039,-3.8572635650634766,9.97150993347168
1695713212320269300,1.216269287109375,2.468996047973633,-4.080057144165039,8.732070922851562
1695713212329821400,1.225821533203125,0.44828224182128906,-2.644176483154297,5.918403625488281
1695713212339373300,1.235373291015625,-2.1632537841796875,-3.2508697509765625,4.009086608886719
1695713212348894700,1.244894775390625,-2.8400192260742188,-4.293268203735352,2.8942203521728516
1695713212358477300,1.254477294921875,-2.3872451782226562,-4.987701416015625,4.025856018066406
1695713212368090400,1.26409033203125,-1.1744575500488281,-6.077413558959961,5.935173034667969
1695713212377703400,1.273703369140625,0.5315303802490234,-6.866474151611328,7.796577453613281
1695713212387316500,1.28331640625,1.5682392120361328,-6.750286102294922,9.799324035644531
1695713212396929500,1.292929443359375,0.8390693664550781,-6.581993103027344,11.024389266967773
1695713212406542600,1.30254248046875,-0.15691375732421875,-6.160362243652344,9.639116287231445
1695713212416155600,1.31215576171875,-1.3912620544433594,-4.7529296875,7.947502136230469
1695713212425768700,1.321768798828125,-0.2617225646972656,-5.503959655761719,8.866226196289062
1695713212444323300,1.3403232421875,2.4878616333007812,-6.876056671142578,8.756027221679688
1695713212453844700,1.3498447265625,4.873010635375977,-8.278697967529297,11.88801383972168
1695713212463427300,1.35942724609375,3.61260986328125,-10.422786712646484,10.7132568359375
1695713212472979200,1.368979248046875,-4.801141738891602,-3.381132125854492,3.669506072998047
1695713212482531300,1.37853125,1.861104965209961,1.4619331359863281,-0.08474540710449219
1695713212492083200,1.388083251953125,-3.7240066528320312,-3.767427444458008,3.1071319580078125
1695713212501635300,1.39763525390625,-4.589128494262695,-5.6321258544921875,7.268041610717773
1695713212511156700,1.40715673828125,0.29825592041015625,-5.437780380249023,9.579225540161133
1695713212520739300,1.4167392578125,1.4822959899902344,-4.959253311157227,6.8251495361328125
1695713212530291200,1.426291259765625,0.9034519195556641,-5.385675430297852,4.674173355102539
1695713212539843300,1.43584326171875,-0.1260700225830078,-5.546781539916992,3.6862754821777344
1695713212549364700,1.44536474609375,0.3003520965576172,-4.9637451171875,2.8990116119384766
1695713212558916900,1.454916748046875,1.0582695007324219,-4.921222686767578,1.9443531036376953
1695713212568468700,1.46446875,1.375091552734375,-4.809825897216797,0.31742095947265625
1695713212578020900,1.474020751953125,4.232179641723633,-4.070474624633789,0.8079261779785156
1695713212587572700,1.48357275390625,4.732566833496094,-2.8172607421875,4.25074577331543
1695713212597124900,1.493124755859375,4.749336242675781,-3.6772918701171875,7.500118255615234
1695713212606646300,1.502646240234375,3.8770275115966797,-5.866598129272461,10.23233413696289
1695713212616198400,1.512198486328125,2.3782615661621094,-6.970684051513672,9.923896789550781
1695713212625750300,1.521750244140625,2.0494613647460938,-7.64116096496582,7.512096405029297
1695713212635302400,1.531302490234375,0.023956298828125,-7.264448165893555,4.224393844604492
1695713212644823800,1.54082373046875,-6.111551284790039,-7.385427474975586,2.1860122680664062
1695713212654375700,1.550375732421875,-6.683507919311523,-8.641036987304688,2.1404953002929688
1695713212663927800,1.559927734375,-4.25074577331543,-10.250001907348633,2.5279884338378906
1695713212673479700,1.569479736328125,-2.594766616821289,-13.69731330871582,3.099945068359375
1695713212683012400,1.579012451171875,0.2218952178955078,-14.986461639404297,4.322614669799805
1695713212692533800,1.58853369140625,-0.41204833984375,-15.839305877685547,7.483348846435547
1695713212702086000,1.5980859375,0.42193031311035156,-15.140380859375,7.325237274169922
1695713212711637800,1.6076376953125,1.2059001922607422,-13.754209518432617,5.564449310302734
1695713212721190000,1.61718994140625,2.0686264038085938,-12.164409637451172,3.322439193725586
1695713212730711300,1.626711181640625,1.1322345733642578,-9.257312774658203,0.8175086975097656
1695713212740263400,1.636263427734375,0.8079261779785156,-7.863954544067383,-0.75701904296875
1695713212749815300,1.645815185546875,-0.2713050842285156,-8.046321868896484,-0.08953666687011719
1695713212759367400,1.655367431640625,-0.9504661560058594,-8.520357131958008,0.8794956207275391
1695713212768919300,1.664919189453125,0.0742645263671875,-8.885091781616211,1.8700885772705078
1695713212778441000,1.67444091796875,0.29586029052734375,-9.356731414794922,2.8127689361572266
1695713212787992800,1.683992919921875,0.2051258087158203,-9.643308639526367,3.399099349975586
1695713212797545000,1.693544921875,0.5150604248046875,-9.520233154296875,3.492229461669922
1695713212807096800,1.703096923828125,0.5459041595458984,-9.176759719848633,3.1694183349609375
1695713212816649000,1.71264892578125,0.3099346160888672,-8.875808715820312,3.341604232788086
1695713212826200800,1.722200927734375,-0.35724830627441406,-8.520357131958008,3.0496368408203125
1695713212835753000,1.7317529296875,-0.7552223205566406,-8.31193733215332,2.3677806854248047
1695713212845304800,1.741304931640625,-0.388092041015625,-7.980142593383789,1.7458152770996094
1695713212854826200,1.750826171875,0.3530559539794922,-7.3521881103515625,1.1187591552734375
1695713212864378400,1.76037841796875,-0.2689094543457031,-6.69818115234375,0.4464855194091797
1695713212873930200,1.76993017578125,-0.34766578674316406,-6.172340393066406,-0.19943618774414062
1695713212883482400,1.779482421875,1.017843246459961,-6.210071563720703,-0.008085250854492188
1695713212893034500,1.789034423828125,1.8730831146240234,-6.55833625793457,0.4153423309326172
1695713212902556000,1.798555908203125,1.2154827117919922,-7.238395690917969,0.4512767791748047
1695713212912107800,1.808107666015625,0.6222648620605469,-7.714826583862305,0.31262969970703125
1695713212921660000,1.817659912109375,0.14553451538085938,-7.840297698974609,0.22638702392578125
1695713212931211800,1.827211669921875,1.2822608947753906,-3.88092041015625,-2.891225814819336
1695713212940733400,1.8367333984375,-0.421630859375,-0.5474014282226562,-5.38926887512207
1695713212950285300,1.846285400390625,-3.1592369079589844,1.3104095458984375,-5.941761016845703
1695713212959837400,1.85583740234375,1.0939044952392578,3.058919906616211,0.7576179504394531
1695713212969389300,1.865389404296875,0.8414649963378906,4.778982162475586,-0.6707763671875
1695713212978941400,1.87494140625,-2.8019886016845703,-1.1160640716552734,-0.9914913177490234
1695713212988462800,1.884462890625,-4.048015594482422,-7.13897705078125,0.20961761474609375
1695713212998014700,1.8940146484375,-2.3420276641845703,-11.605329513549805,0.27909088134765625
1695713213007566800,1.90356689453125,4.823001861572266,-2.4854660034179688,-1.6829299926757812
1695713213017118700,1.91311865234375,2.4902572631835938,-2.5423622131347656,-1.5155353546142578
1695713213026640400,1.922640380859375,1.6586742401123047,-8.380512237548828,1.14031982421875
1695713213036192300,1.932192138671875,1.0915088653564453,-14.71875,0.6761665344238281
1695713213045744400,1.941744384765625,3.879423141479492,-17.862714767456055,0.4369029998779297
1695713213055296300,1.951296142578125,3.350587844848633,-21.530723571777344,3.7937793731689453
1695713213064848400,1.960848388671875,-2.9235668182373047,-31.07221794128418,5.214986801147461
1695713213074369800,1.970369873046875,-2.084796905517578,-33.48162078857422,3.1262969970703125
1695713213083922000,1.979921875,-0.34527015686035156,-27.57489776611328,1.9515399932861328
1695713213093504300,1.989504150390625,0.3267040252685547,-19.895706176757812,3.578472137451172
1695713213103056400,1.999056396484375,0.3910865783691406,-14.055160522460938,5.315603256225586
1695713213112577800,2.008577880859375,0.8175086975097656,-10.854000091552734,6.495151519775391
1695713213122130000,2.0181298828125,0.483917236328125,-7.667213439941406,4.650217056274414
1695713213131681800,2.027681884765625,-0.021261215209960938,-4.864326477050781,-2.630401611328125
1695713213141234000,2.03723388671875,1.8422393798828125,-6.686502456665039,-2.286029815673828
1695713213150785800,2.046785888671875,1.1415176391601562,-8.880300521850586,-2.474985122680664
1695713213160307200,2.05630712890625,0.0550994873046875,-11.010614395141602,-2.431863784790039
1695713213169859300,2.065859375,0.009881973266601562,-12.211723327636719,-2.0419750213623047
1695713213179411200,2.0754111328125,-0.36922645568847656,-11.47027587890625,-2.3623905181884766
1695713213188963300,2.08496337890625,0.4767303466796875,-10.254793167114258,-2.0776100158691406
1695713213198484700,2.094484619140625,0.5006866455078125,-9.017749786376953,-3.9680614471435547
1695713213208036900,2.104036865234375,2.2474002838134766,-9.157594680786133,0.30065155029296875
1695713213217588700,2.113588623046875,2.657052993774414,-7.302478790283203,-0.7067108154296875
1695713213227140900,2.123140869140625,1.3966522216796875,-6.520605087280273,-2.553741455078125
1695713213236692700,2.132692626953125,0.7794780731201172,-6.295415878295898,-3.022686004638672
1695713213246214400,2.14221435546875,0.4958953857421875,-6.721837997436523,-3.2454795837402344
1695713213255766300,2.151766357421875,0.7746868133544922,-7.87114143371582,-3.223918914794922
1695713213265318400,2.161318359375,1.1463088989257812,-9.517837524414062,-2.862478256225586
1695713213274870300,2.170870361328125,1.1582870483398438,-11.408588409423828,-2.1542701721191406
1695713213284391700,2.1803916015625,0.6746692657470703,-12.799551010131836,-1.5275135040283203
1695713213293943800,2.18994384765625,0.2194995880126953,-12.972335815429688,-1.4268970489501953
1695713213303495700,2.19949560546875,0.6674823760986328,-12.275806427001953,-1.8027114868164062
1695713213313047800,2.2090478515625,2.0898876190185547,-12.055408477783203,-2.3144779205322266
1695713213322599700,2.218599609375,3.212240219116211,-12.559988021850586,-2.4390506744384766
1695713213332121300,2.228121337890625,3.8126449584960938,-12.875312805175781,-2.5848846435546875
1695713213341673200,2.237673095703125,3.6554317474365234,-12.777990341186523,-2.6471710205078125
1695713213351225300,2.247225341796875,3.112222671508789,-13.007970809936523,-2.271656036376953
1695713213360777200,2.256777099609375,2.3617916107177734,-12.477039337158203,-1.7643814086914062
1695713213370299000,2.266298828125,1.6943092346191406,-11.702352523803711,-1.4484577178955078
1695713213379881200,2.275881103515625,0.9843044281005859,-11.318452835083008,-1.3361625671386719
1695713213389433300,2.285433349609375,0.5054779052734375,-11.351692199707031,-1.3505363464355469
1695713213398985200,2.294985107421875,0.12427330017089844,-11.638269424438477,-1.4724140167236328
1695713213408537300,2.304537353515625,-0.047313690185546875,-11.936824798583984,-1.4724140167236328
1695713213418058800,2.314058837890625,0.019464492797851562,-12.019773483276367,-1.3361625671386719
1695713213427611000,2.32361083984375,3.300579071044922,-11.96078109741211,-0.48182106018066406
1695713213437162800,2.333162841796875,1.799417495727539,-10.621923446655273,-0.3623390197753906
1695713213446715000,2.34271484375,0.5315303802490234,-10.53897476196289,0.12337493896484375
1695713213456236300,2.352236328125,1.8730831146240234,-10.470399856567383,0.18087005615234375
1695713213465788200,2.3617880859375,3.972553253173828,-9.854124069213867,0.14253997802734375
1695713213475340300,2.37134033203125,2.5190048217773438,-8.961153030395508,0.7911567687988281
1695713213484892200,2.38089208984375,1.0582695007324219,-8.866226196289062,1.9994525909423828
1695713213494444300,2.3904443359375,0.24555206298828125,-9.008466720581055,2.6477699279785156
1695713213503965700,2.399965576171875,-0.15451812744140625,-9.157594680786133,3.0783843994140625
1695713213513517800,2.409517822265625,-0.8980617523193359,-9.387575149536133,3.1981658935546875
1695713213523069700,2.419069580078125,-2.0824012756347656,-9.970312118530273,2.6142311096191406
1695713213532621800,2.428621826171875,-3.1640281677246094,-11.131294250488281,1.7362327575683594
1695713213542143200,2.438143310546875,-3.2856063842773438,-11.628986358642578,0.8175086975097656
1695713213551695400,2.4476953125,-4.763111114501953,-10.375473022460938,-0.5728549957275391
1695713213561247200,2.457247314453125,-4.777185440063477,-10.560235977172852,-1.1780509948730469
1695713213570799400,2.46679931640625,-2.749584197998047,-10.946531295776367,-1.1564903259277344
1695713213580351200,2.476351318359375,-0.20003509521484375,-10.97018814086914,-1.3361625671386719
1695713213589872600,2.48587255859375,1.022634506225586,-10.89921760559082,-1.3861713409423828
1695713213599424800,2.4954248046875,1.7158699035644531,-11.0198974609375,-1.3550281524658203
1695713213608976600,2.5049765625,1.4966697692871094,-11.268743515014648,-1.3146018981933594
1695713213618528800,2.51452880859375,0.7890605926513672,-11.287609100341797,-1.3933582305908203
1695713213628050200,2.52405029296875,-0.2737007141113281,-10.910896301269531,-1.5562610626220703
1695713213637602300,2.533602294921875,-0.6788616180419922,-10.456026077270508,-1.8075027465820312
1695713213647154200,2.543154296875,-1.3700008392333984,-10.013134002685547,-1.8958415985107422
1695713213656706300,2.552706298828125,-2.437253952026367,-9.392366409301758,-1.8003158569335938
1695713213666258200,2.562258056640625,-3.0140018463134766,-8.842569351196289,-1.5347003936767578
1695713213675810300,2.571810302734375,-2.887632369995117,-8.565275192260742,-1.080129623413086
1695713213685362200,2.581362060546875,-2.4231796264648438,-8.451482772827148,-0.5560855865478516
1695713213694914300,2.590914306640625,-1.9964580535888672,-8.36164665222168,-0.1254711151123047
1695713213704466200,2.600466064453125,-1.5272140502929688,-8.37332534790039,0.18566131591796875
1695713213713987800,2.60998779296875,-1.1624794006347656,-8.307146072387695,0.3530559539794922
1695713213723539700,2.619539794921875,-1.248422622680664,-8.058300018310547,0.4488811492919922
1695713213733091800,2.629091796875,-1.4984664916992188,-7.698057174682617,0.4369029998779297
1695713213742643700,2.638643798828125,-1.770071029663086,-7.290500640869141,0.4249248504638672
1695713213752195800,2.64819580078125,-1.8679924011230469,-6.785921096801758,0.3889904022216797
1695713213761717200,2.65771728515625,-2.349214553833008,-6.835630416870117,0.4752330780029297
1695713213771269000,2.66726904296875,-2.6471710205078125,-6.783525466918945,0.32221221923828125
1695713213780821200,2.6768212890625,-2.5375709533691406,-6.560731887817383,0.23596954345703125
1695713213790373000,2.686373046875,-2.6136322021484375,-6.238519668579102,0.25992584228515625
1695713213799894800,2.695894775390625,-2.720836639404297,-5.954338073730469,0.29586029052734375
1695713213809446700,2.70544677734375,-2.790010452270508,-5.736335754394531,0.29106903076171875
1695713213818998800,2.714998779296875,-2.8852367401123047,-5.658178329467773,0.29825592041015625
1695713213828550700,2.724550537109375,-2.9735755920410156,-5.6273345947265625,0.26950836181640625
1695713213838102800,2.734102783203125,-3.0592193603515625,-5.70549201965332,0.17847442626953125
1695713213847624200,2.743624267578125,-3.195171356201172,-5.876180648803711,-0.0008983612060546875
1695713213857176300,2.75317626953125,-3.411975860595703,-6.082204818725586,-0.20901870727539062
1695713213866728200,2.762728271484375,-3.7455673217773438,-6.252893447875977,-0.48900794982910156
1695713213876280300,2.7722802734375,-4.324710845947266,-6.451730728149414,-0.8121185302734375
1695713213885801700,2.7818017578125,-4.872711181640625,-6.78831672668457,-1.1157646179199219
1695713213895353600,2.791353515625,-5.215585708618164,-7.371053695678711,-1.3313713073730469
1695713213904905700,2.80090576171875,-5.241937637329102,-8.157718658447266,-1.5394916534423828
1695713213914457600,2.81045751953125,-5.430294036865234,-8.937196731567383,-1.6901168823242188
1695713213924009700,2.820009765625,-5.851924896240234,-9.498971939086914,-1.7260513305664062
1695713213933531100,2.82953125,-6.252294540405273,-9.761892318725586,-1.7715682983398438
1695713213943083300,2.839083251953125,-6.502338409423828,-9.982290267944336,-1.9653148651123047
1695713213952635100,2.84863525390625,-6.876655578613281,-10.242815017700195,-2.2692604064941406
1695713213962217700,2.8582177734375,-7.395908355712891,-10.53897476196289,-2.5252933502197266
1695713213971739100,2.8677392578125,-7.457895278930664,-10.740507125854492,-2.5252933502197266
1695713213981291300,2.877291259765625,-6.952716827392578,-10.52729606628418,-2.3336429595947266
1695713213990843100,2.886843017578125,-6.137903213500977,-9.911020278930664,-1.9868755340576172
1695713214000395300,2.896395263671875,-6.6143341064453125,-8.529640197753906,-2.137500762939453
1695713214009947100,2.905947021484375,-2.0228099822998047,-8.259532928466797,-0.79534912109375
1695713214019468800,2.91546875,-5.711481094360352,-7.648347854614258,-0.5177555084228516
1695713214029020700,2.925020751953125,-6.045072555541992,-6.629606246948242,-0.47463417053222656
1695713214038572800,2.93457275390625,-6.719442367553711,-6.394834518432617,-0.2689094543457031
1695713214048124700,2.944124755859375,-7.746269226074219,-7.546533584594727,-0.18745803833007812
1695713214057646000,2.95364599609375,-8.799448013305664,-10.055656433105469,-0.838470458984375
1695713214067198200,2.9631982421875,-10.145792007446289,-14.142900466918945,-1.8479290008544922
1695713214076750000,2.97275,-10.033796310424805,-19.817548751831055,-1.9892711639404297
1695713214086302200,2.98230224609375,-4.636741638183594,-24.98761749267578,-0.23297500610351562
1695713214095823600,2.99182373046875,5.609367370605469,-25.632041931152344,3.0065155029296875
1695713214105375700,3.001375732421875,8.590429306030273,-18.938352584838867,3.669506072998047
1695713214114927600,3.010927734375,-3.3547801971435547,-7.7834014892578125,2.2435073852539062
1695713214124479700,3.020479736328125,-7.138677597045898,1.5260162353515625,1.1307373046875
1695713214134031600,3.030031494140625,-1.5272140502929688,6.233728408813477,0.7815742492675781
1695713214143553300,3.03955322265625,4.403766632080078,5.726753234863281,2.5998573303222656
1695713214153105200,3.049105224609375,4.870615005493164,2.6157283782958984,4.19325065612793
1695713214162657300,3.0586572265625,0.5530910491943359,-2.6726245880126953,3.1885833740234375
1695713214172209200,3.068209228515625,-2.110849380493164,-9.977499008178711,-0.5345249176025391
1695713214181730600,3.07773046875,0.27429962158203125,-17.08563232421875,-4.355554580688477
1695713214191282700,3.08728271484375,4.444192886352539,-20.93600845336914,-7.073696136474609
1695713214200834600,3.09683447265625,5.978893280029297,-21.0141658782959,-7.57588005065918
1695713214210386700,3.10638671875,3.59344482421875,-18.21816635131836,-5.695310592651367
1695713214219938600,3.1159384765625,0.0263519287109375,-12.600414276123047,-2.929555892944336
1695713214229460200,3.125460205078125,-2.8567886352539062,-7.66032600402832,-0.2976570129394531
1695713214239042600,3.13504248046875,-4.601106643676758,-5.255413055419922,1.0447940826416016
1695713214248594700,3.1445947265625,-4.505580902099609,-4.783773422241211,1.9060230255126953
1695713214258146600,3.154146484375,-2.6064453125,-5.177255630493164,1.9778919219970703
1695713214267668200,3.163668212890625,-0.2404613494873047,-6.366386413574219,1.3125057220458984
1695713214277220000,3.17322021484375,1.5394916534423828,-8.017873764038086,0.3434734344482422
1695713214286772200,3.182772216796875,2.8882312774658203,-9.683734893798828,-0.713897705078125
1695713214296324000,3.192323974609375,2.766653060913086,-10.873165130615234,-1.7428207397460938
1695713214305876200,3.201876220703125,1.0939044952392578,-10.93934440612793,-2.668731689453125
1695713214315397600,3.211397705078125,-0.2928657531738281,-10.074522018432617,-3.2358970642089844
1695713214324949800,3.22094970703125,-0.848052978515625,-8.958757400512695,-3.2023582458496094
1695713214334501600,3.230501708984375,-1.1481056213378906,-7.890007019042969,-2.6950836181640625
1695713214344053800,3.2400537109375,-0.39288330078125,-7.536951065063477,-2.0132274627685547
1695713214353575200,3.2495751953125,0.4958953857421875,-7.7977752685546875,-1.4628314971923828
1695713214363127000,3.259126953125,0.8914737701416016,-8.245458602905273,-1.1828422546386719
1695713214372679200,3.26867919921875,0.7055130004882812,-8.806934356689453,-1.0729427337646484
1695713214382231000,3.27823095703125,0.29106903076171875,-9.198020935058594,-1.1445121765136719
1695713214391783200,3.287783203125,-0.17607879638671875,-9.261804580688477,-1.2834587097167969
1695713214401304600,3.2973046875,-0.4976921081542969,-9.09381103515625,-1.2666893005371094
1695713214410856700,3.306856689453125,-0.3952789306640625,-8.797651290893555,-1.1732597351074219
1695713214420408600,3.31640869140625,0.06707763671875,-8.458669662475586,-1.0825252532958984
1695713214429960700,3.325960693359375,0.5219478607177734,-8.278697967529297,-1.056173324584961
1695713214439482000,3.335482177734375,0.5770473480224609,-8.461065292358398,-1.0441951751708984
1695713214449034200,3.3450341796875,0.3719215393066406,-8.80453872680664,-1.0585689544677734
1695713214458586000,3.354586181640625,-0.054500579833984375,-9.169572830200195,-1.089712142944336
1695713214468138200,3.36413818359375,-0.6336441040039062,-9.498971939086914,-1.1133689880371094
1695713214477690000,3.373690185546875,-1.0432968139648438,-9.852027893066406,-1.1469078063964844
1695713214487211500,3.38321142578125,-1.1148662567138672,-10.062843322753906,-1.1852378845214844
1695713214496763600,3.392763671875,-0.87200927734375,-10.133813858032227,-1.1445121765136719
1695713214506315500,3.4023154296875,-0.44768333435058594,-10.070030212402344,-1.1064815521240234
1695713214515867600,3.41186767578125,-0.09253120422363281,-10.084104537963867,-1.0106563568115234
1695713214525419500,3.42141943359375,0.12427330017089844,-10.22634506225586,-0.9699306488037109
1695713214534971600,3.4309716796875,0.2003345489501953,-10.541370391845703,-1.1684684753417969
1695713214544523500,3.4405234375,0.4006690979003906,-10.927665710449219,-1.6493911743164062
1695713214554075600,3.45007568359375,0.7438430786132812,-11.358879089355469,-2.4390506744384766
1695713214563627500,3.45962744140625,1.358621597290039,-11.538850784301758,-3.233501434326172
1695713214573149200,3.469149169921875,1.5418872833251953,-11.55082893371582,-3.5850601196289062
1695713214582701000,3.478701171875,0.7390518188476562,-11.785301208496094,-3.1688194274902344
1695713214592253200,3.488253173828125,-0.9884967803955078,-12.159618377685547,-2.4773807525634766
1695713214601805000,3.49780517578125,-2.5423622131347656,-12.38241195678711,-1.8551158905029297
1695713214611326700,3.50732666015625,-2.7232322692871094,-12.344381332397461,-1.7476119995117188
1695713214620878600,3.516878662109375,-1.6296272277832031,-12.496204376220703,-2.151874542236328
1695713214630430700,3.5264306640625,-0.5524921417236328,-13.081336975097656,-2.7738399505615234
1695713214639982600,3.535982666015625,0.3267040252685547,-13.413131713867188,-3.403291702270508
1695713214649534700,3.54553466796875,1.449056625366211,-13.076545715332031,-3.9345226287841797
1695713214659056000,3.55505615234375,2.192300796508789,-12.901365280151367,-4.027652740478516
1695713214668608000,3.56460791015625,1.854217529296875,-13.240047454833984,-3.247875213623047
1695713214678160100,3.57416015625,1.3014259338378906,-13.190338134765625,-2.0132274627685547
1695713214687712000,3.5837119140625,1.320291519165039,-12.707019805908203,-1.080129623413086
1695713214697233700,3.593233642578125,1.3035221099853516,-12.02216911315918,-0.22818374633789062
1695713214706785500,3.60278564453125,1.1034870147705078,-11.458297729492188,1.116363525390625
1695713214716337700,3.612337646484375,0.9034519195556641,-11.18100357055664,2.8271427154541016
1695713214725889500,3.6218896484375,0.7246780395507812,-11.292400360107422,4.181272506713867
1695713214735441700,3.631441650390625,0.7150955200195312,-11.363670349121094,4.686151504516602
1695713214744963000,3.640963134765625,0.2338733673095703,-11.546037673950195,4.858636856079102
1695713214754515200,3.65051513671875,-0.6549053192138672,-12.04343032836914,4.719690322875977
1695713214764067000,3.660067138671875,-1.7080841064453125,-12.775594711303711,4.210020065307617
1695713214773619200,3.669619140625,-2.709157943725586,-13.252025604248047,3.1598358154296875
1695713214783140600,3.679140625,-3.6644153594970703,-13.078941345214844,1.6236381530761719
1695713214792692500,3.6886923828125,-3.6883716583251953,-13.060075759887695,0.9369907379150391
1695713214802244600,3.69824462890625,-2.432462692260742,-12.941492080688477,0.5710582733154297
1695713214811796500,3.70779638671875,-0.5312309265136719,-12.315933227539062,0.4632549285888672
1695713214821379000,3.717379150390625,1.3226871490478516,-11.917959213256836,0.4321117401123047
1695713214830900500,3.726900390625,2.7786312103271484,-11.375349044799805,0.14253997802734375
1695713214840452600,3.73645263671875,3.121805191040039,-10.52729606628418,-0.43390846252441406
1695713214850004500,3.74600439453125,3.038257598876953,-9.389970779418945,-1.1588859558105469
1695713214859556600,3.755556640625,0.9986782073974609,-7.932828903198242,-1.6805343627929688
1695713214869078000,3.765078125,-1.0100574493408203,-6.897317886352539,-1.6877212524414062
1695713214878630100,3.774630126953125,-1.5604534149169922,-6.293020248413086,-1.2595024108886719
1695713214888182000,3.78418212890625,-1.6224403381347656,-6.006443023681641,-0.6135807037353516
1695713214897734100,3.793734130859375,-1.8916492462158203,-5.954338073730469,-0.0056896209716796875
1695713214907286000,3.8032861328125,-2.029996871948242,-5.970808029174805,0.4752330780029297
1695713214916807700,3.8128076171875,-2.0728187561035156,-5.968412399291992,0.9681339263916016
1695713214926359600,3.822359619140625,-1.9940624237060547,-6.015726089477539,1.2768707275390625
1695713214935911700,3.83191162109375,-1.8464317321777344,-5.980390548706055,1.3556270599365234
1695713214945463600,3.841463623046875,-1.7512054443359375,-5.897441864013672,1.4322872161865234
1695713214954985000,3.85098486328125,-1.6416053771972656,-5.667461395263672,1.3604183197021484
1695713214964537000,3.860537109375,-1.4316883087158203,-5.271883010864258,1.188232421875
1695713214974089000,3.8700888671875,-1.343648910522461,-4.776586532592773,0.9777164459228516
1695713214983641000,3.87964111328125,-1.5176315307617188,-4.3336944580078125,0.7935523986816406
1695713214993193000,3.88919287109375,-1.8868579864501953,-3.956981658935547,0.6090888977050781
1695713215002714600,3.898714599609375,-2.3276538848876953,-3.748262405395508,0.4704418182373047
1695713215012266500,3.9082666015625,-2.8019886016845703,-3.6868743896484375,0.4536724090576172
1695713215021818600,3.917818603515625,-3.2571582794189453,-3.8003673553466797,0.4800243377685547
1695713215031370500,3.92737060546875,-3.640758514404297,-3.8881072998046875,0.4584636688232422
1695713215040892200,3.93689208984375,-3.9291324615478516,-3.9995040893554688,0.3554515838623047
1695713215050444000,3.946444091796875,-4.319919586181641,-4.276798248291016,0.19524383544921875
1695713215059996200,3.95599609375,-4.674772262573242,-4.824199676513672,-0.07037162780761719
1695713215069548000,3.965548095703125,-5.03471565246582,-5.757596969604492,-0.39318275451660156
1695713215079100200,3.97510009765625,-5.46592903137207,-7.13897705078125,-0.7689971923828125
1695713215088621600,3.98462158203125,-6.2070770263671875,-9.098302841186523,-1.1996116638183594
1695713215098204200,3.9942041015625,-7.412677764892578,-11.467880249023438,-1.8862590789794922
1695713215107756000,4.003756103515625,-8.661399841308594,-14.431873321533203,-3.051433563232422
1695713215117308200,4.01330810546875,-9.092613220214844,-17.39826202392578,-3.9393138885498047
1695713215126829600,4.02282958984375,-9.58820915222168,-19.78191375732422,-3.986927032470703
1695713215136381400,4.03238134765625,-10.541370391845703,-20.199052810668945,-2.8313350677490234
1695713215145933600,4.04193359375,-9.47142219543457,-17.744430541992188,-0.771392822265625
1695713215155485400,4.0514853515625,-6.631103515625,-12.870521545410156,0.6402320861816406
1695713215165037600,4.06103759765625,-4.910741806030273,-7.143768310546875,1.2385406494140625
1695713215174559000,4.07055908203125,-5.2919464111328125,-2.239015579223633,1.5996818542480469
1695713215184111000,4.080111083984375,-6.326259613037109,0.3910865783691406,2.279142379760742
1695713215193663000,4.0896630859375,-6.919477462768555,0.24165916442871094,2.8654727935791016
1695713215203215000,4.099215087890625,-8.363443374633789,-2.6822071075439453,2.1117477416992188
1695713215212736500,4.108736572265625,-9.287857055664062,-7.899589538574219,1.0304203033447266
1695713215222288600,4.11828857421875,-8.816217422485352,-14.86069107055664,0.4632549285888672
1695713215231840500,4.127840576171875,-3.9671630859375,-21.651403427124023,0.6474189758300781
1695713215241392600,4.137392578125,4.584936141967773,-26.53219985961914,1.9922657012939453
1695713215250944500,4.146944580078125,7.756450653076172,-26.66036605834961,2.475584030151367
1695713215260466000,4.1564658203125,-3.7144241333007812,-16.40557289123535,-1.3050193786621094
1695713215270018000,4.16601806640625,-4.507976531982422,-4.385799407958984,-5.680936813354492
1695713215279570000,4.17556982421875,4.799345016479492,2.1324100494384766,-5.444068908691406
1695713215289122000,4.1851220703125,8.664094924926758,3.317049026489258,-0.3288002014160156
1695713215298643500,4.1946435546875,5.037410736083984,1.7769584655761719,3.3152523040771484
1695713215308195600,4.204195556640625,-0.46684837341308594,-2.3123817443847656,2.8367252349853516
1695713215317747500,4.21374755859375,-1.5772228240966797,-8.44219970703125,0.9417819976806641
1695713215327299600,4.223299560546875,0.6102867126464844,-14.595375061035156,-0.3096351623535156
1695713215336851500,4.2328515625,2.914583206176758,-17.924402236938477,-2.1638526916503906
1695713215346373000,4.242373046875,2.790609359741211,-18.554752349853516,-4.133060455322266
1695713215355925000,4.251925048828125,0.3195171356201172,-16.55500030517578,-4.955959320068359
1695713215365477000,4.26147705078125,-2.5732059478759766,-12.849260330200195,-3.4056873321533203
1695713215375029000,4.271029052734375,-3.7907848358154297,-9.37559700012207,-0.7402496337890625
1695713215384581000,4.2805810546875,-3.7240066528320312,-7.25965690612793,1.269683837890625
1695713215394133000,4.290133056640625,-2.575601577758789,-6.14628791809082,2.2411117553710938
1695713215403685000,4.29968505859375,-0.061687469482421875,-5.944755554199219,2.1620559692382812
1695713215413237000,4.309237060546875,2.9334487915039062,-6.755077362060547,1.3412532806396484
1695713215422789000,4.3187890625,4.630153656005859,-8.228988647460938,0.23596954345703125
1695713215432310500,4.328310546875,4.0821533203125,-9.683734893798828,-0.8693141937255859
1695713215441862400,4.3378623046875,1.6919136047363281,-10.29731559753418,-1.7020950317382812
1695713215451414500,4.34741455078125,-0.8028354644775391,-9.884967803955078,-2.099170684814453
1695713215460966400,4.35696630859375,-2.056049346923828,-9.006071090698242,-2.0515575408935547
1695713215470488000,4.366488037109375,-1.5628490447998047,-8.28109359741211,-1.7188644409179688
1695713215480040000,4.3760400390625,-0.3024482727050781,-7.904380798339844,-1.2882499694824219
1695713215489592000,4.385592041015625,0.7746868133544922,-7.852275848388672,-0.7402496337890625
1695713215499144000,4.39514404296875,1.1963176727294922,-7.913663864135742,-0.3072395324707031
1695713215508665600,4.40466552734375,1.2822608947753906,-8.098426818847656,-0.20422744750976562
1695713215518217500,4.414217529296875,1.0939044952392578,-8.269115447998047,-0.42193031311035156
1695713215527769600,4.42376953125,0.5054779052734375,-8.328407287597656,-0.7689971923828125
1695713215537321500,4.433321533203125,0.019464492797851562,-8.349668502807617,-1.0202388763427734
1695713215546873600,4.44287353515625,-0.4144439697265625,-8.295167922973633,-1.1157646179199219
1695713215556395000,4.45239501953125,-0.6025009155273438,-8.21221923828125,-1.0825252532958984
1695713215565947000,4.46194677734375,-0.5884265899658203,-8.26192855834961,-0.8504486083984375
1695713215575499000,4.4714990234375,-0.43570518493652344,-8.394586563110352,-0.7067108154296875
1695713215585051000,4.48105078125,-0.46924400329589844,-8.726381301879883,-0.6827545166015625
1695713215594603000,4.49060302734375,-0.8956661224365234,-9.271387100219727,-0.771392822265625
1695713215604124400,4.50012451171875,-1.4200096130371094,-9.842445373535156,-1.008260726928711
1695713215613676500,4.509676513671875,-1.6128578186035156,-10.197896957397461,-1.2067985534667969
1695713215623228400,4.519228515625,-1.5248184204101562,-10.418294906616211,-1.2738761901855469
1695713215632780500,4.528780517578125,-1.1720619201660156,-10.494056701660156,-1.1948204040527344
1695713215642302000,4.538302001953125,-0.7860660552978516,-10.439556121826172,-1.2355461120605469
1695713215651853800,4.547853759765625,-0.44289207458496094,-10.472795486450195,-1.4676227569580078
1695713215661406000,4.557406005859375,-0.407257080078125,-10.662349700927734,-1.9174022674560547
1695713215670958000,4.5669580078125,-0.1428394317626953,-10.887239456176758,-2.668731689453125
1695713215680510000,4.576510009765625,0.6294517517089844,-11.083980560302734,-3.5826644897460938
1695713215690062000,4.58606201171875,1.1178607940673828,-11.195377349853516,-4.317224502563477
1695713215699614000,4.595614013671875,0.6246604919433594,-11.624195098876953,-4.283685684204102
1695713215709166000,4.605166015625,-0.9196224212646484,-12.41325569152832,-3.6281814575195312
1695713215718718000,4.614718017578125,-2.6588497161865234,-13.02444076538086,-2.896017074584961
1695713215728239400,4.6242392578125,-2.8687667846679688,-12.993597030639648,-2.5848846435546875
1695713215737791500,4.63379150390625,-1.9344711303710938,-13.349048614501953,-2.5896759033203125
1695713215747343400,4.64334326171875,-0.8836879730224609,-14.251901626586914,-2.3384342193603516
1695713215756895500,4.6528955078125,0.0311431884765625,-14.604957580566406,-2.010831832885742
1695713215766447400,4.662447265625,1.353830337524414,-14.199796676635742,-2.307291030883789
1695713215775969000,4.671968994140625,2.3474178314208984,-13.934480667114258,-2.199787139892578
1695713215785521000,4.68152099609375,2.161457061767578,-13.609872817993164,-1.1996116638183594
1695713215795073000,4.691072998046875,1.349039077758789,-12.441703796386719,-0.09672355651855469
1695713215804625000,4.700625,0.7866649627685547,-11.024688720703125,1.0304203033447266
1695713215814146300,4.710146240234375,0.5983085632324219,-10.550952911376953,2.6046485900878906
1695713215823698400,4.719698486328125,0.5626735687255859,-10.884843826293945,4.339384078979492
1695713215833250600,4.72925048828125,0.5339260101318359,-11.164533615112305,5.097900390625
1695713215842802400,4.738802490234375,0.17428207397460938,-11.602933883666992,5.207799911499023
1695713215852323800,4.74832373046875,-0.7408485412597656,-12.555496215820312,5.296438217163086
1695713215861876000,4.7578759765625,-2.101266860961914,-13.711687088012695,5.0715484619140625
1695713215871427800,4.767427734375,-3.562002182006836,-14.886743545532227,4.470844268798828
1695713215880980000,4.77697998046875,-4.917928695678711,-15.493436813354492,3.5760765075683594
1695713215890531800,4.78653173828125,-5.451555252075195,-15.56201171875,2.7600650787353516
1695713215900053500,4.796053466796875,-3.912363052368164,-14.70916748046875,1.5781211853027344
1695713215909605400,4.80560546875,-1.0052661895751953,-13.349048614501953,0.4991893768310547
1695713215919157500,4.815157470703125,2.023408889770508,-12.398881912231445,0.4920024871826172
1695713215928709400,4.82470947265625,2.9406356811523438,-12.424934387207031,0.7695960998535156
1695713215938230800,4.834230712890625,3.1242008209228516,-11.692770004272461,0.14253997802734375
1695713215947783000,4.843782958984375,2.790609359741211,-10.242815017700195,-0.8812923431396484
1695713215957365500,4.853365478515625,1.0058650970458984,-8.330802917480469,-1.7571945190429688
1695713215966917400,4.86291748046875,-0.7576179504394531,-6.741003036499023,-1.9078197479248047
1695713215976469500,4.872469482421875,-1.2672882080078125,-5.852224349975586,-1.6374130249023438
1695713215985991000,4.881990966796875,-1.3888664245605469,-5.267091751098633,-1.2618980407714844
1695713215995543000,4.89154296875,-1.4864883422851562,-4.857139587402344,-0.733062744140625
1695713216005095000,4.901094970703125,-1.4460620880126953,-4.708011627197266,-0.1278667449951172
1695713216014647000,4.91064697265625,-1.4460620880126953,-4.790960311889648,0.5471019744873047
1695713216024168400,4.92016845703125,-1.665262222290039,-4.857139587402344,1.0756378173828125
1695713216033720300,4.92972021484375,-1.813192367553711,-4.824199676513672,1.372396469116211
1695713216043272400,4.9392724609375,-1.660470962524414,-4.641532897949219,1.5137386322021484
1695713216052824300,4.94882421875,-1.3768882751464844,-4.409456253051758,1.482595443725586
1695713216062376400,4.95837646484375,-1.253213882446289,-3.978242874145508,1.25531005859375
1695713216071897900,4.96789794921875,-1.3172969818115234,-3.464080810546875,0.8627262115478516
1695713216081450000,4.977449951171875,-1.5984840393066406,-2.940336227416992,0.4584636688232422
1695713216091001900,4.987001953125,-2.056049346923828,-2.530384063720703,0.07815742492675781
1695713216100554000,4.996553955078125,-2.4159927368164062,-2.381256103515625,-0.08953666687011719
1695713216110075400,5.006075439453125,-2.6875972747802734,-2.5779972076416016,-0.015272140502929688
1695713216119627300,5.015627197265625,-2.8759536743164062,-3.01849365234375,0.27429962158203125
1695713216129179400,5.025179443359375,-3.097249984741211,-3.317049026489258,0.4800243377685547
1695713216138731500,5.0347314453125,-3.3119583129882812,-3.608417510986328,0.5087718963623047
1695713216148283400,5.044283447265625,-3.5239715576171875,-4.269611358642578,0.4249248504638672
1695713216157804800,5.0538046875,-4.052806854248047,-5.418914794921875,0.28388214111328125
1695713216167357000,5.06335693359375,-4.758319854736328,-7.100946426391602,0.32700347900390625
1695713216176908800,5.07290869140625,-5.435085296630859,-9.152803421020508,0.4680461883544922
1695713216186461000,5.0824609375,-6.333147048950195,-12.06259536743164,0.25992584228515625
1695713216195982300,5.091982421875,-7.9990081787109375,-16.31543731689453,-0.8645229339599609
1695713216205534500,5.101534423828125,-9.247430801391602,-21.30792999267578,-1.9581279754638672
1695713216215086300,5.11108642578125,-9.052186965942383,-25.414039611816406,-1.3789844512939453
1695713216224638500,5.120638427734375,-11.003726959228516,-26.214778900146484,0.5758495330810547
1695713216234190300,5.1301904296875,-11.015405654907227,-21.331586837768555,1.8892536163330078
1695713216243742500,5.139742431640625,-8.134660720825195,-12.301858901977539,1.5948905944824219
1695713216253294300,5.14929443359375,-6.516712188720703,-3.264944076538086,0.4488811492919922
1695713216262846500,5.158846435546875,-5.451555252075195,3.300579071044922,0.25992584228515625
1695713216272398300,5.1683984375,-4.634346008300781,6.060943603515625,1.0708465576171875
1695713216281919700,5.177919677734375,-4.910741806030273,5.312009811401367,2.0949783325195312
1695713216291472000,5.187471923828125,-5.797124862670898,2.288724899291992,1.9659137725830078
1695713216301023700,5.197023681640625,-5.384777069091797,-2.8052825927734375,0.9393863677978516
1695713216310575900,5.206575927734375,-5.565946578979492,-10.744998931884766,0.10900115966796875
1695713216320128000,5.2161279296875,-3.9360198974609375,-19.79389190673828,-0.15391921997070312
1695713216329649400,5.2256494140625,1.2466259002685547,-27.871057510375977,0.5995063781738281
1695713216339201300,5.235201171875,4.582540512084961,-34.22336959838867,1.9874744415283203
1695713216348753400,5.24475341796875,-0.9196224212646484,-31.681007385253906,2.1045608520507812
1695713216358305300,5.25430517578125,-5.978294372558594,-16.571470260620117,-2.781026840209961
1695713216367827000,5.263826904296875,3.0598182678222656,-3.028076171875,-4.910741806030273
1695713216377378800,5.27337890625,9.445669174194336,4.41185188293457,-1.5275135040283203
1695713216386931000,5.282930908203125,4.444192886352539,6.285833358764648,3.853670120239258
1695713216396482800,5.29248291015625,-2.3944320678710938,4.577749252319336,4.9421844482421875
1695713216406035000,5.302034912109375,-5.380285263061523,-0.32700347900390625,2.757669448852539
1695713216415556400,5.311556396484375,-1.0292224884033203,-7.64116096496582,1.1235504150390625
1695713216425108200,5.321108154296875,4.620571136474609,-13.737739562988281,-0.3431739807128906
1695713216434660400,5.330660400390625,7.267742156982422,-17.90793228149414,-1.9820842742919922
1695713216444212200,5.340212158203125,5.516536712646484,-20.18467903137207,-3.4631824493408203
1695713216453734000,5.34973388671875,0.8318824768066406,-19.537858963012695,-3.5706863403320312
1695713216463285800,5.35928564453125,-3.156841278076172,-15.462593078613281,-1.8170852661132812
1695713216472838000,5.368837890625,-5.03471565246582,-10.726133346557617,0.4464855194091797
1695713216482389800,5.3783896484375,-5.868694305419922,-7.672004699707031,1.7506065368652344
1695713216491942000,5.38794189453125,-4.107606887817383,-6.072622299194336,2.1596603393554688
1695713216501463300,5.39746337890625,-0.4809226989746094,-5.302726745605469,1.8652973175048828
1695713216511015400,5.407015380859375,2.9478225708007812,-5.248226165771484,1.111572265625
1695713216520567300,5.4165673828125,4.754127502441406,-6.34752082824707,0.28148651123046875
1695713216530119400,5.426119384765625,4.086645126342773,-7.970560073852539,-0.5441074371337891
1695713216539671300,5.43567138671875,1.420309066772461,-8.745546340942383,-1.1876335144042969
1695713216549223400,5.445223388671875,-0.8408660888671875,-8.92312240600586,-1.5227222442626953
1695713216558775300,5.454775390625,-1.9775924682617188,-8.676671981811523,-1.5155353546142578
1695713216568327400,5.464327392578125,-1.8703880310058594,-8.117591857910156,-1.3433494567871094
1695713216577848800,5.473848876953125,-1.0576705932617188,-7.928037643432617,-0.9962825775146484
1695713216587400700,5.483400634765625,0.13146018981933594,-8.157718658447266,-0.5536899566650391
1695713216596952800,5.492952880859375,1.2178783416748047,-8.59372329711914,-0.2689094543457031
1695713216606504700,5.502504638671875,1.6014785766601562,-8.868621826171875,-0.24255752563476562
1695713216616056800,5.512056884765625,1.1463088989257812,-9.029727935791016,-0.3335914611816406
1695713216625578200,5.521578125,0.08354759216308594,-9.053384780883789,-0.5153598785400391
1695713216635130400,5.53113037109375,-0.7597141265869141,-8.941987991333008,-0.6252593994140625
1695713216644682200,5.54068212890625,-1.258005142211914,-8.927913665771484,-0.6111850738525391
1695713216654234400,5.550234375,-1.4532489776611328,-9.086624145507812,-0.6087894439697266
1695713216663786200,5.5597861328125,-1.5200271606445312,-9.176759719848633,-0.752227783203125
1695713216673308000,5.569307861328125,-1.4412708282470703,-9.287857055664062,-0.9028530120849609
1695713216682859800,5.57885986328125,-1.258005142211914,-9.508255004882812,-0.9483699798583984
1695713216692412000,5.588411865234375,-0.9768180847167969,-9.607973098754883,-0.9435787200927734
1695713216701963800,5.5979638671875,-0.7264747619628906,-9.749914169311523,-0.8717098236083984
1695713216711485200,5.607485107421875,-0.6240615844726562,-9.854423522949219,-0.7258758544921875
1695713216721037300,5.617037353515625,-0.3856964111328125,-9.809206008911133,-0.7067108154296875
1695713216730589200,5.626589111328125,-0.2476482391357422,-10.141000747680664,-0.6971282958984375
1695713216740141300,5.636141357421875,-0.2141094207763672,-10.766559600830078,-0.713897705078125
1695713216749662700,5.645662841796875,-0.030843734741210938,-11.226221084594727,-0.9196224212646484
1695713216759214800,5.65521484375,0.4911041259765625,-11.219034194946289,-1.3957538604736328
1695713216768766700,5.6647666015625,1.2011089324951172,-10.927665710449219,-1.9102153778076172
1695713216778318800,5.67431884765625,1.415517807006836,-10.792612075805664,-1.9844799041748047
1695713216787870700,5.68387060546875,0.42672157287597656,-11.221429824829102,-1.5275135040283203
1695713216797392400,5.693392333984375,-1.29364013671875,-12.128774642944336,-0.8884792327880859
1695713216806944300,5.7029443359375,-2.754375457763672,-12.728281021118164,-0.637237548828125
1695713216816526800,5.71252685546875,-3.1736106872558594,-12.93460464477539,-1.0394039154052734
1695713216826078700,5.72207861328125,-2.496845245361328,-13.339765548706055,-1.8191814422607422
1695713216835600400,5.731600341796875,-1.0432968139648438,-13.912919998168945,-2.489358901977539
1695713216845152300,5.74115234375,0.48870849609375,-13.92729377746582,-2.9463253021240234
1695713216854704400,5.750704345703125,1.885061264038086,-13.488893508911133,-3.432039260864258
1695713216864256300,5.76025634765625,2.785818099975586,-13.510154724121094,-3.4535999298095703
1695713216873808400,5.769808349609375,2.3522090911865234,-13.56705093383789,-2.364786148071289
1695713216883329800,5.779329833984375,1.5634479522705078,-12.628862380981445,-1.1588859558105469
1695713216892881700,5.788881591796875,0.9390869140625,-11.446619033813477,-0.1254711151123047
1695713216902433800,5.798433837890625,0.6294517517089844,-10.747394561767578,1.429891586303711
1695713216911985700,5.807985595703125,0.5243434906005859,-10.617132186889648,3.322439193725586
1695713216921507300,5.81750732421875,0.915130615234375,-10.756977081298828,4.702920913696289
1695713216931059200,5.82705908203125,1.4370784759521484,-10.89921760559082,5.06915283203125
1695713216940611300,5.836611328125,1.2346477508544922,-11.245086669921875,5.0787353515625
1695713216950163200,5.8461630859375,0.3147258758544922,-12.23298454284668,4.949371337890625
1695713216959715300,5.85571533203125,-1.229257583618164,-13.40594482421875,4.710107803344727
1695713216969236700,5.86523681640625,-3.040353775024414,-14.052764892578125,4.011482238769531
1695713216978788900,5.874788818359375,-4.705915451049805,-14.050369262695312,2.910989761352539
1695713216988340700,5.8843408203125,-5.189533233642578,-13.505363464355469,1.7745628356933594
1695713216997892900,5.893892822265625,-4.009984970092773,-13.03402328491211,1.188232421875
1695713217007414300,5.903414306640625,-2.0036449432373047,-12.579153060913086,1.0708465576171875
1695713217016966100,5.912966064453125,0.7366561889648438,-12.24256706237793,1.125946044921875
1695713217026518300,5.922518310546875,3.1622314453125,-12.140752792358398,1.1906280517578125
1695713217036070100,5.932070068359375,4.186962127685547,-11.652643203735352,0.8127174377441406
1695713217045622300,5.941622314453125,4.441797256469727,-10.396734237670898,-0.1278667449951172
1695713217055143700,5.951143798828125,1.9874744415283203,-8.752433776855469,-0.9363918304443359
1695713217064695800,5.96069580078125,-0.8172092437744141,-7.432741165161133,-1.2810630798339844
1695713217074247700,5.97024755859375,-2.354005813598633,-6.7005767822265625,-1.0633602142333984
1695713217083799800,5.9797998046875,-2.8115711212158203,-6.27655029296875,-0.5465030670166016
1695713217093321200,5.9893212890625,-2.466001510620117,-6.008838653564453,-0.020063400268554688
1695713217102903800,5.99890380859375,-1.9868755340576172,-5.918703079223633,0.7456398010253906
1695713217112455700,6.00845556640625,-1.660470962524414,-5.887859344482422,1.4897823333740234
1695713217122007800,6.0180078125,-1.5104446411132812,-5.731544494628906,1.9587268829345703
1695713217131559700,6.0275595703125,-1.7320404052734375,-5.326383590698242,2.2671642303466797
1695713217141081300,6.037081298828125,-1.655679702758789,-4.812221527099609,2.1380996704101562
1695713217150633200,6.04663330078125,-1.3268795013427734,-4.286081314086914,1.8605060577392578
1695713217160185300,6.056185302734375,-1.0957012176513672,-3.736583709716797,1.5948905944824219
1695713217169737200,6.0657373046875,-1.2032051086425781,-3.181995391845703,1.202606201171875
1695713217179258600,6.075258544921875,-1.6392097473144531,-2.6986770629882812,0.8770999908447266
1695713217188810800,6.084810791015625,-2.234823226928711,-2.36688232421875,0.5947151184082031
1695713217198362600,6.094362548828125,-2.7019710540771484,-2.222545623779297,0.3937816619873047
1695713217207914800,6.103914794921875,-3.0379581451416016,-2.3528079986572266,0.28627777099609375
1695713217217466600,6.113466552734375,-3.2119407653808594,-2.7319164276123047,0.4321117401123047
1695713217226988300,6.12298828125,-3.411975860595703,-3.1394729614257812,0.5518932342529297
1695713217236540200,6.1325400390625,-3.595541000366211,-3.5281639099121094,0.5614757537841797
1695713217246092300,6.14209228515625,-3.797971725463867,-4.0989227294921875,0.4536724090576172
1695713217255644200,6.15164404296875,-4.171989440917969,-4.968536376953125,0.26471710205078125
1695713217265165800,6.161165771484375,-4.905950546264648,-6.565523147583008,-0.015272140502929688
1695713217274717700,6.1707177734375,-5.956733703613281,-8.72398567199707,-0.2856788635253906
1695713217284269800,6.180269775390625,-7.279121398925781,-11.498723983764648,-0.651611328125
1695713217293821700,6.18982177734375,-8.739856719970703,-15.033775329589844,-1.6661605834960938
1695713217303373800,6.199373779296875,-9.523826599121094,-19.13988494873047,-2.785818099975586
1695713217312895200,6.208895263671875,-9.376195907592773,-23.193889617919922,-2.5609283447265625
1695713217322447000,6.218447021484375,-10.805788040161133,-24.772010803222656,-1.1852378845214844
1695713217331999200,6.227999267578125,-10.491361618041992,-21.338773727416992,0.4920024871826172
1695713217341551000,6.237551025390625,-6.6334991455078125,-14.142900466918945,1.3652095794677734
1695713217351072800,6.24707275390625,-4.167198181152344,-6.553844451904297,1.5685386657714844
1695713217360624600,6.256624755859375,-4.319919586181641,-0.40755653381347656,1.8341541290283203
1695713217370176800,6.2661767578125,-5.2871551513671875,2.7271251678466797,2.539966583251953
1695713217379728600,6.275728759765625,-5.930681228637695,2.144388198852539,3.0783843994140625
1695713217389280800,6.28528076171875,-7.121908187866211,-1.7769584655761719,2.0350875854492188
1695713217398832600,6.29483251953125,-7.551025390625,-8.29277229309082,1.19781494140625
1695713217408384800,6.304384765625,-6.287929534912109,-16.377124786376953,1.5041561126708984
1695713217417936600,6.3139365234375,-2.006040573120117,-23.736499786376953,2.475584030151367
1695713217427488800,6.32348876953125,5.151802062988281,-27.098766326904297,3.573680877685547
1695713217437010200,6.33301025390625,3.167022705078125,-23.485258102416992,2.863077163696289
1695713217446562300,6.342562255859375,-6.111551284790039,-12.948678970336914,-2.3192691802978516
1695713217456114200,6.3521142578125,0.5578823089599609,-3.7081356048583984,-4.955959320068359
1695713217465666300,6.361666259765625,8.659303665161133,1.6514873504638672,-2.359994888305664
1695713217475218200,6.37121826171875,6.01213264465332,2.8717613220214844,1.264892578125
1695713217484739600,6.380739501953125,-0.2212963104248047,0.7630081176757812,2.535175323486328
1695713217494291700,6.390291748046875,-3.3023757934570312,-4.238767623901367,1.4322872161865234
1695713217503843600,6.399843505859375,-0.9696311950683594,-10.522504806518555,0.5423107147216797
1695713217513395700,6.409395751953125,2.905000686645508,-15.095462799072266,-0.18745803833007812
1695713217522917000,6.418917236328125,4.163005828857422,-18.061851501464844,-0.9771175384521484
1695713217532469200,6.42846923828125,2.73101806640625,-18.552356719970703,-1.7979202270507812
1695713217542021000,6.438021240234375,-0.10211372375488281,-16.56428337097168,-1.7547988891601562
1695713217551573200,6.4475732421875,-2.892423629760742,-12.794759750366211,-0.24016189575195312
1695713217561125000,6.457125,-4.203132629394531,-9.520233154296875,1.511343002319336
1695713217570646800,6.466646728515625,-4.336389541625977,-7.463584899902344,2.6477699279785156
1695713217580198700,6.47619873046875,-2.8687667846679688,-6.328655242919922,2.8127689361572266
1695713217589750800,6.485750732421875,-0.7312660217285156,-5.866598129272461,2.1380996704101562
1695713217599302700,6.495302734375,1.6014785766601562,-6.418790817260742,1.1379241943359375
1695713217608824000,6.504823974609375,3.6698055267333984,-7.714826583862305,0.12097930908203125
1695713217618376200,6.514376220703125,3.707836151123047,-8.548805236816406,-0.6396331787109375
1695713217627928000,6.523927978515625,2.5902748107910156,-8.980018615722656,-1.070547103881836
1695713217637480200,6.533480224609375,0.7746868133544922,-8.728776931762695,-1.0154476165771484
1695713217647032000,6.543031982421875,-0.8100223541259766,-7.9942169189453125,-0.68035888671875
1695713217656553700,6.5525537109375,-1.4864883422851562,-7.627086639404297,-0.3383827209472656
1695713217666105600,6.562105712890625,-1.0624618530273438,-7.636669158935547,0.09732246398925781
1695713217675657700,6.57165771484375,0.1907520294189453,-7.804662704467773,0.4369029998779297
1695713217685240000,6.581239990234375,1.4870872497558594,-8.043926239013672,0.4632549285888672
1695713217694761700,6.59076171875,2.1994876861572266,-8.21221923828125,0.23596954345703125
1695713217704313600,6.600313720703125,1.9994525909423828,-8.390094757080078,-0.14194107055664062
1695713217713865700,6.60986572265625,0.9414825439453125,-8.50358772277832,-0.44349098205566406
1695713217723417600,6.61941748046875,-0.3072395324707031,-8.617380142211914,-0.5393161773681641
1695713217732969700,6.6289697265625,-0.9004573822021484,-8.71230697631836,-0.39557838439941406
1695713217742491100,6.6384912109375,-0.9004573822021484,-8.875808715820312,-0.2737007141113281
1695713217752043300,6.648043212890625,-0.8836879730224609,-9.103094100952148,-0.2689094543457031
1695713217761595100,6.65759521484375,-0.848052978515625,-9.361522674560547,-0.3120307922363281
1695713217771147300,6.667147216796875,-0.8741054534912109,-9.600786209106445,-0.2832832336425781
1695713217780668700,6.676668701171875,-0.828887939453125,-9.704996109008789,-0.21620559692382812
1695713217790220500,6.686220458984375,-0.5620746612548828,-9.749914169311523,-0.020063400268554688
1695713217799772700,6.695772705078125,-0.4024658203125,-9.95623779296875,0.11618804931640625
1695713217809324500,6.705324462890625,-0.46924400329589844,-10.162261962890625,-0.21380996704101562
1695713217818846200,6.71484619140625,-0.47643089294433594,-10.453630447387695,-0.9627437591552734
1695713217828398000,6.724398193359375,-0.16410064697265625,-11.005823135375977,-1.4987659454345703
1695713217837950200,6.7339501953125,0.29106903076171875,-11.498723983764648,-1.6829299926757812
1695713217847502000,6.743502197265625,0.8510475158691406,-11.53166389465332,-1.9317760467529297
1695713217857054200,6.75305419921875,1.3990478515625,-11.273534774780273,-2.3767642974853516
1695713217866575600,6.76257568359375,1.5442829132080078,-11.150459289550781,-2.340829849243164
1695713217876127700,6.772127685546875,0.7698955535888672,-11.636173248291016,-1.8407421112060547
1695713217885679600,6.7816796875,-1.1864356994628906,-12.503091812133789,-1.1708641052246094
1695713217895231700,6.791231689453125,-3.3499889373779297,-13.176263809204102,-0.651611328125
1695713217904783600,6.80078369140625,-3.8955936431884766,-13.019649505615234,-0.6207675933837891
1695713217914305000,6.810304931640625,-2.5732059478759766,-12.54351806640625,-1.1301383972167969
1695713217923857200,6.819857177734375,-1.1672706604003906,-13.147815704345703,-1.4197101593017578
1695713217933409000,6.829408935546875,-0.2737007141113281,-14.081212997436523,-1.3481407165527344
1695713217942961200,6.838961181640625,0.7294692993164062,-14.074026107788086,-1.5347003936767578
1695713217952482600,6.848482666015625,1.8518218994140625,-13.633529663085938,-1.8982372283935547
1695713217962065200,6.858065185546875,2.537870407104492,-13.322996139526367,-1.5847091674804688
1695713217971617000,6.867616943359375,2.4570178985595703,-12.766311645507812,-0.6540069580078125
1695713217981169200,6.877169189453125,1.9114131927490234,-11.662225723266602,0.24076080322265625
1695713217990690600,6.886690673828125,1.4014434814453125,-10.93934440612793,1.3412532806396484
1695713218000242700,6.89624267578125,0.8103218078613281,-10.735715866088867,3.1071319580078125
1695713218009794600,6.905794677734375,0.6842517852783203,-10.522504806518555,4.638538360595703
1695713218019346700,6.9153466796875,0.8818912506103516,-10.631505966186523,5.346746444702148
1695713218028898600,6.924898681640625,0.7651042938232422,-11.318452835083008,5.389568328857422
1695713218038420200,6.934420166015625,-0.11169624328613281,-12.777990341186523,5.131139755249023
1695713218047972000,6.94397216796875,-1.4819965362548828,-14.377372741699219,4.430118560791016
1695713218057524200,6.953524169921875,-3.366758346557617,-15.379644393920898,3.167022705078125
1695713218067076000,6.963076171875,-5.206302642822266,-15.192485809326172,1.3412532806396484
1695713218076597500,6.972597412109375,-5.57313346862793,-14.382164001464844,0.08294868469238281
1695713218086149600,6.982149658203125,-4.357950210571289,-13.470027923583984,-0.17787551879882812
1695713218095701500,6.991701416015625,-2.153970718383789,-12.628862380981445,0.22159576416015625
1695713218105253600,7.001253662109375,1.1034870147705078,-11.993721008300781,0.8031349182128906
1695713218114805500,7.010805419921875,3.736583709716797,-11.782905578613281,1.511343002319336
1695713218124327200,7.0203271484375,4.668184280395508,-11.887115478515625,2.1788253784179688
1695713218133879000,7.029879150390625,5.344949722290039,-10.847112655639648,2.013826370239258
1695713218143431200,7.03943115234375,-1.214883804321289,-8.115196228027344,0.7456398010253906
1695713218152983000,7.048983154296875,5.733341217041016,-6.200788497924805,0.29346466064453125
1695713218162504700,7.058504638671875,1.6658611297607422,-5.793231964111328,0.5899238586425781
1695713218172056600,7.068056640625,-0.8408660888671875,-5.677043914794922,0.3530559539794922
1695713218181608700,7.077608642578125,-1.1316356658935547,-5.643804550170898,0.3506603240966797
1695713218191160600,7.08716064453125,-1.9775924682617188,-5.518333435058594,0.6114845275878906
1695713218200712700,7.096712646484375,-2.639984130859375,-5.527915954589844,1.037607192993164
1695713218210234000,7.106234130859375,-2.9235668182373047,-5.582117080688477,1.473012924194336
1695713218219786000,7.115785888671875,-2.620819091796875,-5.492280960083008,1.8125934600830078
1695713218229338000,7.125338134765625,-1.8988361358642578,-5.214986801147461,1.8581104278564453
1695713218238890000,7.134889892578125,-1.0648574829101562,-4.76251220703125,1.7506065368652344
1695713218248442000,7.144442138671875,-0.6240615844726562,-4.245954513549805,1.525716781616211
1695713218257994000,7.153993896484375,-0.5336265563964844,-3.717418670654297,1.2816619873046875
1695713218267546000,7.163546142578125,-0.6025009155273438,-3.2248172760009766,1.051980972290039
1695713218277098000,7.173097900390625,-0.9432792663574219,-2.80767822265625,0.8842868804931641
1695713218286650000,7.182650146484375,-1.5272140502929688,-2.518705368041992,0.7863655090332031
1695713218296171500,7.192171630859375,-2.039579391479492,-2.4001216888427734,0.7336616516113281
1695713218305723600,7.2017236328125,-2.265666961669922,-2.5944671630859375,0.8435611724853516
1695713218315275500,7.211275634765625,-2.5279884338378906,-3.0140018463134766,0.9992771148681641
1695713218324827600,7.22082763671875,-2.887632369995117,-3.5542163848876953,0.9825077056884766
1695713218334349000,7.23034912109375,-3.352384567260742,-4.340581893920898,0.8435611724853516
1695713218343901200,7.239901123046875,-3.952789306640625,-5.6153564453125,0.5590801239013672
1695713218353453000,7.249453125,-4.941585540771484,-7.463584899902344,0.31023406982421875
1695713218363005200,7.259005126953125,-6.440650939941406,-9.93707275390625,-0.06558036804199219
1695713218372557000,7.26855712890625,-8.587434768676758,-13.268495559692383,-0.9483699798583984
1695713218382078500,7.278078369140625,-10.212570190429688,-17.192237854003906,-2.508523941040039
1695713218391630600,7.287630615234375,-9.867000579833984,-20.90516471862793,-2.8648738861083984
1695713218401182500,7.297182373046875,-8.532634735107422,-23.425966262817383,-1.5155353546142578
1695713218410734600,7.306734619140625,-9.626239776611328,-23.013917922973633,0.4776287078857422
1695713218420256000,7.316256103515625,-10.33175277709961,-18.471803665161133,1.9754962921142578
1695713218429808000,7.32580810546875,-7.939416885375977,-11.692770004272461,2.4683971405029297
1695713218439360000,7.335360107421875,-5.373098373413086,-4.743646621704102,1.9994525909423828
1695713218448912100,7.344912109375,-4.789163589477539,0.4881095886230469,1.9587268829345703
1695713218458464000,7.354464111328125,-4.627159118652344,2.549549102783203,2.654956817626953
1695713218467985700,7.363985595703125,-4.541515350341797,1.3837757110595703,3.231405258178711
1695713218477537500,7.37353759765625,-5.980690002441406,-2.5684146881103516,1.9108142852783203
1695713218487089700,7.383089599609375,-8.823404312133789,-8.818912506103516,0.7552223205566406
1695713218496641500,7.3926416015625,-9.366613388061523,-16.699337005615234,1.2577056884765625
1695713218506163000,7.402162841796875,-4.713102340698242,-23.655946731567383,2.5806922912597656
1695713218515715000,7.411715087890625,4.227388381958008,-26.97299575805664,3.8081531524658203
1695713218525267000,7.421266845703125,9.019247055053711,-23.625102996826172,4.509174346923828
1695713218534849500,7.430849609375,-0.7216835021972656,-15.064619064331055,2.9873504638671875
1695713218544401700,7.440401611328125,-5.644702911376953,-4.653511047363281,-1.9868755340576172
1695713218553923000,7.449923095703125,2.0422744750976562,2.0566482543945312,-3.1256980895996094
1695713218563475000,7.459474853515625,7.370454788208008,4.186662673950195,-0.20662307739257812
1695713218573027000,7.469027099609375,3.786592483520508,3.063711166381836,2.501636505126953
1695713218582579000,7.478578857421875,-1.308013916015625,-1.7793540954589844,1.9731006622314453
1695713218592100600,7.4881005859375,-1.9368667602539062,-8.23138427734375,0.07576179504394531
1695713218601652500,7.497652587890625,0.45307350158691406,-14.351320266723633,-1.1253471374511719
1695713218611204600,7.50720458984375,3.321840286254883,-17.801326751708984,-2.123126983642578
1695713218620756500,7.516756591796875,4.813419342041016,-18.5616397857666,-2.572906494140625
1695713218630308600,7.52630859375,3.4314403533935547,-17.43629264831543,-2.223743438720703
1695713218639830000,7.535830078125,0.4719390869140625,-14.943639755249023,-0.5968112945556641
1695713218649382100,7.545382080078125,-1.5796184539794922,-11.174116134643555,1.7242546081542969
1695713218658934000,7.55493408203125,-2.9044017791748047,-8.610193252563477,3.5185813903808594
1695713218668486100,7.564486083984375,-3.149953842163086,-7.086872100830078,4.097724914550781
1695713218678007600,7.574007568359375,-1.9560317993164062,-6.051361083984375,3.3631649017333984
1695713218687559400,7.583559326171875,0.0550994873046875,-5.878576278686523,2.1740341186523438
1695713218697111600,7.593111572265625,2.285430908203125,-7.022789001464844,1.1954193115234375
1695713218706663400,7.602663330078125,3.967761993408203,-8.671880722045898,0.3889904022216797
1695713218716215600,7.612215576171875,3.529062271118164,-9.719070434570312,-0.09911918640136719
1695713218725737000,7.621737060546875,1.2298564910888672,-9.700204849243164,-0.18745803833007812
1695713218735289000,7.6312890625,-0.8312835693359375,-9.100698471069336,-0.21380996704101562
1695713218744841000,7.640841064453125,-1.5984840393066406,-8.205331802368164,-0.24016189575195312
1695713218754393000,7.65039306640625,-1.3556270599365234,-7.532159805297852,-0.24255752563476562
1695713218763914500,7.65991455078125,-0.34287452697753906,-7.3617706298828125,0.0038928985595703125
1695713218773466600,7.669466552734375,1.1034870147705078,-7.601034164428711,0.28627777099609375
1695713218783018500,7.6790185546875,1.9826831817626953,-8.259532928466797,0.4153423309326172
1695713218792570600,7.688570556640625,1.9114131927490234,-8.745546340942383,0.5015850067138672
1695713218802122500,7.69812255859375,0.9843044281005859,-8.695537567138672,0.3961772918701172
1695713218811644000,7.707643798828125,-0.08085250854492188,-8.200540542602539,0.07815742492675781
1695713218821226500,7.7172265625,-0.8408660888671875,-8.074769973754883,-0.3240089416503906
1695713218830778600,7.726778564453125,-1.329275131225586,-8.517961502075195,-0.85284423828125
1695713218840330500,7.73633056640625,-1.4316883087158203,-9.122259140014648,-1.2618980407714844
1695713218849852000,7.745851806640625,-0.9840049743652344,-9.342357635498047,-1.3505363464355469
1695713218859404000,7.755404052734375,-0.4833183288574219,-9.278573989868164,-1.1732597351074219
1695713218868956000,7.764955810546875,-0.2356700897216797,-9.072250366210938,-0.733062744140625
1695713218878508000,7.774508056640625,-0.1452350616455078,-8.901861190795898,-0.14673233032226562
1695713218888029400,7.784029541015625,-0.32610511779785156,-8.837778091430664,0.31023406982421875
1695713218897581600,7.79358154296875,-0.8696136474609375,-9.112676620483398,0.4488811492919922
1695713218907133400,7.803133544921875,-1.4676227569580078,-9.610069274902344,0.25753021240234375
1695713218916685600,7.812685546875,-1.5320053100585938,-10.3682861328125,0.0014972686767578125
1695713218926237400,7.822237548828125,-0.9408836364746094,-11.18100357055664,-0.16589736938476562
1695713218935759000,7.831759033203125,-0.054500579833984375,-11.586164474487305,-0.7162933349609375
1695713218945311000,7.84131103515625,0.9010562896728516,-11.501119613647461,-1.6901168823242188
1695713218954863000,7.850863037109375,1.6850261688232422,-11.278326034545898,-2.3240604400634766
1695713218964415000,7.8604150390625,1.4870872497558594,-11.524776458740234,-2.094379425048828
1695713218973967000,7.869967041015625,-0.2093181610107422,-12.545913696289062,-1.3622150421142578
1695713218983488500,7.879488525390625,-2.620819091796875,-13.470027923583984,-0.728271484375
1695713218993040400,7.889040283203125,-3.907571792602539,-13.424810409545898,-0.804931640625
1695713219002592500,7.898592529296875,-3.2427845001220703,-13.349048614501953,-1.3885669708251953
1695713219012144400,7.908144287109375,-1.5960884094238281,-14.216266632080078,-1.3433494567871094
1695713219021666000,7.917666015625,0.41474342346191406,-15.033775329589844,-0.9004573822021484
1695713219031218000,7.927218017578125,2.2686614990234375,-14.851408004760742,-0.9316005706787109
1695713219040770000,7.93677001953125,2.9810619354248047,-14.102474212646484,-0.828887939453125
1695713219050322000,7.946322021484375,2.5498485565185547,-13.533811569213867,-0.1254711151123047
1695713219059843300,7.95584326171875,2.0850963592529297,-12.709415435791016,0.3961772918701172
1695713219069395500,7.9653955078125,1.5871047973632812,-11.76164436340332,1.047189712524414
1695713219078947300,7.974947265625,0.8103218078613281,-11.363670349121094,2.602252960205078
1695713219088499500,7.98449951171875,0.24794769287109375,-11.112428665161133,4.274702072143555
1695713219098051600,7.994051513671875,0.4791259765625,-11.015405654907227,5.238943099975586
1695713219107603500,8.003603515625,1.0367088317871094,-11.61221694946289,5.571636199951172
1695713219117155600,8.013155517578125,0.7938518524169922,-12.709415435791016,5.887260437011719
1695713219126707500,8.02270751953125,-0.35485267639160156,-13.941368103027344,5.67674446105957
1695713219136259600,8.032259521484375,-2.2276363372802734,-14.950826644897461,4.729272842407227
1695713219145781000,8.041781005859375,-4.4103546142578125,-15.078693389892578,3.2077484130859375
1695713219155332900,8.051332763671875,-6.2118682861328125,-14.422290802001953,1.5613517761230469
1695713219164885000,8.060885009765625,-5.403942108154297,-13.607477188110352,0.8315830230712891
1695713219174436900,8.070436767578125,-2.5279884338378906,-12.972335815429688,0.8842868804931641
1695713219183989000,8.079989013671875,0.9747219085693359,-12.358755111694336,1.279266357421875
1695713219193510400,8.089510498046875,3.3386096954345703,-12.460569381713867,1.8940448760986328
1695713219203062500,8.0990625,5.094606399536133,-12.19285774230957,2.3917369842529297
1695713219212614400,8.108614501953125,6.03129768371582,-10.534183502197266,1.7817497253417969
1695713219222166500,8.11816650390625,3.643453598022461,-8.527544021606445,0.4824199676513672
1695713219231688000,8.12768798828125,0.6411304473876953,-7.077289581298828,-0.23776626586914062
1695713219241240000,8.137239990234375,-1.1268444061279297,-6.586784362792969,-0.24016189575195312
1695713219250792000,8.1467919921875,-1.8344535827636719,-6.096279144287109,0.025453567504882812
1695713219260344000,8.156343994140625,-1.4008445739746094,-5.54438591003418,0.33419036865234375
1695713219269896000,8.16589599609375,-0.8124179840087891,-5.115568161010742,0.8770999908447266
1695713219279417300,8.175417236328125,-0.5716571807861328,-4.83348274230957,1.4322872161865234
1695713219288969500,8.184969482421875,-0.8648223876953125,-4.506479263305664,1.9395618438720703
1695713219298521300,8.194521240234375,-0.9908924102783203,-4.255537033081055,2.2575817108154297
1695713219308073500,8.204073486328125,-1.1840400695800781,-4.075265884399414,2.3198680877685547
1695713219317595000,8.213594970703125,-1.1912269592285156,-3.7886886596679688,2.1524734497070312
1695713219327147000,8.22314697265625,-0.9768180847167969,-3.411975860595703,1.8605060577392578
1695713219336699000,8.232698974609375,-0.9076442718505859,-3.0140018463134766,1.6523857116699219
1695713219346251000,8.2422509765625,-1.0504837036132812,-2.5872802734375,1.511343002319336
1695713219355803000,8.251802978515625,-1.4912796020507812,-2.1988887786865234,1.3987483978271484
1695713219365324300,8.26132421875,-2.025205612182617,-1.9168033599853516,1.3029232025146484
1695713219374876400,8.27087646484375,-2.501636505126953,-1.923990249633789,1.2265625
1695713219384428300,8.28042822265625,-2.8328323364257812,-2.2153587341308594,1.2097930908203125
1695713219394011000,8.290010986328125,-2.892423629760742,-2.5992584228515625,1.068450927734375
1695713219403532500,8.299532470703125,-2.9783668518066406,-3.4616851806640625,0.8055305480957031
1695713219413084400,8.30908447265625,-3.5048065185546875,-4.89277458190918,0.4800243377685547
1695713219422636500,8.318636474609375,-4.207923889160156,-6.7101593017578125,0.22399139404296875
1695713219432188400,8.3281884765625,-4.970333099365234,-9.072250366210938,0.22638702392578125
1695713219441740500,8.337740478515625,-6.166351318359375,-12.074274063110352,0.09253120422363281
1695713219451262000,8.347261962890625,-7.643856048583984,-16.054912567138672,-0.7881622314453125
1695713219460813800,8.356813720703125,-8.959056854248047,-21.641820907592773,-1.080129623413086
1695713219470366000,8.366365966796875,-10.496152877807617,-26.61993980407715,0.19045257568359375
1695713219479917800,8.375917724609375,-14.856498718261719,-26.72175407409668,2.1572647094726562
1695713219489439500,8.385439453125,-14.344432830810547,-21.20611572265625,3.635967254638672
1695713219498991400,8.394991455078125,-8.28708267211914,-11.839801788330078,4.049812316894531
1695713219508543500,8.40454345703125,-4.10521125793457,-2.5872802734375,3.1215057373046875
1695713219518095400,8.414095458984375,-3.259553909301758,3.741374969482422,3.109527587890625
1695713219527647500,8.4236474609375,-3.431140899658203,6.271759033203125,3.4802513122558594
1695713219537169000,8.4331689453125,-4.3911895751953125,4.589427947998047,3.2005615234375
1695713219546720800,8.442720703125,-4.553194046020508,-1.0211372375488281,1.9227924346923828
1695713219556273000,8.45227294921875,-4.651115417480469,-10.44883918762207,1.6979026794433594
1695713219565825000,8.461824951171875,-3.4952239990234375,-20.059207916259766,2.810373306274414
1695713219575346400,8.471346435546875,3.2385921478271484,-26.57981300354004,4.351362228393555
1695713219584898300,8.480898193359375,7.070102691650391,-30.569734573364258,5.64799690246582
1695713219594450400,8.490450439453125,-2.7067623138427734,-23.897605895996094,1.264892578125
1695713219604002300,8.500002197265625,-1.8988361358642578,-11.268743515014648,-4.5349273681640625
1695713219613554400,8.509554443359375,8.926416397094727,-1.497568130493164,-3.5371475219726562
1695713219623075800,8.519075927734375,7.346498489379883,2.772043228149414,0.4800243377685547
1695713219632628000,8.5286279296875,-0.11648750305175781,3.376340866088867,2.748086929321289
1695713219642179800,8.538179931640625,-5.513542175292969,0.20153236389160156,1.8054065704345703
1695713219651732000,8.54773193359375,-3.6191978454589844,-6.71734619140625,1.444265365600586
1695713219661253400,8.55725341796875,1.4990653991699219,-13.192733764648438,1.449056625366211
1695713219670805200,8.56680517578125,4.634944915771484,-16.57386589050293,0.12816619873046875
1695713219680387800,8.576387939453125,3.4766578674316406,-17.96932029724121,-1.4436664581298828
1695713219689940000,8.58593994140625,1.3607177734375,-17.29644775390625,-2.407907485961914
1695713219699491800,8.595491943359375,0.0050907135009765625,-14.84901237487793,-1.5778217315673828
1695713219709013200,8.60501318359375,-0.8148136138916016,-11.88232421875,0.6306495666503906
1695713219718565400,8.6145654296875,-2.270458221435547,-9.503463745117188,2.0997695922851562
1695713219728117500,8.624117431640625,-2.1920013427734375,-7.814245223999023,2.475584030151367
1695713219737669400,8.63366943359375,-0.5048789978027344,-6.868869781494141,1.8724842071533203
1695713219747190800,8.643190673828125,1.7350349426269531,-6.676919937133789,1.078033447265625
1695713219756743000,8.652742919921875,3.5197792053222656,-7.1365814208984375,0.5875282287597656
1695713219766294800,8.662294677734375,3.4697704315185547,-7.657930374145508,0.30304718017578125
1695713219775847000,8.671846923828125,1.8182830810546875,-8.065486907958984,0.4249248504638672
1695713219785398800,8.681398681640625,-0.20243072509765625,-8.390094757080078,0.8079261779785156
1695713219794920400,8.69092041015625,-1.362813949584961,-8.217010498046875,1.1331329345703125
1695713219804472300,8.700472412109375,-1.1648750305175781,-7.5701904296875,1.056772232055664
1695713219814024400,8.7100244140625,-0.41204833984375,-7.221925735473633,1.1618804931640625
1695713219823576300,8.719576416015625,0.42193031311035156,-7.371053695678711,1.468221664428711
1695713219833097700,8.72909765625,1.3514347076416016,-7.721714019775391,1.4754085540771484
1695713219842649900,8.73864990234375,1.6634654998779297,-8.063091278076172,1.212188720703125
1695713219852201700,8.74820166015625,1.2442302703857422,-8.370929718017578,0.8079261779785156
1695713219861753900,8.75775390625,0.483917236328125,-8.57246208190918,0.4201335906982422
1695713219871305700,8.7673056640625,-0.3809051513671875,-8.598514556884766,0.10900115966796875
1695713219880827400,8.776827392578125,-1.0409011840820312,-8.468252182006836,-0.19464492797851562
1695713219890379300,8.786379150390625,-1.279266357421875,-8.326011657714844,-0.46026039123535156
1695713219899931400,8.795931396484375,-1.1696662902832031,-8.359251022338867,-0.637237548828125
1695713219909483300,8.805483154296875,-0.819305419921875,-8.679067611694336,-0.7833709716796875
1695713219919005000,8.8150048828125,-0.6001052856445312,-9.176759719848633,-0.809722900390625
1695713219928556800,8.824556884765625,-0.6456222534179688,-9.539098739624023,-0.85284423828125
1695713219938109000,8.83410888671875,-0.7073097229003906,-9.754705429077148,-0.8788967132568359
1695713219947660800,8.843660888671875,-0.6432266235351562,-9.941864013671875,-0.7594146728515625
1695713219957182200,8.85318212890625,-0.46445274353027344,-10.242815017700195,-0.5680637359619141
1695713219966764800,8.862764892578125,-0.2524394989013672,-10.792612075805664,-0.2689094543457031
1695713219976317000,8.87231689453125,-0.10450935363769531,-11.434640884399414,0.08055305480957031
1695713219985868800,8.881868896484375,-0.061687469482421875,-11.633777618408203,0.07815742492675781
1695713219995421000,8.8914208984375,0.24794769287109375,-11.583768844604492,-0.41234779357910156
1695713220004942300,8.9009423828125,0.45786476135253906,-11.747270584106445,-0.7474365234375
1695713220014494200,8.910494140625,0.14793014526367188,-12.226097106933594,-0.6039981842041016
1695713220024046300,8.92004638671875,-1.0720443725585938,-12.761520385742188,-0.16110610961914062
1695713220033598200,8.92959814453125,-2.7136497497558594,-13.176263809204102,0.3913860321044922
1695713220043119900,8.939119873046875,-3.3739452362060547,-13.211599349975586,0.5375194549560547
1695713220052671700,8.948671630859375,-2.770845413208008,-12.84446907043457,0.23357391357421875
1695713220062224000,8.958223876953125,-1.710479736328125,-12.90376091003418,0.04461860656738281
1695713220071775700,8.967775634765625,-0.3904876708984375,-13.481706619262695,0.08294868469238281
1695713220081327900,8.977327880859375,1.2439308166503906,-13.832366943359375,-0.39318275451660156
1695713220090849300,8.986849365234375,2.6402835845947266,-14.043481826782227,-1.099294662475586
1695713220100401400,8.9964013671875,3.355379104614258,-14.10726547241211,-1.2930412292480469
1695713220109953300,9.005953369140625,3.5649967193603516,-13.638021469116211,-0.9507656097412109
1695713220119505400,9.01550537109375,3.19097900390625,-12.384807586669922,-0.3288002014160156
1695713220129026800,9.02502685546875,2.2426090240478516,-11.10045051574707,0.9777164459228516
1695713220138578700,9.03457861328125,1.022634506225586,-10.408712387084961,3.2290096282958984
1695713220148130800,9.044130859375,0.0742645263671875,-9.584016799926758,5.341955184936523
1695713220157682700,9.0536826171875,-0.037731170654296875,-9.939468383789062,6.739206314086914
1695713220167234800,9.06323486328125,0.15272140502929688,-11.74038314819336,7.459392547607422
1695713220176756200,9.072756103515625,-0.2165050506591797,-13.313713073730469,7.492931365966797
1695713220186308400,9.082308349609375,-1.0528793334960938,-14.526800155639648,6.765558242797852
1695713220195860200,9.091860107421875,-2.525592803955078,-14.924774169921875,5.291646957397461
1695713220205412400,9.101412353515625,-4.26032829284668,-14.500747680664062,3.423055648803711
1695713220214933800,9.110933837890625,-4.8487548828125,-13.55537223815918,1.6499900817871094
1695713220224486000,9.12048583984375,-3.8051586151123047,-12.467756271362305,1.2337493896484375
1695713220234037800,9.130037841796875,-1.4152183532714844,-11.782905578613281,1.7625846862792969
1695713220243590000,9.13958984375,2.0850963592529297,-11.61221694946289,2.0830001831054688
1695713220253172200,9.149172119140625,4.672975540161133,-11.768831253051758,2.480375289916992
1695713220262694000,9.15869384765625,6.147785186767578,-11.60053825378418,2.485166549682617
1695713220272245800,9.168245849609375,6.657754898071289,-9.958633422851562,1.3508358001708984
1695713220281798000,9.1777978515625,-2.234823226928711,-7.951694488525391,-0.5608768463134766
1695713220291349800,9.187349853515625,6.143293380737305,-6.783525466918945,-0.16350173950195312
1695713220300871200,9.19687109375,0.7294692993164062,-6.022912979125977,-0.20422744750976562
1695713220310423300,9.20642333984375,-1.7128753662109375,-5.878576278686523,-0.16110610961914062
1695713220319975200,9.21597509765625,-2.160858154296875,-5.762388229370117,0.14493560791015625
1695713220329527300,9.22552734375,-2.015623092651367,-5.646200180053711,0.8007392883300781
1695713220339079200,9.2350791015625,-1.8512229919433594,-5.4165191650390625,1.5900993347167969
1695713220348600800,9.244600830078125,-1.5344009399414062,-5.371301651000977,2.379758834838867
1695713220358152700,9.254152587890625,-1.3220882415771484,-5.357227325439453,2.891824722290039
1695713220367704800,9.263704833984375,-1.1364269256591797,-5.241039276123047,3.0688018798828125
1695713220377256700,9.273256591796875,-0.9196224212646484,-4.861930847167969,2.8702640533447266
1695713220386778400,9.2827783203125,-0.7097053527832031,-4.430717468261719,2.492053985595703
1695713220396330200,9.292330322265625,-0.7932529449462891,-3.926137924194336,2.1764297485351562
1695713220405882400,9.30188232421875,-0.8052310943603516,-3.5730819702148438,1.9012317657470703
1695713220415434200,9.311434326171875,-1.1912269592285156,-3.331422805786133,1.6811332702636719
1695713220424986400,9.320986328125,-1.75360107421875,-3.1843910217285156,1.496969223022461
1695713220434507800,9.3305078125,-2.3420276641845703,-3.1418685913085938,1.300527572631836
1695713220444059600,9.3400595703125,-2.61602783203125,-3.269735336303711,1.2265625
1695713220453611800,9.34961181640625,-2.759166717529297,-3.6512393951416016,1.173858642578125
1695713220463163600,9.35916357421875,-2.925962448120117,-4.170192718505859,1.068450927734375
1695713220472685300,9.368685302734375,-3.176006317138672,-4.88319206237793,0.8986606597900391
1695713220482237200,9.3782373046875,-3.6596240997314453,-5.928285598754883,0.8411655426025391
1695713220491789300,9.387789306640625,-4.56517219543457,-7.26923942565918,0.8411655426025391
1695713220501341200,9.397341064453125,-6.154672622680664,-9.12435531616211,0.9010562896728516
1695713220510893300,9.406893310546875,-8.69703483581543,-11.875436782836914,0.6138801574707031
1695713220520414700,9.416414794921875,-10.96060562133789,-15.474571228027344,-0.39557838439941406
1695713220529966800,9.425966796875,-11.627788543701172,-19.13988494873047,-0.7737884521484375
1695713220539549200,9.435549072265625,-11.604131698608398,-21.85982322692871,-0.022459030151367188
1695713220549101300,9.445101318359375,-11.191783905029297,-22.38117218017578,1.386770248413086
1695713220558622700,9.454622802734375,-10.596170425415039,-20.035551071166992,2.8031864166259766
1695713220568174800,9.4641748046875,-7.176708221435547,-14.42947769165039,3.2865047454833984
1695713220577726700,9.473726806640625,-5.027528762817383,-7.326135635375977,2.554340362548828
1695713220587278800,9.48327880859375,-5.370702743530273,-0.7582168579101562,1.3364620208740234
1695713220596830700,9.492830810546875,-5.625537872314453,3.5042076110839844,0.6785621643066406
1695713220606352100,9.50235205078125,-5.087120056152344,5.620147705078125,0.30065155029296875
1695713220615904300,9.511904296875,-4.908346176147461,5.238643646240234,0.7073097229003906
1695713220625456000,9.5214560546875,-5.029924392700195,2.1893062591552734,1.8030109405517578
1695713220635008300,9.53100830078125,-3.5072021484375,-2.8717613220214844,2.8175601959228516
1695713220644529700,9.54052978515625,-3.5452327728271484,-10.28773307800293,3.573680877685547
1695713220654081800,9.550081787109375,-6.354707717895508,-19.620807647705078,4.583438873291016
1695713220663633700,9.559633544921875,-5.980690002441406,-28.472959518432617,5.923194885253906
1695713220673185800,9.569185791015625,3.59344482421875,-33.22349548339844,9.031225204467773
1695713220682737700,9.578737548828125,6.255289077758789,-31.943927764892578,10.473993301391602
1695713220692259300,9.58825927734375,-6.142694473266602,-20.080469131469727,4.370527267456055
1695713220701811200,9.597811279296875,-0.9600486755371094,-4.684354782104492,-2.1015663146972656
1695713220711363300,9.60736328125,8.325712203979492,4.378612518310547,-1.2834587097167969
1695713220720915200,9.616915283203125,6.946128845214844,6.99913215637207,1.343648910522461
1695713220730436600,9.6264365234375,-0.028448104858398438,6.198392868041992,3.3104610443115234
1695713220739988700,9.63598876953125,-5.883068084716797,1.4523506164550781,1.6092643737792969
1695713220749540600,9.64554052734375,-5.380285263061523,-5.814493179321289,-0.73785400390625
1695713220759092700,9.6550927734375,-0.3000526428222656,-12.517465591430664,-1.5275135040283203
1695713220768644600,9.66464453125,3.667409896850586,-17.19463348388672,-1.2379417419433594
1695713220778166300,9.674166259765625,5.244932174682617,-19.59235954284668,-1.0394039154052734
1695713220787718100,9.68371826171875,4.322614669799805,-20.3625545501709,-1.1157646179199219
1695713220797270300,9.693270263671875,1.8518218994140625,-18.031007766723633,-0.6324462890625
1695713220806822100,9.702822265625,0.09073448181152344,-13.197525024414062,0.8411655426025391
1695713220816343800,9.71234375,-1.8868579864501953,-9.56515121459961,2.4348583221435547
1695713220825926100,9.721926025390625,-3.4547977447509766,-7.449211120605469,3.3871212005615234
1695713220835478300,9.731478271484375,-3.471567153930664,-6.179227828979492,3.453899383544922
1695713220845030100,9.741030029296875,-1.4936752319335938,-5.660573959350586,2.7936038970947266
1695713220854551800,9.7505517578125,1.3607177734375,-5.523124694824219,1.8820667266845703
1695713220864103700,9.760103759765625,3.653036117553711,-6.096279144287109,1.288848876953125
1695713220873655800,9.76965576171875,4.703819274902344,-7.43992805480957,0.9681339263916016
1695713220883207700,9.779207763671875,3.3862228393554688,-8.489513397216797,0.6042976379394531
1695713220892759800,9.788759765625,0.9654388427734375,-9.178855895996094,0.25992584228515625
1695713220902281200,9.79828125,-1.1768531799316406,-9.520233154296875,0.14493560791015625
1695713220911833000,9.8078330078125,-2.170440673828125,-9.333074569702148,0.03982734680175781
1695713220921385200,9.81738525390625,-2.3824539184570312,-8.94438362121582,0.16170501708984375
1695713220930937000,9.82693701171875,-1.1220531463623047,-8.577253341674805,0.26471710205078125
1695713220940458800,9.836458740234375,0.7483348846435547,-8.333198547363281,0.23117828369140625
1695713220950010600,9.8460107421875,2.2878265380859375,-8.15292739868164,0.09702301025390625
1695713220959562800,9.855562744140625,2.7546749114990234,-8.037038803100586,-0.022459030151367188
1695713220969114600,9.865114501953125,2.151874542236328,-8.065486907958984,-0.09911918640136719
1695713220978666800,9.874666748046875,1.0154476165771484,-8.240667343139648,-0.19464492797851562
1695713220988188200,9.884188232421875,0.0050907135009765625,-8.446990966796875,-0.2569313049316406
1695713220997740300,9.893740234375,-0.45726585388183594,-8.58204460144043,-0.10151481628417969
1695713221007292200,9.903292236328125,-0.46684837341308594,-8.56287956237793,0.13295745849609375
1695713221016844300,9.91284423828125,-0.2808876037597656,-8.50149154663086,0.4201335906982422
1695713221026365700,9.92236572265625,0.019464492797851562,-8.529640197753906,0.8007392883300781
1695713221035917600,9.93191748046875,0.12666893005371094,-8.785673141479492,1.2193756103515625
1695713221045469700,9.9414697265625,-0.10211372375488281,-9.231260299682617,1.540090560913086
1695713221055021600,9.951021484375,-0.7884616851806641,-9.527420043945312,1.5613517761230469
1695713221064573700,9.96057373046875,-1.3008270263671875,-9.674152374267578,1.2145843505859375
1695713221074095000,9.97009521484375,-1.1648750305175781,-9.904132843017578,0.6210670471191406
1695713221083647200,9.979647216796875,-0.5360221862792969,-10.382659912109375,0.08055305480957031
1695713221093199000,9.98919921875,0.062286376953125,-11.211847305297852,-0.017667770385742188
1695713221102751200,9.998751220703125,0.052703857421875,-11.927541732788086,0.16889190673828125
1695713221112303000,10.00830322265625,-0.5381183624267578,-12.150335311889648,0.28627777099609375
1695713221121855200,10.017855224609375,-0.9552574157714844,-11.977251052856445,0.28388214111328125
1695713221131407000,10.027406982421875,-0.8504486083984375,-11.754457473754883,0.3818035125732422
1695713221140959200,10.036959228515625,-0.5477008819580078,-11.747270584106445,0.5851325988769531
1695713221150511000,10.046510986328125,-0.43570518493652344,-11.858667373657227,0.8411655426025391
1695713221160032800,10.05603271484375,-0.6932353973388672,-12.195253372192383,0.8723087310791016
1695713221169584600,10.065584716796875,-1.0340137481689453,-12.410860061645508,0.29825592041015625
1695713221179136800,10.07513671875,-1.0744400024414062,-12.962753295898438,-0.6707763671875
1695713221188688600,10.084688720703125,-0.6596965789794922,-14.22824478149414,-1.4939746856689453
1695713221198210000,10.0942099609375,0.04791259765625,-15.185298919677734,-1.9748973846435547
1695713221207762200,10.10376220703125,0.8986606597900391,-14.962804794311523,-2.3096866607666016
1695713221217314000,10.11331396484375,2.009035110473633,-14.481582641601562,-2.1351051330566406
1695713221226866200,10.1228662109375,2.8642749786376953,-13.924898147583008,-1.2139854431152344
1695713221236418000,10.13241796875,2.9286575317382812,-12.671384811401367,0.13295745849609375
1695713221245939700,10.141939697265625,2.1398963928222656,-11.003427505493164,1.516134262084961
1695713221255491600,10.15149169921875,1.1511001586914062,-9.72625732421875,3.2197265625
1695713221265043700,10.161043701171875,0.4719390869140625,-9.171968460083008,4.767602920532227
1695713221274595600,10.170595703125,0.2386646270751953,-9.797527313232422,5.70549201965332
1695713221284117200,10.1801171875,0.41713905334472656,-11.150459289550781,5.927986145019531
1695713221293669000,10.189669189453125,0.5959129333496094,-12.39199447631836,5.825273513793945
1695713221303221200,10.19922119140625,0.9082431793212891,-13.68563461303711,5.509349822998047
1695713221312773000,10.208773193359375,0.46265602111816406,-14.585792541503906,4.93499755859375
1695713221322325200,10.2183251953125,-1.4532489776611328,-14.623823165893555,3.8608570098876953
1695713221331846700,10.2278466796875,-4.119585037231445,-14.019525527954102,2.451627731323242
1695713221341398500,10.2373984375,-5.406337738037109,-13.112180709838867,1.5877037048339844
1695713221350950700,10.24695068359375,-4.57475471496582,-12.20244026184082,1.4466609954833984
1695713221360502500,10.25650244140625,-2.230031967163086,-11.697561264038086,1.8365497589111328
1695713221370024200,10.266024169921875,1.1558914184570312,-11.638269424438477,2.384550094604492
1695713221379576000,10.275576171875,3.8629531860351562,-11.837406158447266,2.8894290924072266
1695713221389128200,10.285128173828125,5.730945587158203,-11.827823638916016,2.9660892486572266
1695713221398710500,10.29471044921875,6.445741653442383,-10.420690536499023,1.7841453552246094
1695713221408262700,10.3042626953125,3.433835983276367,-8.527544021606445,0.20482635498046875
1695713221417784000,10.3137841796875,0.3838996887207031,-7.624691009521484,-0.48900794982910156
1695713221427336200,10.323336181640625,-1.0936050415039062,-7.297687530517578,-0.47223854064941406
1695713221436888000,10.33288818359375,-1.5939922332763672,-6.757472991943359,-0.09432792663574219
1695713221446440200,10.342440185546875,-1.2912445068359375,-6.2669677734375,0.4967937469482422
1695713221455961600,10.351961669921875,-1.0816268920898438,-5.947151184082031,1.3316707611083984
1695713221465513700,10.361513671875,-1.0148487091064453,-5.733940124511719,2.1093521118164062
1695713221475065600,10.371065673828125,-1.0980968475341797,-5.591699600219727,2.688495635986328
1695713221484617700,10.38061767578125,-0.8312835693359375,-5.31440544128418,2.949319839477539
1695713221494169600,10.390169677734375,-0.5096702575683594,-4.824199676513672,2.8510990142822266
1695713221503691000,10.39969091796875,-0.3072395324707031,-4.198640823364258,2.525592803955078
1695713221513243100,10.4092431640625,-0.388092041015625,-3.6087169647216797,2.1428909301757812
1695713221522795000,10.418794921875,-0.6525096893310547,-3.0208892822265625,1.8030109405517578
1695713221532347100,10.42834716796875,-1.0744400024414062,-2.5848846435546875,1.6236381530761719
1695713221541868500,10.43786865234375,-1.4772052764892578,-2.3219642639160156,1.506551742553711
1695713221551420700,10.447420654296875,-1.9344711303710938,-2.217754364013672,1.444265365600586
1695713221560972500,10.45697265625,-2.313579559326172,-2.319568634033203,1.4083309173583984
1695713221570524700,10.466524658203125,-2.566019058227539,-2.7271251678466797,1.5613517761230469
1695713221580046000,10.476046142578125,-2.780427932739258,-3.2104434967041016,1.6451988220214844
1695713221589598200,10.48559814453125,-2.9948368072509766,-3.9093685150146484,1.5757255554199219
1695713221599150000,10.495150146484375,-3.3760414123535156,-4.954462051391602,1.511343002319336
1695713221608702200,10.5047021484375,-4.095928192138672,-6.326259613037109,1.429891586303711
1695713221618254000,10.514254150390625,-4.987102508544922,-8.043926239013672,1.5565605163574219
1695713221627775500,10.523775390625,-6.323863983154297,-10.351816177368164,1.7745628356933594
1695713221637327600,10.53332763671875,-7.817838668823242,-13.420318603515625,1.5493736267089844
1695713221646879500,10.54287939453125,-8.933004379272461,-16.817920684814453,1.1139678955078125
1695713221656431600,10.552431640625,-8.430221557617188,-19.698965072631836,1.7218589782714844
1695713221665983500,10.5619833984375,-8.179878234863281,-21.45705795288086,3.0783843994140625
1695713221675505200,10.571505126953125,-11.432544708251953,-20.767715454101562,4.064186096191406
1695713221685087500,10.58108740234375,-13.048097610473633,-16.649627685546875,4.499591827392578
1695713221694639600,10.5906396484375,-9.671457290649414,-10.413503646850586,4.24116325378418
1695713221704191500,10.60019140625,-5.2775726318359375,-3.983034133911133,3.1071319580078125
1695713221713713200,10.609713134765625,-3.323637008666992,0.9690322875976562,2.539966583251953
1695713221723265000,10.61926513671875,-3.3119583129882812,3.45928955078125,2.4731884002685547
1695713221732817200,10.628817138671875,-3.666810989379883,3.2388916015625,2.6669349670410156
1695713221742369000,10.638369140625,-4.450780868530273,0.2961597442626953,2.2411117553710938
1695713221751890700,10.647890625,-5.525520324707031,-4.994588851928711,1.1954193115234375
1695713221761442600,10.657442626953125,-7.338712692260742,-13.069658279418945,1.449056625366211
1695713221770994700,10.66699462890625,-8.673078536987305,-21.731956481933594,2.563922882080078
1695713221780546600,10.676546630859375,-3.666810989379883,-27.901901245117188,3.6383628845214844
1695713221790098700,10.6860986328125,7.1988677978515625,-29.993885040283203,6.437656402587891
1695713221799620000,10.6956201171875,8.78327751159668,-25.76949119567871,7.844490051269531
1695713221809172000,10.705171875,-2.878049850463867,-13.081336975097656,1.9754962921142578
1695713221818724000,10.71472412109375,2.325857162475586,-0.5497970581054688,-2.1878089904785156
1695713221828276000,10.72427587890625,9.004873275756836,5.807306289672852,-0.5009860992431641
1695713221837797600,10.733797607421875,4.818210601806641,6.814369201660156,2.7504825592041016
1695713221847349500,10.743349609375,-4.167198181152344,4.423530578613281,3.2125396728515625
1695713221856901600,10.752901611328125,-8.125078201293945,-1.8078022003173828,1.116363525390625
1695713221866453500,10.76245361328125,-3.1975669860839844,-9.513046264648438,0.5758495330810547
1695713221876005600,10.772005615234375,2.9190750122070312,-15.42007064819336,0.5135631561279297
1695713221885527000,10.781527099609375,6.095380783081055,-18.846120834350586,0.18566131591796875
1695713221895079200,10.7910791015625,5.633323669433594,-19.940624237060547,-0.3072395324707031
1695713221904631000,10.800631103515625,4.143840789794922,-18.471803665161133,-0.43390846252441406
1695713221914183200,10.81018310546875,2.354604721069336,-14.033899307250977,1.106781005859375
1695713221923704600,10.81970458984375,-0.5644702911376953,-10.311689376831055,2.8319339752197266
1695713221933256400,10.82925634765625,-3.240388870239258,-7.882820129394531,3.602428436279297
1695713221942808600,10.83880859375,-3.5787715911865234,-6.57750129699707,3.1790008544921875
1695713221952360400,10.8483603515625,-1.5604534149169922,-5.939964294433594,1.9946613311767578
1695713221961912600,10.85791259765625,0.8294868469238281,-6.153175354003906,1.047189712524414
1695713221971464400,10.86746435546875,2.671426773071289,-7.13897705078125,0.6210670471191406
1695713221981016600,10.8770166015625,2.404613494873047,-7.987329483032227,0.6593971252441406
1695713221990568400,10.886568359375,1.7470130920410156,-8.904256820678711,0.9010562896728516
1695713222000120600,10.89612060546875,0.16709518432617188,-9.159990310668945,1.028024673461914
1695713222009642000,10.90564208984375,-1.1912269592285156,-8.555692672729492,0.8555393218994141
1695713222019194000,10.915194091796875,-1.5176315307617188,-7.731296539306641,0.5782451629638672
1695713222028746000,10.92474609375,-0.6312484741210938,-7.250373840332031,0.4081554412841797
1695713222038298000,10.934298095703125,0.5102691650390625,-7.5582122802734375,0.5899238586425781
1695713222047850000,10.94385009765625,1.5230216979980469,-8.150531768798828,0.8199043273925781
1695713222057371600,10.95337158203125,1.885061264038086,-8.59372329711914,0.9681339263916016
1695713222066923500,10.962923583984375,1.4466609954833984,-8.842569351196289,1.0016727447509766
1695713222076475600,10.9724755859375,0.5530910491943359,-8.818912506103516,0.9417819976806641
1695713222086027500,10.982027587890625,-0.2452526092529297,-8.600910186767578,0.8103218078613281
1695713222095549000,10.991548828125,-0.7552223205566406,-8.449087142944336,0.6570014953613281
1695713222105101000,11.00110107421875,-0.9816093444824219,-8.551200866699219,0.5207500457763672
1695713222114653000,11.01065283203125,-1.0957012176513672,-8.806934356689453,0.4369029998779297
1695713222124205000,11.020205078125,-1.0528793334960938,-9.105489730834961,0.4512767791748047
1695713222133757000,11.0297568359375,-0.9360923767089844,-9.389970779418945,0.4920024871826172
1695713222143278600,11.039278564453125,-0.8004398345947266,-9.572338104248047,0.4776287078857422
1695713222152830500,11.04883056640625,-0.7812747955322266,-9.652891159057617,0.3794078826904297
1695713222162382600,11.058382568359375,-0.7121009826660156,-9.799922943115234,0.32939910888671875
1695713222171934500,11.0679345703125,-0.5953140258789062,-10.055656433105469,0.19045257568359375
1695713222181456100,11.0774560546875,-0.20003509521484375,-10.51771354675293,0.16170501708984375
1695713222191008000,11.087008056640625,0.2075214385986328,-11.171720504760742,0.29586029052734375
1695713222200560000,11.09656005859375,0.3838996887207031,-11.624195098876953,0.3865947723388672
1695713222210112000,11.106112060546875,0.48870849609375,-11.73080062866211,0.013475418090820312
1695713222219664100,11.1156640625,0.7414474487304688,-11.557716369628906,-0.5009860992431641
1695713222229185500,11.125185546875,0.8842868804931641,-11.536455154418945,-0.6207675933837891
1695713222238737400,11.1347373046875,0.27909088134765625,-12.157222747802734,-0.20183181762695312
1695713222248289500,11.14428955078125,-1.0840225219726562,-12.991201400756836,0.4273204803466797
1695713222257872100,11.1538720703125,-2.5588321685791016,-13.441579818725586,0.8079261779785156
1695713222267393500,11.1633935546875,-3.1379756927490234,-13.339765548706055,0.6450233459472656
1695713222276945400,11.1729453125,-2.303997039794922,-13.263704299926758,0.32700347900390625
1695713222286497500,11.18249755859375,-0.838470458984375,-13.424810409545898,0.11618804931640625
1695713222296049400,11.19204931640625,0.5482997894287109,-13.256816864013672,-0.15631484985351562
1695713222305601500,11.2016015625,2.0350875854492188,-13.121763229370117,-0.5033817291259766
1695713222315123000,11.211123046875,3.2598533630371094,-13.505363464355469,-0.5944156646728516
1695713222324675000,11.220675048828125,3.336214065551758,-13.232860565185547,-0.010480880737304688
1695713222334227000,11.23022705078125,2.414196014404297,-11.991325378417969,0.9202213287353516
1695713222343748600,11.23974853515625,1.358621597290039,-10.643184661865234,2.2027816772460938
1695713222353300500,11.249300537109375,0.4815216064453125,-9.743026733398438,3.9587783813476562
1695713222362852600,11.2588525390625,0.0050907135009765625,-9.861310958862305,5.74382209777832
1695713222372404500,11.268404541015625,0.08833885192871094,-10.832738876342773,6.8491058349609375
1695713222381956600,11.27795654296875,0.5174560546875,-12.18327522277832,7.332424163818359
1695713222391508500,11.287508544921875,0.4719390869140625,-13.33497428894043,7.356380462646484
1695713222401030000,11.29702978515625,0.24555206298828125,-14.166557312011719,6.8347320556640625
1695713222410582000,11.30658203125,-0.9480705261230469,-14.611845016479492,5.748613357543945
1695713222420134000,11.3161337890625,-3.2023582458496094,-14.507635116577148,4.284284591674805
1695713222429686000,11.32568603515625,-4.8319854736328125,-13.832366943359375,2.9133853912353516
1695713222439207400,11.33520751953125,-4.567567825317383,-12.839677810668945,2.2195510864257812
1695713222448759600,11.344759521484375,-2.925962448120117,-11.955989837646484,2.269559860229492
1695713222458311400,11.3543115234375,-0.047313690185546875,-11.598142623901367,2.3486156463623047
1695713222467863600,11.363863525390625,3.8342056274414062,-11.429849624633789,2.3917369842529297
1695713222477415400,11.37341552734375,5.4069366455078125,-11.782905578613281,2.669330596923828
1695713222486936800,11.382936767578125,6.250497817993164,-10.821060180664062,1.8078022003173828
1695713222496489000,11.392489013671875,4.870615005493164,-8.821308135986328,0.6785621643066406
1695713222506041000,11.402041015625,2.0279006958007812,-7.082080841064453,0.0062885284423828125
1695713222515593000,11.411593017578125,-0.12127876281738281,-6.311885833740234,0.03264045715332031
1695713222525114400,11.4211142578125,-1.2268619537353516,-6.05615234375,0.4488811492919922
1695713222534666500,11.43066650390625,-1.6368141174316406,-5.826171875,0.8103218078613281
1695713222544249000,11.4402490234375,-1.4508533477783203,-5.558460235595703,1.2337493896484375
1695713222553801000,11.449801025390625,-1.1148662567138672,-5.520729064941406,1.8317584991455078
1695713222563353000,11.45935302734375,-0.9956836700439453,-5.598886489868164,2.403715133666992
1695713222572874500,11.46887451171875,-0.8908748626708984,-5.6225433349609375,2.8223514556884766
1695713222582426400,11.47842626953125,-0.6408309936523438,-5.409332275390625,2.994537353515625
1695713222591978500,11.487978515625,-0.44049644470214844,-4.999380111694336,2.9277591705322266
1695713222601530400,11.4975302734375,-0.33089637756347656,-4.416643142700195,2.654956817626953
1695713222611052000,11.507052001953125,-0.7004222869873047,-3.821928024291992,2.4013195037841797
1695713222620604000,11.51660400390625,-0.9004573822021484,-3.3883190155029297,2.1069564819335938
1695713222630156000,11.526156005859375,-1.219675064086914,-3.115816116333008,1.9467487335205078
1695713222639708000,11.5357080078125,-1.698801040649414,-2.8717613220214844,1.8317584991455078
1695713222649229300,11.545229248046875,-2.220449447631836,-2.772043228149414,1.7074851989746094
1695713222658781400,11.554781494140625,-2.675619125366211,-2.8196563720703125,1.5996818542480469
1695713222668333600,11.56433349609375,-3.0235843658447266,-3.0256805419921875,1.5233211517333984
1695713222677885400,11.573885498046875,-3.209545135498047,-3.3691539764404297,1.4418697357177734
1695713222687469300,11.58346923828125,-3.1831932067871094,-3.930929183959961,1.353231430053711
1695713222696991000,11.592990966796876,-3.323637008666992,-4.942483901977539,1.260101318359375
1695713222706542800,11.60254296875,-3.8312110900878906,-6.295415878295898,1.288848876953125
1695713222716095000,11.612094970703126,-4.546306610107422,-8.198144912719727,1.5805168151855469
1695713222725646800,11.621646728515625,-6.051959991455078,-10.617132186889648,1.9539356231689453
1695713222735168300,11.631168212890625,-8.058300018310547,-13.702104568481445,1.9731006622314453
1695713222744720400,11.640720458984376,-9.564252853393555,-17.111684799194336,1.7817497253417969
1695713222754272500,11.6502724609375,-8.71619987487793,-20.035551071166992,2.394132614135742
1695713222763824400,11.659824462890626,-8.27540397644043,-21.8196964263916,3.317647933959961
1695713222773376500,11.66937646484375,-11.177410125732422,-20.7464542388916,3.616802215576172
1695713222782898000,11.67889794921875,-12.714506149291992,-16.690053939819336,3.6048240661621094
1695713222792449800,11.68844970703125,-9.337865829467773,-10.50813102722168,3.2769222259521484
1695713222802002000,11.698001953125,-4.276798248291016,-4.042026519775391,2.1979904174804688
1695713222811553800,11.7075537109375,-2.4944496154785156,0.8363742828369141,1.6715507507324219
1695713222821075500,11.717075439453126,-3.6644153594970703,3.191577911376953,1.7002983093261719
1695713222830657800,11.72665771484375,-4.443593978881836,2.4474353790283203,2.1237258911132812
1695713222840210000,11.7362099609375,-5.020341873168945,-1.0804290771484375,1.7050895690917969
1695713222849761800,11.74576171875,-6.46430778503418,-6.674524307250977,1.4179134368896484
1695713222859314000,11.75531396484375,-8.551799774169922,-14.730428695678711,2.422880172729492
1695713222868835300,11.76483544921875,-9.433391571044922,-23.227128982543945,3.8896045684814453
1695713222878387500,11.774387451171876,-3.1140193939208984,-28.944299697875977,5.528514862060547
1695713222887939300,11.783939208984375,9.810403823852539,-27.721630096435547,7.339611053466797
1695713222897491500,11.793491455078126,10.117643356323242,-20.395793914794922,7.064413070678711
1695713222907012900,11.803012939453126,-1.5700359344482422,-7.937320709228516,1.8748798370361328
1695713222916565000,11.81256494140625,-0.10450935363769531,2.134805679321289,-1.9461498260498047
1695713222926116900,11.822116943359376,6.87455940246582,6.781129837036133,0.020662307739257812
1695713222935669000,11.8316689453125,5.8525238037109375,6.575105667114258,3.669506072998047
1695713222945220900,11.841220947265626,-1.329275131225586,2.949918746948242,4.865823745727539
1695713222954742300,11.8507421875,-5.253915786743164,-4.463956832885742,3.3104610443115234
1695713222964294400,11.86029443359375,-3.8264198303222656,-12.725885391235352,2.0686264038085938
1695713222973846300,11.86984619140625,-0.2641181945800781,-17.78695297241211,0.9585514068603516
1695713222983398400,11.8793984375,2.5785961151123047,-19.815153121948242,0.3913860321044922
1695713222992919800,11.888919921875,3.643453598022461,-19.109041213989258,-0.64202880859375
1695713223002472000,11.898471923828126,3.9866275787353516,-15.867753982543945,-0.8597316741943359
1695713223012023800,11.90802392578125,2.9190750122070312,-11.508007049560547,0.7767829895019531
1695713223021576000,11.917575927734376,0.9414825439453125,-8.81412124633789,2.2171554565429688
1695713223031127800,11.9271279296875,-0.3144264221191406,-7.565399169921875,2.8079776763916016
1695713223040649200,11.936649169921875,-0.7264747619628906,-7.404293060302734,2.4013195037841797
1695713223050201300,11.946201416015626,-0.11409187316894531,-7.894798278808594,1.4466609954833984
1695713223059753200,11.955753173828125,1.3798828125,-8.439804077148438,0.6641883850097656
1695713223069305300,11.965305419921876,2.216257095336914,-8.956361770629883,0.5423107147216797
1695713223078826800,11.97482666015625,2.0398788452148438,-8.691045761108398,0.4560680389404297
1695713223088379000,11.98437890625,0.8914737701416016,-8.614984512329102,0.7049140930175781
1695713223097930800,11.9939306640625,-0.2665138244628906,-8.676671981811523,1.042398452758789
1695713223107483000,12.00348291015625,-0.5381183624267578,-8.517961502075195,1.2720794677734375
1695713223117065500,12.0130654296875,0.4719390869140625,-7.819036483764648,1.028024673461914
1695713223126587000,12.0225869140625,1.5658435821533203,-7.695661544799805,0.9154300689697266
1695713223136138800,12.032138671875,1.5299091339111328,-8.202936172485352,1.4083309173583984
1695713223145691000,12.04169091796875,0.9106388092041016,-8.544013977050781,1.6595726013183594
1695713223155242800,12.05124267578125,0.30065155029296875,-8.648223876953125,1.5661430358886719
1695713223164764400,12.060764404296876,-0.044918060302734375,-8.38290786743164,1.145111083984375
1695713223174316300,12.07031640625,-0.2332744598388672,-8.23138427734375,0.5782451629638672
1695713223183868400,12.079868408203126,-0.2141094207763672,-8.160114288330078,0.07815742492675781
1695713223193420300,12.089420166015625,-0.016469955444335938,-8.273906707763672,-0.2904701232910156
1695713223202972400,12.098972412109376,0.2338733673095703,-8.539222717285156,-0.5345249176025391
1695713223212493800,12.108493896484376,0.2386646270751953,-8.94438362121582,-0.6039981842041016
1695713223222045700,12.118045654296875,-0.2212963104248047,-9.261804580688477,-0.5536899566650391
1695713223231597800,12.127597900390626,-0.8360748291015625,-9.453754425048828,-0.47223854064941406
1695713223241150000,12.13714990234375,-1.234048843383789,-9.482202529907227,-0.13954544067382812
1695713223250671400,12.14667138671875,-1.0385055541992188,-9.342357635498047,0.5399150848388672
1695713223260223200,12.15622314453125,-0.6549053192138672,-9.202812194824219,1.305318832397461
1695713223269775400,12.165775390625,-0.5836353302001953,-9.198020935058594,1.6643638610839844
1695713223279327200,12.1753271484375,-0.6956310272216797,-9.607973098754883,1.506551742553711
1695713223288879400,12.18487939453125,-0.7692966461181641,-10.470399856567383,1.023233413696289
1695713223298400800,12.19440087890625,-0.45007896423339844,-11.564903259277344,0.5590801239013672
1695713223307953000,12.203952880859376,-0.2284832000732422,-12.37282943725586,0.14014434814453125
