time,seconds_elapsed,z,y,x
1695712566052003000,0.175003173828125,0.723876953125,-1.795501708984375,-3.69903564453125
1695712566061555200,0.18455517578125,0.70281982421875,-2.270050048828125,-3.479766845703125
1695712566071076600,0.19407666015625,0.770263671875,-2.849884033203125,-2.98553466796875
1695712566080598000,0.203597900390625,0.82061767578125,-3.44482421875,-2.2625732421875
1695712566090150100,0.213150146484375,0.66802978515625,-2.970733642578125,-1.234130859375
1695712566099702000,0.222701904296875,0.135955810546875,-1.63116455078125,-0.289764404296875
1695712566109254100,0.232254150390625,-0.582122802734375,-1.65313720703125,0.1953125
1695712566118806000,0.241805908203125,-1.08551025390625,-1.58905029296875,0.604248046875
1695712566128327700,0.25132763671875,-1.30279541015625,-1.835174560546875,0.8929443359375
1695712566137879600,0.260879638671875,-1.301116943359375,-2.01873779296875,1.129302978515625
1695712566147431700,0.270431640625,-1.168670654296875,-2.01995849609375,1.3140869140625
1695712566156983600,0.279983642578125,-0.98663330078125,-2.273101806640625,1.454620361328125
1695712566166535700,0.28953564453125,-0.809783935546875,-2.7960205078125,1.5728759765625
1695712566176087600,0.299087646484375,-0.70831298828125,-3.310699462890625,1.67999267578125
1695712566185639700,0.3086396484375,-0.69976806640625,-3.7445068359375,1.747283935546875
1695712566195191600,0.318191650390625,-0.75439453125,-4.028167724609375,1.770782470703125
1695712566204713000,0.327712890625,-0.831146240234375,-3.946685791015625,1.73431396484375
1695712566214265000,0.33726513671875,-0.901336669921875,-3.569183349609375,1.6387939453125
1695712566223817000,0.34681689453125,-0.98480224609375,-3.0462646484375,1.510162353515625
1695712566233369000,0.356369140625,-1.11358642578125,-2.502899169921875,1.35284423828125
1695712566242890500,0.365890380859375,-1.273040771484375,-2.05047607421875,1.171417236328125
1695712566252442600,0.375442626953125,-1.451416015625,-1.6937255859375,0.97137451171875
1695712566261994500,0.384994384765625,-1.611175537109375,-1.483001708984375,0.780487060546875
1695712566271546600,0.394546630859375,-1.710205078125,-1.365966796875,0.61279296875
1695712566281098500,0.404098388671875,-1.71112060546875,-1.190643310546875,0.418548583984375
1695712566290620200,0.4136201171875,-1.627655029296875,-1.157989501953125,0.28350830078125
1695712566300172000,0.423172119140625,-1.490631103515625,-1.140289306640625,0.224609375
1695712566309724200,0.43272412109375,-1.3177490234375,-1.067352294921875,0.21087646484375
1695712566319276000,0.442276123046875,-1.145172119140625,-0.94024658203125,0.23162841796875
1695712566328797400,0.45179736328125,-1.00616455078125,-0.761871337890625,0.240478515625
1695712566338349600,0.461349609375,-0.909881591796875,-0.60394287109375,0.18585205078125
1695712566347901400,0.4709013671875,-0.847015380859375,-0.50537109375,0.063934326171875
1695712566357453600,0.48045361328125,-0.803985595703125,-0.436553955078125,-0.103759765625
1695712566366975000,0.48997509765625,-0.767364501953125,-0.360870361328125,-0.289154052734375
1695712566376527000,0.499527099609375,-0.553131103515625,-0.402069091796875,-0.43121337890625
1695712566386079000,0.509078857421875,-0.0341796875,-0.417022705078125,-0.47393798828125
1695712566395631000,0.518631103515625,0.4156494140625,-0.269775390625,-0.45440673828125
1695712566405152500,0.528152587890625,0.533294677734375,-0.086822509765625,-0.46234130859375
1695712566414704600,0.53770458984375,0.44036865234375,0.09033203125,-0.49530029296875
1695712566424256500,0.547256591796875,0.3338623046875,0.213623046875,-0.50537109375
1695712566433808600,0.55680859375,0.255889892578125,0.235137939453125,-0.4730224609375
1695712566443391000,0.566390869140625,0.214080810546875,0.21209716796875,-0.4022216796875
1695712566452912600,0.57591259765625,0.198822021484375,0.19989013671875,-0.289764404296875
1695712566462464500,0.585464599609375,0.177459716796875,0.20294189453125,-0.15960693359375
1695712566472016600,0.5950166015625,0.124664306640625,0.21087646484375,-0.05096435546875
1695712566481568500,0.604568603515625,0.06683349609375,0.211181640625,0.024261474609375
1695712566491090000,0.61408984375,0.01983642578125,0.2093505859375,0.065765380859375
1695712566500642000,0.62364208984375,-0.01922607421875,0.226898193359375,0.043487548828125
1695712566510194000,0.63319384765625,-0.113372802734375,0.226593017578125,-0.0439453125
1695712566519746000,0.64274609375,-0.158538818359375,0.260467529296875,-0.142822265625
1695712566529267500,0.652267333984375,-0.159149169921875,0.4522705078125,-0.245208740234375
1695712566538819600,0.661819580078125,-0.103912353515625,0.56976318359375,-0.298004150390625
1695712566548371500,0.671371337890625,0.0091552734375,0.601348876953125,-0.241241455078125
1695712566557923600,0.680923583984375,0.11566162109375,0.656890869140625,-0.11566162109375
1695712566567475500,0.690475341796875,0.180511474609375,0.639495849609375,0.009918212890625
1695712566576997000,0.6999970703125,0.199127197265625,0.489501953125,0.104217529296875
1695712566586549000,0.709549072265625,0.167999267578125,0.312347412109375,0.17059326171875
1695712566596101000,0.71910107421875,0.11444091796875,0.1458740234375,0.19439697265625
1695712566605653000,0.728653076171875,0.079345703125,-0.027923583984375,0.1416015625
1695712566615174400,0.73817431640625,0.0762939453125,-0.124664306640625,0.052337646484375
1695712566624726500,0.7477265625,0.08209228515625,-0.083160400390625,-0.028228759765625
1695712566634278400,0.7572783203125,0.0787353515625,0.057373046875,-0.08209228515625
1695712566643830500,0.76683056640625,0.06378173828125,0.230865478515625,-0.09765625
1695712566653352000,0.77635205078125,0.0555419921875,0.42022705078125,-0.07568359375
1695712566662904000,0.785904052734375,0.06256103515625,0.573272705078125,-0.050048828125
1695712566672456000,0.7954560546875,0.0604248046875,0.626678466796875,-0.05950927734375
1695712566682008000,0.805008056640625,0.07293701171875,0.54595947265625,-0.12542724609375
1695712566691529500,0.814529541015625,0.07415771484375,0.346527099609375,-0.18768310546875
1695712566701081300,0.824081298828125,0.06591796875,0.000762939453125,-0.21575927734375
1695712566710633500,0.833633544921875,0.05950927734375,-0.421905517578125,-0.1556396484375
1695712566720185300,0.843185302734375,0.06805419921875,-0.788116455078125,-0.015106201171875
1695712566729768000,0.852767822265625,0.09368896484375,-1.00433349609375,0.12908935546875
1695712566739289600,0.86228955078125,0.132293701171875,-1.101226806640625,0.2215576171875
1695712566748841500,0.871841552734375,0.187530517578125,-1.137237548828125,0.2099609375
1695712566758393600,0.8813935546875,0.220184326171875,-0.9423828125,0.065460205078125
1695712566767945500,0.890945556640625,0.243072509765625,-0.429229736328125,-0.17425537109375
1695712566777467000,0.900466796875,0.265960693359375,0.2020263671875,-0.4156494140625
1695712566787019000,0.91001904296875,0.301055908203125,0.730743408203125,-0.5694580078125
1695712566796571000,0.91957080078125,0.34332275390625,1.042633056640625,-0.601348876953125
1695712566806123000,0.929123046875,0.3912353515625,1.045684814453125,-0.53985595703125
1695712566815644400,0.93864453125,0.520172119140625,0.664520263671875,-0.4608154296875
1695712566825196500,0.948196533203125,0.634002685546875,0.125732421875,-0.291290283203125
1695712566834748400,0.95774853515625,0.6658935546875,-0.5120849609375,-0.05340576171875
1695712566844300500,0.967300537109375,0.67169189453125,-1.20330810546875,0.2203369140625
1695712566853852400,0.976852294921875,0.73944091796875,-1.843109130859375,0.5059814453125
1695712566863373800,0.986373779296875,0.885467529296875,-2.34100341796875,0.758514404296875
1695712566872926000,0.995926025390625,1.09619140625,-2.6385498046875,0.93963623046875
1695712566882478000,1.00547802734375,1.221160888671875,-2.72003173828125,1.018218994140625
1695712566892030000,1.015030029296875,1.18255615234375,-2.6470947265625,0.96893310546875
1695712566901551400,1.02455126953125,1.0821533203125,-2.562103271484375,0.827484130859375
1695712566911103500,1.034103515625,1.002655029296875,-2.503204345703125,0.62744140625
1695712566920655400,1.0436552734375,0.990142822265625,-2.2998046875,0.415496826171875
1695712566930207500,1.05320751953125,1.1053466796875,-1.98272705078125,0.22705078125
1695712566939729000,1.06272900390625,1.307830810546875,-1.68060302734375,0.087432861328125
1695712566949281000,1.072281005859375,1.43218994140625,-1.2738037109375,-0.057373046875
1695712566958833000,1.0818330078125,1.3922119140625,-0.788726806640625,-0.263519287109375
1695712566968385000,1.091385009765625,1.266326904296875,-0.364532470703125,-0.50933837890625
1695712566977906400,1.100906494140625,1.11846923828125,-0.130615234375,-0.706939697265625
1695712566987458300,1.110458251953125,1.001129150390625,-0.14434814453125,-0.843505859375
1695712566997010400,1.120010498046875,0.916595458984375,-0.395355224609375,-0.88043212890625
1695712567006562300,1.129562255859375,0.901947021484375,-0.746917724609375,-0.78521728515625
1695712567016145000,1.139144775390625,0.977630615234375,-1.01898193359375,-0.53497314453125
1695712567025666300,1.148666259765625,1.060791015625,-1.149139404296875,-0.249786376953125
1695712567035218400,1.158218505859375,1.11785888671875,-1.179351806640625,-0.015411376953125
1695712567044770300,1.167770263671875,1.1968994140625,-1.176910400390625,0.19683837890625
1695712567054322400,1.177322509765625,1.270904541015625,-1.219482421875,0.366668701171875
1695712567063843800,1.18684375,1.335296630859375,-1.26434326171875,0.415802001953125
1695712567073396000,1.19639599609375,1.4190673828125,-1.23626708984375,0.346221923828125
1695712567082947800,1.20594775390625,1.51214599609375,-1.184844970703125,0.25543212890625
1695712567092500000,1.2155,1.635589599609375,-1.200103759765625,0.22979736328125
1695712567102021400,1.225021484375,1.8505859375,-1.3494873046875,0.326690673828125
1695712567111573500,1.234573486328125,2.17193603515625,-1.7010498046875,0.6268310546875
1695712567121125400,1.24412548828125,2.57080078125,-2.2906494140625,1.20391845703125
1695712567130677500,1.253677490234375,3.008880615234375,-3.0926513671875,2.0428466796875
1695712567140199000,1.263198974609375,3.491058349609375,-3.960418701171875,3.04931640625
1695712567149750800,1.272750732421875,4.0447998046875,-4.640960693359375,4.025115966796875
1695712567159303000,1.282302978515625,4.598541259765625,-5.007781982421875,4.765472412109375
1695712567168854800,1.291854736328125,5.0860595703125,-5.058441162109375,5.1531982421875
1695712567178407000,1.301406982421875,5.46478271484375,-4.8638916015625,5.17791748046875
1695712567187928300,1.31092822265625,5.689239501953125,-4.56207275390625,4.952392578125
1695712567197480400,1.32048046875,5.921478271484375,-4.11041259765625,4.791259765625
1695712567207032300,1.3300322265625,5.600433349609375,-3.73321533203125,4.618377685546875
1695712567216584400,1.33958447265625,4.944915771484375,-3.308563232421875,4.478759765625
1695712567226105900,1.34910595703125,4.33685302734375,-2.826690673828125,4.45159912109375
1695712567235658000,1.358657958984375,3.93310546875,-2.41943359375,4.5025634765625
1695712567245209900,1.3682099609375,3.70361328125,-2.044677734375,4.59075927734375
1695712567254762000,1.377761962890625,3.533782958984375,-1.70562744140625,4.668426513671875
1695712567264283400,1.387283447265625,3.376617431640625,-1.408538818359375,4.716339111328125
1695712567273835300,1.396835205078125,3.2177734375,-1.172943115234375,4.725799560546875
1695712567283387400,1.406387451171875,3.095550537109375,-0.98541259765625,4.716339111328125
1695712567292939300,1.415939208984375,3.047027587890625,-0.9759521484375,4.699859619140625
1695712567302491400,1.425491455078125,2.979736328125,-1.162872314453125,4.646148681640625
1695712567312043300,1.435043212890625,2.84820556640625,-1.418914794921875,4.5428466796875
1695712567321595400,1.444595458984375,2.662200927734375,-1.67572021484375,4.396514892578125
1695712567331147300,1.454147216796875,2.46826171875,-1.803436279296875,4.224853515625
1695712567340699400,1.463699462890625,2.332611083984375,-1.68487548828125,4.024810791015625
1695712567350220800,1.473220703125,2.20703125,-1.32232666015625,3.8214111328125
1695712567359773000,1.48277294921875,2.081756591796875,-0.99151611328125,3.682403564453125
1695712567369324800,1.49232470703125,1.90460205078125,-2.575531005859375,3.174896240234375
1695712567378877000,1.501876953125,1.223297119140625,-9.13360595703125,0.041351318359375
1695712567388398300,1.5113984375,1.488037109375,-9.20166015625,-0.244293212890625
1695712567397950500,1.520950439453125,1.383056640625,-3.8946533203125,2.189178466796875
1695712567407502300,1.53050244140625,1.74468994140625,-0.9112548828125,1.806793212890625
1695712567417054500,1.540054443359375,2.773895263671875,0.648956298828125,0.6329345703125
1695712567426576000,1.549575927734375,3.763885498046875,1.446380615234375,-0.13702392578125
1695712567436127700,1.559127685546875,4.141693115234375,1.728057861328125,-0.610198974609375
1695712567445679900,1.568679931640625,3.526458740234375,1.54632568359375,-0.944976806640625
1695712567455231700,1.578231689453125,2.4761962890625,0.951385498046875,-1.029510498046875
1695712567464784000,1.587783935546875,1.607818603515625,0.278472900390625,-0.77392578125
1695712567474305300,1.59730517578125,1.248931884765625,-0.2899169921875,-0.342559814453125
1695712567483857400,1.606857421875,1.16424560546875,-0.696258544921875,0.022735595703125
1695712567493409300,1.6164091796875,1.17401123046875,-1.032867431640625,0.1953125
1695712567502961400,1.62596142578125,1.372833251953125,-1.3720703125,0.17608642578125
1695712567512482800,1.63548291015625,1.570587158203125,-1.7327880859375,0.011749267578125
1695712567522035000,1.645034912109375,1.624603271484375,-2.161712646484375,-0.218505859375
1695712567531586800,1.6545869140625,1.616058349609375,-2.29400634765625,-0.298309326171875
1695712567541139000,1.664138916015625,1.970977783203125,-2.201690673828125,-0.235748291015625
1695712567550660400,1.673660400390625,2.730255126953125,-1.33026123046875,-0.2239990234375
1695712567560212200,1.683212158203125,2.8955078125,-0.62713623046875,-0.405426025390625
1695712567569764400,1.692764404296875,2.411041259765625,0.57525634765625,-1.107330322265625
1695712567579316200,1.702316162109375,2.1002197265625,1.500244140625,-0.57708740234375
1695712567588868400,1.711868408203125,2.17620849609375,2.733612060546875,0.342254638671875
1695712567598420200,1.721420166015625,2.440338134765625,4.555511474609375,0.9649658203125
1695712567607972400,1.730972412109375,2.20489501953125,4.39422607421875,0.56427001953125
1695712567617524200,1.740524169921875,1.209564208984375,0.962371826171875,0.330657958984375
1695712567627076400,1.750076416015625,0.80718994140625,-1.63330078125,1.36016845703125
1695712567636597800,1.75959765625,0.83160400390625,-2.81768798828125,2.38128662109375
1695712567646150000,1.76914990234375,0.966339111328125,-3.02978515625,2.587738037109375
1695712567655701800,1.77870166015625,1.208648681640625,-3.222808837890625,2.187347412109375
1695712567665254000,1.78825390625,1.574859619140625,-3.937530517578125,0.96710205078125
1695712567674775300,1.797775390625,1.75933837890625,-3.218231201171875,-0.316314697265625
1695712567684358000,1.80735791015625,1.90460205078125,-1.865997314453125,-0.648345947265625
1695712567693971000,1.816970947265625,2.1234130859375,-0.972900390625,-0.45440673828125
1695712567703584000,1.826583984375,2.416839599609375,-0.779876708984375,-0.359649658203125
1695712567713197000,1.836197021484375,2.455902099609375,-0.740814208984375,-0.423583984375
1695712567722809900,1.845809814453125,2.324676513671875,-0.60638427734375,-0.5426025390625
1695712567732423000,1.8554228515625,2.326812744140625,-0.5633544921875,-0.721282958984375
1695712567742036000,1.865035888671875,2.451324462890625,-0.58441162109375,-0.8795166015625
1695712567751679500,1.874679443359375,2.574462890625,-0.680999755859375,-0.966033935546875
1695712567770173200,1.893173095703125,2.92083740234375,-1.2103271484375,-0.964202880859375
1695712567779725300,1.902725341796875,3.043060302734375,-1.500396728515625,-0.89202880859375
1695712567789308000,1.912307861328125,3.070220947265625,-1.419830322265625,-0.82183837890625
1695712567798859800,1.92185986328125,3.137359619140625,-1.065216064453125,-0.707855224609375
1695712567808412000,1.931411865234375,3.2183837890625,-0.682220458984375,-0.518798828125
1695712567817963800,1.9409638671875,3.20556640625,-0.116424560546875,-0.286102294921875
1695712567827516000,1.950515869140625,2.8582763671875,0.246429443359375,-0.21209716796875
1695712567837037300,1.960037353515625,2.1734619140625,0.13336181640625,-0.235748291015625
1695712567846589200,1.969589111328125,1.558380126953125,-0.334625244140625,-0.296478271484375
1695712567856141300,1.979141357421875,1.15478515625,-1.033172607421875,-0.605621337890625
1695712567865693200,1.988693115234375,0.74493408203125,-0.705108642578125,-0.587921142578125
1695712567875245300,1.998245361328125,0.228729248046875,-0.22125244140625,-0.20416259765625
1695712567884797200,2.007797119140625,-0.194549560546875,0.43060302734375,0.081329345703125
1695712567894349300,2.017349365234375,-0.26824951171875,0.660858154296875,0.17974853515625
1695712567903901200,2.026901123046875,-0.129852294921875,0.581817626953125,0.12451171875
1695712567913453300,2.036453369140625,-0.01617431640625,0.0909423828125,0.064544677734375
1695712567922974700,2.045974609375,0.07110595703125,-0.032806396484375,0.102081298828125
1695712567932526800,2.05552685546875,0.11444091796875,0.05279541015625,0.12237548828125
1695712567942078700,2.06507861328125,0.178985595703125,0.254058837890625,0.2276611328125
1695712567951630800,2.074630859375,0.32135009765625,0.48980712890625,0.401763916015625
1695712567961152300,2.08415234375,0.486907958984375,0.591888427734375,0.49407958984375
1695712567970704400,2.093704345703125,0.654144287109375,0.651702880859375,0.414886474609375
1695712567980256300,2.10325634765625,0.81329345703125,0.76446533203125,0.224609375
1695712567989808400,2.112808349609375,1.007843017578125,0.419921875,-0.015411376953125
1695712567999329800,2.122329833984375,1.351776123046875,-0.51422119140625,-0.2252197265625
1695712568008881700,2.131881591796875,1.631622314453125,0.1611328125,-0.402984619140625
1695712568018433800,2.141433837890625,1.7919921875,0.16448974609375,-0.4522705078125
1695712568027985700,2.150985595703125,1.86676025390625,-0.125885009765625,-0.302276611328125
1695712568037537800,2.160537841796875,1.82464599609375,-0.5194091796875,-0.18829345703125
1695712568047059200,2.17005908203125,1.654510498046875,-1.035919189453125,-0.16693115234375
1695712568056611300,2.179611328125,1.342315673828125,-1.385498046875,-0.18402099609375
1695712568066163200,2.1891630859375,0.933990478515625,-1.077117919921875,-0.20904541015625
1695712568075715300,2.19871533203125,0.486907958984375,-0.247802734375,-0.18707275390625
1695712568085236700,2.20823681640625,0.00457763671875,0.787353515625,-0.14251708984375
1695712568094788900,2.217788818359375,-0.272216796875,1.524658203125,-0.244598388671875
1695712568104340700,2.2273408203125,0.562896728515625,0.4669189453125,-1.359710693359375
1695712568113892900,2.236892822265625,1.253814697265625,-0.814971923828125,-1.397247314453125
1695712568123414300,2.246414306640625,1.314239501953125,-0.595703125,-0.8587646484375
1695712568132966100,2.255966064453125,1.714630126953125,0.364532470703125,-0.719757080078125
1695712568142518300,2.265518310546875,2.1356201171875,1.046905517578125,-0.657806396484375
1695712568152070100,2.275070068359375,2.49237060546875,1.062469482421875,-0.56304931640625
1695712568161622300,2.284622314453125,2.785797119140625,0.725555419921875,-0.4193115234375
1695712568171174100,2.294174072265625,2.92266845703125,0.625457763671875,-0.238800048828125
1695712568180726300,2.303726318359375,2.850341796875,0.595550537109375,-0.023040771484375
1695712568190278100,2.313278076171875,2.53875732421875,0.390777587890625,0.12298583984375
1695712568199830300,2.322830322265625,2.242431640625,0.610198974609375,-0.599822998046875
1695712568209351700,2.3323515625,1.8988037109375,0.995635986328125,-1.89788818359375
1695712568218903800,2.34190380859375,1.951751708984375,-0.16265869140625,-1.92901611328125
1695712568228455700,2.35145556640625,2.287750244140625,-0.60577392578125,-0.89813232421875
1695712568238007800,2.3610078125,2.46063232421875,0.392303466796875,0.386199951171875
1695712568247529200,2.370529296875,2.296600341796875,1.58203125,1.419525146484375
1695712568257081300,2.380081298828125,1.642303466796875,2.539520263671875,1.378021240234375
1695712568266633200,2.38963330078125,1.1431884765625,2.3046875,1.33636474609375
1695712568276185300,2.399185302734375,0.665283203125,1.092376708984375,0.686187744140625
1695712568285706800,2.408706787109375,0.135955810546875,-0.23468017578125,0.809783935546875
1695712568295258600,2.418258544921875,0.02838134765625,-1.00341796875,1.428680419921875
1695712568304810800,2.427810791015625,0.40313720703125,-1.22772216796875,1.9775390625
1695712568314362600,2.437362548828125,0.6640625,-1.055755615234375,2.256011962890625
1695712568323884300,2.44688427734375,0.335693359375,-0.354461669921875,2.451171875
1695712568333436200,2.456436279296875,-0.117034912109375,0.606536865234375,2.352294921875
1695712568342988300,2.46598828125,-0.552825927734375,1.260986328125,1.94976806640625
1695712568352540200,2.4755400390625,-0.940704345703125,1.20025634765625,1.391143798828125
1695712568362092300,2.48509228515625,-1.212005615234375,0.4669189453125,0.9197998046875
1695712568371613700,2.49461376953125,-1.31317138671875,-0.374908447265625,0.772857666015625
1695712568381165600,2.50416552734375,-1.173248291015625,-0.87127685546875,0.829620361328125
1695712568390717700,2.5137177734375,-0.74066162109375,-0.98785400390625,0.9014892578125
1695712568400269800,2.523269775390625,0.0225830078125,-0.8868408203125,0.828094482421875
1695712568409791200,2.532791259765625,0.298614501953125,-0.5450439453125,0.682525634765625
1695712568419343000,2.542343017578125,0.139617919921875,-0.424346923828125,0.57403564453125
1695712568428895200,2.551895263671875,-0.074310302734375,-0.802764892578125,0.310821533203125
1695712568438447000,2.561447021484375,-0.245361328125,-0.2606201171875,0.683441162109375
1695712568447999200,2.570999267578125,-0.2471923828125,-0.307464599609375,0.8953857421875
1695712568457551000,2.580551025390625,-0.182342529296875,-0.428924560546875,0.771636962890625
1695712568467103200,2.590103271484375,-0.173492431640625,-0.457305908203125,0.5950927734375
1695712568476655000,2.599655029296875,-0.172576904296875,-0.438995361328125,0.49896240234375
1695712568486207200,2.609207275390625,-0.193023681640625,-0.450897216796875,0.4949951171875
1695712568495728600,2.618728759765625,-0.215911865234375,-0.474700927734375,0.51666259765625
1695712568505280800,2.62828076171875,-0.24017333984375,-0.4852294921875,0.5267333984375
1695712568514832600,2.63783251953125,-0.27069091796875,-0.489501953125,0.5426025390625
1695712568524384800,2.647384765625,-0.3021240234375,-0.51116943359375,0.55328369140625
1695712568533906200,2.65690625,-0.3289794921875,-0.52703857421875,0.54595947265625
1695712568543458300,2.666458251953125,-0.37139892578125,-0.52001953125,0.53955078125
1695712568553010200,2.67601025390625,-0.420684814453125,-0.50262451171875,0.5426025390625
1695712568562562300,2.685562255859375,-0.466461181640625,-0.481719970703125,0.55389404296875
1695712568572083700,2.695083740234375,-0.493927001953125,-0.457611083984375,0.56671142578125
1695712568581635600,2.704635498046875,-0.502777099609375,-0.437774658203125,0.5694580078125
1695712568591187700,2.714187744140625,-0.496673583984375,-0.439300537109375,0.54901123046875
1695712568600739600,2.723739501953125,-0.474090576171875,-0.465240478515625,0.50262451171875
1695712568610261200,2.73326123046875,-0.440521240234375,-0.489044189453125,0.431060791015625
1695712568619813000,2.742813232421875,-0.38970947265625,-0.474700927734375,0.354766845703125
1695712568629365200,2.752365234375,-0.335693359375,-0.438995361328125,0.302581787109375
1695712568638917000,2.761917236328125,-0.28411865234375,-0.394439697265625,0.2850341796875
1695712568648469200,2.77146923828125,-0.269775390625,-0.325469970703125,0.28167724609375
1695712568657990700,2.78099072265625,-0.29388427734375,-0.2099609375,0.26397705078125
1695712568667542500,2.79054248046875,-0.360107421875,-0.070648193359375,0.24932861328125
1695712568677094700,2.8000947265625,-0.456390380859375,0.036773681640625,0.2490234375
1695712568686646500,2.809646484375,-0.551605224609375,0.07110595703125,0.250244140625
1695712568696168200,2.819168212890625,-0.6109619140625,-0.031585693359375,0.225830078125
1695712568705720000,2.828719970703125,-0.60791015625,-0.24658203125,0.16693115234375
1695712568715272200,2.838272216796875,-0.546112060546875,-0.454864501953125,0.085906982421875
1695712568724824000,2.847823974609375,-0.472564697265625,-0.55084228515625,0.006866455078125
1695712568734376200,2.857376220703125,-0.436248779296875,-0.52947998046875,-0.05767822265625
1695712568743928000,2.866927978515625,-0.414581298828125,-0.403594970703125,-0.10406494140625
1695712568753480200,2.876480224609375,-0.34393310546875,-0.21759033203125,-0.16754150390625
1695712568763032000,2.886031982421875,-0.23223876953125,-0.039520263671875,-0.274505615234375
1695712568772553700,2.8955537109375,-0.084075927734375,0.1202392578125,-0.392303466796875
1695712568782105600,2.905105712890625,0.0775146484375,0.298004150390625,-0.54443359375
1695712568791657700,2.91465771484375,0.249176025390625,0.45806884765625,-0.750274658203125
1695712568801209600,2.924209716796875,0.4132080078125,0.55908203125,-1.001739501953125
1695712568810761700,2.93376171875,0.522613525390625,0.589447021484375,-1.28326416015625
1695712568820283100,2.943283203125,0.606231689453125,0.54962158203125,-1.5716552734375
1695712568829835000,2.9528349609375,0.7110595703125,0.42938232421875,-1.861572265625
1695712568839387100,2.96238720703125,0.797119140625,0.284271240234375,-2.124481201171875
1695712568848939000,2.97193896484375,0.836944580078125,0.1947021484375,-2.34405517578125
1695712568858460700,2.981460693359375,0.843963623046875,0.17303466796875,-2.514190673828125
1695712568868012500,2.991012451171875,0.79376220703125,0.1776123046875,-2.62603759765625
1695712568877564700,3.000564697265625,0.76995849609375,0.152587890625,-2.6885986328125
1695712568887116500,3.010116455078125,0.711669921875,0.251922607421875,-2.454986572265625
1695712568896638200,3.01963818359375,0.636444091796875,0.17578125,-2.191925048828125
1695712568906190000,3.029190185546875,0.502166748046875,-0.424652099609375,-2.182159423828125
1695712568915742200,3.0387421875,0.507049560546875,-0.5352783203125,-2.027435302734375
1695712568925294000,3.048294189453125,0.527191162109375,-0.689544677734375,-1.86798095703125
1695712568934846200,3.05784619140625,0.35858154296875,-0.804595947265625,-1.755523681640625
1695712568944367600,3.06736767578125,0.275115966796875,-0.496826171875,-1.6192626953125
1695712568953919500,3.07691943359375,0.076904296875,0.363616943359375,-1.6168212890625
1695712568963471600,3.0864716796875,-0.184173583984375,1.308441162109375,-1.670684814453125
1695712568973023500,3.0960234375,-0.180206298828125,1.829071044921875,-1.64764404296875
1695712568982545200,3.105545166015625,-0.150299072265625,1.824798583984375,-1.800689697265625
1695712568992097000,3.115096923828125,-0.3387451171875,1.435089111328125,-1.93756103515625
1695712569001649200,3.124649169921875,-0.377197265625,0.538330078125,-1.788482666015625
1695712569011201000,3.134200927734375,-0.225830078125,-0.57220458984375,-1.634521484375
1695712569020753200,3.143753173828125,-0.120697021484375,-0.2850341796875,-1.22161865234375
1695712569030305000,3.153304931640625,-0.00732421875,-0.145263671875,-0.947418212890625
1695712569039857200,3.162857177734375,0.219879150390625,-0.21209716796875,-0.725250244140625
1695712569049409000,3.172408935546875,0.37689208984375,-0.19622802734375,-0.596771240234375
1695712569058930700,3.1819306640625,0.474853515625,-0.102081298828125,-0.47698974609375
1695712569068482600,3.191482666015625,0.513458251953125,0.0958251953125,-0.338592529296875
1695712569078034700,3.20103466796875,0.488128662109375,0.384368896484375,-0.225830078125
1695712569087586600,3.210586669921875,0.42083740234375,0.56854248046875,-0.15045166015625
1695712569097138700,3.220138671875,0.32470703125,0.644989013671875,-0.06011962890625
1695712569106660000,3.22966015625,0.221405029296875,0.587005615234375,0.063323974609375
1695712569116212000,3.2392119140625,0.124053955078125,0.46417236328125,0.20660400390625
1695712569125764000,3.24876416015625,0.04119873046875,0.347442626953125,0.377349853515625
1695712569135316000,3.25831591796875,-0.01190185546875,0.245819091796875,0.56884765625
1695712569144837600,3.267837646484375,-0.053863525390625,0.181884765625,0.751495361328125
1695712569154389500,3.277389404296875,-0.099029541015625,0.1666259765625,0.93017578125
1695712569163941600,3.286941650390625,-0.142669677734375,0.18798828125,1.130828857421875
1695712569173493500,3.296493408203125,-0.189971923828125,0.230865478515625,1.351318359375
1695712569183015200,3.30601513671875,-0.23712158203125,0.289764404296875,1.555328369140625
1695712569192567000,3.315567138671875,-0.24810791015625,0.345611572265625,1.7144775390625
1695712569202119200,3.325119140625,-0.217132568359375,0.42205810546875,1.763153076171875
1695712569211671000,3.334671142578125,-0.131378173828125,0.54840087890625,1.6241455078125
1695712569221223200,3.34422314453125,0.01007080078125,0.75408935546875,1.2908935546875
1695712569230744600,3.35374462890625,0.219268798828125,1.049652099609375,0.8349609375
1695712569240296400,3.36329638671875,0.47515869140625,1.432037353515625,0.264892578125
1695712569249848600,3.3728486328125,0.74127197265625,1.669158935546875,-0.52001953125
1695712569259400400,3.382400390625,0.976715087890625,1.353302001953125,-1.334686279296875
1695712569268922000,3.391922119140625,1.026458740234375,0.41717529296875,-1.801910400390625
1695712569278474000,3.401473876953125,0.879669189453125,-0.48126220703125,-1.8670654296875
1695712569288026000,3.411026123046875,0.7098388671875,-0.708160400390625,-1.752471923828125
1695712569297608400,3.4206083984375,0.579681396484375,-0.435333251953125,-1.57928466796875
1695712569307130000,3.430130126953125,0.46661376953125,0.1959228515625,-1.22314453125
1695712569316682000,3.439681884765625,0.296783447265625,0.588836669921875,-0.731658935546875
1695712569326234000,3.449234130859375,0.0201416015625,0.8502197265625,-0.0994873046875
1695712569335786000,3.458785888671875,-0.35369873046875,0.75714111328125,0.6402587890625
1695712569345307600,3.4683076171875,-0.791778564453125,0.137939453125,1.31378173828125
1695712569354859500,3.477859619140625,-1.130828857421875,-0.5828857421875,1.712646484375
1695712569364411600,3.48741162109375,-1.00341796875,-0.764617919921875,1.397857666015625
1695712569373963500,3.496963623046875,-0.441741943359375,-0.084686279296875,0.13671875
1695712569383515600,3.506515625,0.03265380859375,0.5133056640625,-0.93841552734375
1695712569393037000,3.516037109375,0.135955810546875,0.184326171875,-0.52581787109375
1695712569402589000,3.5255888671875,0.02655029296875,-0.752105712890625,0.546875
1695712569412141000,3.53514111328125,-0.140838623046875,-1.422576904296875,1.34674072265625
1695712569421693000,3.54469287109375,-0.32257080078125,-1.37298583984375,1.836700439453125
1695712569431214600,3.554214599609375,-0.530548095703125,-0.733795166015625,1.9964599609375
1695712569440766500,3.563766357421875,-0.74554443359375,-0.094451904296875,1.842193603515625
1695712569450318600,3.573318603515625,-0.894317626953125,0.220947265625,1.640625
1695712569459870500,3.582870361328125,-0.910491943359375,0.277557373046875,1.486358642578125
1695712569469392100,3.59239208984375,-0.67352294921875,0.1654052734375,1.229248046875
1695712569478944000,3.601944091796875,-0.29571533203125,-0.040740966796875,1.127166748046875
1695712569488496000,3.61149609375,-0.091705322265625,-0.3082275390625,1.180877685546875
1695712569498048000,3.621048095703125,0.03265380859375,-0.450897216796875,1.173858642578125
1695712569507600100,3.63060009765625,0.128936767578125,-0.59326171875,1.193389892578125
1695712569517121500,3.64012158203125,0.12542724609375,-0.707550048828125,1.2689208984375
1695712569526673400,3.64967333984375,0.020751953125,-0.694122314453125,1.3201904296875
1695712569536225500,3.6592255859375,-0.127410888671875,-0.53375244140625,1.3421630859375
1695712569545777400,3.66877734375,-0.22247314453125,-0.28900146484375,1.3372802734375
1695712569555299000,3.678299072265625,-0.2545166015625,-0.18646240234375,1.31866455078125
1695712569564851000,3.687850830078125,-0.26641845703125,-0.2410888671875,1.2994384765625
1695712569574403000,3.697403076171875,-0.24169921875,-0.310821533203125,1.31500244140625
1695712569583985400,3.7069853515625,-0.22491455078125,-0.385589599609375,1.314697265625
1695712569593507000,3.716507080078125,-0.25604248046875,-0.417938232421875,1.2445068359375
1695712569603059000,3.726058837890625,-0.3253173828125,-0.432281494140625,1.113739013671875
1695712569612611000,3.735611083984375,-0.3955078125,-0.404205322265625,0.96466064453125
1695712569622163000,3.745162841796875,-0.447235107421875,-0.28961181640625,0.88348388671875
1695712569631684600,3.7546845703125,-0.484466552734375,-0.1763916015625,0.86578369140625
1695712569641236500,3.764236572265625,-0.492401123046875,-0.115203857421875,0.86822509765625
1695712569650788600,3.77378857421875,-0.479888916015625,-0.113983154296875,0.86822509765625
1695712569660340500,3.783340576171875,-0.464019775390625,-0.17181396484375,0.8660888671875
1695712569669892600,3.792892578125,-0.453338623046875,-0.2301025390625,0.87158203125
1695712569679414000,3.8024140625,-0.461273193359375,-0.26092529296875,0.8795166015625
1695712569688966000,3.8119658203125,-0.488128662109375,-0.2532958984375,0.87799072265625
1695712569698518000,3.82151806640625,-0.528411865234375,-0.23101806640625,0.86639404296875
1695712569708070000,3.83106982421875,-0.574798583984375,-0.23406982421875,0.86029052734375
1695712569717591600,3.840591552734375,-0.61676025390625,-0.264892578125,0.86212158203125
1695712569727143400,3.850143310546875,-0.6494140625,-0.30548095703125,0.85968017578125
1695712569736695600,3.859695556640625,-0.67352294921875,-0.306854248046875,0.85113525390625
1695712569746247400,3.869247314453125,-0.689697265625,-0.2886962890625,0.817413330078125
1695712569755769000,3.87876904296875,-0.6915283203125,-0.3070068359375,0.748748779296875
1695712569765321000,3.888321044921875,-0.67657470703125,-0.391082763671875,0.660247802734375
1695712569774873000,3.897873046875,-0.6317138671875,-0.4962158203125,0.55908203125
1695712569784425000,3.907425048828125,-0.539703369140625,-0.56976318359375,0.457611083984375
1695712569793977000,3.91697705078125,-0.428009033203125,-0.5877685546875,0.382537841796875
1695712569803498500,3.92649853515625,-0.355224609375,-0.51483154296875,0.326995849609375
1695712569813050400,3.93605029296875,-0.345458984375,-0.331573486328125,0.24810791015625
1695712569822602500,3.9456025390625,-0.3839111328125,-0.13275146484375,0.14495849609375
1695712569832154400,3.955154296875,-0.441741943359375,0.018157958984375,0.047454833984375
1695712569841676000,3.964676025390625,-0.468292236328125,0.15106201171875,-0.030364990234375
1695712569851228000,3.974227783203125,-0.413665771484375,0.256805419921875,-0.0897216796875
1695712569860780000,3.983780029296875,-0.26824951171875,0.304107666015625,-0.15594482421875
1695712569870362400,3.9933623046875,-0.088653564453125,0.299530029296875,-0.293426513671875
1695712569879884000,4.002884033203125,0.079345703125,0.306243896484375,-0.501708984375
1695712569889436000,4.012435791015625,0.218963623046875,0.401611328125,-0.693817138671875
1695712569898988000,4.021988037109375,0.297393798828125,0.55816650390625,-0.8837890625
1695712569908540000,4.031539794921875,0.3741455078125,0.753173828125,-1.121368408203125
1695712569918061600,4.0410615234375,0.4425048828125,0.8416748046875,-1.423187255859375
1695712569927613400,4.050613525390625,0.450439453125,0.7574462890625,-1.759490966796875
1695712569937165600,4.06016552734375,0.452880859375,0.56884765625,-2.116241455078125
1695712569946717400,4.069717529296875,0.484466552734375,0.385894775390625,-2.476654052734375
1695712569956269600,4.07926953125,0.562286376953125,0.282135009765625,-2.783355712890625
1695712569965791000,4.088791015625,0.654449462890625,0.252227783203125,-2.9541015625
1695712569975342800,4.0983427734375,0.7220458984375,0.14312744140625,-2.9766845703125
1695712569984895000,4.10789501953125,0.7635498046875,-0.062103271484375,-2.857818603515625
1695712569994446800,4.11744677734375,0.76416015625,-0.27862548828125,-2.67730712890625
1695712570003968500,4.126968505859375,0.72021484375,-0.51971435546875,-2.536773681640625
1695712570013520400,4.136520263671875,0.634002685546875,-0.85296630859375,-2.464447021484375
1695712570023072500,4.146072509765625,0.557708740234375,-1.144256591796875,-2.407989501953125
1695712570032624400,4.155624267578125,0.504302978515625,-1.168060302734375,-2.36236572265625
1695712570042145800,4.165145751953125,0.41748046875,-0.90545654296875,-2.31597900390625
1695712570051698000,4.174697998046875,0.298614501953125,-0.324554443359375,-2.2064208984375
1695712570061250000,4.18425,0.256805419921875,0.41748046875,-2.100677490234375
1695712570070802000,4.193802001953125,0.299835205078125,0.999603271484375,-2.01202392578125
1695712570080323300,4.2033232421875,0.3704833984375,1.362152099609375,-1.9122314453125
1695712570089875500,4.21287548828125,0.458984375,1.13800048828125,-1.65618896484375
1695712570099427300,4.22242724609375,0.523834228515625,1.1456298828125,-1.55517578125
1695712570108979500,4.2319794921875,0.521392822265625,1.335906982421875,-1.61285400390625
1695712570118531300,4.24153125,0.525970458984375,1.1865234375,-1.52313232421875
1695712570128053000,4.251052978515625,0.578765869140625,1.044464111328125,-1.372528076171875
1695712570137604900,4.26060498046875,0.649566650390625,0.971832275390625,-1.19903564453125
1695712570147157000,4.270156982421875,0.73883056640625,0.977325439453125,-1.018829345703125
1695712570156739300,4.2797392578125,0.8380126953125,1.060638427734375,-0.84686279296875
1695712570166261000,4.289260986328125,0.901947021484375,1.1712646484375,-0.718841552734375
1695712570175812900,4.298812744140625,0.928802490234375,1.28326416015625,-0.627593994140625
1695712570185365000,4.308364990234375,0.934906005859375,1.383209228515625,-0.54046630859375
1695712570194916900,4.317916748046875,0.917816162109375,1.417999267578125,-0.45135498046875
1695712570204438500,4.3274384765625,0.890350341796875,1.373138427734375,-0.339202880859375
1695712570213990400,4.336990478515625,0.857086181640625,1.24176025390625,-0.184326171875
1695712570223542500,4.34654248046875,0.8062744140625,1.011199951171875,0.012054443359375
1695712570233094400,4.356094482421875,0.7403564453125,0.717620849609375,0.260009765625
1695712570242646500,4.365646484375,0.658721923828125,0.42755126953125,0.55755615234375
1695712570252168000,4.37516796875,0.567779541015625,0.213623046875,0.88287353515625
1695712570261719800,4.3847197265625,0.4681396484375,0.10406494140625,1.21490478515625
1695712570271272000,4.39427197265625,0.357666015625,0.07476806640625,1.534576416015625
1695712570280823800,4.40382373046875,0.248565673828125,0.103759765625,1.812286376953125
1695712570290345500,4.413345458984375,0.161590576171875,0.18157958984375,2.02239990234375
1695712570299897300,4.4228974609375,0.087890625,0.298614501953125,2.135772705078125
1695712570309449500,4.432449462890625,0.01800537109375,0.46142578125,2.0916748046875
1695712570319001300,4.44200146484375,-0.02288818359375,0.675811767578125,1.841888427734375
1695712570328522800,4.451522705078125,0.01220703125,0.91644287109375,1.392669677734375
1695712570338075000,4.461074951171875,0.143585205078125,1.21917724609375,0.746917724609375
1695712570347626800,4.470626708984375,0.3485107421875,1.62261962890625,-0.09063720703125
1695712570357179000,4.480178955078125,0.587310791015625,1.782684326171875,-0.89019775390625
1695712570366700300,4.4897001953125,0.7623291015625,1.19903564453125,-1.19476318359375
1695712570376252400,4.49925244140625,0.8135986328125,0.1416015625,-1.006622314453125
1695712570385804300,4.50880419921875,0.75286865234375,-0.674896240234375,-0.738677978515625
1695712570395356400,4.5183564453125,0.600738525390625,-0.680389404296875,-0.688323974609375
1695712570404908300,4.527908203125,0.41168212890625,-0.715484619140625,-0.5828857421875
1695712570414430000,4.537429931640625,0.210723876953125,-0.54962158203125,-0.311431884765625
1695712570423981800,4.54698193359375,0.067138671875,0.603790283203125,-0.194091796875
1695712570433534000,4.556533935546875,-0.106964111328125,0.91339111328125,0.374298095703125
1695712570443116300,4.5661162109375,-0.531158447265625,1.435699462890625,0.8349609375
1695712570452638000,4.575637939453125,-0.839385986328125,0.636444091796875,1.55975341796875
1695712570462189800,4.58518994140625,-0.932769775390625,-1.100311279296875,1.9989013671875
1695712570471742000,4.594741943359375,-0.599365234375,-2.536468505859375,0.9722900390625
1695712570481293800,4.6042939453125,-0.066680908203125,-1.841583251953125,-0.86273193359375
1695712570490815200,4.613815185546875,0.40313720703125,0.06072998046875,-1.17767333984375
1695712570500367400,4.623367431640625,0.531158447265625,0.395965576171875,0.015716552734375
1695712570509919200,4.632919189453125,0.121612548828125,-0.442352294921875,1.026458740234375
1695712570519471400,4.642471435546875,-0.473175048828125,-0.330963134765625,1.278076171875
1695712570528992800,4.65199267578125,-0.861053466796875,0.297393798828125,0.99822998046875
1695712570538545000,4.661544921875,-0.997314453125,0.56884765625,0.691986083984375
1695712570548096800,4.6710966796875,-1.0015869140625,0.18707275390625,0.8941650390625
1695712570557649000,4.68064892578125,-0.845794677734375,-0.242919921875,1.381988525390625
1695712570567200800,4.69020068359375,-0.62591552734375,-0.697174072265625,1.757049560546875
1695712570576722400,4.699722412109375,-0.403900146484375,-1.183013916015625,1.849822998046875
1695712570586274300,4.7092744140625,-0.090484619140625,-1.3360595703125,1.755828857421875
1695712570595826400,4.718826416015625,0.303955078125,-1.115570068359375,1.445159912109375
1695712570605378300,4.72837841796875,0.502777099609375,-0.742645263671875,1.096343994140625
1695712570614899700,4.737899658203125,0.4473876953125,-0.5279541015625,1.040496826171875
1695712570624451800,4.747451904296875,0.243988037109375,-0.60546875,1.186981201171875
1695712570634003700,4.757003662109375,-0.023193359375,-0.775299072265625,1.33880615234375
1695712570643555800,4.766555908203125,-0.2587890625,-0.787506103515625,1.420440673828125
1695712570653077200,4.7760771484375,-0.418853759765625,-0.726165771484375,1.393890380859375
1695712570662629400,4.78562939453125,-0.469512939453125,-0.61492919921875,1.326904296875
1695712570672181200,4.79518115234375,-0.421905517578125,-0.487060546875,1.2933349609375
1695712570681733400,4.8047333984375,-0.32684326171875,-0.435028076171875,1.30523681640625
1695712570691285200,4.81428515625,-0.2685546875,-0.465545654296875,1.32598876953125
1695712570700807000,4.823806884765625,-0.28472900390625,-0.56732177734375,1.29241943359375
1695712570710358800,4.83335888671875,-0.338134765625,-0.674285888671875,1.221923828125
1695712570719911000,4.842910888671875,-0.39093017578125,-0.690155029296875,1.144256591796875
1695712570729493200,4.8524931640625,-0.429534912109375,-0.57342529296875,1.084442138671875
1695712570739015000,4.862014892578125,-0.465850830078125,-0.413665771484375,1.040496826171875
1695712570748566800,4.87156689453125,-0.506439208984375,-0.312652587890625,1.00799560546875
1695712570758119000,4.881118896484375,-0.525054931640625,-0.2484130859375,1.023101806640625
1695712570767670800,4.8906708984375,-0.528411865234375,-0.27069091796875,1.047821044921875
1695712570777192200,4.900192138671875,-0.521392822265625,-0.356597900390625,1.045684814453125
1695712570786744300,4.909744384765625,-0.509490966796875,-0.408782958984375,1.034393310546875
1695712570796296200,4.919296142578125,-0.517730712890625,-0.387725830078125,1.033477783203125
1695712570805848300,4.928848388671875,-0.541229248046875,-0.315093994140625,1.045379638671875
1695712570815369700,4.93836962890625,-0.568389892578125,-0.27557373046875,1.049652099609375
1695712570824921900,4.947921875,-0.59234619140625,-0.2880859375,1.045379638671875
1695712570834473700,4.9574736328125,-0.60516357421875,-0.318450927734375,1.033782958984375
1695712570844025900,4.96702587890625,-0.6048583984375,-0.366058349609375,0.99334716796875
1695712570853577700,4.97657763671875,-0.5950927734375,-0.418243408203125,0.9112548828125
1695712570863099400,4.986099365234375,-0.58380126953125,-0.442657470703125,0.792083740234375
1695712570872651300,4.9956513671875,-0.569610595703125,-0.441436767578125,0.65338134765625
1695712570882203400,5.005203369140625,-0.529937744140625,-0.425872802734375,0.51788330078125
1695712570891755300,5.01475537109375,-0.472259521484375,-0.387725830078125,0.418243408203125
1695712570901276700,5.024276611328125,-0.426177978515625,-0.319976806640625,0.346832275390625
1695712570910828800,5.033828857421875,-0.414276123046875,-0.223388671875,0.26214599609375
1695712570920380700,5.043380615234375,-0.444183349609375,-0.133056640625,0.1654052734375
1695712570929932800,5.052932861328125,-0.495147705078125,-0.063323974609375,0.077667236328125
1695712570939454200,5.0624541015625,-0.529937744140625,-0.024261474609375,0.010528564453125
1695712570949006300,5.07200634765625,-0.506134033203125,-0.083160400390625,-0.07476806640625
1695712570958558200,5.08155810546875,-0.428009033203125,-0.267333984375,-0.20111083984375
1695712570968110300,5.0911103515625,-0.34027099609375,-0.49713134765625,-0.362091064453125
1695712570977662200,5.100662109375,-0.220184326171875,-0.640869140625,-0.509033203125
1695712570987183900,5.110183837890625,-0.059967041015625,-0.60333251953125,-0.631256103515625
1695712570996735700,5.11973583984375,0.06103515625,-0.365447998046875,-0.79071044921875
1695712571006288000,5.129287841796875,0.121002197265625,0.03936767578125,-1.007537841796875
1695712571015870200,5.1388701171875,0.197601318359375,0.47760009765625,-1.25335693359375
1695712571025391900,5.148391845703125,0.303955078125,0.86334228515625,-1.50115966796875
1695712571034943700,5.15794384765625,0.40374755859375,1.071014404296875,-1.752777099609375
1695712571044496000,5.167495849609375,0.4766845703125,1.049652099609375,-2.010498046875
1695712571054047700,5.1770478515625,0.520172119140625,0.86578369140625,-2.30987548828125
1695712571063569200,5.186569091796875,0.521697998046875,0.614471435546875,-2.66998291015625
1695712571073121300,5.196121337890625,0.42938232421875,0.395660400390625,-3.01116943359375
1695712571082673200,5.205673095703125,0.264129638671875,0.164794921875,-3.262786865234375
1695712571092225300,5.215225341796875,0.179901123046875,-0.112762451171875,-3.29681396484375
1695712571101746700,5.22474658203125,0.235137939453125,-0.442657470703125,-3.08929443359375
1695712571111298800,5.234298828125,0.37628173828125,-0.92437744140625,-2.819061279296875
1695712571120850700,5.2438505859375,0.4583740234375,-1.540679931640625,-2.5811767578125
1695712571130402800,5.25340283203125,0.40924072265625,-1.95159912109375,-2.404632568359375
1695712571139954700,5.26295458984375,0.3863525390625,-2.05108642578125,-2.2760009765625
1695712571149476400,5.272476318359375,0.41046142578125,-1.804656982421875,-2.123260498046875
1695712571159028200,5.2820283203125,0.423583984375,-1.757049560546875,-1.738128662109375
1695712571168580400,5.291580322265625,0.489044189453125,-1.6357421875,-1.22772216796875
1695712571178132200,5.30113232421875,0.40283203125,-0.442657470703125,-1.16912841796875
1695712571187653600,5.310653564453125,0.481719970703125,1.18865966796875,-1.57684326171875
1695712571197205800,5.320205810546875,0.46783447265625,2.31231689453125,-1.87713623046875
1695712571206757600,5.329757568359375,0.489044189453125,2.5787353515625,-2.00347900390625
1695712571216309800,5.339309814453125,0.561065673828125,2.463836669921875,-2.036590576171875
1695712571225831200,5.3488310546875,0.559844970703125,2.188262939453125,-1.95098876953125
1695712571235383300,5.35838330078125,0.584564208984375,1.777496337890625,-1.710357666015625
1695712571244935200,5.36793505859375,0.631256103515625,1.432952880859375,-1.422576904296875
1695712571254487300,5.3774873046875,0.67230224609375,1.19293212890625,-1.1474609375
1695712571264039200,5.3870390625,0.71533203125,1.004180908203125,-0.8966064453125
1695712571273560800,5.396560791015625,0.7464599609375,0.85357666015625,-0.692901611328125
1695712571283112700,5.40611279296875,0.76416015625,0.77789306640625,-0.5450439453125
1695712571292664800,5.415664794921875,0.7684326171875,0.7891845703125,-0.44097900390625
1695712571302247200,5.4252470703125,0.75897216796875,0.833740234375,-0.360870361328125
1695712571311768800,5.434768798828125,0.73486328125,0.88714599609375,-0.280609130859375
1695712571321320700,5.44432080078125,0.6982421875,0.956573486328125,-0.18096923828125
1695712571330872800,5.453872802734375,0.650787353515625,0.978851318359375,-0.038299560546875
1695712571340424700,5.4634248046875,0.582733154296875,0.9320068359375,0.1434326171875
1695712571349946000,5.472946044921875,0.496063232421875,0.80169677734375,0.378570556640625
1695712571359498200,5.482498291015625,0.4071044921875,0.617523193359375,0.65948486328125
1695712571369050000,5.492050048828125,0.330810546875,0.42236328125,0.9735107421875
1695712571378602200,5.501602294921875,0.265045166015625,0.262298583984375,1.29547119140625
1695712571388123600,5.51112353515625,0.211639404296875,0.12451171875,1.61834716796875
1695712571397675800,5.52067578125,0.168304443359375,0.04974365234375,1.904144287109375
1695712571407227600,5.5302275390625,0.123443603515625,0.078125,2.130584716796875
1695712571416779800,5.53977978515625,0.08819580078125,0.16387939453125,2.281494140625
1695712571426331600,5.54933154296875,0.0604248046875,0.270843505859375,2.2894287109375
1695712571435853300,5.558853271484375,0.04180908203125,0.400390625,2.098541259765625
1695712571445405200,5.5684052734375,0.078125,0.489501953125,1.67572021484375
1695712571454957300,5.577957275390625,0.154571533203125,0.55694580078125,1.01593017578125
1695712571464509200,5.58750927734375,0.290374755859375,0.750579833984375,0.094146728515625
1695712571474030600,5.597030517578125,0.496673583984375,0.984954833984375,-0.92041015625
1695712571483582700,5.606582763671875,0.69915771484375,0.76416015625,-1.56402587890625
1695712571493134600,5.616134521484375,0.81390380859375,0.0579833984375,-1.573486328125
1695712571502686700,5.625686767578125,0.79986572265625,-0.54290771484375,-1.27777099609375
1695712571512208100,5.6352080078125,0.7293701171875,-0.6024169921875,-1.042633056640625
1695712571521760300,5.64476025390625,0.585479736328125,-0.21728515625,-0.9033203125
1695712571531312000,5.65431201171875,0.3485107421875,0.235137939453125,-0.738983154296875
1695712571540864300,5.6638642578125,0.124053955078125,0.619964599609375,-0.42816162109375
1695712571550416100,5.673416015625,-0.077972412109375,1.010284423828125,0.084686279296875
1695712571559937800,5.682937744140625,-0.38665771484375,1.13128662109375,0.741119384765625
1695712571569489700,5.69248974609375,-0.769500732421875,0.756683349609375,1.522979736328125
1695712571579041800,5.702041748046875,-1.0833740234375,-0.25543212890625,2.226104736328125
1695712571588624100,5.7116240234375,-0.923004150390625,-1.886749267578125,1.867828369140625
1695712571598145800,5.721145751953125,-0.23406982421875,-2.445068359375,0.030059814453125
1695712571607697700,5.73069775390625,0.31097412109375,-0.706024169921875,-1.22161865234375
1695712571617249800,5.740249755859375,0.7183837890625,0.43121337890625,-0.54901123046875
1695712571626801700,5.7498017578125,0.726318359375,-0.5438232421875,0.8489990234375
1695712571636323000,5.759322998046875,0.281524658203125,-1.25823974609375,1.61712646484375
1695712571645875200,5.768875244140625,-0.302734375,-0.674896240234375,1.5802001953125
1695712571655427000,5.778427001953125,-0.7379150390625,0.299835205078125,1.028900146484375
1695712571664979200,5.787979248046875,-0.937652587890625,0.52459716796875,0.908203125
1695712571674500600,5.79750048828125,-0.97747802734375,0.1312255859375,1.25091552734375
1695712571684052700,5.807052734375,-0.869598388671875,-0.54443359375,1.6436767578125
1695712571693604600,5.8166044921875,-0.72174072265625,-1.29241943359375,1.803436279296875
1695712571703156700,5.82615673828125,-0.556793212890625,-1.6644287109375,1.68243408203125
1695712571712708600,5.83570849609375,-0.27923583984375,-1.34735107421875,1.356201171875
1695712571722230300,5.845230224609375,0.006103515625,-0.837860107421875,0.9930419921875
1695712571731782100,5.8547822265625,0.142059326171875,-0.60638427734375,0.90576171875
1695712571741334300,5.864334228515625,0.147857666015625,-0.64605712890625,1.055755615234375
1695712571750886100,5.87388623046875,0.09002685546875,-0.789642333984375,1.2408447265625
1695712571760407600,5.883407470703125,-0.049591064453125,-0.902099609375,1.35894775390625
1695712571769959700,5.892959716796875,-0.207366943359375,-0.99761962890625,1.368865966796875
1695712571779511600,5.902511474609375,-0.31280517578125,-1.026611328125,1.3214111328125
1695712571789063700,5.912063720703125,-0.34393310546875,-0.849609375,1.27105712890625
1695712571798585000,5.921585205078125,-0.30914306640625,-0.5792236328125,1.24969482421875
1695712571808137200,5.93113720703125,-0.235595703125,-0.380401611328125,1.26678466796875
1695712571817689000,5.940689208984375,-0.203094482421875,-0.401458740234375,1.263427734375
1695712571827241200,5.9502412109375,-0.25482177734375,-0.523681640625,1.1981201171875
1695712571836793000,5.95979296875,-0.34912109375,-0.57647705078125,1.087799072265625
1695712571846314500,5.969314453125,-0.409698486328125,-0.498046875,1.012115478515625
1695712571855866600,5.97886669921875,-0.454864501953125,-0.431365966796875,1.0064697265625
1695712571865418800,5.988418701171875,-0.490875244140625,-0.359344482421875,1.044158935546875
1695712571875001000,5.9980009765625,-0.459747314453125,-0.24993896484375,1.048126220703125
1695712571884522800,6.007522705078125,-0.434417724609375,-0.21575927734375,0.99609375
1695712571894074600,6.01707470703125,-0.453643798828125,-0.2325439453125,0.95672607421875
1695712571903626800,6.026626708984375,-0.467681884765625,-0.25634765625,0.93536376953125
1695712571913178600,6.0361787109375,-0.475921630859375,-0.329742431640625,0.93658447265625
1695712571922700000,6.045699951171875,-0.480194091796875,-0.319976806640625,0.95428466796875
1695712571932252200,6.055252197265625,-0.495758056640625,-0.25665283203125,0.96343994140625
1695712571941804000,6.064803955078125,-0.546112060546875,-0.206298828125,0.95794677734375
1695712571951356200,6.074356201171875,-0.604248046875,-0.13702392578125,0.95855712890625
1695712571960877600,6.083877685546875,-0.63568115234375,-0.055694580078125,0.9600830078125
1695712571970429700,6.0934296875,-0.6158447265625,-0.046234130859375,0.94268798828125
1695712571979981600,6.102981689453125,-0.571746826171875,-0.17578125,0.89813232421875
1695712571989533700,6.11253369140625,-0.589599609375,-0.316314697265625,0.801849365234375
1695712571999085600,6.12208544921875,-0.58563232421875,-0.447845458984375,0.666656494140625
1695712572008607000,6.13160693359375,-0.529937744140625,-0.511474609375,0.537109375
1695712572018159000,6.1411591796875,-0.488128662109375,-0.470123291015625,0.438690185546875
1695712572027711200,6.150711181640625,-0.466156005859375,-0.347442626953125,0.373382568359375
1695712572037263000,6.16026318359375,-0.422821044921875,-0.25115966796875,0.333709716796875
1695712572046784500,6.169784423828125,-0.369873046875,-0.23529052734375,0.29632568359375
1695712572056336600,6.179336669921875,-0.37933349609375,-0.21575927734375,0.23895263671875
1695712572065888500,6.188888427734375,-0.436859130859375,-0.16754150390625,0.15167236328125
1695712572075440600,6.198440673828125,-0.502471923828125,-0.13671875,0.046234130859375
1695712572084962000,6.207962158203125,-0.530548095703125,-0.1629638671875,-0.05401611328125
1695712572094514200,6.21751416015625,-0.507354736328125,-0.238037109375,-0.13092041015625
1695712572104066000,6.227066162109375,-0.434722900390625,-0.310821533203125,-0.2105712890625
1695712572113618200,6.2366181640625,-0.3082275390625,-0.343475341796875,-0.345001220703125
1695712572123139600,6.2461396484375,-0.172576904296875,-0.2825927734375,-0.53955078125
1695712572132691500,6.25569140625,-0.084075927734375,-0.079803466796875,-0.7830810546875
1695712572142243600,6.26524365234375,-0.0006103515625,0.225067138671875,-1.046905517578125
1695712572151795500,6.27479541015625,0.144500732421875,0.555419921875,-1.300048828125
1695712572161378000,6.2843779296875,0.276031494140625,0.8428955078125,-1.54510498046875
1695712572170899500,6.2938994140625,0.2960205078125,1.019134521484375,-1.815643310546875
1695712572180451600,6.30345166015625,0.268402099609375,1.055755615234375,-2.130889892578125
1695712572190003700,6.313003662109375,0.293426513671875,0.91064453125,-2.500152587890625
1695712572199555600,6.3225556640625,0.35888671875,0.666961669921875,-2.857818603515625
1695712572209077000,6.332076904296875,0.37078857421875,0.370330810546875,-3.104705810546875
1695712572218629000,6.341629150390625,0.34515380859375,0.05340576171875,-3.206939697265625
1695712572228181000,6.351180908203125,0.30364990234375,-0.1544189453125,-3.130645751953125
1695712572237733000,6.360733154296875,0.272674560546875,-0.20172119140625,-2.881011962890625
1695712572247254500,6.370254638671875,0.278167724609375,-0.2880859375,-2.543487548828125
1695712572256806700,6.379806640625,0.302734375,-0.65338134765625,-2.30438232421875
1695712572266358500,6.389358642578125,0.272369384765625,-1.155853271484375,-2.24029541015625
1695712572275910700,6.39891064453125,0.229949951171875,-1.463165283203125,-2.2442626953125
1695712572285432000,6.40843212890625,0.286712646484375,-1.399383544921875,-2.22137451171875
1695712572294984000,6.41798388671875,0.36163330078125,-0.9967041015625,-2.098236083984375
1695712572304536000,6.4275361328125,0.35491943359375,-0.25970458984375,-1.8829345703125
1695712572314088000,6.437087890625,0.41778564453125,0.46539306640625,-1.743621826171875
1695712572323640000,6.44664013671875,0.540618896484375,0.83709716796875,-1.732635498046875
1695712572333161500,6.456161376953125,0.596466064453125,1.034088134765625,-1.739349365234375
1695712572342713600,6.465713623046875,0.548248291015625,1.168212890625,-1.710662841796875
1695712572352265500,6.475265380859375,0.495758056640625,1.119384765625,-1.676177978515625
1695712572361817600,6.484817626953125,0.457763671875,1.006927490234375,-1.55670166015625
1695712572371339000,6.494339111328125,0.42999267578125,0.952911376953125,-1.347808837890625
1695712572380891100,6.50389111328125,0.439453125,0.978240966796875,-1.129913330078125
1695712572390443000,6.513443115234375,0.498199462890625,1.009368896484375,-0.92193603515625
1695712572399995100,6.5229951171875,0.590057373046875,1.044158935546875,-0.713043212890625
1695712572409516500,6.5325166015625,0.6927490234375,1.075897216796875,-0.53314208984375
1695712572419068400,6.542068359375,0.770263671875,1.084442138671875,-0.400543212890625
1695712572428620500,6.55162060546875,0.7916259765625,1.113739013671875,-0.316619873046875
1695712572438172400,6.56117236328125,0.76568603515625,1.162109375,-0.268096923828125
1695712572447755000,6.570755126953125,0.71136474609375,1.165771484375,-0.21026611328125
1695712572457276400,6.5802763671875,0.632781982421875,1.073760986328125,-0.1165771484375
1695712572466828500,6.58982861328125,0.543060302734375,0.8892822265625,0.028228759765625
1695712572476380400,6.59938037109375,0.45806884765625,0.654449462890625,0.2288818359375
1695712572485932500,6.6089326171875,0.3826904296875,0.439453125,0.479583740234375
1695712572495454000,6.618453857421875,0.30426025390625,0.294036865234375,0.745391845703125
1695712572505006000,6.628006103515625,0.237579345703125,0.224151611328125,1.00738525390625
1695712572514558000,6.637557861328125,0.189666748046875,0.20416259765625,1.256103515625
1695712572524110000,6.647110107421875,0.154266357421875,0.222320556640625,1.477203369140625
1695712572533631500,6.656631591796875,0.131072998046875,0.287628173828125,1.65191650390625
1695712572543183600,6.66618359375,0.12115478515625,0.386199951171875,1.746368408203125
1695712572552735500,6.675735595703125,0.132293701171875,0.5279541015625,1.719970703125
1695712572562287600,6.68528759765625,0.173492431640625,0.706024169921875,1.519622802734375
1695712572571809000,6.69480908203125,0.232086181640625,0.875244140625,1.109466552734375
1695712572581361000,6.70436083984375,0.288238525390625,1.000518798828125,0.52398681640625
1695712572590913000,6.7139130859375,0.3533935546875,1.18194580078125,-0.19195556640625
1695712572600465000,6.72346484375,0.47882080078125,1.318206787109375,-0.92315673828125
1695712572610017000,6.73301708984375,0.68389892578125,1.014251708984375,-1.389617919921875
1695712572619538400,6.742538330078125,0.869598388671875,0.270843505859375,-1.461029052734375
1695712572629090600,6.752090576171875,0.887603759765625,-0.450286865234375,-1.27593994140625
1695712572638642400,6.761642333984375,0.745849609375,-0.724334716796875,-1.060333251953125
1695712572648194600,6.771194580078125,0.4827880859375,-0.5084228515625,-0.872802734375
1695712572657716000,6.780716064453125,0.189971923828125,-0.077056884765625,-0.632171630859375
1695712572667268000,6.79026806640625,0.028076171875,0.334320068359375,-0.267791748046875
1695712572676820000,6.799820068359375,0.04974365234375,0.728302001953125,0.194091796875
1695712572686372000,6.8093720703125,0.10528564453125,1.18682861328125,0.64849853515625
1695712572695893500,6.8188935546875,0.05035400390625,1.6131591796875,1.091156005859375
1695712572705445400,6.8284453125,-0.108184814453125,1.64520263671875,1.65924072265625
1695712572714997500,6.83799755859375,-0.25909423828125,0.663299560546875,2.3858642578125
1695712572724549400,6.84754931640625,-0.139007568359375,-1.70928955078125,2.42828369140625
1695712572734132000,6.857132080078125,0.34637451171875,-3.708648681640625,0.96832275390625
1695712572743653400,6.8666533203125,0.597381591796875,-2.3773193359375,-0.89141845703125
1695712572753205500,6.87620556640625,0.77728271484375,-0.15625,-1.118621826171875
1695712572762757400,6.88575732421875,0.699462890625,-0.074615478515625,0.19500732421875
1695712572772309500,6.8953095703125,0.160675048828125,-0.708770751953125,1.26617431640625
1695712572781831000,6.904830810546875,-0.511322021484375,-0.476226806640625,1.62200927734375
1695712572791383000,6.914383056640625,-0.9442138671875,0.49652099609375,1.2530517578125
1695712572800935000,6.923934814453125,-1.103515625,1.336212158203125,0.93170166015625
1695712572810487000,6.933487060546875,-1.182098388671875,0.9100341796875,1.197662353515625
1695712572820008400,6.943008544921875,-1.0992431640625,-0.1824951171875,1.71539306640625
1695712572829560600,6.952560546875,-0.839385986328125,-1.446380615234375,2.05108642578125
1695712572839112400,6.962112548828125,-0.500335693359375,-2.35107421875,2.02667236328125
1695712572848664600,6.97166455078125,-0.086822509765625,-2.253265380859375,1.66961669921875
1695712572858186000,6.98118603515625,0.287628173828125,-1.21612548828125,1.2005615234375
1695712572867737900,6.99073779296875,0.4437255859375,-0.1373291015625,0.99578857421875
1695712572877290000,7.0002900390625,0.38330078125,0.336456298828125,1.095123291015625
1695712572886841900,7.009841796875,0.165557861328125,0.125732421875,1.297607421875
1695712572896394000,7.01939404296875,-0.107269287109375,-0.441741943359375,1.484222412109375
1695712572905915400,7.028915283203125,-0.32470703125,-0.833892822265625,1.60369873046875
1695712572915467500,7.038467529296875,-0.444183349609375,-0.9356689453125,1.5863037109375
1695712572925019400,7.048019287109375,-0.453643798828125,-0.750579833984375,1.504364013671875
1695712572934571500,7.057571533203125,-0.35247802734375,-0.356597900390625,1.451873779296875
1695712572944093000,7.067093017578125,-0.192718505859375,-0.077667236328125,1.446380615234375
1695712572953645000,7.07664501953125,-0.050811767578125,-0.042572021484375,1.476593017578125
1695712572963197000,7.086197021484375,-0.03662109375,-0.22216796875,1.435089111328125
1695712572972749000,7.0957490234375,-0.124359130859375,-0.361480712890625,1.32843017578125
1695712572982270500,7.1052705078125,-0.23590087890625,-0.415496826171875,1.20269775390625
1695712572991822300,7.114822265625,-0.32379150390625,-0.400848388671875,1.109771728515625
1695712573001374500,7.12437451171875,-0.36712646484375,-0.310516357421875,1.056671142578125
1695712573010953000,7.133952880859375,-0.36865234375,-0.2020263671875,1.037445068359375
1695712573020535300,7.143535400390625,-0.3717041015625,-0.157470703125,1.01226806640625
1695712573030057000,7.153056884765625,-0.394287109375,-0.17913818359375,0.968017578125
1695712573039608800,7.16260888671875,-0.426177978515625,-0.29571533203125,0.90118408203125
1695712573049161000,7.172160888671875,-0.470428466796875,-0.462188720703125,0.86944580078125
1695712573058712800,7.181712890625,-0.510711669921875,-0.54962158203125,0.8966064453125
1695712573068234200,7.191234130859375,-0.535430908203125,-0.51239013671875,0.94482421875
1695712573077786400,7.200786376953125,-0.556488037109375,-0.381317138671875,0.99090576171875
1695712573087338200,7.210338134765625,-0.577850341796875,-0.23681640625,1.044769287109375
1695712573096890400,7.219890380859375,-0.58746337890625,-0.1678466796875,1.101531982421875
1695712573106411800,7.229411865234375,-0.580902099609375,-0.20538330078125,1.138153076171875
1695712573115964000,7.2389638671875,-0.560455322265625,-0.2825927734375,1.132354736328125
1695712573125515800,7.248515869140625,-0.530242919921875,-0.323333740234375,1.071014404296875
1695712573135068000,7.25806787109375,-0.488433837890625,-0.327606201171875,0.960693359375
1695712573144589300,7.26758935546875,-0.441436767578125,-0.331573486328125,0.829925537109375
1695712573154141400,7.277141357421875,-0.401611328125,-0.313262939453125,0.718536376953125
1695712573163693300,7.286693359375,-0.3826904296875,-0.26397705078125,0.6341552734375
1695712573173245400,7.296245361328125,-0.401763916015625,-0.20751953125,0.545654296875
1695712573182797300,7.30579736328125,-0.450592041015625,-0.16998291015625,0.438995361328125
1695712573192318700,7.315318603515625,-0.500335693359375,-0.17333984375,0.338287353515625
1695712573201870800,7.324870849609375,-0.500030517578125,-0.19927978515625,0.2728271484375
1695712573211422700,7.334422607421875,-0.440521240234375,-0.2911376953125,0.213623046875
1695712573220974800,7.343974853515625,-0.37689208984375,-0.466461181640625,0.102996826171875
1695712573230496300,7.353496337890625,-0.361328125,-0.65643310546875,-0.06927490234375
1695712573240048400,7.36304833984375,-0.36834716796875,-0.766448974609375,-0.262603759765625
1695712573249600300,7.372600341796875,-0.2947998046875,-0.731964111328125,-0.43701171875
1695712573259152400,7.38215234375,-0.132598876953125,-0.5218505859375,-0.5859375
1695712573268673800,7.391673828125,0.01251220703125,-0.1348876953125,-0.744476318359375
1695712573278226000,7.401225830078125,0.156097412109375,0.274200439453125,-0.953521728515625
1695712573287777800,7.41077783203125,0.36041259765625,0.51605224609375,-1.2030029296875
1695712573297330000,7.420329833984375,0.493011474609375,0.597076416015625,-1.50421142578125
1695712573306881800,7.4298818359375,0.499114990234375,0.604400634765625,-1.87286376953125
1695712573316434000,7.439433837890625,0.488128662109375,0.51666259765625,-2.26531982421875
1695712573325985800,7.44898583984375,0.46630859375,0.373077392578125,-2.70111083984375
1695712573335538000,7.458537841796875,0.4107666015625,0.15045166015625,-3.159027099609375
1695712573345089800,7.46808984375,0.37750244140625,-0.152587890625,-3.464202880859375
1695712573354611200,7.477611083984375,0.36956787109375,-0.411529541015625,-3.488311767578125
1695712573364163300,7.487163330078125,0.35308837890625,-0.49774169921875,-3.30657958984375
1695712573373715200,7.496715087890625,0.31768798828125,-0.414276123046875,-3.0938720703125
1695712573383267300,7.506267333984375,0.247955322265625,-0.336761474609375,-2.92205810546875
1695712573392788700,7.515788818359375,0.146331787109375,-0.5047607421875,-2.777252197265625
1695712573402340900,7.5253408203125,0.0421142578125,-0.86669921875,-2.68096923828125
1695712573411892700,7.534892822265625,-0.044403076171875,-1.171722412109375,-2.64251708984375
1695712573421444900,7.54444482421875,-0.141143798828125,-1.2957763671875,-2.61077880859375
1695712573430966300,7.55396630859375,-0.24169921875,-1.23291015625,-2.5830078125
1695712573440518400,7.563518310546875,-0.240478515625,-0.789642333984375,-2.481231689453125
1695712573450070300,7.5730703125,-0.125579833984375,0.06622314453125,-2.266845703125
1695712573459622400,7.582622314453125,0.0555419921875,0.92926025390625,-2.099151611328125
1695712573469174300,7.59217431640625,0.170135498046875,1.312408447265625,-2.134246826171875
1695712573478695700,7.60169580078125,0.185699462890625,1.049957275390625,-2.26348876953125
1695712573488247800,7.611247802734375,0.169830322265625,0.631866455078125,-2.22808837890625
1695712573497799700,7.620799560546875,0.240020751953125,0.349578857421875,-2.027435302734375
1695712573507351800,7.630351806640625,0.3143310546875,0.254058837890625,-1.803436279296875
1695712573516873200,7.639873291015625,0.3839111328125,0.318756103515625,-1.5802001953125
1695712573526425300,7.64942529296875,0.4595947265625,0.435791015625,-1.372222900390625
1695712573535977200,7.658977294921875,0.540924072265625,0.5389404296875,-1.16729736328125
1695712573545529300,7.668529296875,0.608062744140625,0.608367919921875,-0.975494384765625
1695712573555050800,7.67805078125,0.643768310546875,0.653839111328125,-0.79345703125
1695712573564603000,7.687602783203125,0.649566650390625,0.702362060546875,-0.620269775390625
1695712573574154800,7.69715478515625,0.641326904296875,0.744476318359375,-0.45654296875
1695712573583707000,7.706706787109375,0.617218017578125,0.76385498046875,-0.292816162109375
1695712573593289200,7.716289306640625,0.575103759765625,0.734100341796875,-0.11566162109375
1695712573602811000,7.725810791015625,0.502166748046875,0.667266845703125,0.080108642578125
1695712573612362800,7.73536279296875,0.41168212890625,0.53955078125,0.315399169921875
1695712573621915000,7.744914794921875,0.32562255859375,0.390777587890625,0.5975341796875
1695712573631466800,7.754466796875,0.240020751953125,0.256500244140625,0.90667724609375
1695712573640988200,7.76398828125,0.168914794921875,0.16998291015625,1.2322998046875
1695712573650540300,7.773540283203125,0.11627197265625,0.142822265625,1.5673828125
1695712573660092200,7.783092041015625,0.08026123046875,0.18463134765625,1.896209716796875
1695712573669644300,7.792644287109375,0.0750732421875,0.291290283203125,2.180023193359375
1695712573679165700,7.802165771484375,0.101318359375,0.445556640625,2.36846923828125
1695712573688717800,7.8117177734375,0.150299072265625,0.623626708984375,2.37457275390625
1695712573698269700,7.821269775390625,0.245819091796875,0.849609375,2.073974609375
1695712573707821800,7.83082177734375,0.39093017578125,1.111602783203125,1.384735107421875
1695712573717343200,7.84034326171875,0.518646240234375,1.397857666015625,0.363616943359375
1695712573726895400,7.849895263671875,0.532379150390625,1.5179443359375,-0.90576171875
1695712573736447200,7.859447265625,0.534515380859375,0.906982421875,-1.8505859375
1695712573745999400,7.868999267578125,0.72113037109375,-0.449676513671875,-1.91986083984375
1695712573755551200,7.87855126953125,0.994415283203125,-1.203460693359375,-1.61285400390625
1695712573765072600,7.88807275390625,1.06597900390625,-0.784149169921875,-1.443023681640625
1695712573774624800,7.897624755859375,0.75592041015625,0.10345458984375,-1.304168701171875
1695712573784176600,7.9071767578125,0.347900390625,0.734100341796875,-1.051483154296875
1695712573793728800,7.916728759765625,0.1177978515625,1.1468505859375,-0.604095458984375
1695712573803250200,7.926250244140625,0.0701904296875,1.670379638671875,0.026702880859375
1695712573812802300,7.93580224609375,-0.032958984375,1.85546875,0.827789306640625
1695712573822354200,7.945354248046875,-0.2276611328125,0.715179443359375,1.910858154296875
1695712573831906300,7.95490625,-0.453948974609375,-1.528472900390625,2.7923583984375
1695712573841427700,7.964427734375,-0.521087646484375,-3.203277587890625,2.0703125
1695712573850979800,7.973979736328125,-0.531158447265625,-1.93572998046875,-0.439453125
1695712573860531700,7.98353173828125,-0.138702392578125,0.282440185546875,-1.29180908203125
1695712573870083800,7.993083740234375,0.4669189453125,-0.59539794921875,0.15625
1695712573879635700,8.0026357421875,0.560150146484375,-0.799102783203125,1.35650634765625
1695712573889187800,8.012187744140626,0.282745361328125,0.263214111328125,1.62200927734375
1695712573898739700,8.02173974609375,-0.068817138671875,1.053314208984375,1.2408447265625
1695712573908291800,8.031291748046876,-0.496063232421875,0.601043701171875,0.87799072265625
1695712573917843700,8.04084375,-0.802459716796875,-0.64453125,1.27197265625
1695712573927365000,8.050365234375,-0.878143310546875,-1.543121337890625,1.98577880859375
1695712573936917200,8.059917236328126,-0.775909423828125,-1.9305419921875,2.44720458984375
1695712573946469000,8.06946923828125,-0.534820556640625,-2.0172119140625,2.44781494140625
1695712573956021200,8.079021240234376,-0.24322509765625,-1.837921142578125,2.064208984375
1695712573965542700,8.088542724609376,-0.0372314453125,-1.479034423828125,1.62841796875
1695712573975094800,8.0980947265625,0.00762939453125,-0.982666015625,1.462249755859375
1695712573984646700,8.107646728515626,-0.01434326171875,-0.6072998046875,1.551055908203125
1695712573994198800,8.11719873046875,-0.055999755859375,-0.645751953125,1.7071533203125
1695712574003720200,8.12672021484375,-0.116729736328125,-0.92041015625,1.791229248046875
1695712574013272300,8.136272216796876,-0.166778564453125,-1.039581298828125,1.776885986328125
1695712574022824200,8.14582421875,-0.190277099609375,-0.835418701171875,1.7181396484375
1695712574032376300,8.155376220703126,-0.171356201171875,-0.323333740234375,1.68426513671875
1695712574041897700,8.164897705078126,-0.108184814453125,0.1251220703125,1.6851806640625
1695712574051449600,8.17444970703125,-0.042572021484375,0.1568603515625,1.6650390625
1695712574061001700,8.184001708984376,-0.01129150390625,-0.083770751953125,1.6461181640625
1695712574070553600,8.1935537109375,-0.0384521484375,-0.357818603515625,1.62139892578125
1695712574080105700,8.203105712890626,-0.125274658203125,-0.56427001953125,1.549835205078125
1695712574089627100,8.212627197265626,-0.214996337890625,-0.63262939453125,1.452178955078125
1695712574099179300,8.22217919921875,-0.28533935546875,-0.58624267578125,1.3470458984375
1695712574108731100,8.231731201171876,-0.35888671875,-0.436248779296875,1.25396728515625
1695712574118283300,8.241283203125,-0.446624755859375,-0.27923583984375,1.19293212890625
1695712574127804700,8.2508046875,-0.502777099609375,-0.15289306640625,1.19598388671875
1695712574137356800,8.260356689453126,-0.494537353515625,-0.067596435546875,1.2396240234375
1695712574146908700,8.26990869140625,-0.463104248046875,-0.060577392578125,1.26190185546875
1695712574156460800,8.279460693359376,-0.443267822265625,-0.1544189453125,1.23626708984375
1695712574166012700,8.2890126953125,-0.449981689453125,-0.20660400390625,1.20758056640625
1695712574175564800,8.298564697265626,-0.468292236328125,-0.186767578125,1.197509765625
1695712574185116700,8.30811669921875,-0.489959716796875,-0.17730712890625,1.179962158203125
1695712574194668800,8.317668701171876,-0.508270263671875,-0.1995849609375,1.128387451171875
1695712574204220700,8.327220703125,-0.520172119140625,-0.20843505859375,1.043548583984375
1695712574213742000,8.3367421875,-0.532684326171875,-0.1910400390625,0.938720703125
1695712574223294200,8.346294189453126,-0.540924072265625,-0.218505859375,0.83404541015625
1695712574232846000,8.35584619140625,-0.529022216796875,-0.345001220703125,0.725555419921875
1695712574242398200,8.365398193359376,-0.477142333984375,-0.51300048828125,0.6011962890625
1695712574251919600,8.374919677734376,-0.40252685546875,-0.59417724609375,0.475006103515625
1695712574261471700,8.3844716796875,-0.33050537109375,-0.51788330078125,0.384063720703125
1695712574271023600,8.394023681640626,-0.291748046875,-0.368499755859375,0.340423583984375
1695712574280575700,8.40357568359375,-0.3070068359375,-0.26275634765625,0.324554443359375
1695712574290097200,8.41309716796875,-0.36956787109375,-0.26519775390625,0.289306640625
1695712574299649300,8.422649169921876,-0.444488525390625,-0.369720458984375,0.23345947265625
1695712574309201200,8.432201171875,-0.505523681640625,-0.50506591796875,0.1629638671875
1695712574318753300,8.441753173828126,-0.540313720703125,-0.6231689453125,0.090179443359375
1695712574328274700,8.451274658203126,-0.541839599609375,-0.738677978515625,0.023956298828125
1695712574337826600,8.46082666015625,-0.529632568359375,-0.8648681640625,-0.05859375
1695712574347378700,8.470378662109376,-0.521697998046875,-0.92620849609375,-0.1763916015625
1695712574356930600,8.4799306640625,-0.489959716796875,-0.85784912109375,-0.353546142578125
1695712574366482700,8.489482666015626,-0.390625,-0.64910888671875,-0.588226318359375
1695712574376004000,8.499004150390626,-0.223388671875,-0.304718017578125,-0.8416748046875
1695712574385556200,8.50855615234375,-0.0286865234375,0.1318359375,-1.077728271484375
1695712574395108000,8.518108154296876,0.172576904296875,0.577239990234375,-1.305084228515625
1695712574404660200,8.52766015625,0.3668212890625,0.87158203125,-1.5521240234375
1695712574414181600,8.537181640625,0.480804443359375,0.936126708984375,-1.849365234375
1695712574423733500,8.5467333984375,0.502166748046875,0.79864501953125,-2.25341796875
1695712574433285600,8.55628564453125,0.450439453125,0.4998779296875,-2.771453857421875
1695712574442837500,8.56583740234375,0.391845703125,0.04852294921875,-3.181304931640625
1695712574452389600,8.5753896484375,0.3955078125,-0.446319580078125,-3.3258056640625
1695712574461941800,8.584941650390626,0.4193115234375,-0.761871337890625,-3.203887939453125
1695712574471493600,8.59449365234375,0.40740966796875,-0.788421630859375,-2.97607421875
1695712574481045800,8.604045654296876,0.3369140625,-0.50506591796875,-2.797393798828125
1695712574490597600,8.61359765625,0.214996337890625,-0.20782470703125,-2.71942138671875
1695712574500119000,8.623119140625,0.10406494140625,-0.206298828125,-2.70782470703125
1695712574509671200,8.632671142578126,0.0506591796875,-0.458831787109375,-2.685546875
1695712574519223000,8.64222314453125,0.02838134765625,-0.771942138671875,-2.607421875
1695712574528775200,8.651775146484376,-0.0115966796875,-0.9552001953125,-2.476959228515625
1695712574538296600,8.661296630859376,-0.080108642578125,-0.9197998046875,-2.35198974609375
1695712574547848700,8.6708486328125,-0.144500732421875,-0.63323974609375,-2.2576904296875
1695712574557400600,8.680400634765626,-0.117034912109375,0.026092529296875,-2.153472900390625
1695712574566952700,8.68995263671875,0.0506591796875,0.83709716796875,-2.036285400390625
1695712574576474000,8.69947412109375,0.229034423828125,1.2451171875,-2.058258056640625
1695712574586026000,8.70902587890625,0.300445556640625,1.17095947265625,-2.139129638671875
1695712574595578000,8.718578125,0.30975341796875,0.849609375,-2.124176025390625
1695712574605130200,8.728130126953126,0.341796875,0.565185546875,-1.9757080078125
1695712574614651600,8.737651611328126,0.40130615234375,0.39825439453125,-1.755218505859375
1695712574624203500,8.74720361328125,0.4766845703125,0.40802001953125,-1.5277099609375
1695712574633755600,8.756755615234376,0.564117431640625,0.494384765625,-1.322174072265625
1695712574643307500,8.7663076171875,0.652923583984375,0.633697509765625,-1.124725341796875
1695712574652859600,8.775859619140626,0.72174072265625,0.7745361328125,-0.948944091796875
1695712574662381000,8.785381103515626,0.75042724609375,0.89263916015625,-0.80902099609375
1695712574671933200,8.79493310546875,0.7403564453125,1.002044677734375,-0.693511962890625
1695712574681485000,8.804485107421876,0.7098388671875,1.071929931640625,-0.57861328125
1695712574691037200,8.814037109375,0.665283203125,1.090850830078125,-0.44891357421875
1695712574700558600,8.82355859375,0.615386962890625,1.042633056640625,-0.298004150390625
1695712574710110500,8.8331103515625,0.553741455078125,0.92620849609375,-0.10711669921875
1695712574719662600,8.84266259765625,0.488128662109375,0.777587890625,0.1373291015625
1695712574729214500,8.85221435546875,0.42327880859375,0.614471435546875,0.433197021484375
1695712574738766600,8.8617666015625,0.362548828125,0.45928955078125,0.767974853515625
1695712574748318500,8.871318359375,0.31341552734375,0.348358154296875,1.118316650390625
1695712574757870600,8.88087060546875,0.283660888671875,0.303497314453125,1.463470458984375
1695712574767422700,8.890422607421876,0.277252197265625,0.320281982421875,1.777801513671875
1695712574776974600,8.899974609375,0.294036865234375,0.41107177734375,2.02606201171875
1695712574786496000,8.90949609375,0.30548095703125,0.55816650390625,2.153778076171875
1695712574796048100,8.919048095703126,0.303955078125,0.746307373046875,2.0849609375
1695712574805600000,8.92860009765625,0.32867431640625,0.9283447265625,1.767425537109375
1695712574815152000,8.938152099609376,0.39093017578125,1.050567626953125,1.186676025390625
1695712574824673500,8.947673583984376,0.44189453125,1.18621826171875,0.347442626953125
1695712574834225700,8.9572255859375,0.42816162109375,1.448516845703125,-0.742340087890625
1695712574843777500,8.966777587890626,0.43853759765625,1.450958251953125,-1.724090576171875
1695712574853329700,8.97632958984375,0.573577880859375,0.713958740234375,-1.9775390625
1695712574862851000,8.98585107421875,0.753173828125,-0.363311767578125,-1.61529541015625
1695712574872403000,8.99540283203125,0.7830810546875,-0.723114013671875,-1.24481201171875
1695712574881955000,9.004955078125,0.527801513671875,-0.340423583984375,-1.050872802734375
1695712574891507000,9.0145068359375,0.174407958984375,0.229949951171875,-0.865478515625
1695712574901028600,9.024028564453126,-0.01495361328125,0.7794189453125,-0.601043701171875
1695712574910580500,9.03358056640625,0.01708984375,1.364593505859375,-0.1898193359375
1695712574920132600,9.043132568359376,0.00823974609375,1.9171142578125,0.359954833984375
1695712574929684500,9.0526845703125,-0.143585205078125,2.19451904296875,1.176910400390625
1695712574939236600,9.062236572265626,-0.409698486328125,1.29180908203125,2.43927001953125
1695712574948758000,9.071758056640626,-0.72113037109375,-1.57470703125,3.0419921875
1695712574958310100,9.08131005859375,-0.58135986328125,-4.24041748046875,1.182708740234375
1695712574967862000,9.090862060546876,-0.069122314453125,-2.233428955078125,-1.392364501953125
1695712574977414100,9.1004140625,0.7159423828125,0.659027099609375,-1.629638671875
1695712574986935600,9.109935546875,1.002960205078125,1.087799072265625,0.29052734375
1695712574996487400,9.1194873046875,0.616912841796875,0.50750732421875,1.73309326171875
1695712575006039600,9.12903955078125,-0.01068115234375,0.13702392578125,2.0648193359375
1695712575015591400,9.13859130859375,-0.483551025390625,0.0616455078125,1.6729736328125
1695712575025143600,9.1481435546875,-0.809478759765625,0.378875732421875,1.157989501953125
1695712575034695400,9.1576953125,-0.96466064453125,0.14495849609375,1.28387451171875
1695712575044247600,9.16724755859375,-0.9649658203125,-0.698394775390625,1.805572509765625
1695712575053799400,9.17679931640625,-0.833587646484375,-1.61865234375,2.226104736328125
1695712575063351600,9.1863515625,-0.549468994140625,-2.256317138671875,2.255706787109375
1695712575072873000,9.195873046875,-0.135650634765625,-2.35382080078125,1.884918212890625
1695712575082425000,9.205425048828126,0.237884521484375,-1.800384521484375,1.481475830078125
1695712575091977000,9.21497705078125,0.41748046875,-0.877685546875,1.322021484375
1695712575101529000,9.224529052734376,0.4248046875,-0.14312744140625,1.394805908203125
1695712575111050500,9.234050537109376,0.287628173828125,0.13671875,1.542816162109375
1695712575120602600,9.2436025390625,0.0738525390625,0.06927490234375,1.65435791015625
1695712575130154500,9.253154541015626,-0.149688720703125,-0.100860595703125,1.708984375
1695712575139706600,9.26270654296875,-0.31402587890625,-0.319366455078125,1.68426513671875
1695712575149228000,9.27222802734375,-0.36773681640625,-0.472564697265625,1.62139892578125
1695712575158780000,9.28177978515625,-0.2996826171875,-0.402679443359375,1.6070556640625
1695712575168332000,9.29133203125,-0.163726806640625,-0.15625,1.61529541015625
1695712575177884000,9.3008837890625,-0.03204345703125,0.1123046875,1.61285400390625
1695712575187405600,9.310405517578126,-0.00213623046875,0.21026611328125,1.57257080078125
1695712575196957400,9.31995751953125,-0.074920654296875,0.13397216796875,1.526336669921875
1695712575206509600,9.329509521484376,-0.198822021484375,-0.095062255859375,1.465606689453125
1695712575216061400,9.3390615234375,-0.3106689453125,-0.331268310546875,1.401214599609375
1695712575225613600,9.348613525390626,-0.3717041015625,-0.449676513671875,1.351318359375
1695712575235135000,9.358135009765626,-0.38360595703125,-0.431060791015625,1.3116455078125
1695712575244687000,9.36768701171875,-0.384521484375,-0.339508056640625,1.28082275390625
1695712575254239000,9.377239013671876,-0.4010009765625,-0.25787353515625,1.259765625
1695712575263791000,9.386791015625,-0.437469482421875,-0.21697998046875,1.26007080078125
1695712575273312500,9.3963125,-0.472259521484375,-0.1806640625,1.2713623046875
1695712575282864400,9.405864501953126,-0.497894287109375,-0.118255615234375,1.29119873046875
1695712575292416500,9.41541650390625,-0.512542724609375,-0.071258544921875,1.3043212890625
1695712575301968400,9.424968505859376,-0.521697998046875,-0.071868896484375,1.3116455078125
1695712575311520500,9.4345205078125,-0.516815185546875,-0.12847900390625,1.31500244140625
1695712575321072400,9.444072265625,-0.482635498046875,-0.21331787109375,1.2933349609375
1695712575330624500,9.45362451171875,-0.436553955078125,-0.263671875,1.219482421875
1695712575340176400,9.46317626953125,-0.403900146484375,-0.24322509765625,1.075592041015625
1695712575349728500,9.472728515625,-0.38482666015625,-0.1898193359375,0.86181640625
1695712575359250000,9.48225,-0.36041259765625,-0.16876220703125,0.63385009765625
1695712575368802000,9.491802001953126,-0.33599853515625,-0.22064208984375,0.448760986328125
1695712575378354000,9.50135400390625,-0.32501220703125,-0.277099609375,0.330047607421875
1695712575387906000,9.510906005859376,-0.335693359375,-0.308380126953125,0.24871826171875
1695712575397427500,9.520427490234376,-0.38116455078125,-0.361480712890625,0.16876220703125
1695712575406979600,9.5299794921875,-0.437774658203125,-0.420074462890625,0.081939697265625
1695712575416531500,9.539531494140626,-0.442657470703125,-0.412139892578125,0.014495849609375
1695712575426083600,9.54908349609375,-0.379638671875,-0.344390869140625,-0.022125244140625
1695712575435605000,9.55860498046875,-0.28839111328125,-0.335235595703125,-0.06500244140625
1695712575445156900,9.568156982421876,-0.218658447265625,-0.453338623046875,-0.1702880859375
1695712575454709000,9.577708984375,-0.185699462890625,-0.66680908203125,-0.357818603515625
1695712575464260900,9.5872607421875,-0.130157470703125,-0.840606689453125,-0.625457763671875
1695712575473782500,9.596782470703126,-0.02655029296875,-0.784454345703125,-0.947723388671875
1695712575483334400,9.60633447265625,0.0738525390625,-0.437469482421875,-1.26068115234375
1695712575492886500,9.615886474609376,0.191497802734375,0.0604248046875,-1.52587890625
1695712575502438400,9.6254384765625,0.357666015625,0.51239013671875,-1.769256591796875
1695712575511960000,9.6349599609375,0.490875244140625,0.733184814453125,-2.021484375
1695712575521512000,9.644511962890626,0.529632568359375,0.681610107421875,-2.3779296875
1695712575531064000,9.65406396484375,0.47821044921875,0.41290283203125,-2.870025634765625
1695712575540616000,9.663615966796876,0.41534423828125,-0.035552978515625,-3.2928466796875
1695712575550137300,9.673137451171876,0.3814697265625,-0.489654541015625,-3.513641357421875
1695712575559689500,9.682689453125,0.39764404296875,-0.768585205078125,-3.512115478515625
1695712575569241300,9.692241455078126,0.41290283203125,-0.844268798828125,-3.32855224609375
1695712575578793500,9.70179345703125,0.3582763671875,-0.807037353515625,-3.08837890625
1695712575588345300,9.711345458984376,0.226287841796875,-0.85693359375,-2.888031005859375
1695712575597897500,9.7208974609375,0.08941650390625,-1.2481689453125,-2.7252197265625
1695712575607449300,9.730449462890626,0.03265380859375,-1.793670654296875,-2.553558349609375
1695712575617001500,9.74000146484375,0.0726318359375,-2.165679931640625,-2.32666015625
1695712575626553300,9.74955322265625,0.125579833984375,-2.236785888671875,-2.061614990234375
1695712575636075000,9.759074951171876,0.10589599609375,-1.756134033203125,-1.88232421875
1695712575645627000,9.768626953125,0.176544189453125,-0.6378173828125,-1.780242919921875
1695712575655179000,9.778178955078126,0.40283203125,0.623321533203125,-1.807403564453125
1695712575664731000,9.78773095703125,0.533599853515625,1.5850830078125,-1.98944091796875
1695712575674283000,9.797282958984376,0.503387451171875,1.92413330078125,-2.2613525390625
1695712575683804400,9.806804443359376,0.416259765625,1.8914794921875,-2.397003173828125
1695712575693356500,9.8163564453125,0.3607177734375,1.6082763671875,-2.379608154296875
1695712575702908400,9.825908447265626,0.34027099609375,1.28204345703125,-2.2064208984375
1695712575712460500,9.83546044921875,0.34393310546875,1.017608642578125,-1.91009521484375
1695712575721982000,9.84498193359375,0.37261962890625,0.82855224609375,-1.54815673828125
1695712575731533800,9.854533935546876,0.4150390625,0.734100341796875,-1.21795654296875
1695712575741086000,9.8640859375,0.47271728515625,0.716400146484375,-0.961761474609375
1695712575750637800,9.873637939453126,0.543365478515625,0.725555419921875,-0.78643798828125
1695712575760159500,9.883159423828126,0.599517822265625,0.7855224609375,-0.683746337890625
1695712575769711400,9.89271142578125,0.628204345703125,0.90606689453125,-0.613861083984375
1695712575779263500,9.902263427734376,0.627899169921875,1.057281494140625,-0.5364990234375
1695712575788815400,9.9118154296875,0.610198974609375,1.18743896484375,-0.43975830078125
1695712575798337000,9.9213369140625,0.579986572265625,1.24969482421875,-0.319366455078125
1695712575807889000,9.930888916015626,0.542144775390625,1.2347412109375,-0.1629638671875
1695712575817441000,9.94044091796875,0.495758056640625,1.13800048828125,0.040435791015625
1695712575826993000,9.949992919921876,0.43731689453125,0.942230224609375,0.304718017578125
1695712575836545000,9.959544921875,0.36865234375,0.670318603515625,0.61920166015625
1695712575846066400,9.96906640625,0.301055908203125,0.406494140625,0.95489501953125
1695712575855618300,9.978618408203126,0.258026123046875,0.2178955078125,1.2713623046875
1695712575865170400,9.98817041015625,0.236053466796875,0.13031005859375,1.55670166015625
1695712575874722300,9.997722412109376,0.229339599609375,0.13916015625,1.797637939453125
1695712575884274400,10.0072744140625,0.257415771484375,0.260467529296875,1.9720458984375
1695712575893826300,10.016826416015626,0.31036376953125,0.478515625,2.02728271484375
1695712575903378400,10.02637841796875,0.36865234375,0.759124755859375,1.877899169921875
1695712575912930300,10.035930419921876,0.42999267578125,1.006011962890625,1.463165283203125
1695712575922452000,10.045451904296876,0.487213134765625,1.067657470703125,0.802764892578125
1695712575932003800,10.05500390625,0.513458251953125,1.070404052734375,-0.06317138671875
1695712575941556000,10.064555908203126,0.489349365234375,1.28692626953125,-1.010589599609375
1695712575951107800,10.07410791015625,0.495758056640625,1.54815673828125,-1.718902587890625
1695712575960660000,10.083659912109376,0.592498779296875,1.234130859375,-1.87469482421875
1695712575970181400,10.093181396484376,0.69183349609375,0.326080322265625,-1.53961181640625
1695712575979733500,10.1027333984375,0.71685791015625,-0.2752685546875,-1.21307373046875
1695712575989285400,10.112285400390626,0.542144775390625,-0.2923583984375,-1.025543212890625
1695712575998837500,10.12183740234375,0.207061767578125,-0.068206787109375,-0.81634521484375
1695712576008359000,10.13135888671875,-0.035400390625,0.230865478515625,-0.52276611328125
1695712576017910800,10.140910888671876,-0.079498291015625,0.651702880859375,-0.11383056640625
1695712576027463000,10.150462890625,0.01373291015625,1.18865966796875,0.361175537109375
1695712576037014800,10.160014892578126,-0.0006103515625,1.779022216796875,0.914306640625
1695712576046536400,10.169536376953126,-0.135040283203125,2.22259521484375,1.769256591796875
1695712576056088300,10.17908837890625,-0.450592041015625,1.56951904296875,3.00872802734375
1695712576065640400,10.188640380859376,-0.72174072265625,-1.471099853515625,3.197479248046875
1695712576075192300,10.1981923828125,-0.502777099609375,-4.59991455078125,1.094207763671875
1695712576084713700,10.207713623046875,-0.084991455078125,-2.878265380859375,-1.082000732421875
1695712576094265900,10.217265869140626,0.631256103515625,0.5743408203125,-1.195068359375
1695712576103818000,10.22681787109375,0.954742431640625,0.8880615234375,0.406036376953125
1695712576113369900,10.236369873046876,0.67291259765625,-0.17364501953125,1.654052734375
1695712576122922000,10.245921875,0.153961181640625,-0.27435302734375,1.9793701171875
1695712576132443400,10.255443359375,-0.2386474609375,0.43426513671875,1.429595947265625
1695712576141995300,10.264995361328126,-0.569305419921875,1.085357666015625,0.822906494140625
1695712576151547400,10.27454736328125,-0.808258056640625,0.596771240234375,1.00555419921875
1695712576161099300,10.284099365234376,-0.94696044921875,-0.53314208984375,1.798858642578125
1695712576170651400,10.2936513671875,-0.939178466796875,-1.905670166015625,2.587432861328125
1695712576180203300,10.303203369140626,-0.65216064453125,-2.975311279296875,2.847747802734375
1695712576189755400,10.31275537109375,-0.196990966796875,-3.07220458984375,2.37457275390625
1695712576199307300,10.322307373046876,0.174407958984375,-2.02850341796875,1.550140380859375
1695712576208829000,10.331828857421876,0.31097412109375,-0.693511962890625,1.064910888671875
1695712576218380800,10.341380859375,0.299835205078125,0.147705078125,1.00189208984375
1695712576227933000,10.350932861328126,0.214080810546875,0.338592529296875,1.194000244140625
1695712576237484800,10.36048486328125,0.12786865234375,0.123291015625,1.463470458984375
1695712576247037000,10.370036865234376,0.09002685546875,-0.1824951171875,1.67572021484375
1695712576256558300,10.379558349609376,0.09674072265625,-0.431365966796875,1.743927001953125
1695712576266110500,10.3891103515625,0.124664306640625,-0.526123046875,1.6925048828125
1695712576275662300,10.398662353515626,0.147247314453125,-0.413970947265625,1.58660888671875
1695712576285214500,10.40821435546875,0.141754150390625,-0.15899658203125,1.522979736328125
1695712576294736000,10.41773583984375,0.10284423828125,-0.004730224609375,1.524810791015625
1695712576304287700,10.427287841796876,0.01708984375,-0.039825439453125,1.532440185546875
1695712576313839900,10.43683984375,-0.083160400390625,-0.1934814453125,1.494903564453125
1695712576323391700,10.446391845703126,-0.157928466796875,-0.401153564453125,1.431121826171875
1695712576332913400,10.455913330078126,-0.206451416015625,-0.5694580078125,1.34033203125
1695712576342465300,10.46546533203125,-0.244140625,-0.64178466796875,1.2554931640625
1695712576352017400,10.475017333984376,-0.2685546875,-0.6243896484375,1.2158203125
1695712576361569300,10.4845693359375,-0.28961181640625,-0.57037353515625,1.21246337890625
1695712576371090700,10.494090576171875,-0.3216552734375,-0.533447265625,1.22039794921875
1695712576380642800,10.503642822265626,-0.37078857421875,-0.478363037109375,1.240234375
1695712576390194700,10.513194580078125,-0.427093505859375,-0.410614013671875,1.2542724609375
1695712576399746800,10.522746826171876,-0.480194091796875,-0.365753173828125,1.25030517578125
1695712576409298700,10.532298583984375,-0.529022216796875,-0.314788818359375,1.25732421875
1695712576418820400,10.5418203125,-0.565032958984375,-0.22857666015625,1.29791259765625
1695712576428372200,10.551372314453126,-0.577545166015625,-0.19287109375,1.3519287109375
1695712576437924400,10.56092431640625,-0.564422607421875,-0.28778076171875,1.38031005859375
1695712576447476200,10.570476318359376,-0.535125732421875,-0.49224853515625,1.34124755859375
1695712576457028400,10.5800283203125,-0.507965087890625,-0.692901611328125,1.2249755859375
1695712576466580200,10.589580322265626,-0.486297607421875,-0.771942138671875,1.048736572265625
1695712576476132400,10.59913232421875,-0.460052490234375,-0.736541748046875,0.848388671875
1695712576485684200,10.608684326171876,-0.414886474609375,-0.6634521484375,0.659332275390625
1695712576495206000,10.618205810546876,-0.3564453125,-0.5780029296875,0.51971435546875
1695712576504757800,10.6277578125,-0.32562255859375,-0.460968017578125,0.428314208984375
1695712576514310000,10.637309814453126,-0.33935546875,-0.394134521484375,0.360870361328125
1695712576523861800,10.64686181640625,-0.37567138671875,-0.458526611328125,0.295562744140625
1695712576533414000,10.656413818359376,-0.40191650390625,-0.59112548828125,0.22674560546875
1695712576542935300,10.665935302734376,-0.3887939453125,-0.63751220703125,0.145263671875
1695712576552487200,10.675487060546875,-0.335693359375,-0.5694580078125,0.047454833984375
1695712576562039300,10.685039306640626,-0.25970458984375,-0.472564697265625,-0.0701904296875
1695712576571591200,10.694591064453125,-0.164031982421875,-0.435943603515625,-0.22186279296875
1695712576581112800,10.70411279296875,-0.069427490234375,-0.4876708984375,-0.440673828125
1695712576590664700,10.713664794921876,0.035400390625,-0.5279541015625,-0.727691650390625
1695712576600216800,10.723216796875,0.165557861328125,-0.408477783203125,-1.024322509765625
1695712576609768700,10.732768798828126,0.306243896484375,-0.090789794921875,-1.3018798828125
1695712576619290400,10.742290283203126,0.4534912109375,0.303497314453125,-1.54571533203125
1695712576628842200,10.75184228515625,0.592498779296875,0.615997314453125,-1.804962158203125
1695712576638394400,10.761394287109376,0.638885498046875,0.747528076171875,-2.196502685546875
1695712576647946200,10.7709462890625,0.579681396484375,0.693511962890625,-2.73101806640625
1695712576657467600,10.780467529296875,0.46661376953125,0.47454833984375,-3.244171142578125
1695712576667019800,10.790019775390626,0.41778564453125,0.0482177734375,-3.536224365234375
1695712576676571600,10.799571533203125,0.4107666015625,-0.356292724609375,-3.520660400390625
1695712576686123800,10.809123779296876,0.38330078125,-0.54412841796875,-3.273468017578125
1695712576695675600,10.818675537109375,0.318603515625,-0.436248779296875,-2.9827880859375
1695712576705197300,10.828197265625,0.212860107421875,-0.15838623046875,-2.786712646484375
1695712576714749200,10.837749267578126,0.08270263671875,-0.085906982421875,-2.72064208984375
1695712576724301300,10.84730126953125,-0.02899169921875,-0.394439697265625,-2.73712158203125
1695712576733853200,10.856853271484376,-0.122833251953125,-0.9381103515625,-2.745513916015625
1695712576743405300,10.8664052734375,-0.22674560546875,-1.481475830078125,-2.65472412109375
1695712576752957200,10.875957275390626,-0.3228759765625,-1.683349609375,-2.452545166015625
1695712576762509300,10.88550927734375,-0.36773681640625,-1.3690185546875,-2.20794677734375
1695712576772061200,10.895061279296876,-0.31829833984375,-0.61370849609375,-2.008056640625
1695712576781582800,10.904582763671876,-0.116119384765625,0.352325439453125,-1.93878173828125
1695712576791134700,10.914134765625,0.131683349609375,1.1907958984375,-2.01507568359375
1695712576800686800,10.923686767578126,0.170440673828125,1.433868408203125,-2.2344970703125
1695712576810238700,10.93323876953125,0.10009765625,1.18316650390625,-2.37518310546875
1695712576819760000,10.942760009765625,0.098876953125,0.692596435546875,-2.35565185546875
1695712576829312300,10.952312255859376,0.160369873046875,0.360870361328125,-2.145843505859375
1695712576838864100,10.961864013671875,0.252838134765625,0.278472900390625,-1.808013916015625
1695712576848416300,10.971416259765626,0.33599853515625,0.321502685546875,-1.461944580078125
1695712576857968000,10.980968017578125,0.40924072265625,0.360260009765625,-1.185302734375
1695712576867489800,10.99048974609375,0.485992431640625,0.42236328125,-0.981903076171875
1695712576877041700,11.000041748046876,0.554046630859375,0.54656982421875,-0.828857421875
1695712576886593800,11.00959375,0.598602294921875,0.709381103515625,-0.721282958984375
1695712576896145700,11.019145751953126,0.610198974609375,0.8587646484375,-0.640106201171875
1695712576905667300,11.028667236328126,0.596466064453125,0.981903076171875,-0.54779052734375
1695712576915219200,11.03821923828125,0.567779541015625,1.049957275390625,-0.4193115234375
1695712576924771300,11.047771240234376,0.522918701171875,1.046600341796875,-0.258331298828125
1695712576934323200,11.0573232421875,0.46478271484375,0.984649658203125,-0.05523681640625
1695712576943844600,11.0668447265625,0.39764404296875,0.8489990234375,0.1959228515625
1695712576953396700,11.076396728515626,0.3289794921875,0.671234130859375,0.50018310546875
1695712576962948600,11.085948486328125,0.265045166015625,0.51849365234375,0.831146240234375
1695712576972500700,11.095500732421876,0.228729248046875,0.426025390625,1.162872314453125
1695712576982052600,11.105052490234375,0.211639404296875,0.40557861328125,1.479034423828125
1695712576991574300,11.11457421875,0.214080810546875,0.477294921875,1.770172119140625
1695712577001126100,11.124126220703126,0.245819091796875,0.632476806640625,2.003173828125
1695712577010678300,11.13367822265625,0.290374755859375,0.8673095703125,2.124481201171875
1695712577020230100,11.143230224609376,0.3265380859375,1.14654541015625,1.99493408203125
1695712577029782300,11.1527822265625,0.39459228515625,1.305694580078125,1.464080810546875
1695712577039334100,11.162334228515626,0.491180419921875,1.1865234375,0.57464599609375
1695712577048886300,11.17188623046875,0.495758056640625,1.209716796875,-0.42724609375
1695712577058438100,11.181438232421876,0.34393310546875,1.314239501953125,-1.377410888671875
1695712577067959800,11.190959716796876,0.249176025390625,1.090850830078125,-1.94122314453125
1695712577077511700,11.20051171875,0.40771484375,0.20538330078125,-1.9329833984375
1695712577087063800,11.210063720703126,0.69244384765625,-0.63385009765625,-1.6162109375
1695712577096615700,11.21961572265625,0.78155517578125,-0.715484619140625,-1.358795166015625
1695712577106137000,11.22913720703125,0.489349365234375,-0.20782470703125,-1.1346435546875
1695712577115689200,11.238689208984376,0.11260986328125,0.322723388671875,-0.8648681640625
1695712577125241000,11.248240966796875,-0.055084228515625,0.76263427734375,-0.48919677734375
1695712577134793200,11.257793212890626,-0.008544921875,1.321258544921875,-0.016021728515625
1695712577144314600,11.267314697265626,-0.054779052734375,2.018890380859375,0.548095703125
1695712577153866800,11.27686669921875,-0.217742919921875,2.5946044921875,1.214599609375
1695712577163418600,11.286418701171876,-0.34149169921875,1.62109375,2.01324462890625
1695712577172970800,11.295970703125,-0.3240966796875,-1.558990478515625,2.109222412109375
1695712577182522600,11.305522705078126,-0.113067626953125,-3.710174560546875,1.052093505859375
1695712577192044300,11.315044189453126,0.118408203125,-1.907806396484375,-0.14251708984375
1695712577201596200,11.32459619140625,0.482330322265625,-0.032196044921875,-0.258636474609375
1695712577211148300,11.334148193359376,0.579376220703125,-0.400848388671875,0.816802978515625
1695712577220700200,11.3437001953125,0.4302978515625,-0.702667236328125,1.6998291015625
1695712577230221600,11.3532216796875,0.02288818359375,-0.061492919921875,1.93603515625
1695712577239773700,11.362773681640626,-0.37261962890625,0.8160400390625,1.64459228515625
1695712577249325600,11.37232568359375,-0.5828857421875,0.92437744140625,1.421661376953125
1695712577258877700,11.381877685546876,-0.65338134765625,0.272979736328125,1.766510009765625
1695712577268399000,11.391399169921876,-0.59295654296875,-0.450286865234375,2.39593505859375
1695712577277951200,11.400951171875,-0.398712158203125,-1.110382080078125,2.80059814453125
1695712577287503000,11.410503173828126,-0.127410888671875,-1.70867919921875,2.6739501953125
1695712577297055200,11.42005517578125,0.1214599609375,-1.830596923828125,2.117462158203125
1695712577306607000,11.429607177734376,0.264129638671875,-1.3543701171875,1.58538818359375
1695712577316159200,11.4391591796875,0.31219482421875,-0.63629150390625,1.3555908203125
1695712577325711000,11.448711181640626,0.30548095703125,-0.077667236328125,1.392669677734375
1695712577335263200,11.45826318359375,0.231781005859375,0.15625,1.59454345703125
1695712577344815000,11.467815185546876,0.10528564453125,0.045166015625,1.825103759765625
1695712577354336800,11.477336669921876,0.0048828125,-0.25848388671875,1.962890625
1695712577363888600,11.486888671875,-0.03387451171875,-0.51666259765625,1.98699951171875
1695712577373440800,11.496440673828126,-0.028076171875,-0.606689453125,1.9183349609375
1695712577382992600,11.50599267578125,0.010986328125,-0.475616455078125,1.779022216796875
1695712577392514000,11.51551416015625,0.07354736328125,-0.213623046875,1.62322998046875
1695712577402066200,11.525066162109376,0.1104736328125,0.003204345703125,1.536407470703125
1695712577411618000,11.5346181640625,0.09979248046875,0.031890869140625,1.5533447265625
1695712577421170200,11.544170166015626,0.03631591796875,-0.085601806640625,1.597900390625
1695712577430722000,11.55372216796875,-0.02593994140625,-0.29754638671875,1.591796875
1695712577440243700,11.56324365234375,-0.047454833984375,-0.56182861328125,1.526336669921875
1695712577449795600,11.572795654296876,-0.0433349609375,-0.743255615234375,1.432037353515625
1695712577459347700,11.58234765625,-0.03387451171875,-0.700531005859375,1.3409423828125
1695712577468899600,11.591899658203126,-0.040283203125,-0.484771728515625,1.26922607421875
1695712577478421200,11.601421142578126,-0.091400146484375,-0.2886962890625,1.22650146484375
1695712577487973000,11.61097314453125,-0.174102783203125,-0.1806640625,1.19720458984375
1695712577497525200,11.620525146484376,-0.24993896484375,-0.150146484375,1.173248291015625
1695712577507077000,11.6300771484375,-0.30670166015625,-0.166015625,1.170196533203125
1695712577516598500,11.6395986328125,-0.341796875,-0.20721435546875,1.19049072265625
1695712577526150700,11.649150634765626,-0.35308837890625,-0.310516357421875,1.21368408203125
1695712577535702500,11.65870263671875,-0.35400390625,-0.466156005859375,1.23291015625
1695712577545254700,11.668254638671876,-0.3662109375,-0.579833984375,1.2359619140625
1695712577554776000,11.677776123046876,-0.39093017578125,-0.59844970703125,1.186065673828125
1695712577564328200,11.687328125,-0.419464111328125,-0.5316162109375,1.078948974609375
1695712577573880000,11.696880126953126,-0.452117919921875,-0.423736572265625,0.94268798828125
1695712577583432200,11.70643212890625,-0.469818115234375,-0.375213623046875,0.802459716796875
1695712577592984000,11.715984130859376,-0.455169677734375,-0.454254150390625,0.674285888671875
1695712577602536200,11.7255361328125,-0.409698486328125,-0.6146240234375,0.55206298828125
1695712577612088000,11.735088134765626,-0.3546142578125,-0.697174072265625,0.437164306640625
1695712577621640200,11.74464013671875,-0.31951904296875,-0.6597900390625,0.343780517578125
1695712577631192000,11.754192138671876,-0.32318115234375,-0.63323974609375,0.2618408203125
1695712577640713700,11.763713623046876,-0.34423828125,-0.682525634765625,0.16845703125
1695712577650265600,11.773265625,-0.34912109375,-0.733795166015625,0.073089599609375
1695712577659817700,11.782817626953126,-0.3179931640625,-0.718536376953125,-0.016021728515625
1695712577669369600,11.79236962890625,-0.25299072265625,-0.631103515625,-0.11444091796875
1695712577678891000,11.80189111328125,-0.175323486328125,-0.4864501953125,-0.251617431640625
1695712577688443100,11.811443115234376,-0.088043212890625,-0.303802490234375,-0.43792724609375
1695712577697995000,11.8209951171875,0.0274658203125,-0.1531982421875,-0.663909912109375
1695712577707547100,11.830547119140626,0.159149169921875,-0.074615478515625,-0.8782958984375
1695712577717068500,11.840068603515626,0.275726318359375,0.03662109375,-1.094207763671875
1695712577726620700,11.84962060546875,0.39215087890625,0.305633544921875,-1.351470947265625
1695712577736172500,11.859172607421876,0.525360107421875,0.596160888671875,-1.6448974609375
1695712577745724700,11.868724609375,0.570831298828125,0.736236572265625,-2.023773193359375
1695712577755276500,11.878276611328126,0.490875244140625,0.694732666015625,-2.553253173828125
1695712577764798200,11.887798095703126,0.38848876953125,0.4705810546875,-3.0914306640625
1695712577774350000,11.89735009765625,0.35491943359375,0.027618408203125,-3.4161376953125
1695712577783902200,11.906902099609376,0.3729248046875,-0.48095703125,-3.40362548828125
1695712577793454000,11.9164541015625,0.3857421875,-0.808868408203125,-3.157501220703125
1695712577802975500,11.9259755859375,0.3741455078125,-0.783843994140625,-2.907562255859375
1695712577812527600,11.935527587890626,0.31463623046875,-0.4913330078125,-2.788238525390625
1695712577822079500,11.94507958984375,0.205841064453125,-0.27191162109375,-2.794036865234375
1695712577831631600,11.954631591796876,0.0537109375,-0.316314697265625,-2.859954833984375
1695712577841153000,11.964153076171876,-0.116119384765625,-0.55908203125,-2.877960205078125
1695712577850705200,11.973705078125,-0.28472900390625,-0.813140869140625,-2.781524658203125
1695712577860257000,11.983257080078126,-0.401611328125,-0.95611572265625,-2.5750732421875
1695712577869809200,11.99280908203125,-0.408782958984375,-0.754241943359375,-2.261962890625
1695712577879361000,12.002361083984376,-0.2276611328125,-0.103302001953125,-1.94091796875
1695712577888913200,12.0119130859375,0.0732421875,0.47698974609375,-1.88873291015625
1695712577898465000,12.021465087890626,0.172271728515625,0.941314697265625,-2.01751708984375
1695712577908017200,12.03101708984375,0.11566162109375,0.92864990234375,-2.27142333984375
1695712577917569000,12.040569091796876,0.0732421875,0.605621337890625,-2.440338134765625
1695712577927090700,12.050090576171876,0.1068115234375,0.339813232421875,-2.437896728515625
1695712577936642600,12.059642578125,0.188140869140625,0.273590087890625,-2.29949951171875
1695712577946194700,12.069194580078126,0.290679931640625,0.355987548828125,-2.078399658203125
1695712577955746600,12.07874658203125,0.3863525390625,0.4730224609375,-1.825408935546875
1695712577965268000,12.08826806640625,0.474853515625,0.592193603515625,-1.58203125
1695712577974820000,12.097820068359376,0.549468994140625,0.720977783203125,-1.384124755859375
1695712577984372000,12.1073720703125,0.588836669921875,0.860595703125,-1.24481201171875
1695712577993924000,12.116924072265626,0.597686767578125,0.984649658203125,-1.12701416015625
1695712578003445500,12.126445556640626,0.582122802734375,1.086883544921875,-0.991973876953125
1695712578012997600,12.13599755859375,0.548248291015625,1.14166259765625,-0.82733154296875
1695712578022549500,12.145549560546876,0.497589111328125,1.104278564453125,-0.636749267578125
1695712578032101600,12.1551015625,0.43304443359375,0.994415283203125,-0.416259765625
1695712578041653500,12.164653564453126,0.35736083984375,0.845947265625,-0.15228271484375
1695712578051175000,12.1741748046875,0.290069580078125,0.670928955078125,0.1617431640625
1695712578060727000,12.18372705078125,0.246429443359375,0.51239013671875,0.52032470703125
1695712578070279000,12.19327880859375,0.216522216796875,0.4290771484375,0.89202880859375
1695712578079831000,12.2028310546875,0.206756591796875,0.42572021484375,1.2493896484375
1695712578089352400,12.2123525390625,0.223541259765625,0.4840087890625,1.57928466796875
1695712578098904600,12.221904541015626,0.275115966796875,0.604705810546875,1.871185302734375
1695712578108456400,12.23145654296875,0.352783203125,0.78948974609375,2.08831787109375
1695712578118008600,12.241008544921876,0.42266845703125,1.023101806640625,2.125396728515625
1695712578127530000,12.250530029296876,0.47088623046875,1.28204345703125,1.860198974609375
1695712578137082000,12.26008203125,0.552520751953125,1.452484130859375,1.30767822265625
1695712578146634000,12.269634033203126,0.615692138671875,1.5087890625,0.5975341796875
1695712578156186000,12.27918603515625,0.510711669921875,1.60552978515625,-0.21270751953125
1695712578165738000,12.288738037109376,0.302734375,1.5234375,-1.098175048828125
1695712578175290000,12.2982900390625,0.210113525390625,0.969696044921875,-1.688079833984375
1695712578184842000,12.307842041015626,0.33935546875,-0.1751708984375,-1.563720703125
1695712578194394000,12.31739404296875,0.485076904296875,-1.080780029296875,-1.113128662109375
1695712578203946000,12.326946044921876,0.44586181640625,-1.108245849609375,-0.83251953125
1695712578213467400,12.33646728515625,0.193328857421875,-0.392913818359375,-0.7916259765625
1695712578223019500,12.34601953125,-0.032501220703125,0.455322265625,-0.8380126953125
1695712578232571400,12.3555712890625,-0.129852294921875,1.23809814453125,-0.729217529296875
1695712578242123500,12.36512353515625,-0.40374755859375,1.8896484375,-0.44036865234375
1695712578251645000,12.37464501953125,-0.7318115234375,2.025909423828125,-0.023651123046875
1695712578261197000,12.384197021484376,-0.6951904296875,0.55206298828125,0.56884765625
1695712578270749000,12.3937490234375,-0.199127197265625,-1.498870849609375,0.94207763671875
1695712578280301000,12.403301025390626,0.10589599609375,-1.02203369140625,0.2264404296875
1695712578289822500,12.412822509765626,0.191192626953125,-0.106658935546875,-0.130615234375
1695712578299374600,12.42237451171875,0.279998779296875,-0.92010498046875,0.96282958984375
1695712578308926500,12.431926513671876,0.250701904296875,-1.00830078125,1.852264404296875
1695712578318478600,12.441478515625,0.0238037109375,-0.247802734375,1.839447021484375
1695712578328030500,12.451030517578126,-0.23712158203125,0.279083251953125,1.500396728515625
1695712578337552000,12.4605517578125,-0.39581298828125,0.004730224609375,1.68212890625
1695712578347104000,12.47010400390625,-0.34271240234375,-0.56671142578125,2.230377197265625
1695712578356655900,12.47965576171875,-0.108795166015625,-0.975341796875,2.604522705078125
1695712578366208000,12.4892080078125,0.123138427734375,-1.00341796875,2.573699951171875
1695712578375729400,12.4987294921875,0.291900634765625,-0.780181884765625,2.234954833984375
1695712578385281500,12.508281494140626,0.37506103515625,-0.484619140625,1.797943115234375
1695712578394833400,12.51783349609375,0.340576171875,-0.2264404296875,1.497650146484375
1695712578404385500,12.527385498046876,0.263214111328125,-0.1495361328125,1.399383544921875
1695712578413907000,12.536906982421876,0.206451416015625,-0.21270751953125,1.498870849609375
1695712578423459000,12.546458984375,0.144805908203125,-0.352020263671875,1.69677734375
1695712578433011000,12.556010986328126,0.06866455078125,-0.48858642578125,1.891021728515625
1695712578442563000,12.56556298828125,-0.018310546875,-0.540771484375,1.9940185546875
1695712578452115000,12.575114990234376,-0.110015869140625,-0.62469482421875,1.99554443359375
1695712578461667000,12.5846669921875,-0.146331787109375,-0.63690185546875,1.9183349609375
1695712578471219000,12.594218994140626,-0.111541748046875,-0.50689697265625,1.781463623046875
1695712578480771000,12.60377099609375,-0.00823974609375,-0.30548095703125,1.64520263671875
1695712578490323000,12.613322998046876,0.07171630859375,-0.17486572265625,1.537628173828125
1695712578499844400,12.62284423828125,0.0860595703125,-0.18463134765625,1.471710205078125
1695712578509396500,12.632396484375,0.0653076171875,-0.2691650390625,1.456451416015625
1695712578518948400,12.6419482421875,0.01922607421875,-0.385894775390625,1.447601318359375
1695712578528500500,12.65150048828125,-0.0286865234375,-0.5029296875,1.412811279296875
1695712578538022000,12.66102197265625,-0.069427490234375,-0.576171875,1.3604736328125
1695712578547574000,12.670573974609376,-0.098419189453125,-0.5767822265625,1.312255859375
1695712578557126000,12.6801259765625,-0.122833251953125,-0.5224609375,1.2823486328125
1695712578566678000,12.689677978515626,-0.149383544921875,-0.441131591796875,1.2652587890625
1695712578576199400,12.699199462890626,-0.190277099609375,-0.326995849609375,1.25335693359375
1695712578585751600,12.70875146484375,-0.24139404296875,-0.21209716796875,1.2652587890625
1695712578595303400,12.718303466796876,-0.28289794921875,-0.137939453125,1.297607421875
1695712578604855600,12.72785546875,-0.3106689453125,-0.16265869140625,1.32659912109375
1695712578614407400,12.737407470703126,-0.333251953125,-0.24505615234375,1.33819580078125
1695712578623928800,12.7469287109375,-0.360107421875,-0.30609130859375,1.3427734375
1695712578633481000,12.75648095703125,-0.380859375,-0.364532470703125,1.343994140625
1695712578643032800,12.76603271484375,-0.39764404296875,-0.482330322265625,1.32049560546875
1695712578652585000,12.7755849609375,-0.412445068359375,-0.587158203125,1.26861572265625
1695712578662106400,12.7851064453125,-0.437164306640625,-0.58807373046875,1.1932373046875
1695712578671658500,12.794658447265626,-0.449066162109375,-0.50872802734375,1.079559326171875
1695712578681210400,12.80421044921875,-0.435333251953125,-0.463104248046875,0.9197998046875
1695712578690762500,12.813762451171876,-0.390625,-0.4949951171875,0.729827880859375
1695712578700284000,12.823283935546876,-0.32318115234375,-0.51605224609375,0.56243896484375
1695712578709836000,12.8328359375,-0.26458740234375,-0.442657470703125,0.463409423828125
1695712578719388000,12.842387939453126,-0.242919921875,-0.345916748046875,0.416412353515625
1695712578728940000,12.85193994140625,-0.25604248046875,-0.337677001953125,0.370025634765625
1695712578738492000,12.861491943359376,-0.29205322265625,-0.440826416015625,0.29083251953125
1695712578748044000,12.8710439453125,-0.322265625,-0.56365966796875,0.18218994140625
1695712578757596000,12.880595947265626,-0.31982421875,-0.59783935546875,0.053558349609375
1695712578767148000,12.89014794921875,-0.28411865234375,-0.5145263671875,-0.09796142578125
1695712578776700000,12.899699951171876,-0.233154296875,-0.369720458984375,-0.285797119140625
1695712578786221300,12.90922119140625,-0.157928466796875,-0.2618408203125,-0.52581787109375
1695712578795773400,12.9187734375,-0.03692626953125,-0.223388671875,-0.78521728515625
1695712578805325300,12.9283251953125,0.0775146484375,-0.13336181640625,-1.041412353515625
1695712578814877400,12.93787744140625,0.149688720703125,0.10162353515625,-1.331634521484375
1695712578824398800,12.94739892578125,0.261077880859375,0.41290283203125,-1.65496826171875
1695712578833951000,12.956950927734376,0.43853759765625,0.645599365234375,-1.9830322265625
