time,seconds_elapsed,z,y,x
1696081822237188600,0.041188720703125,0.015806138515472412,-0.15401439368724823,-0.18135061860084534
1696081822249963800,0.0539638671875,0.015806138515472412,-0.15401439368724823,-0.18135061860084534
1696081822259963600,0.063963623046875,0.015806138515472412,-0.15401439368724823,-0.18135061860084534
1696081822269963800,0.0739638671875,0.015806138515472412,-0.15401439368724823,-0.18135061860084534
1696081822279963600,0.083963623046875,0.0671188160777092,-0.21754439175128937,-0.27175867557525635
1696081822289963800,0.0939638671875,0.07628180086612701,-0.1698969006538391,-0.3585015535354614
1696081822299963600,0.103963623046875,0.07933612167835236,-0.14240795373916626,-0.4214206635951996
1696081822309963800,0.1139638671875,0.11354457587003708,-0.13813190162181854,-0.4715116024017334
1696081822319963600,0.123963623046875,0.14408783614635468,-0.19799669086933136,-0.5613088011741638
1696081822329963800,0.1339638671875,0.21006128191947937,-0.29390254616737366,-0.5967389941215515
1696081822339963600,0.143963623046875,0.2192242592573166,-0.31406110525131226,-0.591241180896759
1696081822349963800,0.1539638671875,0.18929186463356018,-0.3079524338245392,-0.5545892715454102
1696081822359963600,0.163963623046875,0.16119205951690674,-0.3134502172470093,-0.48372891545295715
1696081822369963800,0.1739638671875,0.11293371021747589,-0.2505311071872711,-0.40798163414001465
1696081822379963600,0.183963623046875,0.08055785298347473,-0.1711186319589615,-0.3407864570617676
1696081822389963800,0.1939638671875,0.020082194358110428,-0.11675161868333817,-0.29130637645721436
1696081822399963600,0.203963623046875,-0.017180584371089935,-0.1399645060300827,-0.2387719452381134
1696081822409963800,0.2139638671875,-0.03000875562429428,-0.1906663179397583,-0.21433734893798828
1696081822419963600,0.223963623046875,-0.04772384837269783,-0.24992024898529053,-0.21433734893798828
1696081822429963800,0.2339638671875,-0.06055201590061188,-0.2822960913181305,-0.24060454964637756
1696081822439963600,0.243963623046875,-0.05627596005797386,-0.35498905181884766,-0.27114781737327576
1696081822449963800,0.2539638671875,-0.03856086730957031,-0.4851033687591553,-0.2735912799835205
1696081822459963600,0.263963623046875,-0.04528038576245308,-0.6030003428459167,-0.2540435791015625
1696081822469963800,0.2739638671875,-0.0746019184589386,-0.7355580925941467,-0.21128301322460175
1696081822479963600,0.283963623046875,-0.10331258177757263,-0.9426414370536804,-0.14592044055461884
1696081822489963800,0.2939638671875,-0.10147999227046967,-1.2065352201461792,-0.06284276396036148
1696081822499963600,0.303963623046875,-0.10270171612501144,-1.4551573991775513,0.023289237171411514
1696081822509963800,0.3139638671875,-0.11614075303077698,-1.7019469738006592,0.08804095536470413
1696081822519963600,0.323963623046875,-0.12163854390382767,-1.983555793762207,0.13691017031669617
1696081822529963800,0.3339638671875,-0.20471622049808502,-2.2138519287109375,0.16928602755069733
1696081822539963600,0.343963623046875,-0.3317761719226837,-2.4404830932617188,0.20838139951229095
1696081822549963800,0.3539638671875,-0.45211663842201233,-2.591977596282959,0.2517528533935547
1696081822559963600,0.363963623046875,-0.5474116206169128,-2.6799421310424805,0.28840476274490356
1696081822569963800,0.3739638671875,-0.6097198724746704,-2.7630198001861572,0.31039589643478394
1696081822579963600,0.383963623046875,-0.6268240809440613,-2.838156223297119,0.3012329339981079
1696081822589963800,0.3939638671875,-0.6176611185073853,-2.8815276622772217,0.25847235321998596
1696081822599963600,0.403963623046875,-0.5987243056297302,-2.8888580799102783,0.18761198222637177
1696081822609963800,0.4139638671875,-0.5730679631233215,-2.8332693576812744,0.0898735523223877
1696081822619963600,0.423963623046875,-0.5278639197349548,-2.7324767112731934,0.002519819187000394
1696081822629963800,0.4339638671875,-0.45089492201805115,-2.594421148300171,-0.061621032655239105
1696081822639963600,0.443963623046875,-0.3122285008430481,-2.394057273864746,-0.1227075532078743
1696081822649963800,0.4539638671875,-0.10636691004037857,-2.2046890258789062,-0.17402023077011108
1696081822659963600,0.463963623046875,0.08605564385652542,-2.1136701107025146,-0.19540052115917206
1696081822669963800,0.4739638671875,0.2289981096982956,-2.0580813884735107,-0.18623754382133484
1696081822679963600,0.483963623046875,0.3340669274330139,-1.9707276821136475,-0.22288945317268372
1696081822689963800,0.4939638671875,0.37194058299064636,-1.9829449653625488,-0.3548363447189331
1696081822699963600,0.503963623046875,0.42386412620544434,-2.3586270809173584,-0.4770093858242035
1696081822709963800,0.5139638671875,0.5228242874145508,-3.1747429370880127,-0.5454263091087341
1696081822719964000,0.5239638671875,0.6138432025909424,-3.907170534133911,-0.640110433101654
1696081822729963800,0.5339638671875,0.6333909034729004,-4.558352947235107,-0.734794557094574
1696081822739964000,0.5439638671875,0.5887977480888367,-5.037881851196289,-0.8148179054260254
1696081822749963800,0.5539638671875,0.5008331537246704,-5.3262104988098145,-0.8649088144302368
1696081822759964000,0.5639638671875,0.4318053722381592,-5.486257076263428,-0.8789587020874023
1696081822769963800,0.5739638671875,0.3499494194984436,-4.551022529602051,-0.6346126198768616
1696081822779963600,0.583963623046875,0.47273334860801697,-4.178394794464111,-0.47762027382850647
1696081822789963800,0.5939638671875,0.6358343362808228,-4.007352352142334,-0.30291280150413513
1696081822799963600,0.603963623046875,0.8282569050788879,-3.8601338863372803,-0.12087496370077133
1696081822809963800,0.6139638671875,1.1184178590774536,-4.107534408569336,-0.013362676836550236
1696081822819963600,0.623963623046875,1.4018594026565552,-4.328056812286377,-0.04024074971675873
1696081822829963800,0.6339638671875,1.5796211957931519,-4.179616451263428,-0.029245173558592796
1696081822839963600,0.643963623046875,1.7054593563079834,-3.376328468322754,0.12163854390382767
1696081822849963500,0.653963623046875,1.8569539785385132,-2.025705575942993,0.33421963453292847
1696081822859963400,0.66396337890625,2.0573177337646484,-0.6384305357933044,0.43012550473213196
1696081822869963500,0.673963623046875,2.1465041637420654,-0.32078060507774353,0.09353873878717422
1696081822879963400,0.68396337890625,2.022498369216919,-0.3183371424674988,-0.439746618270874
1696081822889963500,0.693963623046875,1.722563624382019,-0.08620835840702057,-0.9980774521827698
1696081822899963600,0.703963623046875,1.3578771352767944,0.2485457956790924,-1.5466344356536865
1696081822909963500,0.713963623046875,1.0182360410690308,0.591241180896759,-2.014557123184204
1696081822919963600,0.723963623046875,0.8209265470504761,0.9125562906265259,-2.335261583328247
1696081822929963500,0.733963623046875,0.7848854660987854,1.1104766130447388,-2.491642951965332
1696081822939963600,0.743963623046875,0.875904381275177,1.2179889678955078,-2.499584197998047
1696081822949963300,0.75396337890625,1.1715631484985352,1.2204324007034302,-2.346256971359253
1696081822959963100,0.763963134765625,1.693242073059082,1.0347293615341187,-2.0964131355285645
1696081822969963300,0.77396337890625,2.3535873889923096,0.6779840588569641,-1.8771125078201294
1696081822979963100,0.783963134765625,3.0169870853424072,0.10865765810012817,-1.714011549949646
1696081822989963300,0.79396337890625,3.613191604614258,-0.6872997879981995,-1.6119970083236694
1696081822999963000,0.803962890625,4.123875141143799,-1.544954538345337,-1.5545756816864014
1696081823009962800,0.813962646484375,4.468402862548828,-2.2920427322387695,-1.448896050453186
1696081823019963000,0.823962890625,4.566141128540039,-2.7856218814849854,-1.3108404874801636
1696081823029962800,0.833962646484375,4.404262065887451,-3.0452396869659424,-1.2051607370376587
1696081823039963000,0.843962890625,4.037743091583252,-3.183906078338623,-1.134911298751831
1696081823049962800,0.853962646484375,3.6089155673980713,-3.292639970779419,-1.1019245386123657
1696081823059962600,0.863962646484375,3.1990249156951904,-3.412980556488037,-1.0732139348983765
1696081823069962800,0.873962646484375,2.792799472808838,-3.4887278079986572,-0.9919688105583191
1696081823079962600,0.883962646484375,2.3499221801757812,-3.3561699390411377,-0.886289119720459
1696081823089962800,0.893962646484375,1.8361846208572388,-3.521714448928833,-0.6749297380447388
1696081823099962400,0.90396240234375,1.4800500869750977,-3.8082103729248047,-0.48861584067344666
1696081823109962200,0.913962158203125,1.1636219024658203,-4.078823566436768,-0.3646101951599121
1696081823119962400,0.92396240234375,0.6688210964202881,-4.373871326446533,-0.28764116764068604
1696081823129962200,0.933962158203125,0.10560332983732224,-4.679914951324463,-0.22105686366558075
1696081823139962400,0.94396240234375,-0.3012329339981079,-4.792314052581787,-0.14042264223098755
1696081823149963300,0.95396337890625,-0.5718462467193604,-4.918763160705566,-0.16119205951690674
1696081823159963100,0.963963134765625,-0.8785005807876587,-5.116072654724121,-0.35178202390670776
1696081823169963300,0.97396337890625,-1.251739263534546,-5.069646835327148,-0.6309474110603333
1696081823179963100,0.983963134765625,-1.641471266746521,-4.817359447479248,-0.8710174560546875
1696081823189963300,0.99396337890625,-2.050750970840454,-4.48810338973999,-1.1214722394943237
1696081823199962600,1.003962646484375,-2.3891704082489014,-4.223598480224609,-1.2949579954147339
1696081823209962800,1.013962646484375,-2.612136125564575,-3.9328267574310303,-1.44767427444458
1696081823219962600,1.023962646484375,-2.7275896072387695,-3.664046049118042,-1.6034449338912964
1696081823229962800,1.033962646484375,-2.764852523803711,-3.357391834259033,-1.7243962287902832
1696081823239962600,1.043962646484375,-2.7141506671905518,-2.9975922107696533,-1.7970892190933228
1696081823249962800,1.053962646484375,-2.584036350250244,-2.5577690601348877,-1.7867045402526855
1696081823259963000,1.063962890625,-2.3702335357666016,-2.061746597290039,-1.7072919607162476
1696081823269962800,1.073962646484375,-2.0849595069885254,-1.5596153736114502,-1.5765668153762817
1696081823279962600,1.083962646484375,-1.7373771667480469,-1.042823314666748,-1.4036920070648193
1696081823289962800,1.093962646484375,-1.3476450443267822,-0.4893794059753418,-1.2094367742538452
1696081823299963100,1.103963134765625,-0.9200394153594971,0.009697485715150833,-1.0170142650604248
1696081823309963000,1.113962890625,-0.3867540657520294,0.40370556712150574,-0.9522625803947449
1696081823319963100,1.123963134765625,0.17524196207523346,0.9632581472396851,-0.9504299759864807
1696081823329963000,1.133962890625,0.6669884920120239,1.2521973848342896,-0.9015607237815857
1696081823339963100,1.143963134765625,1.1031463146209717,1.3896421194076538,-0.7060838937759399
1696081823349963300,1.15396337890625,1.5112042427062988,1.524032473564148,-0.39881864190101624
1696081823359963000,1.163962890625,1.8807777166366577,1.6089427471160889,-0.07444920390844345
1696081823369963000,1.173962890625,2.1972060203552246,1.685911774635315,0.17905987799167633
1696081823379963000,1.183962890625,2.450104236602783,1.797700047492981,0.29940032958984375
1696081823389963000,1.193962890625,2.6180920600891113,1.9149861335754395,0.27802005410194397
1696081823399963400,1.20396337890625,2.6413049697875977,2.0487656593322754,0.1497383415699005
1696081823409963300,1.21396337890625,2.5912139415740967,2.066480875015259,-0.07628180086612701
1696081823419963400,1.22396337890625,2.4287238121032715,2.3254876136779785,-0.27786731719970703
1696081823429963300,1.23396337890625,2.1862103939056396,2.600377082824707,-0.45807257294654846
1696081823439963400,1.24396337890625,1.9589685201644897,2.7585911750793457,-0.6120105981826782
1696081823449962800,1.253962646484375,1.8600083589553833,2.887483596801758,-0.7702246904373169
1696081823459963000,1.263962890625,1.8221346139907837,3.027371883392334,-0.9815840721130371
1696081823469962800,1.273962646484375,1.7250070571899414,2.985222101211548,-1.313283920288086
1696081823479963000,1.283962890625,1.5234215259552002,2.7494280338287354,-1.7708219289779663
1696081823489962800,1.293962646484375,1.244866967201233,2.5356252193450928,-2.212477445602417
1696081823499963100,1.303963134765625,0.9088911414146423,2.2662336826324463,-2.486145257949829
1696081823509962800,1.313962646484375,0.5784130096435547,1.9046014547348022,-2.560670852661133
1696081823519962600,1.323962646484375,0.38843393325805664,1.5472452640533447,-2.5258514881134033
1696081823529962800,1.333962646484375,0.25709789991378784,1.2485321760177612,-2.5264623165130615
1696081823539963000,1.343962890625,-0.007406740915030241,0.7775551080703735,-2.407954454421997
1696081823549963000,1.353962890625,-0.5700136423110962,0.3639993369579315,-1.949805498123169
1696081823559963100,1.363963134765625,-0.9408088326454163,0.45379650592803955,-1.473941445350647
1696081823569963000,1.373962890625,-0.8846092224121094,0.5258786082267761,-1.3664292097091675
1696081823579963100,1.383963134765625,-1.0629818439483643,0.0817795842885971,-1.629101276397705
1696081823589962800,1.393962646484375,-1.2193633317947388,0.012140946462750435,-1.7060703039169312
1696081823599962600,1.403962646484375,-1.5211308002471924,0.31146490573883057,-1.4317917823791504
1696081823609962000,1.4139619140625,-1.934686541557312,0.39209914207458496,-0.9449321627616882
1696081823619961900,1.4239619140625,-2.220571517944336,0.22533291578292847,-0.5020548701286316
1696081823629962000,1.4339619140625,-2.2144627571105957,0.047571130096912384,-0.21250474452972412
1696081823639961900,1.4439619140625,-1.9016999006271362,0.2283872365951538,-0.05490151420235634
1696081823649962000,1.4539619140625,-1.4637094736099243,0.6291148662567139,0.014737123623490334
1696081823659961900,1.4639619140625,-1.1368966102600098,1.0854312181472778,0.04466952010989189
1696081823669962000,1.4739619140625,-0.8931613564491272,1.5906167030334473,0.02695442922413349
1696081823679961900,1.4839619140625,-0.7233408093452454,2.044489622116089,-0.05367978289723396
1696081823689962000,1.4939619140625,-0.5846744179725647,2.555172920227051,-0.13187053799629211
1696081823699961900,1.5039619140625,-0.358654260635376,3.002937078475952,-0.23266330361366272
1696081823710751500,1.51475146484375,0.08422304689884186,3.3138675689697266,-0.35666894912719727
1696081823720751400,1.52475146484375,0.8343655467033386,3.4928510189056396,-0.46357035636901855
1696081823730751500,1.53475146484375,1.855121374130249,3.7903425693511963,-0.610788881778717
1696081823740751400,1.54475146484375,2.7500388622283936,3.787288188934326,-0.8184830546379089
1696081823750751500,1.55475146484375,3.4427602291107178,3.6492326259613037,-1.010294795036316
1696081823760751000,1.564751220703125,4.129372596740723,3.4452035427093506,-1.2210432291030884
1696081823770751000,1.5747509765625,4.951597213745117,2.245464324951172,-1.467221975326538
1696081823780751000,1.584751220703125,5.7646589279174805,1.2149345874786377,-1.1733957529067993
1696081823790751000,1.5947509765625,6.450660705566406,1.4409548044204712,-0.4507421851158142
1696081823800751000,1.604751220703125,7.268609046936035,2.3340396881103516,0.06360634416341782
1696081823810751500,1.61475146484375,7.455533981323242,3.0799062252044678,0.3213914632797241
1696081823820751400,1.62475146484375,7.464086055755615,3.3468542098999023,0.49548807740211487
1696081823830751500,1.63475146484375,7.1549882888793945,3.7433059215545654,0.6494261026382446
1696081823840751400,1.64475146484375,6.89109468460083,4.264984607696533,0.6274349689483643
1696081823850751500,1.65475146484375,6.540457725524902,4.0731730461120605,0.1051451787352562
1696081823860751400,1.66475146484375,5.060331344604492,2.290668249130249,-1.5429692268371582
1696081823870751500,1.67475146484375,2.809292793273926,-0.5810092091560364,-3.554548501968384
1696081823880751400,1.68475146484375,1.7873153686523438,-0.7355580925941467,-3.4678056240081787
1696081823890751700,1.694751708984375,1.2210432291030884,0.012751812115311623,-2.329152822494507
1696081823900752000,1.704751953125,0.6462190747261047,1.1037571430206299,-1.105589747428894
1696081823910752500,1.71475244140625,0.42325326800346375,1.3383294343948364,-0.23449589312076569
1696081823920752400,1.72475244140625,0.5216025710105896,0.9547060132026672,0.1198059469461441
1696081823930752500,1.73475244140625,0.6847035884857178,0.45746171474456787,0.031841352581977844
1696081823940752400,1.74475244140625,0.7421249151229858,0.22227859497070312,-0.27725645899772644
1696081823950752500,1.75475244140625,0.6743188500404358,0.5258786082267761,-0.6993643641471863
1696081823960752600,1.764752685546875,0.6468299627304077,1.2344822883605957,-1.1507937908172607
1696081823970752500,1.77475244140625,0.6572146415710449,1.952859878540039,-1.6572010517120361
1696081823980752600,1.784752685546875,0.6541603207588196,2.5649468898773193,-2.1465041637420654
1696081823990752500,1.79475244140625,0.7867180705070496,2.97178316116333,-2.597933530807495
1696081824000752600,1.804752685546875,1.0542770624160767,3.1348841190338135,-2.996217727661133
1696081824010752800,1.814752685546875,1.3658183813095093,2.994385004043579,-3.2851569652557373
1696081824020752600,1.824752685546875,1.6156622171401978,2.8105146884918213,-3.2356767654418945
1696081824030752800,1.834752685546875,1.9021580219268799,2.1245129108428955,-2.9613983631134033
1696081824040752600,1.844752685546875,2.1947624683380127,1.2167671918869019,-2.4403302669525146
1696081824050752800,1.854752685546875,2.5521185398101807,0.21983513236045837,-1.6956855058670044
1696081824060753200,1.864753173828125,2.9027552604675293,-0.5168683528900146,-1.0719921588897705
1696081824070753000,1.8747529296875,3.2692744731903076,-0.6598108410835266,-0.8435285687446594
1696081824080753200,1.884753173828125,3.445814371109009,-0.40996694564819336,-0.877126157283783
1696081824090753000,1.8947529296875,3.3859496116638184,-0.27313312888145447,-0.9492082595825195
1696081824100753200,1.904753173828125,3.1513774394989014,-0.6347653269767761,-0.8887325525283813
1696081824110753000,1.9147529296875,2.8758771419525146,-1.2975541353225708,-0.7183011770248413
1696081824120753200,1.924753173828125,2.6327528953552246,-1.7868572473526,-0.6700428128242493
1696081824130753000,1.9347529296875,2.474538803100586,-1.9743927717208862,-0.6969208717346191
1696081824140753200,1.944753173828125,2.382909059524536,-1.697670817375183,-0.87651526927948
1696081824150753000,1.9547529296875,2.3138811588287354,-1.4325553178787231,-1.04694664478302
1696081824160753200,1.964753173828125,2.2637901306152344,-1.431944489479065,-1.0897072553634644
1696081824170753000,1.9747529296875,2.0719785690307617,-1.3513102531433105,-0.9785297513008118
1696081824180753200,1.984753173828125,1.6498706340789795,-0.9896780848503113,-0.582078218460083
1696081824190753000,1.9947529296875,1.1147527694702148,-0.8100836873054504,0.18944458663463593
1696081824200753200,2.004753173828125,0.7690029740333557,-1.2480740547180176,1.0727556943893433
1696081824210753000,2.0147529296875,0.5613088011741638,-1.7355445623397827,1.7276033163070679
1696081824220753200,2.024753173828125,0.2540435791015625,-0.9579130411148071,0.7184538841247559
1696081824230753300,2.034753173828125,0.11415544152259827,-0.4594470262527466,-0.3334560692310333
1696081824240753200,2.044753173828125,0.20761781930923462,-0.9090438485145569,-0.42264237999916077
1696081824250753300,2.054753173828125,0.3554472029209137,-0.5559637546539307,-0.3597232699394226
1696081824260753400,2.06475341796875,0.07322747260332108,0.5216025710105896,-0.5228242874145508
1696081824270753300,2.074753173828125,-0.30856332182884216,1.408578872680664,-0.5582544803619385
1696081824280753400,2.08475341796875,-0.6378196477890015,1.8166369199752808,-0.4006512463092804
1696081824290753300,2.094753173828125,-0.8058075904846191,1.7579938173294067,-0.13675746321678162
1696081824300753400,2.10475341796875,-0.7318929433822632,1.4330135583877563,0.04161519557237625
1696081824310753300,2.114753173828125,-0.5180900692939758,0.904615044593811,0.13141238689422607
1696081824320753400,2.12475341796875,-0.2419789880514145,0.21678079664707184,0.19677497446537018
1696081824330753300,2.134753173828125,0.010919216088950634,-0.45150578022003174,0.2621375620365143
1696081824340753400,2.14475341796875,0.1471421718597412,-0.9841802716255188,0.26335927844047546
1696081824350753300,2.154753173828125,0.19967657327651978,-1.2767847776412964,0.1753946840763092
1696081824360753400,2.16475341796875,0.20578522980213165,-1.3207670450210571,0.044058654457330704
1696081824370753300,2.174753173828125,0.18440493941307068,-1.2291371822357178,-0.08055785298347473
1696081824380753400,2.18475341796875,0.14042264223098755,-1.0580949783325195,-0.16668985784053802
1696081824390753300,2.194753173828125,0.08972083032131195,-0.7960337996482849,-0.2289981096982956
1696081824400753400,2.20475341796875,0.053068917244672775,-0.6158285140991211,-0.27175867557525635
1696081824410753300,2.214753173828125,0.005421428941190243,-0.5046510696411133,-0.25526532530784607
1696081824420753400,2.22475341796875,-0.03611740842461586,-0.3329979181289673,-0.19478964805603027
1696081824430753300,2.234753173828125,-0.06604980677366257,-0.12163854390382767,-0.11843150109052658
1696081824440753400,2.24475341796875,-0.07154759019613266,0.04818199574947357,-0.03901901841163635
1696081824450753300,2.254753173828125,-0.05688682571053505,0.15080735087394714,0.0214566420763731
1696081824460753400,2.26475341796875,-0.02451096847653389,0.17646369338035583,0.052610769867897034
1696081824470753500,2.27475341796875,-0.0006872233934700489,0.1178206354379654,0.03978259861469269
1696081824480753400,2.28475341796875,-0.009239336475729942,0.0164170041680336,-0.008475755341351032
1696081824490753500,2.29475341796875,-0.03856086730957031,-0.10025826096534729,-0.06223189830780029
1696081824500753400,2.30475341796875,-0.07276932150125504,-0.19249890744686127,-0.09766208380460739
1696081824510753300,2.314753173828125,-0.10147999227046967,-0.2260964959859848,-0.10499246418476105
1696081824520753400,2.32475341796875,-0.11186470091342926,-0.18822285532951355,-0.09094256162643433
1696081824530753300,2.334753173828125,-0.10331258177757263,-0.10636691004037857,-0.05367978289723396
1696081824540753400,2.34475341796875,-0.08681922405958176,-0.016569720581173897,-0.007254024967551231
1696081824550753300,2.354753173828125,-0.06849326193332672,0.047571130096912384,0.0342848114669323
1696081824560753400,2.36475341796875,-0.04161519557237625,0.06223189830780029,0.05994115397334099
1696081824570753300,2.374753173828125,-0.01840231567621231,0.026801712810993195,0.0593302883207798
1696081824580753400,2.38475341796875,-0.0012980886967852712,-0.04466952010989189,0.037950001657009125
1696081824590753300,2.394753173828125,0.0188604649156332,-0.12652546167373657,0.00862847175449133
1696081824600753400,2.40475341796875,0.03413209691643715,-0.18394680321216583,-0.013362676836550236
1696081824610753300,2.414753173828125,0.0365755558013916,-0.20777054131031036,-0.02252565510571003
1696081824620753400,2.42475341796875,0.0316886343061924,-0.20288361608982086,-0.023747386410832405
1696081824630753300,2.434753173828125,0.026801712810993195,-0.16806429624557495,-0.024358252063393593
1696081824640753400,2.44475341796875,0.023136520758271217,-0.12591460347175598,-0.02496911771595478
1696081824650753300,2.454753173828125,0.0188604649156332,-0.08865182101726532,-0.02557998150587082
1696081824660753400,2.46475341796875,0.013362676836550236,-0.05994115397334099,-0.029245173558592796
1696081824670753300,2.474753173828125,0.006032294128090143,-0.037339139729738235,-0.035353824496269226
1696081824680753400,2.48475341796875,-0.0012980886967852712,-0.01840231567621231,-0.04268420860171318
1696081824690753300,2.494753173828125,-0.00862847175449133,0.007254024967551231,-0.0567341111600399
1696081824700753400,2.50475341796875,-0.011682798154652119,0.027412578463554382,-0.07872525602579117
1696081824710753300,2.514753173828125,-0.011071932502090931,0.04268420860171318,-0.10682506114244461
1696081824720753400,2.52475341796875,-0.014737123623490334,0.050014592707157135,-0.13553573191165924
1696081824730753500,2.53475341796875,-0.017791450023651123,0.047571130096912384,-0.16668985784053802
1696081824740753400,2.54475341796875,-0.016569720581173897,0.04207334294915199,-0.18929186463356018
1696081824750753500,2.55475341796875,-0.01290452852845192,0.03718642145395279,-0.20945042371749878
1696081824760753400,2.56475341796875,-0.010461067780852318,0.03962988406419754,-0.2241111844778061
1696081824770753300,2.574753173828125,-0.00862847175449133,0.04268420860171318,-0.23144157230854034
1696081824780753400,2.58475341796875,-0.0037415495608001947,0.0316886343061924,-0.22594378888607025
1696081824790753300,2.594753173828125,0.007254024967551231,0.007864889688789845,-0.21067215502262115
1696081824800753400,2.60475341796875,0.01947133056819439,-0.010461067780852318,-0.1935679316520691
1696081824810753300,2.614753173828125,0.032910365611314774,-0.01595885492861271,-0.1837940812110901
1696081824820753400,2.62475341796875,0.04573853686451912,-0.020845776423811913,-0.1825723499059677
1696081824830753300,2.634753173828125,0.0567341111600399,-0.037339139729738235,-0.18440493941307068
1696081824840753400,2.64475341796875,0.06589708477258682,-0.06604980677366257,-0.18501581251621246
1696081824850753300,2.654753173828125,0.0671188160777092,-0.09353873878717422,-0.17951802909374237
1696081824860753400,2.66475341796875,0.06406449526548386,-0.11186470091342926,-0.1727984994649887
1696081824870753300,2.674753173828125,0.06223189830780029,-0.11919508129358292,-0.168522447347641
1696081824880753400,2.68475341796875,0.06223189830780029,-0.11614075303077698,-0.1636355221271515
1696081824890753300,2.694753173828125,0.06406449526548386,-0.1198059469461441,-0.15691600739955902
1696081824900753400,2.70475341796875,0.06589708477258682,-0.14179709553718567,-0.1428661048412323
1696081824910753300,2.714753173828125,0.07811439037322998,-0.16867516934871674,-0.13125966489315033
1696081824920753400,2.72475341796875,0.10132727026939392,-0.18150334060192108,-0.12942707538604736
1696081824930753300,2.734753173828125,0.13614659011363983,-0.1760055422782898,-0.1428661048412323
1696081824940753400,2.74475341796875,0.16730071604251862,-0.16134478151798248,-0.16058120131492615
1696081824950753300,2.754753173828125,0.18562667071819305,-0.14240795373916626,-0.17035505175590515
1696081824960753400,2.76475341796875,0.19723311066627502,-0.1100321039557457,-0.1727984994649887
1696081824970753500,2.77475341796875,0.20700696110725403,-0.05749769136309624,-0.17157678306102753
1696081824980753400,2.78475341796875,0.21494820713996887,0.006643159314990044,-0.18073976039886475
1696081824990753500,2.79475341796875,0.2235003262758255,0.05367978289723396,-0.20212003588676453
1696081825000753400,2.80475341796875,0.218613401055336,0.06345362961292267,-0.22472205758094788
1696081825010753500,2.81475341796875,0.19906571507453918,0.03352123126387596,-0.23510676622390747
1696081825020753400,2.82475341796875,0.17218764126300812,0.004199698567390442,-0.23571762442588806
1696081825030753300,2.834753173828125,0.14469870924949646,-0.0019089538836851716,-0.23205243051052094
1696081825040753400,2.84475341796875,0.12331841886043549,0.014584408141672611,-0.23083069920539856
1696081825050753300,2.854753173828125,0.1025490015745163,0.03901901841163635,-0.23205243051052094
1696081825060753400,2.86475341796875,0.07933612167835236,0.04329507425427437,-0.22655464708805084
1696081825070753300,2.874753173828125,0.04085161164402962,0.013362676836550236,-0.21006128191947937
1696081825080753400,2.88475341796875,-0.00985020212829113,-0.04161519557237625,-0.1880701333284378
1696081825090753300,2.894753173828125,-0.06727153807878494,-0.13324497640132904,-0.16424639523029327
1696081825100753400,2.90475341796875,-0.11430815607309341,-0.2303725630044937,-0.14347697794437408
1696081825110753300,2.914753173828125,-0.13813190162181854,-0.31589367985725403,-0.10987938940525055
1696081825120753400,2.92475341796875,-0.14240795373916626,-0.3916409909725189,-0.07444920390844345
1696081825130753300,2.934753173828125,-0.1308015137910843,-0.46189048886299133,-0.041462477296590805
1696081825140753400,2.94475341796875,-0.11919508129358292,-0.5162574648857117,-0.020693060010671616
1696081825150753300,2.954753173828125,-0.0947604700922966,-0.538859486579895,-0.009086620062589645
1696081825160753400,2.96475341796875,-0.05871942266821861,-0.5193118453025818,-0.006643159314990044
1696081825170753300,2.974753173828125,-0.002519819187000394,-0.4899902939796448,-0.01702786795794964
1696081825180753400,2.98475341796875,0.07322747260332108,-0.4728860557079315,-0.02496911771595478
1696081825190753300,2.994753173828125,0.14103351533412933,-0.4594470262527466,-0.017638733610510826
1696081825200753400,3.00475341796875,0.18623754382133484,-0.4282929003238678,-0.0029779679607599974
1696081825210753300,3.014753173828125,0.2033417671918869,-0.3769802153110504,0.007406740915030241
1696081825220753400,3.02475341796875,0.20456349849700928,-0.3311653137207031,0.0037415495608001947
1696081825230753500,3.03475341796875,0.19112446904182434,-0.27863091230392456,-0.017638733610510826
1696081825240753400,3.04475341796875,0.17096590995788574,-0.23770293593406677,-0.058566704392433167
1696081825250753500,3.05475341796875,0.15019649267196655,-0.22853995859622955,-0.11049024760723114
1696081825260753400,3.06475341796875,0.14103351533412933,-0.2517528533935547,-0.16424639523029327
1696081825270753300,3.074753173828125,0.13920091092586517,-0.2816852331161499,-0.21250474452972412
1696081825280753400,3.08475341796875,0.11415544152259827,-0.30978503823280334,-0.23693935573101044
1696081825290753300,3.094753173828125,0.0921642929315567,-0.3232240676879883,-0.2436588704586029
1696081825300753400,3.10475341796875,0.04512767121195793,-0.34093916416168213,-0.25221097469329834
1696081825310753300,3.114753173828125,0.010919216088950634,-0.30550897121429443,-0.27603474259376526
1696081825320753400,3.12475341796875,0.004199698567390442,-0.21998783946037292,-0.3200170397758484
1696081825330753300,3.134753173828125,0.02863430790603161,-0.1149190217256546,-0.3652210533618927
1696081825340753400,3.14475341796875,0.07383833825588226,-0.04283692687749863,-0.4018729627132416
1696081825350753300,3.154753173828125,0.12209668755531311,-0.012293662875890732,-0.43302708864212036
1696081825360753400,3.16475341796875,0.16546812653541565,-0.0031306843739002943,-0.4507421851158142
1696081825370753300,3.174753173828125,0.19540052115917206,-0.007406740915030241,-0.4556291103363037
1696081825380753400,3.18475341796875,0.21739166975021362,-0.01840231567621231,-0.4556291103363037
1696081825390753300,3.194753173828125,0.23571762442588806,-0.03611740842461586,-0.4556291103363037
1696081825400753400,3.20475341796875,0.25587618350982666,-0.06910412758588791,-0.45807257294654846
1696081825410753300,3.214753173828125,0.28764116764068604,-0.11797334998846054,-0.4721224904060364
1696081825420753400,3.22475341796875,0.32246050238609314,-0.18272507190704346,-0.48922669887542725
1696081825430753300,3.234753173828125,0.3499494194984436,-0.2658027410507202,-0.5002222657203674
1696081825440753400,3.24475341796875,0.368886262178421,-0.3623194396495819,-0.4953353703022003
1696081825450753300,3.254753173828125,0.38171443343162537,-0.45089492201805115,-0.4617377817630768
1696081825460753400,3.26475341796875,0.3969860374927521,-0.5083162188529968,-0.40309470891952515
1696081825470753500,3.27475341796875,0.41897720098495483,-0.5272530913352966,-0.33284521102905273
1696081825480753400,3.28475341796875,0.43302708864212036,-0.5229769945144653,-0.24304801225662231
1696081825490753500,3.29475341796875,0.4165337383747101,-0.5260313153266907,-0.13675746321678162
1696081825500753400,3.30475341796875,0.3762166202068329,-0.558407187461853,-0.035353824496269226
1696081825510753300,3.314753173828125,0.33284521102905273,-0.6207154393196106,0.025121834129095078
1696081825520753400,3.32475341796875,0.3090214431285858,-0.6976844668388367,0.022678371518850327
1696081825530753300,3.334753173828125,0.31146490573883057,-0.7935903072357178,-0.027412578463554382
1696081825540753400,3.34475341796875,0.3255148231983185,-0.8852201104164124,-0.07383833825588226
1696081825550753300,3.354753173828125,0.3132975101470947,-0.9408088326454163,-0.07567093521356583
1696081825560753400,3.36475341796875,0.24549147486686707,-0.8986591100692749,-0.032910365611314774
1696081825570753300,3.374753173828125,0.13553573191165924,-0.739223301410675,0.05749769136309624
1696081825580753400,3.38475341796875,0.01702786795794964,-0.4747186601161957,0.19494237005710602
1696081825590753300,3.394753173828125,-0.07765624672174454,-0.14240795373916626,0.3580434024333954
1696081825600753400,3.40475341796875,-0.14790575206279755,0.15141822397708893,0.5040401816368103
1696081825610753300,3.414753173828125,-0.2254856377840042,0.3505602777004242,0.5981134176254272
1696081825620753400,3.42475341796875,-0.3733150362968445,0.43791401386260986,0.6537021994590759
1696081825630753300,3.434753173828125,-0.5797874927520752,0.41103595495224,0.711123526096344
1696081825640753400,3.44475341796875,-0.7819838523864746,0.3261256814002991,0.8290205001831055
1696081825650753300,3.454753173828125,-0.9634108543395996,0.24976752698421478,1.052597165107727
1696081825660753400,3.46475341796875,-1.1454486846923828,0.1483639031648636,1.3800209760665894
1696081825670753300,3.474753173828125,-1.3225996494293213,-0.03061962127685547,1.7929658889770508
1696081825680753400,3.48475341796875,-1.4850897789001465,-0.3867540657520294,2.2639429569244385
1696081825690753300,3.494753173828125,-1.605430245399475,-0.9609673619270325,2.6854400634765625
1696081825700753400,3.50475341796875,-1.6292539834976196,-1.5999324321746826,2.924899101257324
1696081825710753300,3.514753173828125,-1.5583935976028442,-2.066633462905884,2.8894689083099365
1696081825720753400,3.52475341796875,-1.4148402214050293,-2.298762321472168,2.612136125564575
1696081825730753500,3.53475341796875,-1.2193633317947388,-2.237675666809082,2.209575891494751
1696081825740753400,3.54475341796875,-1.0556515455245972,-1.9896644353866577,1.8186222314834595
1696081825750753500,3.55475341796875,-0.9536370038986206,-1.744707465171814,1.546787142753601
1696081825760753400,3.56475341796875,-0.8864418268203735,-1.5962672233581543,1.3708579540252686
1696081825770753300,3.574753173828125,-0.8650615215301514,-1.548008918762207,1.2694543600082397
1696081825780753400,3.58475341796875,-0.9127090573310852,-1.5302938222885132,1.1900418996810913
1696081825790753300,3.594753173828125,-1.02327561378479,-1.6261996030807495,1.1283444166183472
1696081825800753400,3.60475341796875,-1.1478921175003052,-1.6384168863296509,1.052597165107727
1696081825810753300,3.614753173828125,-1.2462414503097534,-1.3158800601959229,0.872391939163208
1696081825820753400,3.62475341796875,-1.3427581787109375,-0.7276168465614319,0.607276439666748
1696081825830753300,3.634753173828125,-1.4313336610794067,-0.19005544483661652,0.38064539432525635
1696081825840753400,3.64475341796875,-1.5357916355133057,0.16424639523029327,0.24564418196678162
1696081825850753300,3.654753173828125,-1.6591863632202148,0.36644279956817627,0.23831380903720856
1696081825860753400,3.66475341796875,-1.7300467491149902,0.38782307505607605,0.3812562823295593
1696081825870753300,3.674753173828125,-1.7141642570495605,0.2131156176328659,0.6237697601318359
1696081825880753400,3.68475341796875,-1.6512451171875,0.030466904863715172,0.8015315532684326
1696081825890753300,3.694753173828125,-1.5913803577423096,-0.0544433668255806,0.8785005807876587
1696081825900753400,3.70475341796875,-1.5040265321731567,0.16730071604251862,0.9182068109512329
1696081825910753300,3.714753173828125,-1.365360140800476,0.4977788031101227,0.9805150628089905
1696081825920753400,3.72475341796875,-1.2010374069213867,0.8361981511116028,1.0434341430664062
1696081825930753300,3.734753173828125,-1.0379364490509033,1.1397981643676758,1.0751992464065552
1696081825940753400,3.74475341796875,-0.8797222971916199,1.4226287603378296,1.0562623739242554
1696081825950753300,3.754753173828125,-0.7373906970024109,1.6462054252624512,1.0073931217193604
1696081825960753400,3.76475341796875,-0.6127741932868958,1.7256180047988892,0.9359219074249268
1696081825970753500,3.77475341796875,-0.4930446147918701,1.6199382543563843,0.8400160670280457
1696081825980753400,3.78475341796875,-0.37575846910476685,1.3786464929580688,0.719675600528717
1696081825990753500,3.79475341796875,-0.2523637115955353,1.0915398597717285,0.5883395671844482
1696081826000753400,3.80475341796875,-0.12652546167373657,0.8111526966094971,0.43623414635658264
1696081826010753000,3.8147529296875,-0.017180584371089935,0.582689106464386,0.2560288906097412
1696081826020753200,3.824753173828125,0.08116871863603592,0.48433977365493774,0.06055201590061188
1696081826030753000,3.8347529296875,0.17218764126300812,0.4415792226791382,-0.1324813961982727
1696081826040753200,3.844753173828125,0.27298039197921753,0.3749949038028717,-0.31635183095932007
1696081826050753000,3.8547529296875,0.39209914207458496,0.27786731719970703,-0.4904484450817108
1696081826060753200,3.864753173828125,0.4971679449081421,0.16730071604251862,-0.6590472459793091
1696081826070753000,3.8747529296875,0.553978443145752,0.06284276396036148,-0.8252025842666626
1696081826080753200,3.884753173828125,0.5362633466720581,-0.04711298272013664,-0.9803623557090759
1696081826090753000,3.8947529296875,0.4617377817630768,-0.14790575206279755,-1.0854312181472778
1696081826100753000,3.9047529296875,0.36277759075164795,-0.2254856377840042,-1.1202504634857178
1696081826110753000,3.9147529296875,0.27175867557525635,-0.23281601071357727,-1.0952050685882568
1696081826120753000,3.9247529296875,0.1929570585489273,-0.09414960443973541,-1.0548878908157349
1696081826130753000,3.9347529296875,0.14408783614635468,0.2894737720489502,-1.0414488315582275
1696081826140753000,3.9447529296875,0.12454015016555786,0.8160396218299866,-0.9357692003250122
1696081826150753000,3.9547529296875,0.053068917244672775,1.2784645557403564,-0.6388887166976929
1696081826160753000,3.9647529296875,-0.16684256494045258,1.439122200012207,-0.20945042371749878
1696081826170753000,3.9747529296875,-0.4985423982143402,1.2399801015853882,0.20960313081741333
1696081826180753000,3.9847529296875,-0.6934084296226501,0.9162214994430542,0.47655123472213745
1696081826190753000,3.9947529296875,-0.6970735788345337,0.695699155330658,0.4991532564163208
1696081826200753000,4.0047529296875,-0.6457608938217163,0.601625919342041,0.3116176426410675
1696081826210753000,4.0147529296875,-0.5797874927520752,0.6187301278114319,0.02756529487669468
1696081826220753200,4.024753173828125,-0.439288467168808,0.7329619526863098,-0.2137264758348465
1696081826230753000,4.0347529296875,-0.20715968310832977,0.7812203168869019,-0.37316229939460754
1696081826240753200,4.044753173828125,0.009697485715150833,0.439746618270874,-0.5173265337944031
1696081826250753000,4.0547529296875,0.15202908217906952,-0.19677497446537018,-0.7586182951927185
1696081826260753200,4.064753173828125,0.22655464708805084,-0.7575492858886719,-1.0328967571258545
1696081826270753000,4.0747529296875,0.19540052115917206,-0.8980482816696167,-1.1385765075683594
1696081826280753200,4.084753173828125,-0.00985020212829113,-0.7703774571418762,-0.8752935528755188
1696081826290753000,4.0947529296875,-0.2877938747406006,-0.8284096121788025,-0.30169108510017395
1696081826300753200,4.104753173828125,-0.37087157368659973,-1.4508813619613647,0.25480717420578003
1696081826310753300,4.114753173828125,-0.19799669086933136,-1.659797191619873,0.6286566853523254
1696081826320753400,4.12475341796875,0.10499246418476105,-0.880944013595581,0.7453319430351257
1696081826330753300,4.134753173828125,0.368886262178421,0.0823904499411583,0.5761222839355469
1696081826340753400,4.14475341796875,0.5203808546066284,0.6993643641471863,0.23281601071357727
1696081826350753300,4.154753173828125,0.6223953366279602,0.7616726160049438,-0.09827294945716858
1696081826360753400,4.16475341796875,0.8154287338256836,0.3646101951599121,-0.2900846302509308
1696081826370753300,4.174753173828125,1.1098657846450806,-0.1863902509212494,-0.38171443343162537
1696081826380753400,4.18475341796875,1.3933072090148926,-0.7471645474433899,-0.4922810196876526
1696081826390753300,4.194753173828125,1.568625569343567,-1.2187525033950806,-0.6529386043548584
1696081826400753400,4.20475341796875,1.5808428525924683,-1.4295010566711426,-0.8649088144302368
1696081826410753300,4.214753173828125,1.4733306169509888,-1.3604732751846313,-1.1666762828826904
1696081826420753400,4.22475341796875,1.321835994720459,-1.0617601871490479,-1.5197563171386719
1696081826430753300,4.234753173828125,1.2289844751358032,-0.6451500654220581,-1.8538997173309326
1696081826440753400,4.24475341796875,1.227151870727539,-0.2810743749141693,-2.0860283374786377
1696081826450753300,4.254753173828125,1.2778537273406982,-0.20288361608982086,-2.1385629177093506
1696081826460753400,4.26475341796875,1.321835994720459,-0.42096251249313354,-1.9375882148742676
1696081826470753500,4.27475341796875,1.314505696296692,-0.6848562955856323,-1.5252541303634644
1696081826480753400,4.28475341796875,1.2668581008911133,-0.7270060181617737,-1.0408380031585693
1696081826490753500,4.29475341796875,1.199052095413208,-0.45517095923423767,-0.6614906787872314
1696081826500753400,4.30475341796875,1.125137448310852,0.020693060010671616,-0.46784642338752747
1696081826510753300,4.314753173828125,1.0640509128570557,0.5295438170433044,-0.439746618270874
1696081826520753400,4.32475341796875,1.0237337350845337,0.9376018047332764,-0.4873940944671631
1696081826530753300,4.334753173828125,0.9803623557090759,1.150182843208313,-0.5258786082267761
1696081826540753400,4.34475341796875,0.8820130825042725,1.0573313236236572,-0.5613088011741638
1696081826550753300,4.354753173828125,0.7647269368171692,0.7140251398086548,-0.6022367477416992
1696081826560753400,4.36475341796875,0.6834818720817566,0.2583196461200714,-0.6584363579750061
1696081826570753300,4.374753173828125,0.6602689623832703,-0.16195565462112427,-0.743346631526947
1696081826580753400,4.38475341796875,0.6773731708526611,-0.42523857951164246,-0.8539132475852966
1696081826590753300,4.394753173828125,0.6969208717346191,-0.5828418135643005,-0.9644798636436462
1696081826600753400,4.40475341796875,0.6834818720817566,-0.6506478190422058,-1.0787116289138794
1696081826610753300,4.414753173828125,0.6578255295753479,-0.6390414237976074,-1.1569024324417114
1696081826620753400,4.42475341796875,0.6486625075340271,-0.5620723962783813,-1.180726170539856
1696081826630753300,4.434753173828125,0.6590472459793091,-0.47716212272644043,-1.152626395225525
1696081826640753400,4.44475341796875,0.6566037535667419,-0.36415204405784607,-1.0603857040405273
1696081826650753300,4.454753173828125,0.5973498225212097,-0.17722727358341217,-0.8899543285369873
1696081826660753400,4.46475341796875,0.4904484450817108,0.04512767121195793,-0.6926448345184326
1696081826670753300,4.474753173828125,0.3811035454273224,0.2039526402950287,-0.5460371971130371
1696081826680753400,4.48475341796875,0.3139083683490753,0.19112446904182434,-0.5057200789451599
1696081826690753300,4.494753173828125,0.2949715554714203,0.02802344225347042,-0.5680283308029175
1696081826700753400,4.50475341796875,0.31757357716560364,-0.1753946840763092,-0.6779840588569641
1696081826710753300,4.514753173828125,0.36338844895362854,-0.3220023512840271,-0.7836637496948242
1696081826720753400,4.52475341796875,0.4409683346748352,-0.40019309520721436,-0.8429176807403564
1696081826730753800,4.53475390625,0.5552001595497131,-0.4838816225528717,-0.8313112258911133
1696081826740754000,4.54475390625,0.6798166632652283,-0.6249914765357971,-0.7274641394615173
1696081826750753800,4.55475390625,0.7714464664459229,-0.7770969271659851,-0.534430742263794
1696081826760754000,4.56475390625,0.8245916962623596,-0.9047678112983704,-0.30169108510017395
1696081826770753800,4.57475390625,0.8893434405326843,-0.9835693836212158,-0.05429064854979515
1696081826780754000,4.58475390625,0.9742537140846252,-0.9267589449882507,0.216322660446167
1696081826790753800,4.59475390625,1.0151816606521606,-0.6292675733566284,0.5034292936325073
1696081826800754000,4.60475390625,0.9614255428314209,-0.15401439368724823,0.7245625257492065
1696081826810753800,4.61475390625,0.8258134722709656,0.1734093725681305,0.6872997879981995
1696081826820754000,4.62475390625,0.6413321495056152,-0.037950001657009125,0.2725222706794739
1696081826830753800,4.63475390625,0.3340669274330139,-0.5419138073921204,-0.23755022883415222
1696081826840754000,4.64475390625,-0.040393464267253876,-0.9744064211845398,-0.4318053722381592
1696081826850753800,4.65475390625,-0.35926511883735657,-1.0739774703979492,-0.16607898473739624
1696081826860754000,4.66475390625,-0.6469826698303223,-0.8516225218772888,0.43195807933807373
1696081826870753800,4.67475390625,-0.9768499135971069,-0.5046510696411133,1.0953577756881714
1696081826880754000,4.68475390625,-1.2969433069229126,-0.25480717420578003,1.6042084693908691
1696081826890753800,4.69475390625,-1.5168547630310059,-0.23281601071357727,1.8583284616470337
1696081826900754000,4.70475390625,-1.652466893196106,-0.31894803047180176,1.9823341369628906
1696081826910753800,4.71475390625,-1.7899115085601807,-0.2511419653892517,2.1216113567352295
1696081826920754000,4.72475390625,-1.9969948530197144,-0.010461067780852318,2.284712314605713
1696081826930753800,4.73475390625,-2.2114086151123047,0.18012888729572296,2.402609348297119
1696081826940754000,4.74475390625,-2.3818399906158447,0.17524196207523346,2.435595989227295
1696081826950753800,4.75475390625,-2.513786792755127,-0.13935363292694092,2.3946681022644043
1696081826960754000,4.76475390625,-2.552882194519043,-0.7135669589042664,2.345798969268799
1696081826970753800,4.77475390625,-2.405052900314331,-1.1979831457138062,2.287155866622925
1696081826980754000,4.78475390625,-2.1026744842529297,-1.4826463460922241,2.150932788848877
1696081826990753800,4.79475390625,-1.7172185182571411,-1.548008918762207,1.9499582052230835
1696081827000754000,4.80475390625,-1.373301386833191,-1.4411075115203857,1.6817883253097534
1696081827010753500,4.81475341796875,-1.1381182670593262,-1.2102004289627075,1.327486515045166
1696081827020753400,4.82475341796875,-1.0458776950836182,-0.9377545118331909,0.9634108543395996
1696081827030753000,4.8347529296875,-1.1063532829284668,-0.6475934982299805,0.6683629155158997
1696081827040753000,4.8447529296875,-1.2572370767593384,-0.45578181743621826,0.5449681282043457
1696081827050753000,4.8547529296875,-1.4478269815444946,-0.4130212664604187,0.5968917012214661
1696081827060753000,4.8647529296875,-1.6512451171875,-0.3885866403579712,0.7563275098800659
1696081827070753000,4.8747529296875,-1.804572343826294,-0.34460434317588806,0.8980482816696167
1696081827080753000,4.8847529296875,-1.887039065361023,-0.1906663179397583,0.9200394153594971
1696081827090753000,4.8947529296875,-1.88154137134552,0.18440493941307068,0.8216901421546936
1696081827100753000,4.9047529296875,-1.8174004554748535,0.5570327639579773,0.7239516973495483
1696081827110753000,4.9147529296875,-1.6842318773269653,0.7818311452865601,0.6940192580223083
1696081827120753000,4.9247529296875,-1.5144113302230835,0.7952702045440674,0.7044039964675903
1696081827130753000,4.9347529296875,-1.345812439918518,0.724409818649292,0.7147886753082275
1696081827140753000,4.9447529296875,-1.1888201236724854,0.734794557094574,0.7251734137535095
1696081827150753000,4.9547529296875,-1.059316635131836,0.8496372103691101,0.7123452425003052
1696081827160753000,4.9647529296875,-0.9634108543395996,0.9559277296066284,0.662254273891449
1696081827170753000,4.9747529296875,-0.8846092224121094,1.0335075855255127,0.6023895144462585
1696081827180753000,4.9847529296875,-0.7990881204605103,1.1226940155029297,0.5358051657676697
1696081827190753000,4.9947529296875,-0.7056257128715515,1.244866967201233,0.43684500455856323
1696081827200753000,5.0047529296875,-0.6005569100379944,1.3395510911941528,0.2975677251815796
1696081827210753000,5.0147529296875,-0.4832707643508911,1.31206214427948,0.13324497640132904
1696081827220753200,5.024753173828125,-0.33421963453292847,1.1593458652496338,-0.020693060010671616
1696081827230753000,5.0347529296875,-0.15462526679039001,0.9766971468925476,-0.17096590995788574
1696081827240753200,5.044753173828125,0.04940372705459595,0.847193717956543,-0.3340669274330139
1696081827250753000,5.0547529296875,0.2650391459465027,0.7916049957275391,-0.5002222657203674
1696081827260753200,5.064753173828125,0.48922669887542725,0.7604508996009827,-0.6596581339836121
1696081827270753000,5.0747529296875,0.7085273265838623,0.6963100433349609,-0.8276460766792297
1696081827280753000,5.0847529296875,0.9211084246635437,0.5997933149337769,-0.9950231313705444
1696081827290753000,5.0947529296875,1.1049789190292358,0.4965570867061615,-1.1758391857147217
1696081827300753000,5.1047529296875,1.200273871421814,0.42386412620544434,-1.3926963806152344
1696081827310753300,5.114753173828125,1.1477394104003906,0.391488254070282,-1.617494821548462
1696081827320753400,5.12475341796875,0.9687559008598328,0.47334420680999756,-1.7066811323165894
1696081827330753300,5.134753173828125,0.6639341711997986,0.7073056101799011,-1.525865077972412
1696081827340753400,5.14475341796875,0.2998584806919098,1.0011317729949951,-1.229595422744751
1696081827350753300,5.154753173828125,0.0188604649156332,1.208825945854187,-1.0976485013961792
1696081827360753400,5.16475341796875,-0.09781479835510254,1.2864058017730713,-1.0493900775909424
1696081827370753300,5.174753173828125,-0.21021400392055511,0.9858601689338684,-0.620562732219696
1696081827380753400,5.18475341796875,-0.4887685477733612,0.5209916830062866,0.2358703464269638
1696081827390753300,5.194753173828125,-0.7465536594390869,0.18562667071819305,0.8149706125259399
1696081827400753400,5.20475341796875,-0.7844273447990417,-0.13324497640132904,0.8962156772613525
1696081827410753300,5.214753173828125,-0.6860780119895935,-0.38431060314178467,0.6616434454917908
1696081827420753400,5.22475341796875,-0.5223661661148071,-0.47716212272644043,0.33910655975341797
1696081827430753300,5.234753173828125,-0.2914590835571289,-0.5211443901062012,0.06788240373134613
1696081827440753400,5.24475341796875,0.015806138515472412,-0.6683629155158997,-0.10560332983732224
1696081827450753300,5.254753173828125,0.3084105849266052,-0.862618088722229,-0.2534327208995819
1696081827460753400,5.26475341796875,0.420809805393219,-1.1814897060394287,-0.5955172777175903
1696081827470753300,5.274753173828125,0.44829872250556946,-1.4288901090621948,-0.9131671786308289
1696081827480753400,5.28475341796875,0.49472448229789734,-1.1692724227905273,-0.904615044593811
1696081827490753300,5.294753173828125,0.44890961050987244,-0.9475283622741699,-0.5417611002922058
1696081827500753400,5.30475341796875,0.29619327187538147,-1.0495429039001465,-0.04207334294915199
1696081827510753300,5.314753173828125,0.3554472029209137,-1.4380531311035156,0.1308015137910843
1696081827520753400,5.32475341796875,0.5863542556762695,-1.6671276092529297,0.2603049576282501
1696081827530753300,5.334753173828125,0.8416959643363953,-1.1436160802841187,0.3562107980251312
1696081827540753400,5.34475341796875,0.9809732437133789,-0.30001118779182434,0.30856332182884216
1696081827550753300,5.354753173828125,0.9931905269622803,0.24488060176372528,0.15645785629749298
1696081827560753400,5.36475341796875,1.0060187578201294,0.33223432302474976,-0.020082194358110428
1696081827570752500,5.37475244140625,1.0884854793548584,0.08972083032131195,-0.168522447347641
1696081827580752400,5.38475244140625,1.2204324007034302,-0.25786149501800537,-0.2858085632324219
1696081827590752500,5.39475244140625,1.334664225578308,-0.5504659414291382,-0.4104250967502594
1696081827600752400,5.40475244140625,1.4342352151870728,-0.6927975416183472,-0.601015031337738
1696081827610752500,5.41475244140625,1.5057064294815063,-0.672639012336731,-0.904615044593811
1696081827620752400,5.42475244140625,1.5362497568130493,-0.4979315400123596,-1.2601386308670044
1696081827630752500,5.43475244140625,1.5234215259552002,-0.24258986115455627,-1.6083317995071411
1696081827640752400,5.44475244140625,1.5026521682739258,-0.020234910771250725,-1.8826103210449219
1696081827650752500,5.45475244140625,1.4879913330078125,0.06650795042514801,-2.0182223320007324
1696081827660752400,5.46475244140625,1.4647785425186157,-0.04833471402525902,-1.9717966318130493
1696081827670752500,5.47475244140625,1.4043028354644775,-0.30978503823280334,-1.7622698545455933
1696081827680752400,5.48475244140625,1.2815189361572266,-0.5083162188529968,-1.4433982372283936
1696081827690752500,5.49475244140625,1.0988701581954956,-0.4637230932712555,-1.102535367012024
1696081827700752400,5.50475244140625,0.915610671043396,-0.13385584950447083,-0.8032114505767822
1696081827710752500,5.51475244140625,0.7885506749153137,0.3951534628868103,-0.5955172777175903
1696081827720752400,5.52475244140625,0.6987534761428833,0.8429176807403564,-0.5057200789451599
1696081827730752500,5.53475244140625,0.6168975234031677,1.0854312181472778,-0.4763985276222229
1696081827740752400,5.54475244140625,0.5576435923576355,1.1361329555511475,-0.4556291103363037
1696081827750752500,5.55475244140625,0.524046003818512,0.9883036017417908,-0.44829872250556946
1696081827760752400,5.56475244140625,0.5374850630760193,0.6443864703178406,-0.5161047577857971
1696081827770752500,5.57475244140625,0.601625919342041,0.25221097469329834,-0.6462190747261047
1696081827780752400,5.58475244140625,0.6682102084159851,-0.08376489579677582,-0.8386416435241699
1696081827790752500,5.59475244140625,0.6993643641471863,-0.32994359731674194,-1.0426706075668335
1696081827800752400,5.60475244140625,0.6834818720817566,-0.4032474160194397,-1.2057716846466064
1696081827810752500,5.61475244140625,0.6095671653747559,-0.377591073513031,-1.3407728672027588
1696081827820752400,5.62475244140625,0.562530517578125,-0.3519347310066223,-1.4018594026565552
1696081827830752500,5.63475244140625,0.5949063897132874,-0.31039589643478394,-1.3010666370391846
1696081827840752400,5.64475244140625,0.6596581339836121,-0.17356209456920624,-1.0182360410690308
1696081827850752500,5.65475244140625,0.6553820371627808,-0.03367394581437111,-0.6529386043548584
1696081827860752400,5.66475244140625,0.552756667137146,-0.05627596005797386,-0.3792709708213806
1696081827870753300,5.674753173828125,0.4366922974586487,-0.1698969006538391,-0.31085404753685
1696081827880753400,5.68475341796875,0.38843393325805664,-0.24442245066165924,-0.4153120219707489
1696081827890753300,5.694753173828125,0.43302708864212036,-0.24442245066165924,-0.5380959510803223
1696081827900753400,5.70475341796875,0.5454263091087341,-0.20899227261543274,-0.6022367477416992
1696081827910753300,5.714753173828125,0.6853144764900208,-0.18455766141414642,-0.61139976978302
1696081827920753400,5.72475341796875,0.8044331669807434,-0.20777054131031036,-0.5887977480888367
1696081827930753300,5.734753173828125,0.8838456273078918,-0.2963460087776184,-0.5301546454429626
1696081827940753400,5.74475341796875,0.9217193126678467,-0.39591702818870544,-0.4116468131542206
1696081827950753300,5.754753173828125,0.9363800883293152,-0.4093560576438904,-0.2180025279521942
1696081827960753400,5.76475341796875,0.9278279542922974,-0.28840476274490356,0.007406740915030241
1696081827970753300,5.774753173828125,0.8777369856834412,-0.11736248433589935,0.19860756397247314
1696081827980753400,5.78475341796875,0.7861071825027466,-0.041004329919815063,0.277409166097641
1696081827990753300,5.794753173828125,0.6547712087631226,-0.1808924674987793,0.18333593010902405
1696081828000753400,5.80475341796875,0.46295949816703796,-0.47655123472213745,-0.04634939879179001
1696081828010753300,5.814753173828125,0.22288945317268372,-0.7563275098800659,-0.24060454964637756
1696081828020753400,5.82475341796875,0.004810563754290342,-0.8998808860778809,-0.23632849752902985
1696081828030753300,5.834753173828125,-0.17844900488853455,-0.8314639329910278,0.004963280167430639
1696081828040753400,5.84475341796875,-0.3482695519924164,-0.5700136423110962,0.4026365578174591
1696081828050753300,5.854753173828125,-0.5064836740493774,-0.2719113826751709,0.8375726342201233
1696081828060753400,5.86475341796875,-0.6286566853523254,-0.06604980677366257,1.2077569961547852
1696081828070753300,5.874753173828125,-0.7153995633125305,0.09277515858411789,1.496085286140442
1696081828080753400,5.88475341796875,-0.8381834626197815,0.23021984100341797,1.7471510171890259
1696081828090753300,5.894753173828125,-1.0794752836227417,0.36705365777015686,1.9578994512557983
1696081828100753400,5.90475341796875,-1.469818115234375,0.5057200789451599,2.1356613636016846
1696081828110753300,5.914753173828125,-1.9304105043411255,0.5509241223335266,2.27616024017334
1696081828120753400,5.92475341796875,-2.363513946533203,0.41897720098495483,2.3122012615203857
1696081828130753300,5.934753173828125,-2.6683356761932373,0.026801712810993195,2.2547800540924072
1696081828140753400,5.94475341796875,-2.8027260303497314,-0.5437464118003845,2.1717023849487305
1696081828150753300,5.954753173828125,-2.7385852336883545,-1.0025062561035156,2.103285312652588
1696081828160753400,5.96475341796875,-2.4899630546569824,-1.3445907831192017,2.0794615745544434
1696081828170753300,5.974753173828125,-2.168037176132202,-1.557782769203186,2.0037143230438232
1696081828180753400,5.98475341796875,-1.8650479316711426,-1.6439146995544434,1.7783050537109375
1696081828190753300,5.994753173828125,-1.634751796722412,-1.5290720462799072,1.3366495370864868
1696081828200753400,6.00475341796875,-1.5028048753738403,-1.430722713470459,0.7673230767250061
1696081828210753300,6.014753173828125,-1.5064700841903687,-1.5052483081817627,0.3421608805656433
1696081828220753400,6.02475341796875,-1.584049940109253,-1.4582116603851318,0.2554180324077606
1696081828230753300,6.034753173828125,-1.698892593383789,-1.1723268032073975,0.5315291285514832
1696081828240753400,6.04475341796875,-1.8094592094421387,-0.597502589225769,0.8931613564491272
1696081828250753300,6.054753173828125,-1.8736000061035156,0.16424639523029327,1.1124619245529175
1696081828260753400,6.06475341796875,-1.841224193572998,0.7775551080703735,1.1704941987991333
1696081828270753300,6.074753173828125,-1.7092772722244263,1.017625093460083,1.109407663345337
1696081828280753400,6.08475341796875,-1.5425111055374146,0.8484154939651489,0.9933432340621948
1696081828290753300,6.094753173828125,-1.4172837734222412,0.6077345609664917,0.8949939608573914
1696081828300753400,6.10475341796875,-1.3604732751846313,0.4855615198612213,0.8381834626197815
1696081828310753300,6.114753173828125,-1.3378711938858032,0.5368741750717163,0.8223009705543518
1696081828320753400,6.12475341796875,-1.2932780981063843,0.6755406260490417,0.8412377834320068
1696081828330753300,6.134753173828125,-1.2297481298446655,0.7482335567474365,0.8540659546852112
1696081828340753400,6.14475341796875,-1.1527791023254395,0.7964919209480286,0.8094727993011475
1696081828350753300,6.154753173828125,-1.063592791557312,0.9259953498840332,0.7172321677207947
1696081828360753400,6.16475341796875,-0.9560804963111877,1.1013137102127075,0.5993351340293884
1696081828370753000,6.1747529296875,-0.833296537399292,1.229595422744751,0.48143815994262695
1696081828380753000,6.1847529296875,-0.6989061832427979,1.257695198059082,0.37514761090278625
1696081828390753000,6.1947529296875,-0.5431355834007263,1.210047721862793,0.26824620366096497
1696081828400753000,6.2047529296875,-0.3574325144290924,1.1306352615356445,0.14790575206279755
1696081828410753000,6.2147529296875,-0.1405753642320633,1.0713813304901123,0.00985020212829113
1696081828420753000,6.2247529296875,0.07811439037322998,1.0628291368484497,-0.1532508134841919
1696081828430753000,6.2347529296875,0.28275424242019653,1.0793225765228271,-0.33223432302474976
1696081828440753000,6.2447529296875,0.47395506501197815,1.0603857040405273,-0.5234351754188538
1696081828450753000,6.2547529296875,0.6822600960731506,0.9565386176109314,-0.7207446098327637
1696081828460753000,6.2647529296875,0.9321039915084839,0.7818311452865601,-0.9522625803947449
1696081828470753000,6.2747529296875,1.1850022077560425,0.582078218460083,-1.2399801015853882
1696081828480753200,6.284753173828125,1.3603205680847168,0.44341179728507996,-1.6071101427078247
1696081828490753000,6.2947529296875,1.3957507610321045,0.3694971203804016,-1.9620227813720703
1696081828500753200,6.304753173828125,1.2638038396835327,0.48861584067344666,-1.9858465194702148
1696081828510753000,6.3147529296875,0.9547060132026672,0.875904381275177,-1.5625169277191162
1696081828520753000,6.3247529296875,0.5350415706634521,1.2399801015853882,-1.0835986137390137
1696081828530753000,6.3347529296875,0.14530956745147705,1.3939181566238403,-0.875904381275177
1696081828540753000,6.3447529296875,-0.1698969006538391,1.0768790245056152,-0.6724863052368164
1696081828550753000,6.3547529296875,-0.5217552781105042,0.28092166781425476,-0.059177570044994354
1696081828560753000,6.3647529296875,-0.8253552913665771,-0.6561456322669983,0.5217552781105042
1696081828570753000,6.3747529296875,-0.9096547365188599,-1.5021940469741821,0.6347653269767761
1696081828580753000,6.3847529296875,-0.8033641576766968,-1.956677794456482,0.4179081916809082
1696081828590753000,6.3947529296875,-0.6121633052825928,-1.9243018627166748,0.0746019184589386
1696081828600753000,6.4047529296875,-0.30550897121429443,-1.6188693046569824,-0.17463110387325287
1696081828610753000,6.4147529296875,0.14958561956882477,-1.3085497617721558,-0.1575268805027008
1696081828620753000,6.4247529296875,0.4403574764728546,-0.824133574962616,-0.13614659011363983
1696081828630753000,6.4347529296875,0.4513530433177948,-0.18822285532951355,-0.1734093725681305
1696081828640753000,6.4447529296875,0.34750595688819885,0.5778021812438965,-0.05245805159211159
1696081828650753000,6.4547529296875,0.2180025279521942,1.082987666130066,0.11064296960830688
1696081828660753000,6.4647529296875,0.05978843569755554,0.44341179728507996,-0.005421428941190243
1696081828670753300,6.474753173828125,0.17096590995788574,-0.8357400298118591,-0.18440493941307068
1696081828680753400,6.48475341796875,0.29191723465919495,-1.8949803113937378,-0.11293371021747589
1696081828690753300,6.494753173828125,0.29313895106315613,-2.1020636558532715,0.12224940955638885
1696081828700753400,6.50475341796875,0.3511711657047272,-2.0440313816070557,0.17844900488853455
1696081828710753300,6.514753173828125,0.4421900808811188,-2.0819051265716553,0.022067507728934288
1696081828720753400,6.52475341796875,0.5093852281570435,-1.7092772722244263,-0.2033417671918869
1696081828730753300,6.534753173828125,0.6046802401542664,-0.9310349822044373,-0.3652210533618927
1696081828740753400,6.54475341796875,0.8496372103691101,-0.18883371353149414,-0.3762166202068329
1696081828750753300,6.554753173828125,1.1801153421401978,0.35789066553115845,-0.3242930769920349
1696081828760753400,6.56475341796875,1.436067819595337,0.8032114505767822,-0.38904479146003723
1696081828770753300,6.574753173828125,1.6321555376052856,1.0921506881713867,-0.6602689623832703
1696081828780753400,6.58475341796875,1.7671568393707275,1.1483503580093384,-1.0475575923919678
1696081828790753300,6.594753173828125,1.7647132873535156,1.1648436784744263,-1.387198567390442
1696081828800753400,6.60475341796875,1.6883552074432373,1.2497539520263672,-1.5924493074417114
1696081828810753300,6.614753173828125,1.6535358428955078,1.254640817642212,-1.7677676677703857
1696081828820753400,6.62475341796875,1.616273045539856,1.1037571430206299,-1.8538997173309326
1696081828830753300,6.634753173828125,1.6236034631729126,0.6914231181144714,-1.9821813106536865
1696081828840753400,6.64475341796875,1.619327425956726,0.06895141303539276,-1.9779052734375
1696081828850753300,6.654753173828125,1.5374714136123657,-0.6127741932868958,-1.8178585767745972
1696081828860753400,6.66475341796875,1.3768138885498047,-1.1527791023254395,-1.5276975631713867
1696081828870753300,6.674753173828125,1.1880565881729126,-1.3855187892913818,-1.1788935661315918
1696081828880753400,6.68475341796875,1.0237337350845337,-1.19370698928833,-0.8551349639892578
1696081828890753300,6.694753173828125,0.8930086493492126,-0.6237697601318359,-0.6101779937744141
1696081828900753400,6.70475341796875,0.7561748027801514,0.03352123126387596,-0.4513530433177948
1696081828910753300,6.714753173828125,0.6425538659095764,0.58146733045578,-0.3310126066207886
1696081828920753400,6.72475341796875,0.58146733045578,0.9424887299537659,-0.2387719452381134
1696081828930753300,6.734753173828125,0.5949063897132874,1.0438923835754395,-0.23205243051052094
1696081828940753400,6.74475341796875,0.6761514544487,0.8166504502296448,-0.3969860374927521
1696081828950753300,6.754753173828125,0.7506770491600037,0.3236822187900543,-0.6871470212936401
1696081828960753400,6.76475341796875,0.7751116156578064,-0.09048441797494888,-0.9302713871002197
1696081828970753300,6.774753173828125,0.7616726160049438,-0.38431060314178467,-1.0768790245056152
1696081828980753400,6.78475341796875,0.753731369972229,-0.5333617329597473,-1.0939832925796509
1696081828990753300,6.794753173828125,0.7799985408782959,-0.5180900692939758,-1.0011317729949951
1696081829000753400,6.80475341796875,0.8154287338256836,-0.37942367792129517,-0.8160396218299866
1696081829010753500,6.81475341796875,0.8062657713890076,-0.1705077588558197,-0.5942955017089844
1696081829020753700,6.824753662109375,0.7457901239395142,-0.011682798154652119,-0.4751768112182617
1696081829030753500,6.83475341796875,0.685925304889679,-0.015347989276051521,-0.544204592704773
1696081829040753700,6.844753662109375,0.6511059999465942,-0.16195565462112427,-0.773279070854187
1696081829050753500,6.85475341796875,0.6541603207588196,-0.3018437922000885,-1.0029643774032593
1696081829060753700,6.864753662109375,0.6914231181144714,-0.38431060314178467,-1.0909289121627808
1696081829070753500,6.87475341796875,0.7488444447517395,-0.36964982748031616,-0.9614255428314209
1696081829080753700,6.884753662109375,0.8074874877929688,-0.32078060507774353,-0.6688210964202881
1696081829090753500,6.89475341796875,0.8288677930831909,-0.3378848433494568,-0.34139731526374817
1696081829100753700,6.904753662109375,0.8038222789764404,-0.4221842288970947,-0.07811439037322998
1696081829110753500,6.91475341796875,0.7891615629196167,-0.4838816225528717,0.1350775808095932
1696081829120753700,6.924753662109375,0.8013788461685181,-0.4631122052669525,0.30489811301231384
1696081829130753500,6.93475341796875,0.8044331669807434,-0.36964982748031616,0.4172973334789276
1696081829140753700,6.944753662109375,0.7592291235923767,-0.3018437922000885,0.3934735655784607
1696081829150753500,6.95475341796875,0.6340017914772034,-0.36537376046180725,0.18883371353149414
1696081829160753700,6.964753662109375,0.39271000027656555,-0.5217552781105042,-0.0872773751616478
1696081829170753500,6.97475341796875,0.06345362961292267,-0.6304892897605896,-0.19662225246429443
1696081829180753700,6.984753662109375,-0.29390254616737366,-0.5541311502456665,-0.03718642145395279
1696081829190753500,6.99475341796875,-0.6372088193893433,-0.3672063648700714,0.30978503823280334
1696081829200753700,7.004753662109375,-0.9322566986083984,-0.2303725630044937,0.7190647721290588
1696081829210753500,7.01475341796875,-1.1882092952728271,-0.15890131890773773,1.1155163049697876
1696081829220753700,7.024753662109375,-1.4203380346298218,-0.1558469980955124,1.4789811372756958
1696081829230753500,7.03475341796875,-1.6665167808532715,-0.23709207773208618,1.8051831722259521
1696081829240753700,7.044753662109375,-1.9181932210922241,-0.25480717420578003,2.1020636558532715
1696081829250753500,7.05475341796875,-2.1600959300994873,-0.002519819187000394,2.35190749168396
1696081829260753700,7.064753662109375,-2.408107042312622,0.40309470891952515,2.497293472290039
1696081829270753500,7.07475341796875,-2.6017513275146484,0.6193410158157349,2.5174520015716553
1696081829280753700,7.084753662109375,-2.745915651321411,0.39393171668052673,2.4478135108947754
1696081829290753500,7.09475341796875,-2.814943313598633,-0.2419789880514145,2.343966245651245
1696081829300753700,7.104753662109375,-2.704376697540283,-0.9212611317634583,2.2450060844421387
1696081829310753300,7.114753173828125,-2.4233787059783936,-1.4178946018218994,2.1576523780822754
1696081829320753400,7.12475341796875,-2.052583694458008,-1.6634624004364014,1.9786689281463623
1696081829330753300,7.134753173828125,-1.6860644817352295,-1.6848427057266235,1.68911874294281
1696081829340753400,7.14475341796875,-1.3934600353240967,-1.5767195224761963,1.3452016115188599
1696081829350753300,7.154753173828125,-1.2169198989868164,-1.51868736743927,1.0654253959655762
1696081829360753400,7.16475341796875,-1.1704941987991333,-1.4820353984832764,0.9035460352897644
1696081829370753300,7.174753173828125,-1.2004265785217285,-1.3146584033966064,0.8216901421546936
1696081829380753400,7.18475341796875,-1.2963323593139648,-0.881554901599884,0.7960337996482849
1696081829390753300,7.194753173828125,-1.3934600353240967,-0.3415500223636627,0.7618253231048584
1696081829400753400,7.20475341796875,-1.453324794769287,0.15997034311294556,0.701349675655365
1696081829410753800,7.21475390625,-1.5064700841903687,0.6340017914772034,0.6445391774177551
1696081829420754000,7.22475390625,-1.5266286134719849,1.0353401899337769,0.6323218941688538
1696081829430753800,7.23475390625,-1.5046374797821045,1.2277628183364868,0.662254273891449
1696081829440754000,7.24475390625,-1.4472161531448364,1.1666762828826904,0.7135669589042664
1696081829450753800,7.25475390625,-1.3604732751846313,0.9657015800476074,0.7367798686027527
1696081829460754000,7.26475390625,-1.2737303972244263,0.6969208717346191,0.7135669589042664
1696081829470753800,7.27475390625,-1.1985939741134644,0.4812854528427124,0.6378196477890015
1696081829480754000,7.28475390625,-1.138729214668274,0.4195880591869354,0.5425246953964233
1696081829490753800,7.29475390625,-1.0971903800964355,0.5374850630760193,0.45700356364250183
1696081829500754000,7.30475390625,-1.0446559190750122,0.7677812576293945,0.36476290225982666
1696081829510753800,7.31475390625,-0.9786824584007263,1.0585530996322632,0.2670244574546814
1696081829520753700,7.324753662109375,-0.8901070356369019,1.3786464929580688,0.17295122146606445
1696081829530753800,7.33475390625,-0.7648796439170837,1.654146671295166,0.1149190217256546
1696081829540753700,7.344753662109375,-0.5987243056297302,1.6865226030349731,0.041004329919815063
1696081829550753800,7.35475390625,-0.40630173683166504,1.5600734949111938,-0.061621032655239105
1696081829560753700,7.364753662109375,-0.19310978055000305,1.4006376266479492,-0.19051359593868256
1696081829570753800,7.37475390625,0.01947133056819439,1.2949579954147339,-0.3499494194984436
1696081829580753700,7.384753662109375,0.21983513236045837,1.2515865564346313,-0.5325981378555298
1696081829590753800,7.39475390625,0.43363797664642334,1.2033281326293945,-0.723798930644989
1696081829600753700,7.404753662109375,0.6730971336364746,1.1092549562454224,-0.9357692003250122
1696081829610753300,7.414753173828125,0.9259953498840332,0.9650907516479492,-1.1776717901229858
1696081829620753400,7.42475341796875,1.1343003511428833,0.7714464664459229,-1.437900424003601
1696081829630753300,7.434753173828125,1.2344822883605957,0.5845217108726501,-1.6889660358428955
1696081829640753400,7.44475341796875,1.2045499086380005,0.5002222657203674,-1.9021580219268799
1696081829650753300,7.454753173828125,1.0756573677062988,0.5655848383903503,-1.9553033113479614
1696081829660753400,7.46475341796875,0.7964919209480286,0.7879397869110107,-1.5765668153762817
1696081829670753300,7.474753173828125,0.39820778369903564,1.105589747428894,-1.122083067893982
1696081829680753400,7.48475341796875,0.03962988406419754,1.0096838474273682,-1.0029643774032593
1696081829690753300,7.494753173828125,-0.20777054131031036,0.34261903166770935,-0.9931905269622803
1696081829700753400,7.50475341796875,-0.3336087763309479,-0.5162574648857117,-0.6584363579750061
1696081829710752800,7.514752685546875,-0.4380667507648468,-1.147281289100647,0.0391717329621315
1696081829720753000,7.5247529296875,-0.48143815994262695,-1.230969786643982,0.45089492201805115
1696081829730753000,7.5347529296875,-0.46555566787719727,-1.0275516510009766,0.40080395340919495
1696081829740753000,7.5447529296875,-0.41057780385017395,-0.681191086769104,0.10025826096534729
1696081829750753000,7.5547529296875,-0.30978503823280334,-0.23953554034233093,-0.23266330361366272
1696081829760753000,7.5647529296875,-0.09109527617692947,0.09644035249948502,-0.43363797664642334
1696081829770753000,7.5747529296875,0.19540052115917206,0.12881620228290558,-0.4458552598953247
1696081829780753000,7.5847529296875,0.36827537417411804,-0.10881037265062332,-0.5399284958839417
1696081829790753000,7.5947529296875,0.439746618270874,-0.5541311502456665,-0.7378488779067993
1696081829800753000,7.6047529296875,0.481896311044693,-0.7514405846595764,-0.6730971336364746
1696081829810753000,7.6147529296875,0.4715116024017334,-0.653091311454773,-0.3145192563533783
1696081829820753000,7.6247529296875,0.2894737720489502,-0.7648796439170837,-0.09766208380460739
1696081829830753000,7.6347529296875,0.1373683214187622,-1.453324794769287,-0.09827294945716858
1696081829840753000,7.6447529296875,0.06589708477258682,-2.4233787059783936,0.0006872233934700489
1696081829850753000,7.6547529296875,0.09399688988924026,-2.7532460689544678,0.25847235321998596
1696081829860753000,7.6647529296875,0.1984548419713974,-2.466139316558838,0.3128393590450287
1696081829870753000,7.6747529296875,0.25587618350982666,-1.7715855836868286,0.13385584950447083
1696081829880753000,7.6847529296875,0.34139731526374817,-0.9120981693267822,-0.04512767121195793
1696081829890753000,7.6947529296875,0.6596581339836121,-0.306730717420578,-0.07994698733091354
1696081829900753000,7.7047529296875,1.1202504634857178,0.12209668755531311,-0.035964690148830414
1696081829910753300,7.714753173828125,1.5264759063720703,0.4666246771812439,-0.06956227868795395
1696081829920753400,7.72475341796875,1.6956855058670044,0.6621015667915344,-0.23083069920539856
1696081829930753300,7.734753173828125,1.7317266464233398,0.6572146415710449,-0.5191590785980225
1696081829940753400,7.74475341796875,1.7341700792312622,0.725020706653595,-0.8361981511116028
1696081829950753300,7.754753173828125,1.6315447092056274,1.0390053987503052,-1.0854312181472778
1696081829960753400,7.76475341796875,1.4940999746322632,1.4855479001998901,-1.27724289894104
1696081829970753300,7.774753173828125,1.5276975631713867,1.599779725074768,-1.6889660358428955
1696081829980753400,7.78475341796875,1.6907986402511597,1.0835986137390137,-2.282116174697876
1696081829990753300,7.794753173828125,1.750052571296692,0.30108019709587097,-2.5765533447265625
1696081830000753400,7.80475341796875,1.6400967836380005,-0.429514616727829,-2.412841320037842
1696081830010752500,7.81475244140625,1.3920855522155762,-0.9365327954292297,-1.8966602087020874
1696081830020752100,7.824752197265625,1.0897072553634644,-1.0599275827407837,-1.21737802028656
1696081830030752000,7.834751953125,0.8123744130134583,-0.7984772324562073,-0.5863542556762695
1696081830040752000,7.844752197265625,0.6126214861869812,-0.2364812046289444,-0.13981178402900696
1696081830050752000,7.854751953125,0.49350276589393616,0.40737074613571167,0.07704538106918335
1696081830060752100,7.864752197265625,0.4421900808811188,0.8716283440589905,0.08193229883909225
1696081830070752000,7.874751953125,0.4446335434913635,1.0732139348983765,-0.04573853686451912
1696081830080752000,7.884752197265625,0.49961140751838684,0.9614255428314209,-0.2638174295425415
1696081830090752000,7.894751953125,0.5796347856521606,0.5594761967658997,-0.5509241223335266
1696081830100752100,7.904752197265625,0.6382778286933899,-0.02451096847653389,-0.8490263223648071
1696081830110752000,7.914751953125,0.6633232831954956,-0.45578181743621826,-1.0524444580078125
1696081830120752000,7.924752197265625,0.695699155330658,-0.5889504551887512,-1.105589747428894
1696081830130752000,7.934751953125,0.773279070854187,-0.5064836740493774,-1.0408380031585693
1696081830140752100,7.944752197265625,0.8416959643363953,-0.3281109929084778,-0.8777369856834412
1696081830150752000,7.954751953125,0.8203156590461731,-0.1857793927192688,-0.6700428128242493
1696081830160752000,7.964752197265625,0.7158576846122742,-0.1711186319589615,-0.5387067794799805
1696081830170752000,7.974751953125,0.601015031337738,-0.1912771761417389,-0.5454263091087341
1696081830180752100,7.984752197265625,0.5411502718925476,-0.14240795373916626,-0.6847035884857178
1696081830190752000,7.994751953125,0.5686391592025757,-0.026343563571572304,-0.8612436652183533
1696081830200752000,8.004752197265624,0.6535494327545166,0.1275944709777832,-1.000520944595337
1696081830210752000,8.014751953125,0.743346631526947,0.2699260711669922,-1.0719921588897705
1696081830220752100,8.024752197265625,0.8410850763320923,0.31085404753685,-1.0506118535995483
1696081830230752000,8.034751953125,0.9363800883293152,0.17402023077011108,-0.9027824997901917
1696081830240752000,8.044752197265625,0.9858601689338684,-0.10086912661790848,-0.6413321495056152
1696081830250752000,8.054751953125,0.9620364308357239,-0.40141481161117554,-0.3334560692310333
1696081830260752100,8.064752197265625,0.8942303657531738,-0.6317110061645508,-0.06345362961292267
1696081830270752000,8.074751953125,0.8545241355895996,-0.7661013603210449,0.12835806608200073
1696081830280752000,8.084752197265624,0.847804605960846,-0.8003098368644714,0.26397013664245605
1696081830290752000,8.094751953125,0.8441393971443176,-0.709901750087738,0.3635411858558655
1696081830300752100,8.104752197265626,0.8007679581642151,-0.5620723962783813,0.37453675270080566
1696081830310753000,8.1147529296875,0.6810383796691895,-0.549244225025177,0.20349448919296265
1696081830320753400,8.12475341796875,0.42875105142593384,-0.7349472641944885,-0.0872773751616478
1696081830330753300,8.134753173828125,0.07383833825588226,-0.9444740414619446,-0.23999367654323578
1696081830340753400,8.14475341796875,-0.32078060507774353,-0.9493609666824341,-0.043905939906835556
1696081830350753300,8.154753173828125,-0.7380015850067139,-0.7416667938232422,0.45517095923423767
1696081830360753400,8.16475341796875,-1.1100184917449951,-0.47594037652015686,1.0617601871490479
1696081830370753300,8.174753173828124,-1.3873512744903564,-0.27435484528541565,1.5919911861419678
1696081830380753400,8.18475341796875,-1.5748869180679321,-0.11186470091342926,2.005547046661377
1696081830390753300,8.194753173828126,-1.7538704872131348,0.1581377387046814,2.3555727005004883
1696081830400753400,8.20475341796875,-2.0354793071746826,0.5936846733093262,2.6103036403656006
1696081830410753300,8.214753173828125,-2.4349851608276367,0.9925796389579773,2.684828996658325
1696081830420753400,8.22475341796875,-2.8277716636657715,1.0524444580078125,2.5760951042175293
1696081830430753300,8.234753173828125,-3.1319825649261475,0.6853144764900208,2.3842833042144775
1696081830440753400,8.24475341796875,-3.2749249935150146,0.008475755341351032,2.2395083904266357
1696081830450753300,8.254753173828124,-3.186349391937256,-0.6732498407363892,2.198580265045166
1696081830460753400,8.26475341796875,-2.8943557739257812,-1.4270576238632202,2.2450060844421387
1696081830470753300,8.274753173828126,-2.5296692848205566,-2.1081724166870117,2.1967477798461914
1696081830480753400,8.28475341796875,-2.161928415298462,-2.519895553588867,1.9316322803497314
1696081830490753300,8.294753173828125,-1.8540524244308472,-2.502791166305542,1.4185054302215576
1696081830500753400,8.30475341796875,-1.6029868125915527,-2.2614994049072266,0.85284423828125
1696081830510753300,8.314753173828125,-1.4759267568588257,-1.9627864360809326,0.58772873878479
1696081830520753400,8.32475341796875,-1.4392749071121216,-1.3421473503112793,0.6182720065116882
1696081830530753300,8.334753173828124,-1.4386639595031738,-0.5095379948616028,0.7434993386268616
1696081830540753400,8.34475341796875,-1.453324794769287,0.35727980732917786,0.8021424412727356
1696081830550753300,8.354753173828126,-1.4936418533325195,0.9492082595825195,0.8064184784889221
1696081830560753400,8.36475341796875,-1.4966962337493896,1.161178469657898,0.7661013603210449
1696081830570753300,8.374753173828125,-1.48081374168396,1.0842094421386719,0.7221190929412842
1696081830580753400,8.38475341796875,-1.4679855108261108,0.8099309802055359,0.6860780119895935
1696081830590753300,8.394753173828125,-1.4667638540267944,0.5515349507331848,0.6591999530792236
1696081830600753400,8.40475341796875,-1.4637094736099243,0.4153120219707489,0.6683629155158997
1696081830610753300,8.414753173828124,-1.4301118850708008,0.420198917388916,0.7263951301574707
1696081830620753400,8.42475341796875,-1.3445907831192017,0.5252677798271179,0.804585874080658
1696081830630753300,8.434753173828126,-1.242576241493225,0.704862117767334,0.8314639329910278
1696081830640753400,8.44475341796875,-1.1295661926269531,0.953484296798706,0.8039750456809998
1696081830650753300,8.454753173828125,-0.9890671968460083,1.1929434537887573,0.7355580925941467
1696081830660753400,8.46475341796875,-0.8406269550323486,1.3798682689666748,0.6304892897605896
1696081830670753300,8.474753173828125,-0.6952410340309143,1.4684436321258545,0.5138140320777893
1696081830680753400,8.48475341796875,-0.5553528666496277,1.4611133337020874,0.38980838656425476
1696081830690753300,8.494753173828125,-0.40019309520721436,1.3493249416351318,0.2615266740322113
1696081830700753400,8.50475341796875,-0.21693351864814758,1.1850022077560425,0.13752104341983795
1696081830710753300,8.514753173828124,-0.00618501054123044,1.0500010251998901,0.020234910771250725
1696081830720753400,8.52475341796875,0.20028744637966156,0.9724211096763611,-0.10438159853219986
1696081830730753300,8.534753173828125,0.39332085847854614,0.9186649918556213,-0.25037840008735657
1696081830740753400,8.54475341796875,0.5863542556762695,0.8636870980262756,-0.420198917388916
1696081830750753300,8.554753173828125,0.8044331669807434,0.8026005625724792,-0.6120105981826782
1696081830760753400,8.56475341796875,1.0487792491912842,0.6932557225227356,-0.8453611135482788
1696081830770753300,8.574753173828125,1.2827407121658325,0.5246568918228149,-1.1214722394943237
1696081830780753400,8.58475341796875,1.428126573562622,0.36338844895362854,-1.4207961559295654
1696081830790753300,8.594753173828124,1.4201853275299072,0.29619327187538147,-1.6804139614105225
1696081830800753400,8.60475341796875,1.2558625936508179,0.4605160355567932,-1.7341700792312622
1696081830810753300,8.614753173828126,0.9284388422966003,0.7891615629196167,-1.522810697555542
1696081830820753400,8.62475341796875,0.48433977365493774,1.0799334049224854,-1.3309990167617798
1696081830830753300,8.634753173828125,0.11110111325979233,1.0341185331344604,-1.3963615894317627
1696081830840753400,8.64475341796875,-0.07704538106918335,0.6352235078811646,-1.4525611400604248
1696081830850753300,8.654753173828125,-0.18944458663463593,-0.055054228752851486,-0.9742537140846252
1696081830860753400,8.66475341796875,-0.41607558727264404,-0.6775259375572205,-0.032910365611314774
1696081830870753300,8.674753173828124,-0.6420957446098328,-0.7795404195785522,0.5413029789924622
1696081830880753400,8.68475341796875,-0.6152176856994629,-0.5981134176254272,0.5620723962783813
1696081830890753300,8.694753173828126,-0.5211443901062012,-0.3262783885002136,0.2609158158302307
1696081830900753400,8.70475341796875,-0.36415204405784607,-0.14118622243404388,-0.08483391255140305
1696081830910753300,8.714753173828125,-0.12163854390382767,-0.03978259861469269,-0.258930504322052
1696081830920753400,8.72475341796875,-0.012293662875890732,-0.08559749275445938,-0.3291800022125244
1696081830930753300,8.734753173828125,-0.011682798154652119,-0.6237697601318359,-0.40798163414001465
1696081830940753400,8.74475341796875,0.0164170041680336,-1.392849087715149,-0.40431642532348633
1696081830950753300,8.754753173828124,0.047571130096912384,-1.3842970132827759,-0.21189388632774353
1696081830960753400,8.76475341796875,-0.10147999227046967,-1.0025062561035156,0.1356884390115738
1696081830970753300,8.774753173828126,-0.2523637115955353,-0.6066655516624451,0.37575846910476685
1696081830980753400,8.78475341796875,-0.07704538106918335,-0.35559993982315063,0.510148823261261
1696081830990753300,8.794753173828125,0.29130637645721436,-0.5327508449554443,0.6439283490180969
1696081831000753400,8.80475341796875,0.6382778286933899,-0.27924177050590515,0.43134722113609314
1696081831010753300,8.814753173828125,0.7292967438697815,0.3456733822822571,-0.015195272862911224
1696081831020753400,8.82475341796875,0.621173620223999,0.7934376001358032,-0.25648704171180725
1696081831030753300,8.834753173828124,0.6596581339836121,0.6150649189949036,-0.24732406437397003
1696081831040753400,8.84475341796875,0.9400452375411987,-0.031841352581977844,-0.16668985784053802
1696081831050753300,8.854753173828126,1.314505696296692,-0.8320748209953308,-0.16546812653541565
1696081831060753400,8.86475341796875,1.610775351524353,-1.5626696348190308,-0.3896556794643402
1696081831070753300,8.874753173828125,1.714011549949646,-1.9817231893539429,-0.8142070174217224
1696081831080753400,8.88475341796875,1.645594596862793,-1.8992563486099243,-1.2082151174545288
1696081831090753300,8.894753173828125,1.5527430772781372,-1.367803692817688,-1.4782174825668335
1696081831100753400,8.90475341796875,1.5179238319396973,-0.5840635299682617,-1.6633096933364868
1696081831110753300,8.914753173828124,1.5722907781600952,0.19540052115917206,-1.8361846208572388
1696081831120753400,8.92475341796875,1.6633096933364868,0.7665595412254333,-1.9394208192825317
1696081831130753300,8.934753173828126,1.7146223783493042,0.9565386176109314,-1.8728364706039429
1696081831140753400,8.94475341796875,1.67491614818573,0.7977136373519897,-1.6199382543563843
1696081831150753300,8.954753173828125,1.541136622428894,0.4904484450817108,-1.2601386308670044
1696081831160753400,8.96475341796875,1.3419946432113647,0.26565003395080566,-0.9095019698143005
1696081831170753300,8.974753173828125,1.1562916040420532,0.21128301322460175,-0.6694319248199463
1696081831180753400,8.98475341796875,1.0500010251998901,0.3242930769920349,-0.5692500472068787
1696081831190753300,8.994753173828125,1.020068645477295,0.4971679449081421,-0.5735260844230652
1696081831200753400,9.00475341796875,1.0096838474273682,0.6162866950035095,-0.6077345609664917
1696081831210753300,9.014753173828124,0.9663124680519104,0.621173620223999,-0.6297256946563721
1696081831220753400,9.02475341796875,0.8966737985610962,0.5832999348640442,-0.6059019565582275
1696081831230753300,9.034753173828125,0.8135961294174194,0.4556291103363037,-0.5674174427986145
1696081831240753400,9.04475341796875,0.7525096535682678,0.2742021381855011,-0.5564218759536743
1696081831250753300,9.054753173828125,0.723798930644989,0.08483391255140305,-0.5967389941215515
1696081831260753400,9.06475341796875,0.7030295133590698,-0.12286027520895004,-0.7109707593917847
1696081831270753300,9.074753173828125,0.6792057752609253,-0.30917418003082275,-0.8361981511116028
1696081831280753400,9.08475341796875,0.630336582660675,-0.40080395340919495,-0.924162745475769
1696081831290753300,9.094753173828124,0.5784130096435547,-0.4276820421218872,-0.9669232964515686
1696081831300753400,9.10475341796875,0.582078218460083,-0.4130212664604187,-0.9614255428314209
1696081831310753300,9.114753173828126,0.6608798503875732,-0.32994359731674194,-0.91438889503479
1696081831320753400,9.12475341796875,0.7592291235923767,-0.15645785629749298,-0.8398633599281311
1696081831330753300,9.134753173828125,0.8087092041969299,0.010919216088950634,-0.7714464664459229
1696081831340753400,9.14475341796875,0.7928267121315002,0.06223189830780029,-0.7573965191841125
1696081831350753300,9.154753173828125,0.7659486532211304,-0.06238461285829544,-0.8557458519935608
1696081831360753400,9.16475341796875,0.7751116156578064,-0.31039589643478394,-1.0726029872894287
1696081831370753300,9.174753173828124,0.8294786214828491,-0.5339725613594055,-1.2949579954147339
1696081831380753400,9.18475341796875,0.9174432158470154,-0.6298784017562866,-1.3432163000106812
1696081831390753300,9.194753173828126,1.0420597791671753,-0.5474116206169128,-1.0781008005142212
1696081831400753400,9.20475341796875,1.1678979396820068,-0.3470478057861328,-0.5900194644927979
1696081831410753300,9.214753173828125,1.2326496839523315,-0.17295122146606445,-0.09766208380460739
1696081831420753400,9.22475341796875,1.2363148927688599,-0.06788240373134613,0.24503332376480103
1696081831430753300,9.234753173828125,1.2039390802383423,-0.02451096847653389,0.4038582742214203
1696081831440753400,9.24475341796875,1.1471285820007324,-0.0697149932384491,0.40630173683166504
1696081831450753300,9.254753173828124,1.0597748756408691,-0.22915083169937134,0.2719113826751709
1696081831460753400,9.26475341796875,0.9119454622268677,-0.4881576895713806,0.037339139729738235
1696081831470753300,9.274753173828126,0.6566037535667419,-0.8180249333381653,-0.19723311066627502
1696081831480753400,9.28475341796875,0.31146490573883057,-1.1839332580566406,-0.3102431893348694
1696081831490753300,9.294753173828125,-0.05383250117301941,-1.4667638540267944,-0.2027309089899063
1696081831500753400,9.30475341796875,-0.4032474160194397,-1.5419002771377563,0.1912771761417389
1696081831510753300,9.314753173828125,-0.7459428310394287,-1.2957215309143066,0.7917577028274536
1696081831520753400,9.32475341796875,-1.0715340375900269,-0.7838164567947388,1.4264466762542725
1696081831530753300,9.334753173828124,-1.307938814163208,-0.3525456190109253,1.9004781246185303
1696081831540753400,9.34475341796875,-1.425225019454956,-0.23831380903720856,2.170480489730835
1696081831550753300,9.354753173828126,-1.5162439346313477,-0.2761874496936798,2.2975404262542725
1696081831560753400,9.36475341796875,-1.7227163314819336,-0.22487476468086243,2.321364402770996
1696081831570753300,9.374753173828125,-2.0849595069885254,0.015806138515472412,2.215073823928833
1696081831580753400,9.38475341796875,-2.496682643890381,0.2888629138469696,2.047085762023926
1696081831590753300,9.394753173828125,-2.848541021347046,0.4672355651855469,1.9377409219741821
1696081831600753400,9.40475341796875,-3.0880000591278076,0.49838969111442566,1.8839848041534424
1696081831610753300,9.414753173828124,-3.139312744140625,0.31207579374313354,1.887039065361023
1696081831620753400,9.42475341796875,-2.969492197036743,-0.20349448919296265,1.9688950777053833
1696081831630753300,9.434753173828126,-2.6445119380950928,-1.02327561378479,2.061135768890381
1696081831640753400,9.44475341796875,-2.3176991939544678,-1.7636443376541138,1.9377409219741821
1696081831650753300,9.454753173828125,-2.0428097248077393,-2.123443841934204,1.5510631799697876
1696081831660753400,9.46475341796875,-1.8174004554748535,-2.1112265586853027,1.0464885234832764
1696081831670753300,9.474753173828125,-1.6762906312942505,-1.6952273845672607,0.6023895144462585
1696081831680753400,9.48475341796875,-1.595656394958496,-1.221195936203003,0.42646029591560364
1696081831690753300,9.494753173828125,-1.5718326568603516,-0.6610325574874878,0.4930446147918701
1696081831700753400,9.50475341796875,-1.5724434852600098,-0.09170614182949066,0.6585890650749207
1696081831710753300,9.514753173828124,-1.5596153736114502,0.31085404753685,0.8003098368644714
1696081831720753400,9.52475341796875,-1.497917890548706,0.5106070041656494,0.8314639329910278
1696081831730753300,9.534753173828125,-1.4270576238632202,0.49411362409591675,0.7636579275131226
1696081831740753400,9.54475341796875,-1.3965142965316772,0.46295949816703796,0.6347653269767761
1696081831750753300,9.554753173828125,-1.3983469009399414,0.49961140751838684,0.5095379948616028
1696081831760753400,9.56475341796875,-1.405677318572998,0.5704717636108398,0.43012550473213196
1696081831770753300,9.574753173828125,-1.4197272062301636,0.6468299627304077,0.429514616727829
1696081831780753400,9.58475341796875,-1.4068989753723145,0.7671703696250916,0.49060115218162537
1696081831790753300,9.594753173828124,-1.367803692817688,0.875904381275177,0.5461899042129517
1696081831800753400,9.60475341796875,-1.2902237176895142,0.9760863184928894,0.5431355834007263
1696081831810753300,9.614753173828126,-1.1613311767578125,1.0835986137390137,0.5077053904533386
1696081831820753400,9.62475341796875,-1.0006736516952515,1.2234867811203003,0.4374558627605438
1696081831830753300,9.634753173828125,-0.843070387840271,1.4275157451629639,0.34093916416168213
1696081831840753400,9.64475341796875,-0.7031822800636292,1.6394859552383423,0.24258986115455627
1696081831850753300,9.654753173828125,-0.5749005675315857,1.7286722660064697,0.14179709553718567
1696081831860753400,9.66475341796875,-0.43195807933807373,1.655368447303772,0.041004329919815063
1696081831870753300,9.674753173828124,-0.2621375620365143,1.513036847114563,-0.0671188160777092
1696081831880753400,9.68475341796875,-0.07399105280637741,1.4232397079467773,-0.19540052115917206
1696081831890753300,9.694753173828126,0.12454015016555786,1.4470634460449219,-0.34628424048423767
1696081831900753400,9.70475341796875,0.34689509868621826,1.5087608098983765,-0.5154939293861389
1696081831910753300,9.714753173828125,0.6150649189949036,1.4733306169509888,-0.7213554978370667
1696081831920753400,9.72475341796875,0.8942303657531738,1.3517683744430542,-0.9766971468925476
1696081831930753300,9.734753173828125,1.1373547315597534,1.172174096107483,-1.2619712352752686
1696081831940753400,9.74475341796875,1.2754102945327759,0.9730319976806641,-1.5221998691558838
1696081831950753300,9.754753173828124,1.3016774654388428,0.8258134722709656,-1.7250070571899414
1696081831960753400,9.76475341796875,1.2210432291030884,0.8142070174217224,-1.7274506092071533
1696081831970753300,9.774753173828126,0.9962448477745056,1.0157924890518188,-1.344438076019287
1696081831980753400,9.78475341796875,0.6608798503875732,1.370705246925354,-1.0805442333221436
1696081831990753300,9.794753173828125,0.30291280150413513,1.1171962022781372,-1.2992340326309204
1696081832000753400,9.80475341796875,-0.08254316449165344,-0.13752104341983795,-1.4214071035385132
1696081832010753300,9.814753173828125,-0.4435645341873169,-1.6787340641021729,-0.7696138620376587
1696081832020753400,9.82475341796875,-0.7239516973495483,-2.712317943572998,0.31955888867378235
1696081832030753300,9.834753173828124,-0.7715991735458374,-2.803947925567627,0.8100836873054504
1696081832040753400,9.84475341796875,-0.7251734137535095,-2.1326069831848145,0.5645158290863037
1696081832050753300,9.854753173828126,-0.58772873878479,-0.975628137588501,0.01595885492861271
1696081832060753400,9.86475341796875,-0.3177262842655182,0.02496911771595478,-0.4159228801727295
1696081832070753300,9.874753173828125,0.0567341111600399,0.4446335434913635,-0.4953353703022003
1696081832080753400,9.88475341796875,0.26015225052833557,0.6694319248199463,-0.5063309073448181
1696081832090753300,9.894753173828125,0.2235003262758255,0.7757225036621094,-0.592462956905365
1696081832100753400,9.90475341796875,0.18196149170398712,0.8783478736877441,-0.26565003395080566
1696081832110753300,9.914753173828124,0.1734093725681305,0.4421900808811188,0.34032830595970154
1696081832120753400,9.92475341796875,-0.10636691004037857,-1.6585755348205566,0.6017786264419556
1696081832130753300,9.934753173828126,-0.3220023512840271,-3.3812155723571777,0.5254204869270325
1696081832140753400,9.94475341796875,-0.24014639854431152,-3.5430948734283447,0.48082730174064636
1696081832150753300,9.954753173828125,-0.0794888436794281,-2.144824266433716,0.08009970188140869
1696081832160753400,9.96475341796875,0.06039930135011673,-0.23342688381671906,-0.3291800022125244
1696081832170753300,9.974753173828125,0.31268665194511414,0.7891615629196167,-0.19967657327651978
1696081832180753400,9.98475341796875,0.6639341711997986,0.7372379899024963,0.11125383526086807
1696081832190753300,9.994753173828125,1.0475575923919678,0.1624137908220291,0.30001118779182434
1696081832200753400,10.00475341796875,1.4525611400604248,-0.45150578022003174,0.3110067546367645
1696081832210753300,10.014753173828124,1.8392388820648193,-0.8925504684448242,0.17905987799167633
1696081832220753400,10.02475341796875,2.045100450515747,-0.9670760631561279,-0.0017562375869601965
1696081832230753300,10.034753173828125,2.0243310928344727,-0.6078872680664062,-0.3059671223163605
1696081832240753400,10.04475341796875,1.9491946697235107,0.03352123126387596,-0.866130530834198
1696081832250753300,10.054753173828125,1.8600083589553833,0.8172613382339478,-1.5289193391799927
1696081832260753400,10.06475341796875,1.7360026836395264,1.6480380296707153,-2.000507354736328
1696081832270753300,10.074753173828125,1.6400967836380005,2.212477445602417,-2.3083834648132324
1696081832280753400,10.08475341796875,1.6345990896224976,2.192318916320801,-2.5405120849609375
1696081832290753300,10.094753173828124,1.6810247898101807,1.4800500869750977,-2.6211464405059814
1696081832300753400,10.10475341796875,1.685911774635315,0.3902665376663208,-2.3847415447235107
1696081832310753300,10.114753173828126,1.5674039125442505,-0.6457608938217163,-1.8337410688400269
1696081832320753400,10.12475341796875,1.3456597328186035,-1.234024167060852,-1.1801153421401978
1696081832330753300,10.134753173828125,1.1165852546691895,-1.2890020608901978,-0.6462190747261047
1696081832340753400,10.14475341796875,1.021901249885559,-1.1833223104476929,-0.47273334860801697
1696081832350753300,10.154753173828125,0.8685740232467651,-0.7770969271659851,-0.2998584806919098
1696081832360753400,10.16475341796875,0.7653377652168274,-0.2010510265827179,-0.2735912799835205
1696081832370753300,10.174753173828124,0.705473005771637,0.42936190962791443,-0.2796999216079712
1696081832380753400,10.18475341796875,0.6737080216407776,0.9333257079124451,-0.2851977050304413
1696081832390753300,10.194753173828126,0.6627124547958374,1.1171962022781372,-0.3041345477104187
1696081832400753400,10.20475341796875,0.715246856212616,0.8691849112510681,-0.39820778369903564
1696081832410753300,10.214753173828125,0.8441393971443176,0.25648704171180725,-0.6242279410362244
1696081832420753400,10.22475341796875,0.9693667888641357,-0.3329979181289673,-0.8832347989082336
1696081832430753300,10.234753173828125,1.0017426013946533,-0.7129560708999634,-1.2222650051116943
1696081832440753400,10.24475341796875,1.0054078102111816,-0.7477754354476929,-1.3169491291046143
1696081832450753300,10.254753173828124,1.0500010251998901,-0.7331146597862244,-1.4287374019622803
1696081832460753400,10.26475341796875,1.1391873359680176,-0.5816200971603394,-1.3994159698486328
1696081832470753300,10.274753173828126,1.2259302139282227,-0.2963460087776184,-1.228373646736145
1696081832480753400,10.28475341796875,1.23936927318573,0.014584408141672611,-1.00907301902771
1696081832490753300,10.294753173828125,1.1813369989395142,0.18012888729572296,-0.8881217241287231
1696081832500753400,10.30475341796875,1.1000919342041016,0.14103351533412933,-0.8948412537574768
1696081832510753300,10.314753173828125,1.010294795036316,-0.04772384837269783,-0.9333257079124451
1696081832520753400,10.32475341796875,0.9027824997901917,-0.19677497446537018,-0.8795695900917053
1696081832530753300,10.334753173828124,0.7897723913192749,-0.17905987799167633,-0.6682102084159851
1696081832540753400,10.34475341796875,0.6834818720817566,-0.07093672454357147,-0.3536146283149719
1696081832550753300,10.354753173828126,0.6040693521499634,-0.03611740842461586,-0.044516805559396744
1696081832560753400,10.36475341796875,0.553367555141449,-0.10270171612501144,0.19310978055000305
1696081832570753300,10.374753173828125,0.5130504369735718,-0.22915083169937134,0.3262783885002136
1696081832580753400,10.38475341796875,0.46295949816703796,-0.3788128197193146,0.348880410194397
1696081832590753300,10.394753173828125,0.40309470891952515,-0.5419138073921204,0.277409166097641
1696081832600753400,10.40475341796875,0.31146490573883057,-0.7386124134063721,0.14240795373916626
1696081832610753300,10.414753173828124,0.18012888729572296,-0.9267589449882507,0.022067507728934288
1696081832620753400,10.42475341796875,-0.00007635815563844517,-1.0495429039001465,0.009239336475729942
1696081832630753300,10.434753173828126,-0.23831380903720856,-1.003727912902832,0.19494237005710602
1696081832640753400,10.44475341796875,-0.5626832246780396,-0.7282277345657349,0.5816200971603394
1696081832650753300,10.454753173828125,-0.9120981693267822,-0.40508002042770386,1.0122801065444946
1696081832660753400,10.46475341796875,-1.1814897060394287,-0.28962647914886475,1.3623058795928955
1696081832670753300,10.474753173828125,-1.394681692123413,-0.3629303276538849,1.650023341178894
1696081832680753400,10.48475341796875,-1.6506342887878418,-0.4038582742214203,1.9285778999328613
1696081832690753300,10.494753173828125,-2.042198896408081,-0.17967073619365692,2.176589250564575
1696081832700753400,10.50475341796875,-2.482632637023926,0.13492485880851746,2.287155866622925
1696081832710753300,10.514753173828124,-2.890690803527832,0.28153252601623535,2.2382867336273193
1696081832720753400,10.52475341796875,-3.2346079349517822,0.24304801225662231,2.1216113567352295
1696081832730753300,10.534753173828125,-3.4441347122192383,0.10499246418476105,2.058692216873169
1696081832740753400,10.54475341796875,-3.465514898300171,-0.12774719297885895,2.0495293140411377
1696081832750753300,10.554753173828125,-3.268205404281616,-0.4826599061489105,2.100231170654297
1696081832760753400,10.56475341796875,-2.8888580799102783,-0.98540198802948,2.097787618637085
1696081832770753300,10.574753173828125,-2.4478135108947754,-1.6341408491134644,1.9090301990509033
1696081832780753400,10.58475341796875,-2.019596815109253,-2.161928415298462,1.5015830993652344
1696081832790753300,10.594753173828124,-1.690340518951416,-2.2089650630950928,0.9731847047805786
1696081832800753400,10.60475341796875,-1.5107461214065552,-1.8253417015075684,0.6213263273239136
1696081832810753300,10.614753173828126,-1.4484378099441528,-1.1930961608886719,0.6494261026382446
1696081832820753400,10.62475341796875,-1.4423291683197021,-0.5089271068572998,0.8956047892570496
1696081832830753300,10.634753173828125,-1.4325553178787231,0.0970512181520462,1.0813078880310059
1696081832840753400,10.64475341796875,-1.3983469009399414,0.46906813979148865,1.1197923421859741
1696081832850753300,10.654753173828125,-1.3366495370864868,0.572304368019104,1.0464885234832764
1696081832860753400,10.66475341796875,-1.3171018362045288,0.6456081867218018,0.9059895277023315
1696081832870753300,10.674753173828124,-1.3488668203353882,0.7555639743804932,0.7722100019454956
1696081832880753400,10.68475341796875,-1.3842970132827759,0.8294786214828491,0.6836345791816711
1696081832890753300,10.694753173828126,-1.4001795053482056,0.8447502851486206,0.6695846915245056
1696081832900753400,10.70475341796875,-1.3787992000579834,0.7903832793235779,0.7245625257492065
1696081832910753300,10.714753173828125,-1.3134366273880005,0.734794557094574,0.8174140453338623
1696081832920753400,10.72475341796875,-1.2395219802856445,0.6737080216407776,0.8583420515060425
1696081832930753300,10.734753173828125,-1.1564443111419678,0.6987534761428833,0.8369617462158203
1696081832940753400,10.74475341796875,-1.0519863367080688,0.7879397869110107,0.7752643823623657
1696081832950753300,10.754753173828124,-0.9243154525756836,0.924162745475769,0.6494261026382446
1696081832960753400,10.76475341796875,-0.7844273447990417,1.112309217453003,0.5089271068572998
1696081832970753300,10.774753173828126,-0.6286566853523254,1.2454779148101807,0.3739258944988251
1696081832980753400,10.78475341796875,-0.45578181743621826,1.2735776901245117,0.24564418196678162
1696081832990753300,10.794753173828125,-0.2621375620365143,1.1947760581970215,0.12224940955638885
1696081833000753400,10.80475341796875,-0.0593302883207798,1.0609965324401855,0.00007635815563844517
1696081833010753300,10.814753173828125,0.1471421718597412,0.9498190879821777,-0.12881620228290558
1696081833020753200,10.824753173828125,0.3707188367843628,0.9027824997901917,-0.2803107798099518
1696081833030753300,10.834753173828124,0.6272822618484497,0.8868999481201172,-0.4599051773548126
1696081833040753200,10.844753173828124,0.9125562906265259,0.8704066276550293,-0.6822600960731506
1696081833050753300,10.854753173828126,1.164232850074768,0.8526915311813354,-0.953484296798706
1696081833060753200,10.864753173828126,1.3212251663208008,0.8343655467033386,-1.2515865564346313
1696081833070753300,10.874753173828125,1.3389402627944946,0.8502480387687683,-1.4959325790405273
1696081833080753200,10.884753173828125,1.1874456405639648,1.0842094421386719,-1.4818826913833618
1696081833090753300,10.894753173828125,0.8551349639892578,1.5448018312454224,-1.208825945854187
1696081833100753200,10.904753173828125,0.4116468131542206,1.9730184078216553,-1.256473422050476
1696081833110753300,10.914753173828124,-0.002519819187000394,1.6694183349609375,-1.6205490827560425
1696081833120753200,10.924753173828124,-0.23342688381671906,0.28092166781425476,-1.7463873624801636
1696081833130753300,10.934753173828126,-0.2609158158302307,-1.4466052055358887,-1.247921347618103
1696081833140753000,10.9447529296875,-0.3824779987335205,-2.592588424682617,-0.1526399552822113
1696081833150753000,10.9547529296875,-0.5791766047477722,-2.656729221343994,0.5645158290863037
1696081833160753000,10.9647529296875,-0.6952410340309143,-1.697670817375183,0.5211443901062012
1696081833170753000,10.9747529296875,-0.7025713920593262,-0.45517095923423767,0.10819950699806213
1696081833180753000,10.9847529296875,-0.4875468313694,0.47334420680999756,-0.27175867557525635
1696081833190753000,10.9947529296875,-0.12652546167373657,0.9272170662879944,-0.33773213624954224
1696081833200753000,11.0047529296875,0.12392928451299667,1.0542770624160767,-0.26626089215278625
1696081833210753000,11.0147529296875,0.1727984994649887,0.7115816473960876,-0.36338844895362854
1696081833220753200,11.024753173828126,0.16607898473739624,0.23755022883415222,-0.44890961050987244
1696081833230753000,11.0347529296875,0.17157678306102753,0.029245173558592796,-0.2992476224899292
1696081833240753200,11.044753173828125,-0.0019089538836851716,-1.3305408954620361,-0.01947133056819439
1696081833250753000,11.0547529296875,-0.2413681298494339,-3.00186824798584,0.2004401534795761
1696081833260753200,11.064753173828125,-0.21021400392055511,-3.376328468322754,0.4576144218444824
1696081833270753000,11.0747529296875,-0.00007635815563844517,-2.4557547569274902,0.5193118453025818
1696081833280753200,11.084753173828124,0.18684840202331543,-1.194928765296936,0.17478381097316742
1696081833290753000,11.0947529296875,0.2986367344856262,-0.14851661026477814,-0.0872773751616478
1696081833300753200,11.104753173828126,0.5448154211044312,0.30779972672462463,-0.012751812115311623
1696081833310753000,11.1147529296875,0.8917868733406067,0.14347697794437408,0.13141238689422607
1696081833320753200,11.124753173828125,1.302288293838501,-0.277409166097641,0.19005544483661652
1696081833330753000,11.1347529296875,1.7543286085128784,-0.5907830595970154,0.12224940955638885
1696081833340753200,11.144753173828125,2.0548744201660156,-0.7343363761901855,-0.06284276396036148
1696081833350753000,11.1547529296875,2.120236873626709,-0.5810092091560364,-0.3749949038028717
1696081833360753200,11.164753173828124,2.020055055618286,-0.1912771761417389,-0.7616726160049438
1696081833370753000,11.1747529296875,1.8703930377960205,0.36705365777015686,-1.1367439031600952
1696081833380753200,11.184753173828126,1.7329483032226562,1.0573313236236572,-1.464167594909668
1696081833390753000,11.1947529296875,1.6614770889282227,1.6254360675811768,-1.7860935926437378
1696081833400753200,11.204753173828125,1.6962964534759521,1.818469524383545,-2.139173746109009
1696081833410753000,11.2147529296875,1.7946457862854004,1.4763849973678589,-2.4226152896881104
1696081833420753200,11.224753173828125,1.8612300157546997,0.6749297380447388,-2.4562127590179443
1696081833430753000,11.2347529296875,1.800754427909851,-0.30062204599380493,-2.126345634460449
1696081833440753400,11.24475341796875,1.6034449338912964,-1.0477102994918823,-1.521588921546936
1696081833450753300,11.254753173828124,1.3548227548599243,-1.3128257989883423,-0.8630762100219727
1696081833460753400,11.26475341796875,1.1275808811187744,-1.11795973777771,-0.37255144119262695
1696081833470753300,11.274753173828126,0.9388235211372375,-0.6249914765357971,-0.1275944709777832
1696081833480753400,11.28475341796875,0.8050440549850464,0.005421428941190243,-0.032299499958753586
1696081833490753300,11.294753173828125,0.7274641394615173,0.5887977480888367,0.014737123623490334
1696081833500753400,11.30475341796875,0.6688210964202881,1.0072404146194458,0.03367394581437111
1696081833510753300,11.314753173828125,0.6004042029380798,1.2247084379196167,-0.020693060010671616
1696081833520753200,11.324753173828125,0.5582544803619385,1.0726029872894287,-0.2137264758348465
1696081833530753300,11.334753173828124,0.6181192994117737,0.5380959510803223,-0.5173265337944031
1696081833540753200,11.344753173828124,0.7598400115966797,0.006643159314990044,-0.7818311452865601
1696081833550753300,11.354753173828126,0.8545241355895996,-0.30489811301231384,-0.9962448477745056
1696081833560753200,11.364753173828126,0.8777369856834412,-0.4625013470649719,-1.1868348121643066
1696081833570753300,11.374753173828125,0.8795695900917053,-0.5449681282043457,-1.31206214427948
1696081833580753200,11.384753173828125,0.8917868733406067,-0.530307412147522,-1.303510069847107
1696081833590753300,11.394753173828125,0.8887325525283813,-0.3879757821559906,-1.1385765075683594
1696081833600753200,11.404753173828125,0.8551349639892578,-0.20899227261543274,-0.8923977613449097
1696081833610753300,11.414753173828124,0.7928267121315002,-0.1497383415699005,-0.7445683479309082
1696081833620753200,11.424753173828124,0.7555639743804932,-0.19494237005710602,-0.7647269368171692
1696081833630753300,11.434753173828126,0.762894332408905,-0.246865913271904,-0.8710174560546875
1696081833640753200,11.444753173828126,0.8050440549850464,-0.2700788080692291,-0.9388235211372375
1696081833650753300,11.454753173828125,0.8624653816223145,-0.246865913271904,-0.8551349639892578
1696081833660753200,11.464753173828125,0.904615044593811,-0.20471622049808502,-0.6266713738441467
1696081833670753300,11.474753173828125,0.9107237458229065,-0.2615266740322113,-0.339564710855484
1696081833680753200,11.484753173828125,0.8746826648712158,-0.4234059751033783,-0.07139487564563751
1696081833690753300,11.494753173828125,0.8215373754501343,-0.5406920909881592,0.16806429624557495
1696081833700753200,11.504753173828124,0.7793877124786377,-0.5370268821716309,0.38553231954574585
1696081833710753300,11.514753173828124,0.7390705943107605,-0.4246276915073395,0.5596289038658142
1696081833720753200,11.524753173828126,0.6682102084159851,-0.30978503823280334,0.6084981560707092
1696081833730753300,11.534753173828125,0.5600870847702026,-0.3177262842655182,0.4435645341873169
1696081833740753200,11.544753173828125,0.3756057620048523,-0.42584943771362305,0.1308015137910843
1696081833750753300,11.554753173828125,0.09521862119436264,-0.46066874265670776,-0.08544477820396423
1696081833760753400,11.56475341796875,-0.26335927844047546,-0.2816852331161499,-0.023136520758271217
1696081833770753300,11.574753173828125,-0.6940192580223083,-0.015347989276051521,0.23709207773208618
1696081833780753400,11.58475341796875,-1.0990229845046997,0.0872773751616478,0.5516876578330994
1696081833790753300,11.594753173828124,-1.4130076169967651,0.07933612167835236,0.8962156772613525
1696081833800753400,11.60475341796875,-1.6671276092529297,0.10499246418476105,1.2969433069229126
1696081833810753300,11.614753173828126,-1.9322431087493896,0.14592044055461884,1.705612063407898
1696081833820753400,11.62475341796875,-2.221182346343994,0.24671320617198944,2.058692216873169
1696081833830753300,11.634753173828125,-2.5180628299713135,0.45440739393234253,2.304260015487671
1696081833840753400,11.64475341796875,-2.8192193508148193,0.5570327639579773,2.3952789306640625
1696081833850753300,11.654753173828125,-3.0953304767608643,0.3969860374927521,2.3726770877838135
1696081833860753400,11.66475341796875,-3.273092269897461,-0.10331258177757263,2.2810471057891846
1696081833870753300,11.674753173828124,-3.276146650314331,-0.6872997879981995,2.170480489730835
1696081833880753400,11.68475341796875,-3.0403525829315186,-1.1552225351333618,2.081294298171997
1696081833890753300,11.694753173828126,-2.651231527328491,-1.6353626251220703,1.934686541557312
1696081833900753400,11.70475341796875,-2.2578341960906982,-1.9328539371490479,1.641471266746521
1696081833910753300,11.714753173828125,-1.917582392692566,-1.9701167345046997,1.263345718383789
1696081833920753400,11.72475341796875,-1.6408604383468628,-1.7245489358901978,0.9518043994903564
1696081833930753300,11.734753173828125,-1.4582116603851318,-1.405677318572998,0.8791114687919617
1696081833940753400,11.74475341796875,-1.3696362972259521,-1.0416016578674316,0.9847911596298218
1696081833950753300,11.754753173828124,-1.327486515045166,-0.5761222839355469,1.060538411140442
1696081833960753400,11.76475341796875,-1.273119568824768,-0.0214566420763731,0.9841802716255188
1696081833970753300,11.774753173828126,-1.204702615737915,0.49411362409591675,0.8033641576766968
1696081833980753400,11.78475341796875,-1.1704941987991333,0.8172613382339478,0.6194937229156494
1696081833990753300,11.794753173828125,-1.1821006536483765,0.8655197024345398,0.5321399569511414
1696081834000753400,11.80475341796875,-1.2187525033950806,0.7714464664459229,0.5510768294334412
1696081834010753300,11.814753173828125,-1.278617262840271,0.6486625075340271,0.6323218941688538
1696081834020753200,11.824753173828125,-1.3317625522613525,0.5606979131698608,0.6848562955856323
1696081834030753300,11.834753173828124,-1.3586406707763672,0.5124396085739136,0.6970735788345337
1696081834040753200,11.844753173828124,-1.3403147459030151,0.4256967306137085,0.7019605040550232
1696081834050753300,11.854753173828126,-1.2822824716567993,0.3187952935695648,0.6946301460266113
1696081834060753200,11.864753173828126,-1.2010374069213867,0.3652210533618927,0.6805802583694458
1696081834070753300,11.874753173828125,-1.091692566871643,0.601015031337738,0.6311001777648926
1696081834080753200,11.884753173828125,-0.976239025592804,0.9095019698143005,0.540081262588501
1696081834090753300,11.894753173828125,-0.8888853192329407,1.1972194910049438,0.40569087862968445
1696081834100753200,11.904753173828125,-0.8094727993011475,1.4049136638641357,0.24747678637504578
1696081834110753300,11.914753173828124,-0.6671411991119385,1.5582408905029297,0.15767958760261536
1696081834120753200,11.924753173828124,-0.4435645341873169,1.5490778684616089,0.11308643221855164
1696081834130753300,11.934753173828126,-0.20899227261543274,1.3859769105911255,0.03611740842461586
1696081834140753200,11.944753173828126,-0.011682798154652119,1.1581240892410278,-0.09155342727899551
1696081834150753300,11.954753173828125,0.14347697794437408,0.9602038264274597,-0.26137396693229675
1696081834160753200,11.964753173828125,0.29252809286117554,0.8429176807403564,-0.46357035636901855
1696081834170753300,11.974753173828125,0.47762027382850647,0.7592291235923767,-0.6804275512695312
1696081834180753200,11.984753173828125,0.7079164385795593,0.6437755823135376,-0.9131671786308289
1696081834190753300,11.994753173828125,0.9162214994430542,0.5252677798271179,-1.1556806564331055
1696081834200753200,12.004753173828124,1.0304533243179321,0.4751768112182617,-1.3743704557418823
1696081834210753300,12.014753173828124,1.0347293615341187,0.5521458387374878,-1.5582408905029297
1696081834220753000,12.0247529296875,0.9553169012069702,0.7354053854942322,-1.6407077312469482
1696081834230753000,12.0347529296875,0.7989353537559509,0.9217193126678467,-1.4971543550491333
1696081834240753000,12.0447529296875,0.5661957263946533,1.039616346359253,-1.2693016529083252
1696081834250753000,12.0547529296875,0.3200170397758484,0.7873289585113525,-1.1171962022781372
1696081834260753700,12.064753662109375,0.07750352472066879,0.1123228445649147,-0.9412670135498047
1696081834270753500,12.07475341796875,-0.11858421564102173,-0.48021644353866577,-0.6517168879508972
1696081834280753700,12.084753662109375,-0.3012329339981079,-0.7630470395088196,-0.17646369338035583
1696081834290753500,12.09475341796875,-0.43195807933807373,-0.8589528799057007,0.23342688381671906
1696081834300753700,12.104753662109376,-0.4930446147918701,-0.749608039855957,0.34093916416168213
1696081834310753500,12.11475341796875,-0.529085636138916,-0.5241987109184265,0.19799669086933136
1696081834320753700,12.124753662109375,-0.520533561706543,-0.21937698125839233,-0.050014592707157135
1696081834330753500,12.13475341796875,-0.3788128197193146,0.26259568333625793,-0.2943606972694397
1696081834340753700,12.144753662109375,-0.04711298272013664,0.7066947221755981,-0.4318053722381592
1696081834350753500,12.15475341796875,0.3310126066207886,0.9907470941543579,-0.45318564772605896
1696081834360753700,12.164753662109375,0.5014439821243286,0.7121925354003906,-0.5301546454429626
1696081834370753500,12.17475341796875,0.5283221006393433,-0.1656208336353302,-0.6291148662567139
1696081834380753700,12.184753662109374,0.481896311044693,-0.7031822800636292,-0.5851325392723083
1696081834390753500,12.19475341796875,0.29313895106315613,-1.2670109272003174,-0.38232529163360596
1696081834400753700,12.204753662109376,-0.11247556656599045,-2.4765241146087646,-0.053068917244672775
1696081834410753500,12.21475341796875,-0.41974079608917236,-3.3641111850738525,0.29329168796539307
1696081834420753700,12.224753662109375,-0.40446916222572327,-3.549203395843506,0.662865161895752
1696081834430753500,12.23475341796875,-0.044058654457330704,-3.038520097732544,0.8571202754974365
1696081834440753700,12.244753662109375,0.3041345477104187,-2.020207643508911,0.5461899042129517
1696081834450753500,12.25475341796875,0.44890961050987244,-0.529085636138916,0.1558469980955124
1696081834460753700,12.264753662109374,0.572915256023407,0.5075526833534241,0.10270171612501144
1696081834470753500,12.27475341796875,0.8416959643363953,0.7390705943107605,0.23220515251159668
1696081834480753700,12.284753662109376,1.1404091119766235,0.48922669887542725,0.2981785833835602
1696081834490753500,12.29475341796875,1.4495068788528442,-0.03856086730957031,0.23709207773208618
1696081834500753700,12.304753662109375,1.723785400390625,-0.5822309255599976,0.0544433668255806
1696081834510753500,12.31475341796875,1.8459584712982178,-0.8229118585586548,-0.2131156176328659
1696081834520754000,12.32475390625,1.790980577468872,-0.6164394021034241,-0.5020548701286316
1696081834530753800,12.33475390625,1.6327664852142334,-0.11125383526086807,-0.7836637496948242
1696081834540754000,12.34475390625,1.5069282054901123,0.5655848383903503,-1.057942271232605
1696081834550753800,12.35475390625,1.4831044673919678,1.2167671918869019,-1.3096187114715576
1696081834560753400,12.36475341796875,1.6791921854019165,1.390252947807312,-1.961411952972412
1696081834570753300,12.374753173828125,1.9907335042953491,0.9290496706962585,-2.77936053276062
1696081834580754400,12.38475439453125,2.09458065032959,0.14042264223098755,-3.049362897872925
1696081834590754300,12.39475439453125,1.9522489309310913,-0.7673230767250061,-2.675513505935669
1696081834600754400,12.40475439453125,1.6028339862823486,-1.3488668203353882,-1.8117499351501465
1696081834610754300,12.41475439453125,1.2021064758300781,-1.3158800601959229,-0.8142070174217224
1696081834620754400,12.42475439453125,0.9040042161941528,-0.8504008054733276,-0.03107776865363121
1696081834630754300,12.43475439453125,0.7170794606208801,-0.316504567861557,0.3482695519924164
1696081834640754400,12.44475439453125,0.6236170530319214,0.22655464708805084,0.40996694564819336
1696081834650754300,12.45475439453125,0.6046802401542664,0.6914231181144714,0.28473955392837524
1696081834660754400,12.46475439453125,0.6101779937744141,0.9956340193748474,0.05688682571053505
1696081834670754300,12.47475439453125,0.6089562773704529,1.1752283573150635,-0.18135061860084534
