time,seconds_elapsed,z,y,x
1695713014283204000,0.2902041015625,0.2468748539686203,-1.5945664644241333,-0.9325051307678223
1695713014293217000,0.300217041015625,0.3596596419811249,-1.4295837879180908,-1.0411620140075684
1695713014303092500,0.310092529296875,0.3074617087841034,-0.9279778003692627,-1.1061431169509888
1695713014313272300,0.320272216796875,-0.1344895362854004,-0.3358243703842163,-1.0986863374710083
1695713014323246800,0.330246826171875,-0.5860281586647034,-0.13981585204601288,-0.9474188685417175
1695713014333211600,0.340211669921875,-0.6616618633270264,-0.7479482293128967,-0.8451535701751709
1695713014343182600,0.3501826171875,-0.5412870645523071,-1.3230574131011963,-0.6800376772880554
1695713014353275600,0.360275634765625,-0.3069290816783905,-1.7085497379302979,-0.5896234512329102
1695713014363298000,0.370298095703125,0.048735812306404114,-2.0036277770996094,-0.8057388067245483
1695713014373318700,0.380318603515625,0.5684512853622437,-2.05143141746521,-1.1434273719787598
1695713014383340500,0.390340576171875,1.0285120010375977,-2.1089556217193604,-1.4490249156951904
1695713014393390000,0.40039013671875,1.3353079557418823,-2.25915789604187,-1.5992270708084106
1695713014403423500,0.410423583984375,1.5578149557113647,-2.5510401725769043,-1.5981618165969849
1695713014413458200,0.420458251953125,1.7484971284866333,-2.880073308944702,-1.505483865737915
1695713014423492000,0.4304921875,1.8678066730499268,-3.1909971237182617,-1.4042837619781494
1695713014433527800,0.44052783203125,1.9507640600204468,-3.5095109939575195,-1.262603759765625
1695713014443562500,0.4505625,2.160620927810669,-3.8246960639953613,-1.0486189126968384
1695713014453568300,0.460568359375,2.557831048965454,-4.203796863555908,-0.7567366361618042
1695713014463590700,0.470590576171875,3.0083045959472656,-4.733099460601807,-0.3680485785007477
1695713014473655600,0.480655517578125,3.3800814151763916,-5.377450942993164,-0.2721748650074005
1695713014483695900,0.49069580078125,3.7591822147369385,-5.820467472076416,-0.5086634159088135
1695713014493714400,0.50071435546875,4.134021759033203,-5.983452796936035,-0.8057388067245483
1695713014503745500,0.51074560546875,4.45786190032959,-5.9269938468933105,-1.1530147790908813
1695713014513798400,0.52079833984375,4.810331344604492,-5.681050777435303,-1.2455594539642334
1695713014523838700,0.530838623046875,5.228846549987793,-5.452019214630127,-1.1807116270065308
1695713014533834800,0.540834716796875,5.70808219909668,-5.35614538192749,-0.819587230682373
1695713014543856400,0.5508564453125,6.122469425201416,-5.535109996795654,-0.2966759204864502
1695713014553898800,0.560898681640625,6.413153648376465,-5.716204643249512,0.27949854731559753
1695713014563929000,0.57092919921875,6.4983744621276855,-5.689573287963867,0.989763081073761
1695713014573986000,0.580986083984375,6.179993629455566,-5.835381031036377,1.7225313186645508
1695713014584019200,0.591019287109375,5.699560165405273,-6.042042255401611,2.198570966720581
1695713014594029300,0.601029296875,5.413136959075928,-5.803422927856445,2.416949987411499
1695713014604060000,0.611059814453125,5.202215194702148,-5.10274600982666,2.362621545791626
1695713014614095400,0.621095458984375,4.787960529327393,-3.9141781330108643,2.0377161502838135
1695713014624126500,0.63112646484375,4.156392574310303,-2.589256525039673,1.6106786727905273
1695713014634160600,0.64116064453125,3.4802162647247314,-1.3837774991989136,1.1516832113265991
1695713014644192300,0.651192138671875,2.875279664993286,-0.5593965649604797,0.810931921005249
1695713014654226400,0.661226318359375,2.334259033203125,-0.22077588737010956,0.7832350730895996
1695713014664258000,0.671258056640625,1.799629807472229,-0.39974018931388855,1.0451568365097046
1695713014674311700,0.681311767578125,1.2863059043884277,-0.9747162461280823,1.4881733655929565
1695713014684345600,0.691345703125,0.8729835748672485,-1.6829833984375,1.9963040351867676
1695713014694381000,0.701381103515625,0.5439502596855164,-2.2857894897460938,2.4084279537200928
1695713014704415200,0.711415283203125,0.2786996066570282,-2.5860607624053955,2.592585325241089
1695713014714440700,0.721440673828125,0.08495477586984634,-2.598843812942505,2.5691494941711426
1695713014724473900,0.731473876953125,0.04554001986980438,-2.3923158645629883,2.4158847332000732
1695713014734513700,0.741513671875,0.09560741484165192,-1.9642130136489868,2.139981508255005
1695713014744547600,0.751547607421875,0.08388951420783997,-1.5402380228042603,1.7843165397644043
1695713014754572800,0.76157275390625,-0.020506324246525764,-1.3432974815368652,1.5307838916778564
1695713014764606000,0.77160595703125,-0.1664474457502365,-1.3731248378753662,1.4977606534957886
1695713014774785300,0.781785400390625,-0.3250385820865631,-1.6073496341705322,1.6575502157211304
1695713014784818400,0.791818359375,-0.4677838981151581,-2.0226693153381348,1.9419755935668945
1695713014794697000,0.801697021484375,-0.5870934128761292,-2.5339958667755127,2.274204730987549
1695713014804711700,0.811711669921875,-0.7000113725662231,-3.100449800491333,2.5744760036468506
1695713014814761000,0.821760986328125,-0.7628619074821472,-3.53188157081604,2.745983362197876
1695713014824779000,0.831779052734375,-0.7841671705245972,-3.8033907413482666,2.7992465496063232
1695713014834849800,0.841849853515625,-0.696815550327301,-3.7799549102783203,2.6980464458465576
1695713014844873200,0.851873291015625,-0.5263733863830566,-3.409376382827759,2.3008363246917725
1695713014854906400,0.86190625,-0.23675484955310822,-2.623344898223877,1.3721927404403687
1695713014864930800,0.871930908203125,-0.005592633970081806,-1.5498254299163818,-0.10506162792444229
1695713014874956300,0.881956298828125,-0.06950845569372177,-0.9386304020881653,-0.6609960794448853
1695713014884980700,0.891980712890625,-0.3314301371574402,-0.9088030457496643,-0.31798118352890015
1695713014895020000,0.90202001953125,-0.7266429662704468,-1.0801773071289062,0.1303616315126419
1695713014905046000,0.9120458984375,-0.9257140755653381,-1.161137342453003,0.4902876019477844
1695713014915081000,0.9220810546875,-0.8436887860298157,-1.1547458171844482,0.8045403361320496
1695713014925108000,0.93210791015625,-0.7362303137779236,-1.2175962924957275,1.3359737396240234
1695713014935127000,0.942126953125,-0.6542050242424011,-1.5849791765213013,2.031324625015259
1695713014945153000,0.952153076171875,-0.5881586670875549,-2.0121498107910156,2.6533055305480957
1695713014955217400,0.962217529296875,-0.3175817131996155,-2.215481996536255,2.568084239959717
1695713014965247500,0.97224755859375,-0.08016108721494675,-1.9844529628753662,1.969672441482544
1695713014975274000,0.98227392578125,-0.1249021589756012,-1.478585958480835,1.7108134031295776
1695713014985303800,0.9923037109375,-0.19840535521507263,-1.0322405099868774,1.7534239292144775
1695713014995338200,1.002338134765625,-0.19627483189105988,-0.838495671749115,1.667137622833252
1695713015005368600,1.01236865234375,-0.15472954511642456,-0.6669881939888,1.4094769954681396
1695713015015418000,1.022418212890625,-0.16325165331363678,-0.24953800439834595,1.0270472764968872
1695713015025450200,1.0324501953125,-0.16005586087703705,0.5854955315589905,0.9695230722427368
1695713015035485400,1.0424853515625,0.03275685757398605,1.005076289176941,0.8247803449630737
1695713015045517800,1.052517822265625,0.1243695318698883,1.297890543937683,0.9100014567375183
1695713015055535000,1.06253515625,0.17976324260234833,0.9123983383178711,1.0472873449325562
1695713015065566000,1.07256591796875,0.3021354079246521,0.1615206003189087,1.304015874862671
1695713015075597600,1.08259765625,0.5972134470939636,-0.6850976943969727,1.5542196035385132
1695713015085628400,1.09262841796875,0.7229145169258118,-1.511475920677185,1.659680724143982
1695713015095668200,1.102668212890625,0.49814391136169434,-2.185654640197754,1.532914400100708
1695713015105700000,1.1127001953125,0.10519478470087051,-2.493515968322754,1.2358390092849731
1695713015115733500,1.1227333984375,-0.6787061095237732,-2.5604944229125977,0.5744433999061584
1695713015125765600,1.132765625,-1.511475920677185,-1.8321202993392944,-0.2018674612045288
1695713015135782400,1.142782470703125,-1.9566229581832886,-0.4848281145095825,-0.8643282651901245
1695713015145812700,1.152812744140625,-2.190980911254883,1.136103630065918,-1.5012227296829224
1695713015155857000,1.16285693359375,-1.9086861610412598,2.1968400478363037,-1.582182765007019
1695713015165888500,1.172888427734375,-1.3113394975662231,2.0381157398223877,-0.7567366361618042
1695713015175919900,1.182919921875,-0.7064029574394226,1.1701921224594116,0.35513225197792053
1695713015185951700,1.19295166015625,-0.3527354300022125,-0.11957584321498871,1.2656663656234741
1695713015195992300,1.202992431640625,-0.32823434472084045,-1.138766884803772,1.7981650829315186
1695713015206025000,1.21302490234375,-0.5242428779602051,-1.2932300567626953,1.7768597602844238
1695713015216064300,1.223064208984375,-0.704272449016571,-0.8182556629180908,1.270992636680603
1695713015226097700,1.23309765625,-0.7852324843406677,-0.3177148699760437,0.4125233590602875
1695713015236124200,1.243124267578125,-0.8064045906066895,-0.05779055133461952,-0.3020022511482239
1695713015246156800,1.25315673828125,-0.7032071352005005,-0.05352949723601341,-0.6832334399223328
1695713015256187400,1.2631875,-0.5551354885101318,0.14341111481189728,-0.7609977126121521
1695713015266219800,1.2732197265625,-0.11105373501777649,0.22543641924858093,-0.9048082828521729
1695713015276246000,1.28324609375,0.28189539909362793,0.9709877967834473,-1.0155956745147705
1695713015286277600,1.293277587890625,0.8687224984169006,1.5184001922607422,-1.3371721506118774
1695713015296311300,1.303311279296875,1.767671823501587,1.5556844472885132,-1.5917701721191406
1695713015306343200,1.31334326171875,2.5620923042297363,1.306412696838379,-1.8057550191879272
1695713015316377000,1.323377197265625,3.2714245319366455,1.0359688997268677,-1.9740667343139648
1695713015326409500,1.333409423828125,4.000997066497803,0.5141228437423706,-1.8121466636657715
1695713015336441600,1.343441650390625,4.591951847076416,-0.3411506712436676,-1.3925658464431763
1695713015346629400,1.35362939453125,4.970120906829834,-1.3539501428604126,-0.8813725113868713
1695713015356661500,1.36366162109375,5.1169939041137695,-2.574342727661133,-0.3563306927680969
1695713015366656800,1.37365673828125,5.015926837921143,-3.802325487136841,0.17936377227306366
1695713015376685300,1.383685302734375,4.817788124084473,-5.014328956604004,0.8151929974555969
1695713015386713900,1.3937138671875,4.560127258300781,-6.216745376586914,1.4966953992843628
1695713015396655600,1.403655517578125,4.031889915466309,-6.759896755218506,2.1825921535491943
1695713015406677000,1.413677001953125,3.259706735610962,-5.975996017456055,2.9526445865631104
1695713015416716800,1.423716796875,2.5205469131469727,-3.844935894012451,3.5671684741973877
1695713015426740000,1.433739990234375,1.9465030431747437,-1.416800618171692,3.784349203109741
1695713015436749600,1.44374951171875,1.9880483150482178,0.23715431988239288,3.50644850730896
1695713015446771500,1.453771484375,2.7453174591064453,1.3756548166275024,3.0751497745513916
1695713015456813800,1.463813720703125,3.513106346130371,2.1584904193878174,2.397775411605835
1695713015466837800,1.473837646484375,4.312986373901367,2.066877841949463,1.6682028770446777
1695713015476881000,1.483880859375,5.067059516906738,1.30108642578125,1.1431610584259033
1695713015486907000,1.493906982421875,5.669732570648193,-0.0588558167219162,0.718254029750824
1695713015496939300,1.503939208984375,5.704886436462402,-1.6520907878875732,0.84821617603302
1695713015506965800,1.5139658203125,5.185170650482178,-3.717104434967041,1.3785842657089233
1695713015517034800,1.52403466796875,5.074516296386719,-5.898231506347656,1.781120777130127
1695713015527065600,1.534065673828125,5.201149940490723,-7.113430976867676,2.1005666255950928
1695713015537078800,1.544078857421875,4.997817516326904,-6.7215471267700195,2.055825710296631
1695713015547107800,1.55410791015625,4.241613388061523,-5.260272026062012,1.4041506052017212
1695713015557134000,1.564134033203125,3.398190975189209,-2.7106964588165283,0.35406699776649475
1695713015567163000,1.574162841796875,2.871018648147583,-0.21118851006031036,-0.2636527419090271
1695713015577228500,1.584228515625,2.6643574237823486,0.9752488732337952,-0.28389275074005127
1695713015587261200,1.59426123046875,2.6164207458496094,0.9443562030792236,-0.12636689841747284
1695713015597296400,1.60429638671875,2.7037723064422607,0.3266364634037018,-0.11145320534706116
1695713015607329300,1.614329345703125,2.886997699737549,-0.5167860388755798,-0.14753901958465576
1695713015617327400,1.624327392578125,3.0445234775543213,-1.2996217012405396,-0.10719215124845505
1695713015627356700,1.634356689453125,3.106308698654175,-1.7820528745651245,0.03981423005461693
1695713015637392400,1.644392333984375,3.0722203254699707,-1.8832529783248901,0.25073641538619995
1695713015647422200,1.654422119140625,2.985934019088745,-1.5508906841278076,0.47004759311676025
1695713015657494300,1.664494384765625,2.677140712738037,-0.8406261801719666,0.559529721736908
1695713015667528400,1.674528564453125,1.859284520149231,-0.2569948434829712,0.44235071539878845
1695713015677526800,1.68452685546875,0.24474431574344635,-0.001331579522229731,0.2486059069633484
1695713015687557400,1.694557373046875,-0.9416930675506592,0.24780695140361786,0.12823110818862915
1695713015697598200,1.70459814453125,-0.7351650595664978,0.5886912941932678,0.20173430442810059
1695713015707629800,1.7146298828125,-0.23888537287712097,0.7046719193458557,0.21345220506191254
1695713015717667000,1.7246669921875,0.013582111336290836,0.5482112765312195,0.10586057603359222
1695713015727699200,1.73469921875,0.024234747514128685,0.28083011507987976,-0.08269108831882477
1695713015737745200,1.7447451171875,-0.036485280841588974,0.0732368752360344,-0.2636527419090271
1695713015747778600,1.754778564453125,-0.060986343771219254,0.08602003753185272,-0.35100436210632324
1695713015757797400,1.76479736328125,-0.0034621069207787514,0.1009337306022644,-0.335025429725647
1695713015767829500,1.77482958984375,0.03382211923599243,0.110521100461483,-0.32756856083869934
1695713015777866500,1.784866455078125,0.028495801612734795,0.17856481671333313,-0.3382211923599243
1695713015787899100,1.794899169921875,0.007190529722720385,0.26698169112205505,-0.3286338448524475
1695713015797919500,1.80491943359375,-0.010918952524662018,0.30852699279785156,-0.27537065744400024
1695713015807950600,1.81495068359375,-0.0141147430986166,0.2936132848262787,-0.18588849902153015
1695713015817990000,1.824989990234375,-0.011984216049313545,0.16258586943149567,-0.10825742036104202
1695713015828022000,1.83502197265625,-0.024767380207777023,-0.20266640186309814,-0.09867004305124283
1695713015838065700,1.845065673828125,-0.023702116683125496,-0.5380913019180298,-0.13062795996665955
1695713015848098800,1.855098876953125,-0.01837579719722271,-0.7671229839324951,-0.19654114544391632
1695713015858108400,1.8651083984375,-0.05139897018671036,-0.8076030015945435,-0.25086960196495056
1695713015868139300,1.87513916015625,-0.04713791608810425,-0.4773712754249573,-0.20932430028915405
1695713015878185700,1.885185791015625,-0.04713791608810425,0.14128059148788452,-0.05392897129058838
1695713015888218000,1.895218017578125,-0.07483477145433426,0.6929540038108826,0.13888375461101532
1695713015898246000,1.905245849609375,-0.09507478028535843,0.8367645740509033,0.23049642145633698
1695713015908278000,1.915278076171875,-0.10679268091917038,0.6099966168403625,0.08988162130117416
1695713015918285600,1.92528564453125,-0.10359688848257065,0.35646384954452515,-0.1093226820230484
1695713015928315100,1.935315185546875,-0.0727042406797409,0.6854971647262573,-0.0858868807554245
1695713015938357200,1.945357177734375,-0.14088112115859985,1.9731346368789673,0.17510271072387695
1695713015948387800,1.955387939453125,-0.12596742808818817,2.100966215133667,0.0270310640335083
1695713015958471700,1.9654716796875,-0.07696529477834702,1.8975008726119995,-0.10186583548784256
1695713015968508000,1.9755078125,-0.004527370445430279,1.3213263750076294,-0.2402169555425644
1695713015978527500,1.985527587890625,0.0540621280670166,0.6876276731491089,-0.3062632977962494
1695713015988561700,1.995561767578125,0.08069372177124023,0.24993747472763062,-0.31798118352890015
1695713015998571800,2.00557177734375,0.0679105594754219,0.07110634446144104,-0.3296990990638733
1695713016008603600,2.015603759765625,0.03808317333459854,0.029561065137386322,-0.33715593814849854
1695713016018630400,2.02563037109375,-0.0034621069207787514,0.05938844755291939,-0.30732855200767517
1695713016028661800,2.035661865234375,-0.04500738903880119,0.11478215456008911,-0.23915168642997742
1695713016038719200,2.04571923828125,-0.05779055133461952,0.025300011038780212,-0.18695376813411713
1695713016048753400,2.05575341796875,-0.029028434306383133,-0.2324937880039215,-0.1741705983877182
1695713016058740000,2.065739990234375,0.01784316636621952,-0.3699128031730652,-0.1741705983877182
1695713016068769300,2.075769287109375,0.02636527456343174,-0.29534435272216797,-0.20932430028915405
1695713016078850300,2.085850341796875,0.025300011038780212,-0.11105373501777649,-0.2732401192188263
1695713016088884700,2.095884765625,0.029561065137386322,0.035952646285295486,-0.35526543855667114
1695713016098880000,2.1058798828125,0.04234423115849495,0.05086633935570717,-0.4415517747402191
1695713016108910300,2.115910400390625,0.056192658841609955,-0.020506324246525764,-0.4937497079372406
1695713016118946300,2.1259462890625,0.09347688406705856,-0.12064110487699509,-0.47777074575424194
1695713016128977200,2.13597705078125,0.11158636957406998,-0.21012325584888458,-0.41705071926116943
1695713016139038000,2.146037841796875,0.09880319982767105,-0.28682222962379456,-0.3520696461200714
1695713016149072100,2.156072021484375,0.0913463607430458,-0.34434646368026733,-0.3201117217540741
1695713016159093800,2.16609375,0.08495477586984634,-0.39015281200408936,-0.32650330662727356
1695713016169126700,2.176126708984375,0.06151897460222244,-0.3731085956096649,-0.33715593814849854
1695713016179140600,2.186140625,0.05725792050361633,-0.2761695981025696,-0.343547523021698
1695713016189171500,2.19617138671875,0.06151897460222244,-0.13662005960941315,-0.3478085696697235
1695713016199230500,2.20623046875,0.060453712940216064,-0.08016108721494675,-0.354200154542923
1695713016209264000,2.21626416015625,0.04554001986980438,-0.12277163565158844,-0.354200154542923
1695713016219305700,2.2263056640625,0.035952646285295486,-0.26338642835617065,-0.3563306927680969
1695713016229340200,2.236340087890625,0.03169159218668938,-0.45500072836875916,-0.3584612011909485
1695713016239339500,2.246339599609375,0.03914843872189522,-0.5476786494255066,-0.3488738536834717
1695713016249370400,2.256370361328125,0.05725792050361633,-0.49228495359420776,-0.31691592931747437
1695713016259399700,2.266399658203125,0.06684529036283493,-0.3731085956096649,-0.2583264410495758
1695713016269430300,2.27643017578125,0.03914843872189522,-0.3645864725112915,-0.19867166876792908
1695713016279487200,2.2864873046875,0.010386320762336254,-0.3933486044406891,-0.118910051882267
1695713016289520400,2.296520263671875,0.0018642114009708166,-0.3645864725112915,-0.04540686309337616
1695713016299549200,2.306549072265625,0.007190529722720385,-0.3028011918067932,0.021704746410250664
1695713016309582000,2.31658203125,0.016777902841567993,-0.22184115648269653,0.061119500547647476
1695713016319633700,2.326633544921875,0.008255792781710625,-0.15579481422901154,0.05898897349834442
1695713016329668400,2.33666845703125,-0.011984216049313545,-0.1387505829334259,0.02277000993490219
1695713016339665700,2.346665771484375,-0.03328948840498924,-0.2143843024969101,-0.052863709628582
1695713016349696500,2.356696533203125,-0.040746334940195084,-0.3219759464263916,-0.10719215124845505
1695713016359730200,2.366730224609375,-0.08016108721494675,-0.4443480968475342,-0.13169321417808533
1695713016369761300,2.37676123046875,-0.09294424951076508,-0.3976096510887146,-0.09760478138923645
1695713016379804200,2.38680419921875,-0.09400951862335205,-0.23995064198970795,-0.009187898598611355
1695713016389836500,2.39683642578125,-0.1249021589756012,-0.1525990217924118,0.06325002759695053
1695713016399860000,2.40685986328125,-0.06418213248252869,0.009321057237684727,0.13888375461101532
1695713016409891600,2.4168916015625,-0.0588558167219162,0.07110634446144104,0.1346226930618286
1695713016419920000,2.426919921875,-0.03435475379228592,0.17110797762870789,0.10159952193498611
1695713016429951000,2.436950927734375,-0.036485280841588974,0.1796300858259201,0.03555317223072052
1695713016440007400,2.44700732421875,-0.08974846452474594,0.05512739345431328,-0.07736477255821228
1695713016450041000,2.457041015625,-0.2090579867362976,-0.14514216780662537,-0.21891167759895325
1695713016460074200,2.46707421875,-0.21118851006031036,-0.1291632205247879,-0.2530001103878021
1695713016470108000,2.47710791015625,-0.06418213248252869,0.19560903310775757,-0.15606112778186798
1695713016480119800,2.487119873046875,0.03488738462328911,0.4054659605026245,-0.08269108831882477
1695713016490151200,2.497151123046875,0.06897582113742828,0.392682820558548,-0.06458161026239395
1695713016500206300,2.507206298828125,0.013582111336290836,0.20626167953014374,-0.10612688958644867
1695713016510240300,2.517240234375,-0.06311687082052231,0.0007989477599039674,-0.18588849902153015
1695713016520276000,2.52727587890625,0.07430213689804077,0.07856319099664688,-0.16564849019050598
1695713016530310000,2.537309814453125,0.19787272810935974,0.15299849212169647,-0.0997353047132492
1695713016540320300,2.5473203125,0.16058848798274994,-0.0002663159102667123,-0.10399636626243591
1695713016550352000,2.557351806640625,0.1392832249403,-0.23462431132793427,-0.12317110598087311
1695713016560391000,2.567390869140625,0.15632744133472443,-0.3741738498210907,-0.11464899778366089
1695713016570423000,2.577423095703125,0.10412952303886414,-0.5625923871994019,-0.1368863731622696
1695713016580471800,2.587471923828125,0.1669800728559494,-0.566853404045105,-0.09653951972723007
1695713016590505700,2.597505615234375,0.15100112557411194,-0.554070234298706,-0.015579480677843094
1695713016600506600,2.607506591796875,0.06684529036283493,-0.5849629044532776,0.049401599913835526
1695713016610537200,2.617537109375,0.03169159218668938,-0.5636576414108276,0.1399490088224411
1695713016620580600,2.62758056640625,-0.010918952524662018,-0.3848264813423157,0.2539322078227997
1695713016630612500,2.637612548828125,-0.09933583438396454,-0.004527370445430279,0.3977428078651428
1695713016640655400,2.6476552734375,-0.171773761510849,0.34581121802330017,0.5499423742294312
1695713016650688500,2.6576884765625,-0.18668745458126068,0.5162534117698669,0.6916224360466003
1695713016660696300,2.6676962890625,-0.16431692242622375,0.524775505065918,0.7928224802017212
1695713016670726700,2.6777265625,-0.12596742808818817,0.5162534117698669,0.8077361583709717
1695713016680792000,2.6877919921875,-0.12383689731359482,0.5237102508544922,0.7321024537086487
1695713016690826000,2.697825927734375,-0.11424952745437622,0.45020705461502075,0.6202497482299805
1695713016700850000,2.707849853515625,-0.08122635632753372,0.3500722646713257,0.5073317885398865
1695713016710882800,2.7178828125,-0.052464235574007034,0.24674169719219208,0.41784965991973877
1695713016720920800,2.7279208984375,-0.03968106955289841,0.1796300858259201,0.37856805324554443
1695713016730954500,2.73795458984375,-0.04287686198949814,0.17217323184013367,0.3743070065975189
1695713016740960300,2.747960205078125,-0.052464235574007034,0.22330589592456818,0.39135122299194336
1695713016750991000,2.7579912109375,-0.06737792491912842,0.30959224700927734,0.42850229144096375
1695713016761045800,2.768045654296875,-0.08335687965154648,0.39907440543174744,0.4679170548915863
1695713016771079000,2.778078857421875,-0.0918789878487587,0.46512073278427124,0.49880969524383545
1695713016781092900,2.7880927734375,-0.09400951862335205,0.5056007504463196,0.5105276107788086
1695713016791124000,2.7981240234375,-0.08335687965154648,0.5301018357276917,0.5041360259056091
1695713016801151000,2.80815087890625,-0.06950845569372177,0.46938177943229675,0.5030707716941833
1695713016811181800,2.818181884765625,-0.06311687082052231,0.39481332898139954,0.49454864859580994
1695713016821233700,2.828233642578125,-0.04287686198949814,0.34794172644615173,0.47004759311676025
1695713016831266600,2.8382666015625,-0.016245270147919655,0.3213101327419281,0.44235071539878845
1695713016841310700,2.848310791015625,0.00612526573240757,0.3032006621360779,0.4221107065677643
1695713016851345000,2.858344970703125,0.014647374860942364,0.2552638053894043,0.4263717830181122
1695713016861374500,2.86837451171875,0.021038956940174103,0.1849564015865326,0.45193809270858765
1695713016871408000,2.878408203125,0.03169159218668938,0.1327584832906723,0.47324338555336
1695713016881415200,2.888415283203125,0.044474758207798004,0.110521100461483,0.4721781015396118
1695713016891446500,2.898446533203125,0.056192658841609955,0.10306425392627716,0.4540686309337616
1695713016901483800,2.90848388671875,0.05193160101771355,0.07430213689804077,0.4348938763141632
1695713016911515600,2.918515625,0.044474758207798004,0.03808317333459854,0.41784965991973877
1695713016921558800,2.928558837890625,0.04660528525710106,0.013582111336290836,0.39667755365371704
1695713016931591700,2.938591796875,0.03914843872189522,-0.0023968431632965803,0.35939332842826843
1695713016941613600,2.948613525390625,0.024234747514128685,-0.013049479573965073,0.3242396116256714
1695713016951645200,2.958645263671875,0.008255792781710625,-0.016245270147919655,0.3050648868083954
1695713016961677600,2.968677490234375,-0.0034621069207787514,0.003994738683104515,0.30293434858322144
1695713016971709400,2.97870947265625,-0.0034621069207787514,0.040213704109191895,0.3103911876678467
1695713016981766100,2.98876611328125,0.008255792781710625,0.07856319099664688,0.3221091032028198
1695713016991800600,2.998800537109375,0.016777902841567993,0.10306425392627716,0.33595752716064453
1695713017001817000,3.008817138671875,0.023169483989477158,0.11691268533468246,0.350871205329895
1695713017011849500,3.018849365234375,0.027430538088083267,0.10306425392627716,0.3711112141609192
1695713017021895000,3.02889501953125,0.023169483989477158,0.08282424509525299,0.3838943839073181
1695713017031928800,3.0389287109375,0.02210422046482563,0.07004108279943466,0.39135122299194336
1695713017041938400,3.0489384765625,0.023169483989477158,0.05832318589091301,0.4114580750465393
1695713017051969800,3.0589697265625,0.025300011038780212,0.04660528525710106,0.44661179184913635
1695713017061996500,3.06899658203125,0.030626330524683,0.03488738462328911,0.4828307330608368
1695713017072027400,3.07902734375,0.02636527456343174,0.03169159218668938,0.500940203666687
1695713017082066000,3.08906591796875,0.019973693415522575,0.019973693415522575,0.49880969524383545
1695713017092097500,3.09909765625,0.014647374860942364,-0.01837579719722271,0.4785696864128113
1695713017102140200,3.10914013671875,0.003994738683104515,-0.07376950979232788,0.4434159994125366
1695713017112172800,3.1191728515625,-0.006657897960394621,-0.11424952745437622,0.3934817612171173
1695713017122202000,3.1292021484375,-0.00985368900001049,-0.16538217663764954,0.35300174355506897
1695713017132234500,3.139234375,-0.01837579719722271,-0.20266640186309814,0.3189133107662201
1695713017142266400,3.149266357421875,-0.016245270147919655,-0.24421168863773346,0.30186909437179565
1695713017152298800,3.159298828125,-0.016245270147919655,-0.26871275901794434,0.28802067041397095
1695713017162333700,3.169333740234375,-0.016245270147919655,-0.27297380566596985,0.2848248779773712
1695713017172366300,3.179366455078125,-0.02157158963382244,-0.2708432674407959,0.294412225484848
1695713017182386200,3.18938623046875,-0.023702116683125496,-0.25912538170814514,0.30613014101982117
1695713017192417500,3.19941748046875,-0.019441060721874237,-0.2559295892715454,0.3199785649776459
1695713017202475500,3.2094755859375,-0.023702116683125496,-0.2655169665813446,0.33915331959724426
1695713017212509400,3.219509521484375,-0.03435475379228592,-0.25486433506011963,0.36791542172431946
1695713017222523000,3.22952294921875,-0.04181159660220146,-0.2047969400882721,0.406131774187088
1695713017232554800,3.2395546875,-0.0492684431374073,-0.18349166214466095,0.4348938763141632
1695713017242578400,3.249578369140625,-0.06311687082052231,-0.19201377034187317,0.42743703722953796
1695713017252609300,3.259609375,-0.07483477145433426,-0.1898832470178604,0.38709017634391785
1695713017262693000,3.269693115234375,-0.08016108721494675,-0.1813611388206482,0.331696480512619
1695713017272729900,3.279729736328125,-0.09081372618675232,-0.16005586087703705,0.2667153775691986
1695713017282730200,3.289730224609375,-0.10359688848257065,-0.10466215014457703,0.20279955863952637
1695713017292763400,3.299763427734375,-0.11424952745437622,-0.020506324246525764,0.14740586280822754
1695713017302800100,3.309800048828125,-0.10359688848257065,0.0540621280670166,0.10053425282239914
1695713017312833800,3.319833740234375,-0.06524740159511566,0.07962846010923386,0.045140545815229416
1695713017322854700,3.329854736328125,0.009321057237684727,0.040213704109191895,-0.03262370079755783
1695713017332887000,3.339886962890625,0.09454214572906494,-0.04607265070080757,-0.1327584832906723
1695713017342906600,3.34990673828125,0.16378428041934967,-0.1525990217924118,-0.23915168642997742
1695713017352937700,3.359937744140625,0.2095906287431717,-0.23462431132793427,-0.332894891500473
1695713017363121000,3.370120849609375,0.24154852330684662,-0.28682222962379456,-0.4138549268245697
1695713017373151000,3.38015087890625,0.2607232630252838,-0.3273022472858429,-0.4884233772754669
1695713017383181800,3.390181884765625,0.2671148478984833,-0.3507380485534668,-0.5661876201629639
1695713017393222400,3.400222412109375,0.2607232630252838,-0.3613906800746918,-0.6757766008377075
1695713017403248600,3.41024853515625,0.2426137924194336,-0.3869570195674896,-0.832370400428772
1695713017413279700,3.42027978515625,0.22983063757419586,-0.5018723607063293,-1.0198568105697632
1695713017423345200,3.43034521484375,0.2330264151096344,-0.7277082204818726,-1.2476900815963745
1695713017433348900,3.440348876953125,0.25326642394065857,-0.997086763381958,-1.5267890691757202
1695713017443380000,3.4503798828125,0.26818013191223145,-1.2346405982971191,-1.8664751052856445
1695713017453419300,3.460419189453125,0.3021354079246521,-1.3358405828475952,-2.2680795192718506
1695713017463449900,3.470449951171875,0.314918577671051,-1.3784511089324951,-2.7302706241607666
1695713017473477400,3.480477294921875,0.35539859533309937,-1.4636722803115845,-3.2542471885681152
1695713017483509200,3.49050927734375,0.4097270369529724,-1.4594111442565918,-3.8645100593566895
1695713017493544000,3.5005439453125,0.4480765163898468,-1.2761858701705933,-4.499141216278076
1695713017503578400,3.510578369140625,0.4342280924320221,-0.9258472323417664,-4.829372882843018
1695713017513613000,3.520613037109375,0.4246407151222229,-0.6819018721580505,-4.64614725112915
1695713017523647500,3.5306474609375,0.3692470192909241,-0.734099805355072,-3.9986002445220947
1695713017533682200,3.54068212890625,0.21278640627861023,-1.034371018409729,-3.2180283069610596
1695713017543716600,3.550716552734375,0.044474758207798004,-1.7383770942687988,-2.668485403060913
1695713017553751300,3.560751220703125,-0.05459476262331009,-2.2421135902404785,-2.515087366104126
1695713017563785700,3.57078564453125,-0.048203181475400925,-2.374206304550171,-2.6162874698638916
1695713017573817600,3.580817626953125,0.044474758207798004,-2.254896879196167,-2.7622287273406982
1695713017583810000,3.59081005859375,0.16378428041934967,-2.055692434310913,-2.80696964263916
1695713017593842000,3.600842041015625,0.23835274577140808,-1.8598171472549438,-2.744119167327881
1695713017603873800,3.610873779296875,0.24794010818004608,-1.8821877241134644,-2.608830690383911
1695713017613939700,3.620939697265625,0.23622220754623413,-2.1526315212249756,-2.4639546871185303
1695713017623974400,3.630974365234375,0.22556957602500916,-2.2527663707733154,-2.2819278240203857
1695713017634006300,3.64100634765625,0.22024326026439667,-2.1494357585906982,-2.051831007003784
1695713017644004900,3.6510048828125,0.2234390527009964,-1.784183382987976,-1.7929718494415283
1695713017654046700,3.661046630859375,0.2287653684616089,-1.4157353639602661,-1.548094391822815
1695713018898002400,4.90500244140625,-0.8372972011566162,-0.3922833502292633,1.897234559059143
1695713018908019200,4.915019287109375,-0.942758321762085,-0.05352949723601341,2.103762626647949
1695713018918036000,4.925035888671875,-0.9502151608467102,0.32344067096710205,2.2997710704803467
1695713018928052700,4.935052734375,-0.7862977385520935,0.7078676819801331,2.5053670406341553
1695713018938084900,4.9450849609375,-0.4379565119743347,1.0253162384033203,2.475539445877075
1695713018948117000,4.955116943359375,0.14674006402492523,0.7099981904029846,1.6607459783554077
1695713018958148900,4.96514892578125,1.0583394765853882,-0.5040028691291809,0.32104381918907166
1695713018968181000,4.975180908203125,1.8273266553878784,-1.8917750120162964,-0.8898946046829224
1695713018978213000,4.985213134765625,2.011484146118164,-2.293246269226074,-2.287121057510376
1695713018988245000,4.995244873046875,1.4172000885009766,-1.453019618988037,-2.9410598278045654
1695713018998277000,5.005277099609375,0.6941524147987366,-0.4667186439037323,-2.7217485904693604
1695713019008309000,5.01530908203125,0.24474431574344635,-0.21225377917289734,-2.251035213470459
1695713019018341000,5.025341064453125,-0.06524740159511566,-0.6233124136924744,-1.6471638679504395
1695713019028373000,5.035373046875,-0.17496955394744873,-1.1920300722122192,-1.1871031522750854
1695713019038405000,5.045405029296875,-0.16538217663764954,-1.8694045543670654,-1.0720547437667847
1695713019048437200,5.055437255859375,-0.15899059176445007,-2.0897810459136963,-0.6024065613746643
1695713019058468400,5.06546826171875,-0.41345545649528503,-1.531715989112854,0.6149234175682068
1695713019068499500,5.07549951171875,-0.8436887860298157,-0.30599698424339294,2.0526299476623535
1695713019078530600,5.085530517578125,-1.2048131227493286,1.2542147636413574,3.1900651454925537
1695713019088561700,5.095561767578125,-1.340101718902588,3.2660982608795166,3.6831490993499756
1695713019098592800,5.1055927734375,-0.8809730410575867,4.6345624923706055,3.202848196029663
1695713019108624000,5.115623779296875,0.4139880836009979,3.443864107131958,1.6394407749176025
1695713019118655000,5.125655029296875,1.1872363090515137,1.063665747642517,1.095224142074585
1695713019128686000,5.13568603515625,0.5577986836433411,0.18708692491054535,1.7150744199752808
1695713019138717400,5.145717529296875,-0.7777756452560425,0.45127230882644653,2.1165456771850586
1695713019148748300,5.155748291015625,-1.2974910736083984,0.887897253036499,2.2113542556762695
1695713019158781000,5.165781005859375,-1.1707247495651245,1.3916337490081787,2.298705816268921
1695713019168814600,5.175814697265625,-0.8692551255226135,2.1137492656707764,2.5437164306640625
1695713019178848500,5.1858486328125,-0.5487439036369324,2.8145596981048584,3.0314741134643555
1695713019188882400,5.19588232421875,-0.3548659384250641,3.194725751876831,3.686344861984253
1695713019198916000,5.205916015625,-0.40706387162208557,3.2607719898223877,4.31578254699707
1695713019208950000,5.215949951171875,-0.6733797788619995,3.111635208129883,4.74921178817749
1695713019218983700,5.225983642578125,-0.8479498624801636,2.971020221710205,4.854672908782959
1695713019229017600,5.236017578125,-0.8607330322265625,2.9742159843444824,4.617251873016357
1695713019239051300,5.24605126953125,-0.8926909565925598,2.936931848526001,4.012315273284912
1695713019249085200,5.256085205078125,-0.9480846524238586,2.5557005405426025,3.093259334564209
1695713019259119000,5.266119140625,-0.8415582776069641,1.8165408372879028,2.2507688999176025
1695713019269155300,5.2761552734375,-0.6318345069885254,0.7696529626846313,1.7331839799880981
1695713019279214000,5.286214111328125,-0.5093291997909546,0.29041749238967896,1.4680664539337158
1695713019289273000,5.296273193359375,-0.5860281586647034,0.36179015040397644,1.425455927848816
1695713019299331800,5.306331787109375,-0.7106640338897705,1.0157288312911987,1.5883080959320068
1695713019309390600,5.316390625,-0.829840362071991,2.141446352005005,1.8120135068893433
1695713019319449300,5.326449462890625,-0.8223835229873657,2.8900601863861084,1.822666049003601
1695713019329508000,5.336508056640625,-0.6488786935806274,2.9880645275115967,1.7150744199752808
1695713019339540200,5.346540283203125,-0.4209122955799103,2.951845645904541,1.667137622833252
1695713019349556500,5.356556396484375,-0.2516685426235199,3.015761375427246,1.704421877861023
1695713019359572700,5.36657275390625,-0.11851058155298233,2.9593024253845215,1.7970997095108032
1695713019369588700,5.376588623046875,0.014647374860942364,2.7602312564849854,1.8588850498199463
1695713019379605000,5.38660498046875,0.148870587348938,2.3383867740631104,1.8450366258621216
1695713019389621200,5.396621337890625,0.27550381422042847,1.6813855171203613,1.7672723531723022
1695713019399637200,5.40663720703125,0.3820301592350006,1.0061415433883667,1.6351796388626099
1695713019409653500,5.416653564453125,0.48429548740386963,0.5364934206008911,1.4988259077072144
1695713019419669800,5.426669677734375,0.5439502596855164,0.4704470634460449,1.392432689666748
1695713019429686000,5.43668603515625,0.5215796828269958,0.7185203433036804,1.3029506206512451
1695713019439702000,5.446701904296875,0.4352933466434479,0.9571393728256226,1.236904263496399
1695713019449734100,5.456734130859375,0.34687647223472595,1.0476868152618408,1.1729884147644043
1695713019459766300,5.466766357421875,0.2607232630252838,1.0242509841918945,1.0387651920318604
1695713019469798400,5.47679833984375,0.15632744133472443,0.9837709665298462,0.7651256322860718
1695713019479830500,5.48683056640625,0.016777902841567993,0.8815056681632996,0.4391549229621887
1695713019489862700,5.496862548828125,-0.12170637398958206,0.796284556388855,0.17510271072387695
1695713019499894800,5.506894775390625,-0.17390428483486176,0.7163897752761841,0.03981423005461693
1695713019509927000,5.516927001953125,-0.18668745458126068,0.6494113206863403,-0.023036325350403786
1695713019519959000,5.526958984375,-0.22184115648269653,0.5737776160240173,-0.10506162792444229
1695713019529991200,5.5369912109375,-0.302668035030365,0.5024049878120422,-0.2743053734302521
1695713019540023000,5.54702294921875,-0.4336954653263092,0.44168493151664734,-0.5970802903175354
1695713019550055400,5.557055419921875,-0.5775060653686523,0.2552638053894043,-1.055010437965393
1695713019560088800,5.5670888671875,-0.7085334658622742,-0.11105373501777649,-1.4788522720336914
1695713019570122200,5.577122314453125,-0.8127961754798889,-0.4667186439037323,-1.978327751159668
1695713019580155600,5.58715576171875,-0.8884298801422119,-0.6265081763267517,-2.7750117778778076
1695713019590188800,5.597188720703125,-0.9108003973960876,-0.34328120946884155,-3.4266867637634277
1695713019600222200,5.60722216796875,-0.8937562108039856,0.2605901062488556,-3.588606834411621
1695713019610255600,5.617255615234375,-0.8969519734382629,0.6801708340644836,-3.3936636447906494
1695713019620289000,5.6272890625,-0.9033435583114624,0.745151937007904,-3.06782603263855
1695713019630322200,5.637322265625,-0.8022766709327698,0.6014744639396667,-2.787795066833496
1695713019640355600,5.64735546875,-0.545548141002655,0.4235754609107971,-2.6077654361724854
1695713019650396200,5.657396240234375,-0.29201540350914,0.07110634446144104,-2.520413875579834
1695713019660562000,5.66756201171875,-0.1430116444826126,-0.6052029132843018,-2.4426496028900146
1695713019670602800,5.677602783203125,-0.05992107838392258,-1.8278592824935913,-2.292447328567505
1695713019680631800,5.6876318359375,0.04767054691910744,-3.338003635406494,-2.2201426029205322
1695713019690660900,5.697660888671875,0.25433170795440674,-4.612857818603516,-2.4330620765686035
1695713019700523300,5.707523193359375,0.4715123176574707,-4.904606819152832,-3.0486514568328857
1695713019710545400,5.71754541015625,0.6558029055595398,-3.9866161346435547,-3.9559895992279053
1695713019720603000,5.727602783203125,0.7633945345878601,-2.6606290340423584,-4.655734539031982
1695713019730628600,5.737628662109375,0.6526071429252625,-1.6254591941833496,-4.9231157302856445
1695713019740680000,5.747679931640625,0.325571209192276,-1.125983715057373,-4.918854713439941
1695713019750708200,5.757708251953125,-0.09933583438396454,-1.2463585138320923,-4.803806304931641
1695713019760744000,5.767743896484375,-0.4954807460308075,-1.896036148071289,-4.652538776397705
1695713019770773000,5.77777294921875,-0.7383608818054199,-2.628671169281006,-4.466117858886719
1695713019780799700,5.7877998046875,-0.7596661448478699,-3.2474563121795654,-4.240415096282959
1695713019790828800,5.797828857421875,-0.6318345069885254,-3.53188157081604,-3.952793836593628
1695713019800873700,5.807873779296875,-0.39321544766426086,-3.5585131645202637,-3.553453207015991
1695713019810904300,5.817904296875,-0.12170637398958206,-3.4754226207733154,-3.037998676300049
1695713019820908000,5.827907958984375,0.07643266767263412,-3.254913091659546,-2.5086958408355713
1695713019830935800,5.837935791015625,0.12650005519390106,-2.9919261932373047,-2.028395175933838
1695713019840990500,5.847990478515625,0.09880319982767105,-2.866225004196167,-1.577921748161316
1695713019851020800,5.858020751953125,0.008255792781710625,-2.76289439201355,-1.0890989303588867
1695713019861067000,5.86806689453125,-0.11957584321498871,-2.5446484088897705,-0.5597960352897644
1695713019871099100,5.87809912109375,-0.21758009493350983,-2.2165472507476807,-0.02090579830110073
1695713019881131300,5.88813134765625,-0.32397329807281494,-1.8630129098892212,0.5211802124977112
1695713019891307800,5.898307861328125,-0.434760719537735,-1.5903054475784302,1.0195904970169067
1695713019901354200,5.908354248046875,-0.5327649712562561,-1.3592764139175415,1.4765886068344116
1695713019911386400,5.918386474609375,-0.6328997611999512,-1.0194573402404785,1.8940387964248657
1695713019921408300,5.928408203125,-0.6691187024116516,-0.5018723607063293,2.2571604251861572
1695713019931440400,5.9384404296875,-0.6190513372421265,0.20093534886837006,2.551173210144043
1695713019941450500,5.948450439453125,-0.49228495359420776,0.9965541362762451,2.8035075664520264
1695713019951509000,5.958509033203125,-0.31438592076301575,1.8090839385986328,2.9132297039031982
1695713019961541000,5.968541015625,0.044474758207798004,2.0178756713867188,2.453169107437134
1695713019971555000,5.97855517578125,0.8028092980384827,0.8889625072479248,1.2464916706085205
1695713019981614000,5.988614013671875,1.6004254817962646,-1.0737857818603516,-0.08375635743141174
1695713019991646200,5.998646240234375,1.7176045179367065,-2.170741081237793,-1.5331807136535645
1695713020001678300,6.00867822265625,1.1914973258972168,-1.998301386833191,-2.5736770629882812
1695713020011709000,6.018708984375,0.7090660929679871,-1.1462236642837524,-2.8165571689605713
1695713020021727700,6.028727783203125,0.44168493151664734,-0.6478134393692017,-2.429866313934326
1695713020031746600,6.03874658203125,0.13502216339111328,-0.7649924755096436,-1.776992917060852
1695713020041765400,6.048765380859375,-0.09507478028535843,-1.0599373579025269,-1.3009532690048218
1695713020051796200,6.058796142578125,-0.22290641069412231,-1.4689985513687134,-0.9570062160491943
1695713020061829600,6.06882958984375,-0.20692746341228485,-1.3187963962554932,-0.4596612751483917
1695713020071860500,6.078860595703125,-0.4017375409603119,-0.34221595525741577,0.3945470154285431
1695713020081744000,6.088743896484375,-0.7820366621017456,0.9475520253181458,1.6192007064819336
1695713020302498600,6.30949853515625,-0.5434176325798035,0.8399603962898254,1.7204008102416992
1695713020312516000,6.31951611328125,-0.6520745158195496,1.5620759725570679,1.8492976427078247
1695713020322535400,6.329535400390625,-0.7159903049468994,2.1925787925720215,1.910017728805542
1695713020332554500,6.339554443359375,-0.6094639897346497,2.394845724105835,1.8642113208770752
1695713020342576000,6.349576171875,-0.4304996728897095,2.4608922004699707,1.8439713716506958
1695713020352609000,6.359609130859375,-0.3016027808189392,2.662226915359497,1.8237313032150269
1695713020362642000,6.369641845703125,-0.19201377034187317,2.848515033721924,1.738510251045227
1695713020372674600,6.379674560546875,-0.05992107838392258,2.7932543754577637,1.646897554397583
1695713020382707500,6.38970751953125,0.08069372177124023,2.4566311836242676,1.582981824874878
1695713020392740400,6.399740234375,0.23089589178562164,1.8836524486541748,1.5297186374664307
1695713020402773200,6.409773193359375,0.3767038583755493,1.2105389833450317,1.4776538610458374
1695713020412806100,6.41980615234375,0.46938177943229675,0.6611292362213135,1.442500114440918
1695713020422838800,6.4298388671875,0.5056007504463196,0.447011262178421,1.425455927848816
1695713020432871700,6.43987158203125,0.4949481189250946,0.5205144286155701,1.3732579946517944
1695713020442904600,6.449904541015625,0.4235754609107971,0.637693464756012,1.2635358572006226
1695713020452928800,6.4599287109375,0.3394196331501007,0.7494129538536072,1.0994852781295776
1695713020462966000,6.469966064453125,0.2607232630252838,0.863396167755127,0.8876309394836426
1695713020473003300,6.480003173828125,0.1531316488981247,0.9432909488677979,0.6426202654838562
1695713020483040500,6.49004052734375,-0.06205160543322563,0.9166593551635742,0.4082622826099396
1695713020493077500,6.500077392578125,-0.22610220313072205,0.93902987241745,0.28269433975219727
1695713020503114800,6.51011474609375,-0.24527695775032043,0.9305077791213989,0.21877852082252502
1695713020513152000,6.520152099609375,-0.1994706094264984,0.8847014307975769,0.12077426165342331
1695713020523189000,6.53018896484375,-0.21651484072208405,0.8303729891777039,-0.04860265180468559
1695713020533226200,6.540226318359375,-0.29201540350914,0.7952193021774292,-0.2732401192188263
1695713020543263500,6.550263427734375,-0.3996070325374603,0.7068024277687073,-0.5502086877822876
1695713020553289700,6.560289794921875,-0.4858933687210083,0.5279712677001953,-0.9357009530067444
1695713020563324400,6.570324462890625,-0.5380913019180298,0.10519478470087051,-1.430915355682373
1695713020573359000,6.580359130859375,-0.6009418368339539,-0.3507380485534668,-2.032656192779541
1695713020583394000,6.59039404296875,-0.6946850419044495,-0.47311022877693176,-2.7494454383850098
1695713020593428700,6.6004287109375,-0.7905587553977966,-0.3166496157646179,-3.3085756301879883
1695713020603463400,6.61046337890625,-0.8372972011566162,-0.0918789878487587,-3.4916679859161377
1695713020613498000,6.620498046875,-0.8234487771987915,0.04660528525710106,-3.3787498474121094
1695713020623533000,6.630532958984375,-0.779906153678894,0.146606907248497,-3.115762948989868
1695713020633567700,6.640567626953125,-0.6819018721580505,0.16258586943149567,-2.829207181930542
1695713020643602400,6.6506025390625,-0.4944154918193817,0.09347688406705856,-2.645049571990967
1695713020653629400,6.66062939453125,-0.2888196110725403,-0.20266640186309814,-2.6130917072296143
1695713020663660800,6.670660888671875,-0.14194637537002563,-0.7660577297210693,-2.6748769283294678
1695713020673692000,6.68069189453125,-0.04713791608810425,-1.6243939399719238,-2.6525063514709473
1695713020683723000,6.690722900390625,0.048735812306404114,-2.8246796131134033,-2.4426496028900146
1695713020693754000,6.700754150390625,0.1712411344051361,-3.7693021297454834,-2.355297803878784
1695713020703785200,6.71078515625,0.25965800881385803,-4.063314914703369,-2.589655876159668
1695713020713816300,6.72081640625,0.34261542558670044,-3.4807488918304443,-3.1796789169311523
1695713020723847400,6.730847412109375,0.392682820558548,-2.3901853561401367,-3.8506617546081543
1695713020733878800,6.740878662109375,0.35539859533309937,-1.461541771888733,-4.286221504211426
1695713020743910000,6.750909912109375,0.17337165772914886,-1.1494194269180298,-4.453334808349609
1695713020753941500,6.76094140625,-0.14407691359519958,-1.4221270084381104,-4.430031776428223
1695713020763994000,6.770994140625,-0.5253081321716309,-1.9439729452133179,-4.345876216888428
1695713020774046700,6.781046630859375,-0.8277098536491394,-2.3028335571289062,-4.1978044509887695
1695713020784099300,6.791099365234375,-0.9832383394241333,-2.8246796131134033,-3.913379192352295
1695713020794152200,6.801152099609375,-0.9832383394241333,-3.318828821182251,-3.5609099864959717
1695713020804204800,6.811204833984375,-0.867124617099762,-3.541468858718872,-3.2233545780181885
1695713020814257400,6.82125732421875,-0.68829345703125,-3.492466926574707,-2.8707523345947266
1695713020824310000,6.83131005859375,-0.5008070468902588,-3.298588752746582,-2.480998992919922
1695713020834362600,6.841362548828125,-0.3548659384250641,-3.068624973297119,-2.0795278549194336
1695713020844391400,6.851391357421875,-0.2888196110725403,-2.8491806983947754,-1.6919050216674805
1695713020854407200,6.8614072265625,-0.2962764501571655,-2.703239679336548,-1.3137364387512207
1695713020864422700,6.871422607421875,-0.3303648829460144,-2.598843812942505,-0.9218525290489197
1695713020874438400,6.8814384765625,-0.36019226908683777,-2.4466443061828613,-0.5054675936698914
1695713020884454100,6.8914541015625,-0.39428070187568665,-2.185654640197754,-0.07203845679759979
1695713020894470000,6.901469970703125,-0.4432828426361084,-1.8992319107055664,0.39561229944229126
1695713020904485400,6.9114853515625,-0.5029376149177551,-1.6254591941833496,0.9036098718643188
1695713020914501000,6.921501220703125,-0.5221123695373535,-1.327318549156189,1.4275864362716675
1695713020924516900,6.931516845703125,-0.4986765384674072,-0.9587372541427612,1.9259966611862183
1695713020934532600,6.94153271484375,-0.4283691346645355,-0.5604618191719055,2.357295274734497
1695713020944561400,6.9515615234375,-0.3175817131996155,-0.18349166214466095,2.691654920578003
1695713020954590700,6.9615908203125,-0.13555480539798737,0.24461115896701813,2.9025771617889404
1695713020964620300,6.971620361328125,0.13502216339111328,0.6440850496292114,2.7587664127349854
1695713020974649900,6.98164990234375,0.554602861404419,0.5982787013053894,1.691638708114624
1695713020984679400,6.991679443359375,1.1052110195159912,-0.18775272369384766,0.12929637730121613
1695713020994708700,7.001708740234375,1.3490232229232788,-1.4370406866073608,-0.9868336319923401
1695713021004738300,7.01173828125,1.0487520694732666,-2.061018943786621,-1.9644793272018433
1695713021014767900,7.021767822265625,0.5993439555168152,-1.8331855535507202,-2.425605297088623
1695713021024797200,7.031797119140625,0.42251017689704895,-1.0972214937210083,-2.2584919929504395
1695713021034826800,7.04182666015625,0.22024326026439667,-0.5008070468902588,-1.7951023578643799
1695713021044856300,7.051856201171875,-0.029028434306383133,-0.3230412006378174,-1.3105405569076538
1695713021054890800,7.061890869140625,-0.171773761510849,-0.29747486114501953,-0.7791072130203247
1695713021064962000,7.071962158203125,0.03808317333459854,-0.19307903945446014,-0.4149201810359955
1695713021075033000,7.082033203125,0.3969438672065735,-0.008788425475358963,-0.5182507634162903
1695713021085104000,7.092104248046875,0.3969438672065735,-0.14727269113063812,-0.4319643974304199
1695713021095175200,7.102175048828125,-0.06418213248252869,-0.3326285779476166,0.4316980838775635
1695713021105209900,7.1122099609375,-0.6275734305381775,0.019973693415522575,1.5978955030441284
1695713021115259600,7.122259765625,-1.0237183570861816,0.57058185338974,2.5351943969726562
1695713021125294300,7.13229443359375,-1.282577395439148,1.1584742069244385,2.9579708576202393
1695713021135318000,7.142318115234375,-1.2516847848892212,1.8431724309921265,2.6682190895080566
1695713021145352400,7.1523525390625,-0.9363667368888855,2.180860996246338,1.9068219661712646
1695713021155387100,7.16238720703125,-0.4304996728897095,1.732518196105957,1.3658010959625244
1695713021165403600,7.172403564453125,0.014647374860942364,1.1723226308822632,1.4009548425674438
1695713021175438000,7.18243798828125,0.138217955827713,1.1030805110931396,1.8951040506362915
1695713021185472500,7.192472412109375,0.0018642114009708166,1.4843116998672485,2.562757968902588
1695713021195492400,7.202492431640625,-0.15153375267982483,1.8740650415420532,3.1282799243927
1695713021205526800,7.21252685546875,-0.29521119594573975,2.1020314693450928,3.52668833732605
1695713021215410200,7.22241015625,-0.46352285146713257,2.1425116062164307,3.7396080493927
1695713021225432300,7.232432373046875,-0.5988113284111023,2.129728317260742,3.8067195415496826
1695713021235463000,7.242462890625,-0.7170555591583252,2.099900960922241,3.731086015701294
1695713021245486000,7.252486083984375,-0.8522109389305115,2.096705198287964,3.5373411178588867
1695713021255526400,7.2625263671875,-0.9576719999313354,1.9987008571624756,3.228414535522461
1695713021265551000,7.272551025390625,-1.0109351873397827,1.8186713457107544,2.8482487201690674
1695713021275626500,7.28262646484375,-0.9033435583114624,1.4417011737823486,2.5149543285369873
1695713021285656300,7.29265625,-0.6829671263694763,1.0029456615447998,2.278465747833252
1695713021295656200,7.30265625,-0.5327649712562561,0.7302381992340088,2.110154151916504
1695713021305683000,7.312682861328125,-0.48802390694618225,0.6398239731788635,1.9877820014953613
1695713021315883000,7.322883056640625,-0.5189165472984314,0.7302381992340088,1.9132134914398193
1695713021325909800,7.33290966796875,-0.5721797347068787,1.1169289350509644,1.8748639822006226
1695713021335931100,7.34293115234375,-0.5647228956222534,1.5397053956985474,1.7864471673965454
1695713021345982700,7.352982666015625,-0.4954807460308075,1.6387749910354614,1.6884428262710571
1695713021356009700,7.363009765625,-0.39428070187568665,1.590838074684143,1.6479628086090088
1695713021366048300,7.37304833984375,-0.3079943358898163,1.6590149402618408,1.6330491304397583
1695713021376079600,7.38307958984375,-0.22503694891929626,1.8857829570770264,1.6053522825241089
1695713021386106400,7.3931064453125,-0.11105373501777649,2.042376756668091,1.579785943031311
1695713021396155600,7.40315576171875,0.018908429890871048,1.9699387550354004,1.5787206888198853
1695713021406179300,7.413179443359375,0.14674006402492523,1.678189754486084,1.55741548538208
1695713021416206300,7.423206298828125,0.2649843394756317,1.3074779510498047,1.5052175521850586
1695713021426233000,7.433233154296875,0.36498594284057617,0.9773793816566467,1.4531527757644653
1695713021436261400,7.443261474609375,0.41718387603759766,0.757935106754303,1.425455927848816
1695713021446300200,7.453300048828125,0.4161186218261719,0.6195839643478394,1.4275864362716675
1695713021456339000,7.4633388671875,0.3596596419811249,0.5205144286155701,1.4158685207366943
1695713021466377700,7.473377685546875,0.28083011507987976,0.46405547857284546,1.3104074001312256
1695713021476406000,7.483406005859375,0.2138516753911972,0.4896217882633209,1.0888326168060303
1695713021486418000,7.49341796875,0.1712411344051361,0.6259755492210388,0.7800393104553223
1695713021496446200,7.5034462890625,0.09454214572906494,0.833568811416626,0.4487423002719879
1695713021506495000,7.513494873046875,-0.0034621069207787514,0.9933583736419678,0.19747324287891388
1695713021516536600,7.52353662109375,-0.07696529477834702,1.0444910526275635,0.09733846783638
1695713021526564900,7.53356494140625,-0.1621863842010498,1.0114678144454956,0.07496792823076248
1695713021536586800,7.543586669921875,-0.2930806577205658,0.9123983383178711,-0.026232117787003517
1695713021546660000,7.55366015625,-0.4667186439037323,0.6398239731788635,-0.20825904607772827
1695713021556688400,7.5636884765625,-0.6648576855659485,0.2914827764034271,-0.4362254738807678
1695713021566718500,7.573718505859375,-0.7660577297210693,0.05938844755291939,-0.7641934752464294
1695713021576734500,7.583734375,-0.7266429662704468,-0.11105373501777649,-1.2732564210891724
1695713021586762800,7.5937626953125,-0.7586008906364441,-0.1153147891163826,-1.970870852470398
1695713021596813600,7.6038134765625,-0.8617982864379883,0.13488900661468506,-2.678072690963745
1695713021606857200,7.613857177734375,-0.921453058719635,0.4331628382205963,-3.1530473232269287
1695713021616885200,7.62388525390625,-0.8873646259307861,0.6865624189376831,-3.335207223892212
1695713021626913500,7.63391357421875,-0.8319709300994873,0.8772445917129517,-3.24039888381958
1695713021636942000,7.643942138671875,-0.8191877603530884,1.0551435947418213,-2.943190336227417
1695713021646974700,7.653974609375,-0.7788408994674683,1.113733172416687,-2.6226789951324463
1695713021657007000,7.664007080078125,-0.6659229397773743,1.0306426286697388,-2.425605297088623
1695713021667039700,7.674039794921875,-0.47843652963638306,0.7856319546699524,-2.360624313354492
1695713021677072100,7.684072021484375,-0.27603644132614136,0.2083922028541565,-2.4319968223571777
1695713021687104800,7.694104736328125,-0.07163897901773453,-0.8970851302146912,-2.5086958408355713
1695713021697137200,7.70413720703125,0.03914843872189522,-2.374206304550171,-2.4383885860443115
1695713021707166000,7.714166015625,0.10412952303886414,-3.5297510623931885,-2.4980432987213135
1695713021717179100,7.72417919921875,0.22237378358840942,-4.121904373168945,-2.8091001510620117
1695713021727192600,7.734192626953125,0.3958786129951477,-3.935483455657959,-3.32561993598938
1695713021737117400,7.744117431640625,0.48855653405189514,-2.9439892768859863,-3.978360176086426
1695713021747306500,7.754306396484375,0.47896915674209595,-1.7692697048187256,-4.462922096252441
1695713021757339400,7.76433935546875,0.26391905546188354,-1.002413034439087,-4.622711658477783
1695713021767358500,7.7743583984375,-0.11744531989097595,-0.9896299242973328,-4.574774742126465
1695713021777367600,7.784367431640625,-0.4667186439037323,-1.4082785844802856,-4.432162761688232
1695713021787425500,7.794425537109375,-0.6648576855659485,-1.9471688270568848,-4.2127180099487305
1695713021797444900,7.80444482421875,-0.7053377032279968,-2.4264042377471924,-3.9059224128723145
1695713021807482600,7.814482666015625,-0.6201165914535522,-2.7692859172821045,-3.559844732284546
1695713021817529000,7.824529052734375,-0.48376286029815674,-3.0324060916900635,-3.1328072547912598
1695713021827548400,7.83454833984375,-0.3292996287345886,-3.124950885772705,-2.6226789951324463
1695713021837584600,7.844584716796875,-0.19840535521507263,-2.9876649379730225,-2.1306605339050293
1695713021847623700,7.854623779296875,-0.09081372618675232,-2.7394585609436035,-1.706818699836731
1695713021857642800,7.864642822265625,-0.023702116683125496,-2.5510401725769043,-1.3329111337661743
1695713021867662000,7.874662109375,-0.02583264373242855,-2.4668843746185303,-0.9729851484298706
1695713021877683500,7.884683349609375,-0.08548741042613983,-2.348639965057373,-0.5970802903175354
1695713021887719400,7.894719482421875,-0.1621863842010498,-2.0823240280151367,-0.20080219209194183
1695713021897755400,7.90475537109375,-0.25912538170814514,-1.7383770942687988,0.22623535990715027
1695713021907791000,7.914791015625,-0.3644533157348633,-1.4018869400024414,0.6937529444694519
1695713021917827000,7.9248271484375,-0.46991443634033203,-1.06419837474823,1.194293737411499
1695713021927863000,7.934863037109375,-0.5732449889183044,-0.7223818898200989,1.6660723686218262
1695713021937899000,7.94489892578125,-0.649944007396698,-0.4029359817504883,2.0526299476623535
1695713021947920400,7.95492041015625,-0.6691187024116516,-0.07803056389093399,2.3349246978759766
1695713021957925400,7.96492529296875,-0.5817670822143555,0.3117227852344513,2.5192153453826904
1695713021967821600,7.974821533203125,-0.39001965522766113,0.787762463092804,2.62241268157959
1695713021977830000,7.984829833984375,-0.13981585204601288,1.3085432052612305,2.572345495223999
1695713021987903200,7.9949033203125,0.19467693567276,1.4630064964294434,2.030259370803833
1695713021997918200,8.004918212890624,0.6515418887138367,0.8367645740509033,0.7289066314697266
1695713022007959000,8.014958984375,1.130777359008789,-0.5231776237487793,-0.39254966378211975
1695713022690177800,8.697177734375,-0.4752407371997833,0.6769750714302063,-2.5427842140197754
1695713022700209400,8.70720947265625,-0.23675484955310822,0.3873564898967743,-2.505500078201294
1695713022710241000,8.717240966796876,-0.03861580789089203,-0.31558436155319214,-2.509761095046997
1695713022720272600,8.727272705078125,0.110521100461483,-1.6787223815917969,-2.444780111312866
1695713022730304300,8.73730419921875,0.2138516753911972,-3.145190954208374,-2.436257839202881
1695713022740335900,8.7473359375,0.279764860868454,-3.98555064201355,-2.6322665214538574
1695713022750367500,8.757367431640626,0.36072489619255066,-3.9120476245880127,-3.062499761581421
1695713022760399000,8.767399169921875,0.4896217882633209,-3.02068829536438,-3.693002700805664
1695713022770430700,8.7774306640625,0.6142576336860657,-1.8353160619735718,-4.309657096862793
1695713022780463900,8.7874638671875,0.608931303024292,-1.002413034439087,-4.656799793243408
1695713022790531800,8.79753173828125,0.38948702812194824,-0.8267777562141418,-4.7548041343688965
1695713022800599600,8.807599609375,0.07536740601062775,-1.125983715057373,-4.702606201171875
1695713022810667500,8.81766748046875,-0.2685796022415161,-1.5966970920562744,-4.548142910003662
1695713022820735200,8.8277353515625,-0.5444828867912292,-2.1973726749420166,-4.30539608001709
1695713022830803200,8.83780322265625,-0.6233124136924744,-2.653172254562378,-3.9591853618621826
1695713022840832800,8.847832763671875,-0.5796365737915039,-2.8587682247161865,-3.5768890380859375
1695713022850848300,8.85784814453125,-0.46565335988998413,-2.9429240226745605,-3.127480983734131
1695713022860864000,8.867864013671875,-0.31332066655158997,-2.8672902584075928,-2.638658046722412
1695713022870879700,8.877879638671875,-0.1675127148628235,-2.6499764919281006,-2.1785972118377686
1695713022880895500,8.8878955078125,-0.07696529477834702,-2.4604926109313965,-1.7535570859909058
1695713022890911200,8.8979111328125,-0.0822916179895401,-2.284724235534668,-1.3723258972167969
1695713022900926700,8.9079267578125,-0.11957584321498871,-2.2037642002105713,-0.9815073013305664
1695713022910942500,8.9179423828125,-0.1579253375530243,-2.105759859085083,-0.5747097134590149
1695713022920958200,8.927958251953125,-0.1909485012292862,-1.9578213691711426,-0.1411474347114563
1695713022930974000,8.937973876953125,-0.2324937880039215,-1.7511602640151978,0.31571751832962036
1695713022940989400,8.947989501953124,-0.3016027808189392,-1.5402380228042603,0.7843003273010254
1695713022951019500,8.95801953125,-0.37510594725608826,-1.3731248378753662,1.2560789585113525
1695713022961051400,8.968051513671876,-0.4518049359321594,-1.1771162748336792,1.704421877861023
1695713022971083000,8.9780830078125,-0.5050681233406067,-0.8906935453414917,2.1122846603393555
1695713022981115000,8.988114990234376,-0.48269757628440857,-0.4486091434955597,2.4595606327056885
1695713022991146800,8.998146728515625,-0.38895440101623535,0.06684529036283493,2.750244379043579
1695713023001178400,9.008178466796876,-0.22610220313072205,0.7515435218811035,2.9174907207489014
1695713023011210200,9.018210205078125,0.03488738462328911,1.4374401569366455,2.6234779357910156
1695713023021241900,9.028241943359374,0.5279712677001953,1.4044169187545776,1.4616749286651611
1695713023031273700,9.038273681640625,1.071122646331787,0.19134798645973206,0.2390185296535492
1695713023041305600,9.0483056640625,1.2586089372634888,-1.2836426496505737,-0.8792420029640198
1695713023051337200,9.058337158203125,1.034903645515442,-2.1632840633392334,-2.058222532272339
1695713023061368000,9.0683681640625,0.6952176690101624,-1.938646674156189,-2.604569673538208
1695713023071401700,9.078401611328125,0.37031227350234985,-1.2751206159591675,-2.4543673992156982
1695713023081435600,9.088435546875,-0.03755054250359535,-1.0386320352554321,-1.928260326385498
1695713023091469600,9.098469482421875,-0.32290804386138916,-0.9661940932273865,-1.2775174379348755
1695713023101503500,9.10850341796875,-0.35593122243881226,-0.8917587995529175,-0.5832318663597107
1695713023111537400,9.118537353515626,-0.09720530360937119,-0.6328997611999512,-0.18588849902153015
1695713023121571300,9.1285712890625,-0.001331579522229731,-0.001331579522229731,-0.16777902841567993
1695713023131605200,9.138605224609375,-0.3271690905094147,0.637693464756012,0.17190691828727722
1695713023141639200,9.14863916015625,-0.8522109389305115,1.056208848953247,1.3295822143554688
1695713023151673000,9.158673095703126,-1.1323752403259277,1.310673713684082,2.5277373790740967
1695713023161704200,9.1687041015625,-1.1536805629730225,1.6345138549804688,2.8908591270446777
1695713023171738000,9.178738037109374,-0.980042576789856,2.0881831645965576,2.4851269721984863
1695713023181771800,9.188771728515626,-0.6542050242424011,2.0200061798095703,1.7427712678909302
1695713023191805700,9.1988056640625,-0.29947224259376526,1.4385054111480713,1.1410305500030518
1695713023201839600,9.208839599609375,-0.10679268091917038,0.48749127984046936,0.8641951084136963
1695713023211873300,9.218873291015624,-0.07057371735572815,-0.20266640186309814,0.9844367504119873
1695713023221907200,9.2289072265625,0.003994738683104515,-0.04394212365150452,1.5020217895507812
1695713023231940900,9.23894091796875,0.20213377475738525,0.8431561589241028,2.232659339904785
1695713023241974800,9.248974853515625,0.37989965081214905,1.8740650415420532,2.999516010284424
1695713023252008400,9.259008544921874,0.3106575012207031,2.6952502727508545,3.666104793548584
1695713023262042400,9.26904248046875,-0.07696529477834702,3.239466667175293,4.108189105987549
1695713023272077000,9.2790771484375,-0.46991443634033203,3.439603090286255,4.255062580108643
1695713023282131500,9.28913134765625,-0.5977460741996765,3.3682305812835693,4.182624340057373
1695713023292185600,9.299185546875,-0.6435524225234985,3.000847578048706,3.898332357406616
1695713023302239700,9.30923974609375,-0.7671229839324951,2.354365825653076,3.452120065689087
1695713023312294100,9.319294189453124,-0.808535099029541,1.628122329711914,2.903642416000366
1695713023322348300,9.329348388671875,-0.7074682116508484,0.7249119281768799,2.4648869037628174
1695713023332402400,9.33940234375,-0.48376286029815674,-0.23142851889133453,2.129328966140747
1695713023342433800,9.349433837890626,-0.3442133069038391,-0.6840324401855469,1.8546240329742432
1695713023352450000,9.359449951171875,-0.35593122243881226,-0.7266429662704468,1.7225313186645508
1695713023362466600,9.369466552734375,-0.4049333333969116,-0.5711144804954529,1.7054871320724487
1695713023372482800,9.37948291015625,-0.46352285146713257,-0.06524740159511566,1.745967149734497
1695713023382499000,9.3894990234375,-0.5743102431297302,0.8239814043045044,1.7843165397644043
1695713023392515600,9.399515625,-0.6542050242424011,1.5215959548950195,1.7672723531723022
1695713023402531800,9.40953173828125,-0.5998765826225281,1.753690242767334,1.7843165397644043
1695713023412548000,9.419548095703124,-0.44115230441093445,1.8176060914993286,1.8578197956085205
1695713023422564600,9.429564697265626,-0.2728406488895416,2.041311502456665,1.9014955759048462
1695713023432580900,9.439580810546875,-0.12277163565158844,2.270343065261841,1.8812556266784668
1695713023442620000,9.449619873046874,0.028495801612734795,2.244776725769043,1.8365144729614258
1695713023452714000,9.4597138671875,0.18295903503894806,1.917740821838379,1.7598155736923218
1695713023462808000,9.46980810546875,0.32450592517852783,1.3447622060775757,1.6096134185791016
1695713023472846800,9.479846923828125,0.4565986394882202,0.6791055798530579,1.4478265047073364
1695713023482884900,9.489884765625,0.5588639378547668,0.1753690242767334,1.3466264009475708
1695713023492924400,9.49992431640625,0.5844302773475647,0.002929474925622344,1.3136032819747925
1695713023502966800,9.509966796875,0.5109270811080933,0.09028109163045883,1.2922979593276978
1695713023513006000,9.520006103515625,0.3969438672065735,0.2925480306148529,1.2305126190185547
1695713023523009300,9.53000927734375,0.2607232630252838,0.48323023319244385,1.0675272941589355
1695713023532912400,9.539912353515625,0.1392832249403,0.5993439555168152,0.7693866491317749
1695713023542938000,9.549938232421875,0.04234423115849495,0.6812360882759094,0.3977428078651428
1695713023552946200,9.5599462890625,-0.04500738903880119,0.8069372177124023,0.10266478359699249
1695713023562970000,9.56997021484375,-0.12064110487699509,0.9518130421638489,-0.026232117787003517
1695713023573035800,9.580035888671874,-0.21971063315868378,1.046621561050415,-0.04860265180468559
1695713023583063800,9.590063720703125,-0.3346259295940399,0.9688572883605957,-0.118910051882267
1695713023593082000,9.60008203125,-0.46352285146713257,0.6472808122634888,-0.2860232889652252
1695713023603109000,9.610109130859374,-0.6083986759185791,0.27550381422042847,-0.5821665525436401
1695713023613134300,9.62013427734375,-0.6829671263694763,-0.09720530360937119,-1.0049431324005127
1695713023623161300,9.630161376953126,-0.6243776679039001,-0.45500072836875916,-1.5395722389221191
1695713023633223400,9.640223388671876,-0.6147902607917786,-0.5125249624252319,-2.249969959259033
1695713023643253800,9.650253662109375,-0.649944007396698,-0.17496955394744873,-2.94745135307312
1695713023653270300,9.660270263671874,-0.7149250507354736,0.37457332015037537,-3.2925968170166016
1695713023663299300,9.67029931640625,-0.7628619074821472,0.7685877084732056,-3.305379867553711
1695713023673346600,9.6803466796875,-0.7958850860595703,0.9028109312057495,-3.115762948989868
1695713023683544000,9.6905439453125,-0.8159919381141663,0.9017456769943237,-2.8366639614105225
1695713023693581600,9.70058154296875,-0.7458177208900452,0.8271772265434265,-2.5907211303710938
1695713023703612400,9.7106123046875,-0.5849629044532776,0.6801708340644836,-2.4149527549743652
1695713023713638100,9.72063818359375,-0.38043227791786194,0.3692470192909241,-2.345710515975952
1695713023723655000,9.730655029296875,-0.20373167097568512,-0.30067065358161926,-2.3680810928344727
1695713023733685800,9.740685791015625,-0.09614004194736481,-1.4859095811843872,-2.3137526512145996
1695713023743744300,9.750744140625,-0.05779055133461952,-2.7937870025634766,-2.2041635513305664
1695713023753766700,9.7607666015625,0.05512739345431328,-3.7437357902526855,-2.3382537364959717
1695713023763797800,9.7707978515625,0.21598219871520996,-4.099534034729004,-2.777142286300659
1695713023773809200,9.78080908203125,0.3436806797981262,-3.5681004524230957,-3.4575793743133545
1695713023783873800,9.790873779296875,0.4257059693336487,-2.48712420463562,-4.160520076751709
1695713023793904000,9.800904052734374,0.39907440543174744,-1.4700638055801392,-4.5513386726379395
1695713023803932200,9.81093212890625,0.1573926955461502,-1.002413034439087,-4.6408209800720215
1695713023813960200,9.820960205078125,-0.1813611388206482,-1.0908299684524536,-4.554534912109375
1695713023823988000,9.830988037109375,-0.5103944540023804,-1.645699143409729,-4.37570333480835
1695713023834016000,9.84101611328125,-0.6914892792701721,-2.2176125049591064,-4.121105670928955
1695713023844046300,9.85104638671875,-0.6595313549041748,-2.6297364234924316,-3.788876533508301
1695713023854076700,9.86107666015625,-0.5242428779602051,-2.861963987350464,-3.450122594833374
1695713023864111400,9.871111328125,-0.3527354300022125,-3.0185577869415283,-3.0635650157928467
1695713023873979000,9.880978759765625,-0.16964323818683624,-3.065429210662842,-2.6226789951324463
1695713023883992600,9.89099267578125,-0.011984216049313545,-2.954641819000244,-2.176466703414917
1695713023894192600,9.901192626953126,0.07856319099664688,-2.693652391433716,-1.7556875944137573
1695713023904206300,9.911206298828125,0.0774979293346405,-2.5244085788726807,-1.3606079816818237
1695713023914304800,9.9213046875,0.028495801612734795,-2.473275899887085,-0.9665936231613159
1695713023924317700,9.931317626953126,-0.027963170781731606,-2.408294677734375,-0.5715139508247375
1695713023934331600,9.94133154296875,-0.07696529477834702,-2.215481996536255,-0.16245271265506744
1695713023944408300,9.951408203125,-0.13981585204601288,-1.9769961833953857,0.25925853848457336
1695713023954418700,9.961418701171874,-0.23995064198970795,-1.7064192295074463,0.7001445293426514
1695713023964432600,9.9714326171875,-0.3687143921852112,-1.435975432395935,1.1580747365951538
1695713023974487600,9.981487548828126,-0.4965460002422333,-1.172855257987976,1.5968302488327026
1695713023984523300,9.991523193359376,-0.5988113284111023,-0.8044071793556213,1.9856513738632202
1695713023994537000,10.001536865234375,-0.6052029132843018,-0.25912538170814514,2.3019015789031982
1695713024004550700,10.011550537109375,-0.5103944540023804,0.4001396596431732,2.545846939086914
1695713024014568400,10.021568359375,-0.36658385396003723,1.1499520540237427,2.612825393676758
1695713024024616700,10.03161669921875,-0.10679268091917038,1.5855118036270142,2.1208066940307617
1695713024034665000,10.0416650390625,0.4235754609107971,1.0061415433883667,0.860999345779419
1695713024044713200,10.051713134765626,1.0178594589233398,-0.5274386405944824,-0.2530001103878021
1695713024054761500,10.061761474609375,1.2330427169799805,-1.7724655866622925,-1.2881700992584229
1695713024064779300,10.071779296875,0.9816404581069946,-2.1781978607177734,-2.191380500793457
1695713024074773200,10.081773193359375,0.6206492185592651,-1.6872444152832031,-2.5236096382141113
1695713024084791000,10.091791015625,0.2234390527009964,-1.1281142234802246,-2.251035213470459
1695713024094865700,10.10186572265625,-0.1760348230600357,-0.9832383394241333,-1.6684691905975342
1695713024104904000,10.111904052734374,-0.43156492710113525,-0.8789756894111633,-1.00813889503479
1695713024114921500,10.12192138671875,-0.4326302111148834,-0.7181208729743958,-0.35952648520469666
1695713024124981500,10.1319814453125,-0.13235901296138763,-0.3922833502292633,-0.0294279083609581
1695713024135035000,10.142034912109375,-0.029028434306383133,0.1423458606004715,-0.11145320534706116
1695713024145052700,10.152052734375,-0.2739059031009674,0.6046702861785889,0.11544794589281082
1695713024155063800,10.162063720703125,-0.671249270439148,1.0743184089660645,1.2017505168914795
1695713024165106700,10.172106689453125,-0.8319709300994873,1.6227960586547852,2.3754048347473145
1695713024175124500,10.18212451171875,-0.801211416721344,1.9188060760498047,2.8567707538604736
1695713024185157600,10.19215771484375,-0.6531397700309753,2.0082883834838867,2.6192169189453125
1695713024195184400,10.202184326171874,-0.44541335105895996,1.783517599105835,1.8269271850585938
1695713024205202200,10.2122021484375,-0.2941459119319916,1.056208848953247,1.1655316352844238
1695713024215220000,10.222219970703126,-0.27177539467811584,0.24674169719219208,1.0345041751861572
1695713024225237800,10.23223779296875,-0.3346259295940399,0.011451584286987782,1.4733927249908447
1695713024235258000,10.242258056640624,-0.29521119594573975,0.7462171912193298,2.282726764678955
1695713024285492000,10.292491943359375,-0.508263885974884,3.3724915981292725,4.394611835479736
1695713024295523600,10.302523681640626,-0.5849629044532776,3.0093698501586914,4.187950611114502
1695713024305541400,10.312541259765625,-0.6520745158195496,2.5748753547668457,3.854656457901001
1695713024315570700,10.32257080078125,-0.7681882381439209,2.0626168251037598,3.387138843536377
1695713024325612800,10.33261279296875,-0.792689323425293,1.385242223739624,2.8631622791290283
1695713024335635500,10.342635498046874,-0.5870934128761292,0.6483460664749146,2.3849921226501465
1695713024345653200,10.3526533203125,-0.36977964639663696,0.24354590475559235,1.922800898551941
1695713024355671000,10.362671142578124,-0.3250385820865631,0.028495801612734795,1.6192007064819336
1695713024365688600,10.3726884765625,-0.3719101548194885,-0.008788425475358963,1.5116090774536133
1695713024375705000,10.382705078125,-0.4539354741573334,0.4992091655731201,1.5776554346084595
1695713024385721600,10.3927216796875,-0.5977460741996765,1.4938991069793701,1.7363797426223755
1695713024395738000,10.402738037109375,-0.6808366179466248,2.2074925899505615,1.810948133468628
1695713024405754600,10.412754638671874,-0.612659752368927,2.3330605030059814,1.8152092695236206
1695713024415771100,10.422771240234376,-0.48269757628440857,2.300037384033203,1.8375797271728516
1695713024425787600,10.43278759765625,-0.3580617308616638,2.404433250427246,1.830122947692871
1695713024435804200,10.44280419921875,-0.23142851889133453,2.548243761062622,1.7651418447494507
1695713024445820700,10.452820556640624,-0.09400951862335205,2.5013720989227295,1.7001607418060303
1695713024455837200,10.462837158203126,0.05938844755291939,2.20536208152771,1.6682028770446777
1695713024465853700,10.472853759765625,0.2287653684616089,1.766473412513733,1.6437017917633057
1695713024475874600,10.48287451171875,0.3862912356853485,1.2744548320770264,1.6074827909469604
1695713024485912000,10.492912109375,0.524775505065918,0.8495477437973022,1.5787206888198853
1695713024495949300,10.50294921875,0.5972134470939636,0.6589987277984619,1.5520890951156616
1695713024505986600,10.512986572265625,0.5929523706436157,0.6472808122634888,1.4977606534957886
1695713024516023800,10.52302392578125,0.5173186659812927,0.6494113206863403,1.375388503074646
1695713024526061300,10.533061279296875,0.390552282333374,0.600409209728241,1.157009482383728
1695713024536098600,10.5430986328125,0.28083011507987976,0.4917523264884949,0.8727172613143921
1695713024546135800,10.5531357421875,0.16165375709533691,0.45127230882644653,0.6000097393989563
1695713024556173300,10.56317333984375,-0.020506324246525764,0.5524723529815674,0.4295675754547119
1695713024566210600,10.57321044921875,-0.1621863842010498,0.7707182168960571,0.3412838280200958
1695713024576233200,10.583233154296876,-0.23568958044052124,0.9869667887687683,0.2475406378507614
1695713024586263300,10.59326318359375,-0.3303648829460144,1.0338383913040161,0.10586057603359222
1695713024596293600,10.603293701171875,-0.4667186439037323,0.9070720076560974,-0.12743216753005981
1695713024606324000,10.613323974609376,-0.6062681674957275,0.6727139949798584,-0.4191812574863434
1695713024616354000,10.62335400390625,-0.6904240250587463,0.314918577671051,-0.7684545516967773
1695713024626384400,10.63338427734375,-0.671249270439148,-0.14940322935581207,-1.2434289455413818
1695713024636414500,10.64341455078125,-0.6243776679039001,-0.4294344186782837,-1.8952372074127197
1695713024646444800,10.65344482421875,-0.671249270439148,-0.32410645484924316,-2.6280055046081543
1695713024656475000,10.663474853515625,-0.7522093057632446,0.011451584286987782,-3.1242849826812744
1695713024666505200,10.673505126953126,-0.8213182687759399,0.30107012391090393,-3.301118850708008
1695713024676531000,10.683531005859376,-0.8277098536491394,0.46938177943229675,-3.2787482738494873
1695713024686570800,10.69357080078125,-0.8138614296913147,0.5673860311508179,-3.091261863708496
1695713024696610300,10.7036103515625,-0.7213166356086731,0.6568682193756104,-2.778207540512085
1695713024706650000,10.713650146484374,-0.5263733863830566,0.6281060576438904,-2.4884557723999023
1695713024716689700,10.723689697265625,-0.302668035030365,0.457663893699646,-2.3329274654388428
1695713024726729500,10.7337294921875,-0.1249021589756012,0.0007989477599039674,-2.35636305809021
1695713024736769300,10.743769287109375,-0.008788425475358963,-1.0130656957626343,-2.390451669692993
1695713024746808800,10.753808837890626,0.016777902841567993,-2.4509053230285645,-2.303100109100342
1695713024756848600,10.7638486328125,0.05299686640501022,-3.702190637588501,-2.3339927196502686
1695713024766888200,10.77388818359375,0.15419691801071167,-4.400870323181152,-2.645049571990967
1695713024776920300,10.78392041015625,0.2914827764034271,-4.0217695236206055,-3.300053596496582
1695713024786985700,10.79398583984375,0.392682820558548,-2.904574394226074,-4.015644550323486
1695713024797051400,10.804051513671874,0.3596596419811249,-1.7266591787338257,-4.465052604675293
1695713024807116800,10.81411669921875,0.10839057713747025,-1.0503499507904053,-4.6312336921691895
1695713024817182500,10.824182373046876,-0.23036326467990875,-1.0737857818603516,-4.637625217437744
1695713024827247900,10.834247802734374,-0.5327649712562561,-1.5530211925506592,-4.580101013183594
1695713024837276400,10.8442763671875,-0.6936197876930237,-2.2325263023376465,-4.4575958251953125
1695713024847290600,10.85429052734375,-0.7000113725662231,-2.781003952026367,-4.187151908874512
1695713024857304800,10.864304931640625,-0.5721797347068787,-3.0782124996185303,-3.8208343982696533
1695713024867319000,10.874319091796876,-0.378301739692688,-3.2506520748138428,-3.360640525817871
1695713024877333200,10.884333251953125,-0.15472954511642456,-3.275153160095215,-2.8462512493133545
1695713024887347500,10.894347412109376,0.035952646285295486,-3.0824735164642334,-2.3734073638916016
1695713024897362000,10.90436181640625,0.14674006402492523,-2.747980833053589,-1.9772624969482422
1695713024907376000,10.914376220703126,0.17443692684173584,-2.4913852214813232,-1.6045533418655396
1695713024917390300,10.924390380859375,0.16804534196853638,-2.323073625564575,-1.2285152673721313
1695713024927404500,10.934404541015626,0.17337165772914886,-2.1984379291534424,-0.8206524848937988
1695713024937433900,10.944433837890625,0.17976324260234833,-1.987648844718933,-0.37444016337394714
1695713024947467300,10.95446728515625,0.11691268533468246,-1.6574170589447021,0.0739026665687561
1695713024957500700,10.964500732421875,0.0018642114009708166,-1.3156006336212158,0.5637907981872559
1695713024967533800,10.974533935546875,-0.14620743691921234,-0.9651288390159607,1.0685925483703613
1695713024977567200,10.984567138671874,-0.30053749680519104,-0.5487439036369324,1.5350449085235596
1695713024987600600,10.9946005859375,-0.3996070325374603,-0.08122635632753372,1.9046913385391235
1695713024997634000,11.004634033203125,-0.3729754388332367,0.3490070104598999,2.169808864593506
1695713025007667200,11.014667236328124,-0.28668907284736633,0.6940192580223083,2.378600597381592
1695713025017700600,11.02470068359375,-0.20586219429969788,0.9400951862335205,2.551173210144043
1695713025027734000,11.034734130859375,-0.08974846452474594,1.0647310018539429,2.4840617179870605
1695713025037766400,11.044766357421874,0.23515695333480835,0.7313035130500793,1.7353144884109497
1695713025047813600,11.054813720703125,0.7857651114463806,-0.13981585204601288,0.4125233590602875
1695713025057860900,11.06486083984375,1.2681963443756104,-1.0791120529174805,-0.9420925378799438
1695713025067908000,11.074908203125,1.3873727321624756,-1.5093454122543335,-2.111485719680786
1695713025077955000,11.084955078125,0.8751140832901001,-1.3017522096633911,-2.5832643508911133
1695713025088002300,11.095002197265625,0.3490070104598999,-0.7404913902282715,-2.3276009559631348
1695713025098049500,11.105049560546876,-0.06311687082052231,-0.5604618191719055,-1.7748624086380005
1695713025108096800,11.1150966796875,-0.3868238627910614,-0.7181208729743958,-1.1998863220214844
1695713025118144000,11.12514404296875,-0.4581965208053589,-0.9459540843963623,-0.6588655710220337
1695713025128191200,11.135191162109376,-0.18349166214466095,-0.7415566444396973,-0.2402169555425644
1695713025138223600,11.1452236328125,-0.007723161485046148,-0.016245270147919655,-0.06671213358640671
1695713025148240000,11.155239990234374,-0.2559295892715454,0.6961497664451599,0.2251701056957245
1695713025158327300,11.165327392578124,-0.7596661448478699,0.9784446358680725,1.1112031936645508
1695713025168365300,11.175365234375,-1.0620678663253784,1.0966888666152954,2.079261541366577
1695713025178403300,11.1854033203125,-1.02158784866333,1.409743309020996,2.5234763622283936
1695713025188219100,11.19521923828125,-0.7330345511436462,1.7824523448944092,2.2965753078460693
1695713025198238500,11.205238525390625,-0.29521119594573975,1.725061297416687,1.5371754169464111
1695713025208279300,11.215279296875,0.02210422046482563,0.9816404581069946,0.8918919563293457
1695713025218301000,11.225301025390625,0.04554001986980438,0.01784316636621952,0.7789740562438965
1695713025228375800,11.235375732421875,-0.05459476262331009,-0.5103944540023804,1.2209253311157227
1695713025238402600,11.245402587890625,-0.040746334940195084,-0.01837579719722271,2.0217373371124268
1695713025248441600,11.255441650390624,0.04554001986980438,1.1595394611358643,2.8578360080718994
1695713025258469600,11.2654697265625,0.002929474925622344,2.3735406398773193,3.6268231868743896
1695713025268502000,11.275501953125,-0.23355905711650848,3.249054193496704,4.210321426391602
1695713025278530600,11.285530517578126,-0.5029376149177551,3.6441338062286377,4.479833126068115
1695713025288539600,11.29553955078125,-0.6158555150032043,3.632415771484375,4.477702617645264
1695713025298566400,11.30556640625,-0.5466133952140808,3.3065783977508545,4.219908714294434
1695713025308598800,11.315598876953125,-0.5487439036369324,2.687793254852295,3.744934320449829
1695713025318625800,11.325625732421875,-0.7074682116508484,1.9038923978805542,3.203913450241089
1695713025328697900,11.33569775390625,-0.8234487771987915,1.1158636808395386,2.6288044452667236
1695713026402213600,12.409213623046876,-0.46458810567855835,1.3191958665847778,1.7022912502288818
1695713026412231000,12.41923095703125,-0.4752407371997833,2.042376756668091,1.781120777130127
1695713026422248200,12.429248291015625,-0.4475438892841339,2.3884541988372803,1.801360845565796
1695713026432265500,12.439265380859375,-0.38362807035446167,2.393780469894409,1.805621862411499
1695713026442282800,12.44928271484375,-0.3016027808189392,2.3074941635131836,1.7821860313415527
1695713026452315100,12.459315185546876,-0.21544957160949707,2.310689926147461,1.7225313186645508
1695713026462348800,12.469348876953125,-0.13981585204601288,2.355431079864502,1.684181809425354
1695713026472382200,12.47938232421875,-0.0354200154542923,2.278865337371826,1.7204008102416992
1695713026482415600,12.48941552734375,0.07430213689804077,2.0434420108795166,1.7970997095108032
1695713026492449300,12.49944921875,0.18935060501098633,1.7208002805709839,1.8503628969192505
1695713026502482700,12.509482666015625,0.2968090772628784,1.3447622060775757,1.8503628969192505
1695713026512516400,12.519516357421875,0.42144492268562317,0.9965541362762451,1.7939039468765259
1695713026522549800,12.5295498046875,0.49707865715026855,0.7739140391349792,1.6873775720596313
1695713026532583400,12.53958349609375,0.466185986995697,0.6600639820098877,1.5148048400878906
1695713026542616800,12.549616943359375,0.3820301592350006,0.616388201713562,1.236904263496399
1695713026552649000,12.55964892578125,0.28509119153022766,0.503470242023468,0.8982835412025452
1695713026562680300,12.569680419921875,0.20639483630657196,0.3969438672065735,0.5776392221450806
1695713026572711400,12.57971142578125,0.09347688406705856,0.4587291479110718,0.3370227813720703
1695713026582742500,12.589742431640625,-0.04713791608810425,0.7195855975151062,0.2336922138929367
1695713026592774000,12.59977392578125,-0.1525990217924118,1.1020152568817139,0.21771325170993805
1695713026602805000,12.609804931640625,-0.26338642835617065,1.3330442905426025,0.16658060252666473
1695713026612836000,12.619836181640625,-0.3687143921852112,1.226517915725708,0.05153212696313858
1695713026622867500,12.629867431640625,-0.4475438892841339,0.8367645740509033,-0.13475584983825684
1695713026632898600,12.639898681640625,-0.5380913019180298,0.5652555227279663,-0.46924862265586853
1695713026642929700,12.6499296875,-0.5870934128761292,0.5897566080093384,-0.9506146311759949
1695713026652961800,12.6599619140625,-0.5040028691291809,0.447011262178421,-1.4927006959915161
1695713026662992400,12.669992431640624,-0.4613923132419586,0.11691268533468246,-2.1775319576263428
1695713026673023000,12.68002294921875,-0.5348954796791077,0.07217161357402802,-2.918689250946045
1695713026683053800,12.6900537109375,-0.6275734305381775,0.36072489619255066,-3.3277504444122314
1695713026693084400,12.70008447265625,-0.6701840162277222,0.6568682193756104,-3.3894026279449463
1695713026703115000,12.710114990234375,-0.7298387289047241,0.8143940567970276,-3.274487257003784
1695713026713145600,12.7201455078125,-0.8159919381141663,0.8474172353744507,-2.981539726257324
1695713026723176400,12.730176513671875,-0.829840362071991,0.7259771823883057,-2.6226789951324463
1695713026733207000,12.74020703125,-0.7000113725662231,0.5130575895309448,-2.3925821781158447
1695713026743237600,12.750237548828125,-0.4965460002422333,0.13076111674308777,-2.3297314643859863
1695713026753274000,12.760274169921875,-0.35167014598846436,-0.6382260918617249,-2.3851253986358643
1695713026763330800,12.770330810546875,-0.2644517123699188,-1.6851139068603516,-2.4543673992156982
1695713026773387500,12.780387451171874,-0.16431692242622375,-2.6659553050994873,-2.4671506881713867
1695713026783444200,12.7904443359375,-0.06205160543322563,-3.4743573665618896,-2.459693670272827
1695713026793501200,12.800501220703126,-0.007723161485046148,-3.7799549102783203,-2.609895944595337
1695713026803558000,12.810557861328125,0.030626330524683,-3.2719571590423584,-2.9996492862701416
1695713026813614600,12.820614501953125,0.06684529036283493,-2.35929274559021,-3.4916679859161377
1695713026823671300,12.83067138671875,0.04980107396841049,-1.6393076181411743,-3.8208343982696533
1695713026833728000,12.84072802734375,-0.07590003311634064,-1.4061479568481445,-3.9954044818878174
1695713026843760000,12.850760009765626,-0.30053749680519104,-1.7319855690002441,-4.04760217666626
1695713026853776000,12.86077587890625,-0.5562008023262024,-2.3774020671844482,-4.055059432983398
1695713026863791400,12.870791259765625,-0.7522093057632446,-2.8129618167877197,-4.0199055671691895
1695713026873807000,12.88080712890625,-0.8628635406494141,-2.9567723274230957,-3.8709018230438232
1695713026883822800,12.89082275390625,-0.8266445994377136,-3.000448226928711,-3.6226954460144043
1695713026893838300,12.90083837890625,-0.7223818898200989,-2.9940567016601562,-3.3117713928222656
1695713026903854000,12.91085400390625,-0.5860281586647034,-3.0430586338043213,-2.8995144367218018
1695713026913869800,12.920869873046875,-0.44541335105895996,-3.038797616958618,-2.4096262454986572
1695713026923885600,12.930885498046875,-0.3261038362979889,-2.8150923252105713,-1.9048244953155518
1695713026933901000,12.940901123046874,-0.25060325860977173,-2.453035831451416,-1.4074796438217163
1695713026943916800,12.950916748046875,-0.2324937880039215,-2.146239995956421,-0.9357009530067444
1695713026953949000,12.960948974609375,-0.237820103764534,-1.9375814199447632,-0.49268442392349243
1695713026963980500,12.97098046875,-0.24421168863773346,-1.7639434337615967,-0.07203845679759979
1695713026974012200,12.98101220703125,-0.24634221196174622,-1.5508906841278076,0.33063119649887085
1695713026984043800,12.991043701171876,-0.2601906359195709,-1.3347753286361694,0.7235803008079529
1695713026994075400,13.001075439453125,-0.28562381863594055,-1.1419626474380493,1.119725227355957
1695713027004107000,13.01110693359375,-0.2941459119319916,-0.9428914785385132,1.5148048400878906
1695713027014138600,13.021138671875,-0.27710169553756714,-0.742621898651123,1.8951040506362915
1695713027024170200,13.031170166015626,-0.22716747224330902,-0.4624575674533844,2.252899408340454
1695713027034201900,13.041201904296875,-0.1153147891163826,-0.03968106955289841,2.551173210144043
1695713027044233500,13.0512333984375,0.056192658841609955,0.4629902243614197,2.7321348190307617
1695713027054265000,13.06126513671875,0.2277000993490219,0.9560741186141968,2.646913766860962
1695713027064295400,13.07129541015625,0.447011262178421,1.1510173082351685,1.9579545259475708
1695713027074326000,13.081325927734374,0.7985482811927795,0.7994803786277771,0.4775044322013855
1695713027084356600,13.091356689453125,1.1052110195159912,-0.3976096510887146,-0.953810453414917
1695713027094387000,13.101386962890626,1.1286468505859375,-1.7010928392410278,-2.0049593448638916
1695713027104417500,13.11141748046875,0.9230509400367737,-2.225069522857666,-2.694051742553711
1695713027114448000,13.12144775390625,0.6526071429252625,-1.9812572002410889,-2.8144264221191406
1695713027124478500,13.131478515625,0.23515695333480835,-1.6009581089019775,-2.425605297088623
1695713027134508800,13.1415087890625,-0.18668745458126068,-1.2889690399169922,-1.827060341835022
1695713027144539400,13.151539306640625,-0.4571312665939331,-0.8715187907218933,-1.1807116270065308
1695713027154575000,13.1615751953125,-0.36658385396003723,-0.6392913460731506,-0.6567350625991821
1695713027164635100,13.17163525390625,-0.11638005077838898,-0.36245596408843994,-0.5097286701202393
1695713027174695400,13.1816953125,-0.2005358785390854,0.07643266767263412,-0.31265488266944885
1695713027184755500,13.19175537109375,-0.6478134393692017,0.466185986995697,0.6330329179763794
1695713027194815700,13.201815673828126,-1.076981544494629,0.8825709223747253,1.9217356443405151
1695713027204875800,13.211875732421875,-1.2186615467071533,1.2446273565292358,2.696981191635132
1695713027214911500,13.221911376953125,-1.1100046634674072,1.6068170070648193,2.760897159576416
1695713027224942800,13.23194287109375,-0.7617966532707214,1.737844467163086,2.164482593536377
1695713027234974200,13.24197412109375,-0.2962764501571655,1.3149348497390747,1.2006852626800537
1695713027244885000,13.251885009765624,0.04127896577119827,0.37137752771377563,0.659664511680603
1695713027255085000,13.2620849609375,0.08602003753185272,-0.4336954653263092,0.7864308953285217
1695713027265107200,13.272107177734375,-0.013049479573965073,-0.31451907753944397,1.4839122295379639
1695713027275136300,13.28213623046875,-0.016245270147919655,0.7440866827964783,2.44677734375
1695713027285169000,13.2921689453125,-0.0141147430986166,2.091378927230835,3.308309316635132
1695713027295191000,13.30219091796875,-0.09720530360937119,3.100982427597046,3.870635509490967
1695713027305209000,13.312208984375,-0.27710169553756714,3.5759568214416504,4.092210292816162
1695713027315267600,13.322267578125,-0.4432828426361084,3.53334641456604,4.050664901733398
1695713027325290000,13.3322900390625,-0.48908916115760803,3.155310869216919,3.85998272895813
1695713027335339300,13.34233935546875,-0.491219699382782,2.8134944438934326,3.63201642036438
1695713027345373400,13.35237353515625,-0.6286386847496033,2.4864585399627686,3.42122745513916
1695713027355395600,13.3623955078125,-0.7788408994674683,2.016810417175293,3.1655640602111816
1695713027365415000,13.372414794921875,-0.801211416721344,1.3202611207962036,2.9121644496917725
1695713027375458300,13.382458251953125,-0.621181845664978,0.637693464756012,2.5595622062683105
1695713027385483000,13.39248291015625,-0.42623862624168396,0.32237541675567627,2.1005666255950928
1695713027395500800,13.402500732421874,-0.31332066655158997,0.2978743314743042,1.7054871320724487
1695713027405518600,13.4125185546875,-0.24953800439834595,0.4139880836009979,1.4860427379608154
1695713027415543000,13.42254296875,-0.25912538170814514,0.9145288467407227,1.4776538610458374
1695713027425598000,13.432597900390626,-0.3687143921852112,1.6941686868667603,1.6149396896362305
1695713027435637800,13.4426376953125,-0.4667186439037323,2.1148147583007812,1.7363797426223755
1695713027445662500,13.452662353515626,-0.4486091434955597,2.080726146697998,1.781120777130127
1695713027455699500,13.462699462890624,-0.34740909934043884,1.9465030431747437,1.8088176250457764
1695713027465751600,13.47275146484375,-0.24634221196174622,1.974199891090393,1.8152092695236206
1695713027475776000,13.48277587890625,-0.1675127148628235,2.121206283569336,1.7970997095108032
1695713027485804300,13.49280419921875,-0.060986343771219254,2.210688352584839,1.801360845565796
1695713027495816700,13.502816650390624,0.06897582113742828,2.071138858795166,1.8120135068893433
1695713027505841200,13.512841064453125,0.20532956719398499,1.7282570600509644,1.7672723531723022
1695713027515849700,13.522849609375,0.3532680571079254,1.2403663396835327,1.6777902841567993
1695713027525874200,13.532874267578125,0.4992091655731201,0.6334323883056641,1.575524926185608
1695713027535898600,13.542898681640626,0.5673860311508179,0.03488738462328911,1.4691317081451416
1695713027545949700,13.55294970703125,0.5301018357276917,-0.40080544352531433,1.332777976989746
1695713027555847000,13.562846923828126,0.44594597816467285,-0.5135902166366577,1.1484873294830322
1695713038501057800,24.508057861328126,-0.004527370445430279,-0.0002663159102667123,0.0003994738799519837
1695713038511090000,24.51808984375,-0.004527370445430279,-0.0034621069207787514,-0.0017310534603893757
1695713038521122000,24.5281220703125,-0.004527370445430279,-0.005592633970081806,-0.002796316985040903
1695713038531154200,24.538154296875,-0.004527370445430279,-0.006657897960394621,-0.005992108024656773
1695713038541186600,24.5481865234375,-0.004527370445430279,-0.007723161485046148,-0.005992108024656773
1695713038551218700,24.55821875,-0.0034621069207787514,-0.00985368900001049,-0.005992108024656773
1695713038561250600,24.56825048828125,-0.0023968431632965803,-0.007723161485046148,-0.004926844500005245
1695713038571282700,24.57828271484375,-0.001331579522229731,-0.004527370445430279,-0.005992108024656773
1695713038581314600,24.588314453125,0.0007989477599039674,-0.0023968431632965803,-0.003861580742523074
1695713038591346700,24.5983466796875,0.002929474925622344,-0.004527370445430279,-0.005992108024656773
1695713038601378600,24.608378662109374,0.0050600022077560425,-0.005592633970081806,-0.002796316985040903
1695713038611410700,24.61841064453125,0.0050600022077560425,-0.005592633970081806,-0.002796316985040903
1695713038621442600,24.628442626953124,0.0018642114009708166,-0.005592633970081806,-0.0006657897611148655
1695713038631474700,24.638474609375,0.0018642114009708166,-0.004527370445430279,-0.0006657897611148655
1695713038641506600,24.648506591796874,0.0007989477599039674,-0.0023968431632965803,-0.0017310534603893757
1695713038651538700,24.65853857421875,-0.0023968431632965803,-0.0002663159102667123,-0.002796316985040903
1695713038661570300,24.6685703125,-0.004527370445430279,0.0007989477599039674,-0.0006657897611148655
1695713038671602000,24.678601806640625,-0.007723161485046148,0.0007989477599039674,-0.0017310534603893757
1695713038681633500,24.688633544921874,-0.00985368900001049,0.0018642114009708166,-0.0006657897611148655
1695713038691665000,24.698664794921875,-0.010918952524662018,0.003994738683104515,0.001464737462811172
1695713038701696500,24.708696533203124,-0.011984216049313545,0.0050600022077560425,-0.0006657897611148655
1695713038711727900,24.718727783203125,-0.010918952524662018,0.0018642114009708166,-0.0017310534603893757
1695713038721759500,24.728759521484374,-0.00985368900001049,0.003994738683104515,0.0003994738799519837
1695713038731791000,24.738791015625,-0.006657897960394621,0.003994738683104515,-0.0006657897611148655
1695713038741822700,24.74882275390625,-0.004527370445430279,0.0018642114009708166,0.0003994738799519837
1695713038751858200,24.758858154296874,-0.0023968431632965803,-0.001331579522229731,0.0003994738799519837
1695713038761910000,24.768909912109375,-0.0002663159102667123,-0.004527370445430279,-0.002796316985040903
1695713038771961600,24.778961669921873,0.0018642114009708166,-0.006657897960394621,-0.004926844500005245
1695713038782013400,24.789013427734375,0.0018642114009708166,-0.005592633970081806,-0.0070573715493083
1695713038792065000,24.79906494140625,0.0018642114009708166,-0.007723161485046148,-0.008122635073959827
1695713038802116900,24.809116943359374,0.002929474925622344,-0.004527370445430279,-0.008122635073959827
1695713038812168400,24.81916845703125,0.002929474925622344,-0.004527370445430279,-0.0070573715493083
1695713038822220300,24.82922021484375,0.0018642114009708166,-0.004527370445430279,-0.005992108024656773
1695713038832272100,24.839272216796875,0.002929474925622344,-0.005592633970081806,-0.005992108024656773
1695713038842303200,24.84930322265625,0.002929474925622344,-0.007723161485046148,-0.003861580742523074
1695713038852316200,24.859316162109376,0.002929474925622344,-0.007723161485046148,-0.004926844500005245
1695713038862329300,24.869329345703125,0.002929474925622344,-0.006657897960394621,-0.004926844500005245
1695713038872342300,24.87934228515625,0.0018642114009708166,-0.007723161485046148,-0.005992108024656773
1695713038882355200,24.889355224609375,-0.001331579522229731,-0.005592633970081806,-0.005992108024656773
1695713038892368400,24.899368408203124,-0.004527370445430279,0.0007989477599039674,-0.0017310534603893757
1695713038902381300,24.90938134765625,-0.005592633970081806,0.003994738683104515,0.0035952648613601923
1695713038912394500,24.91939453125,-0.005592633970081806,0.00612526573240757,0.006791055668145418
1695713038922407400,24.929407470703126,-0.005592633970081806,0.00612526573240757,0.005725792143493891
1695713038932420400,24.93942041015625,-0.007723161485046148,0.00612526573240757,0.0035952648613601923
1695713038942452000,24.949451904296875,-0.006657897960394621,-0.0002663159102667123,0.001464737462811172
1695713038952483800,24.95948388671875,-0.006657897960394621,-0.0023968431632965803,0.0025300011038780212
1695713038962516000,24.969515869140626,-0.010918952524662018,-0.0002663159102667123,-0.0017310534603893757
1695713038972547800,24.9795478515625,-0.00985368900001049,0.002929474925622344,-0.0070573715493083
1695713038982580000,24.989580078125,-0.006657897960394621,0.003994738683104515,-0.002796316985040903
1695713038992612000,24.999612060546873,-0.004527370445430279,0.003994738683104515,0.001464737462811172
1695713039002644000,25.00964404296875,-0.005592633970081806,-0.0002663159102667123,0.005725792143493891
1695713039012676000,25.019676025390623,-0.004527370445430279,-0.005592633970081806,0.0035952648613601923
1695713039022708200,25.029708251953124,-0.006657897960394621,-0.007723161485046148,0.0003994738799519837
1695713039032740000,25.039739990234374,-0.006657897960394621,-0.005592633970081806,-0.0017310534603893757
1695713039042772200,25.049772216796875,-0.008788425475358963,-0.006657897960394621,-0.0017310534603893757
1695713039052803800,25.059803955078124,-0.00985368900001049,-0.006657897960394621,-0.0017310534603893757
1695713039062836700,25.069836669921877,-0.00985368900001049,-0.001331579522229731,-0.0017310534603893757
1695713039072869600,25.07986962890625,-0.00985368900001049,0.0007989477599039674,-0.0006657897611148655
1695713039082902500,25.089902587890624,-0.010918952524662018,0.0018642114009708166,0.0003994738799519837
1695713039092935400,25.099935302734377,-0.010918952524662018,-0.0002663159102667123,-0.0006657897611148655
1695713039102968300,25.10996826171875,-0.00985368900001049,-0.001331579522229731,-0.002796316985040903
1695713039113001200,25.120001220703124,-0.008788425475358963,-0.001331579522229731,-0.0017310534603893757
1695713039123034000,25.1300341796875,-0.007723161485046148,-0.0023968431632965803,-0.0017310534603893757
1695713039133067000,25.14006689453125,-0.0034621069207787514,-0.0034621069207787514,-0.003861580742523074
1695713039143100000,25.150099853515623,-0.0034621069207787514,-0.004527370445430279,-0.004926844500005245
1695713039153132000,25.160132080078125,-0.001331579522229731,-0.005592633970081806,-0.0017310534603893757
1695713039163166000,25.170166015625,-0.001331579522229731,-0.0034621069207787514,-0.0006657897611148655
1695713039173200000,25.180199951171875,-0.0023968431632965803,-0.0023968431632965803,0.0035952648613601923
1695713039183234000,25.190234130859373,-0.001331579522229731,-0.0023968431632965803,0.0025300011038780212
1695713039193268000,25.20026806640625,-0.001331579522229731,-0.0023968431632965803,0.0025300011038780212
1695713039203302000,25.210302001953124,-0.0023968431632965803,-0.0023968431632965803,0.001464737462811172
1695713039213335800,25.220335693359374,-0.0034621069207787514,-0.0023968431632965803,-0.0006657897611148655
1695713039223369700,25.23036962890625,-0.0034621069207787514,-0.001331579522229731,-0.0006657897611148655
1695713039233404000,25.24040380859375,-0.005592633970081806,0.0007989477599039674,-0.0006657897611148655
1695713039243437800,25.250437744140626,-0.004527370445430279,0.0007989477599039674,-0.0017310534603893757
1695713039253469000,25.260468994140624,-0.006657897960394621,0.003994738683104515,-0.0017310534603893757
1695713039263497200,25.270497314453124,-0.007723161485046148,0.003994738683104515,0.0003994738799519837
1695713039273525200,25.280525146484376,-0.007723161485046148,0.003994738683104515,0.0003994738799519837
1695713039283553300,25.29055322265625,-0.007723161485046148,0.00612526573240757,0.001464737462811172
1695713039293581300,25.300581298828124,-0.006657897960394621,0.0050600022077560425,0.001464737462811172
1695713039303609300,25.310609375,-0.008788425475358963,0.00612526573240757,0.001464737462811172
1695713039313637600,25.3206376953125,-0.007723161485046148,0.0018642114009708166,0.0003994738799519837
1695713039323665700,25.330665771484377,-0.006657897960394621,0.0007989477599039674,0.0003994738799519837
1695713039333693700,25.340693603515625,-0.006657897960394621,-0.0002663159102667123,0.0003994738799519837
1695713039343721700,25.3507216796875,-0.005592633970081806,-0.001331579522229731,0.0003994738799519837
1695713039353761800,25.36076171875,-0.006657897960394621,-0.001331579522229731,0.001464737462811172
1695713039363871500,25.37087158203125,-0.004527370445430279,-0.001331579522229731,0.001464737462811172
1695713039373981200,25.380981201171874,-0.005592633970081806,-0.001331579522229731,0.001464737462811172
1695713039384021500,25.391021484375,-0.005592633970081806,-0.0002663159102667123,-0.0017310534603893757
1695713039394053000,25.40105322265625,-0.005592633970081806,-0.001331579522229731,-0.002796316985040903
1695713039404093200,25.41109326171875,-0.004527370445430279,-0.001331579522229731,-0.0006657897611148655
1695713039414133200,25.42113330078125,-0.005592633970081806,-0.0002663159102667123,0.001464737462811172
1695713039424173300,25.43117333984375,-0.0034621069207787514,-0.0002663159102667123,0.001464737462811172
1695713039434202000,25.4412021484375,-0.004527370445430279,0.0007989477599039674,0.001464737462811172
1695713039444079600,25.45107958984375,-0.004527370445430279,-0.0002663159102667123,0.001464737462811172
1695713039454104300,25.461104248046876,-0.005592633970081806,0.0007989477599039674,0.0025300011038780212
1695713039464117800,25.47111767578125,-0.005592633970081806,0.0018642114009708166,0.0003994738799519837
1695713039474141400,25.481141357421876,-0.005592633970081806,0.003994738683104515,0.0003994738799519837
1695713039484185000,25.49118505859375,-0.006657897960394621,0.0050600022077560425,0.001464737462811172
1695713039494210600,25.50121044921875,-0.006657897960394621,0.007190529722720385,0.0025300011038780212
1695713039504275500,25.511275390625,-0.005592633970081806,0.0050600022077560425,0.0025300011038780212
1695713039514304800,25.5213046875,-0.006657897960394621,0.002929474925622344,-0.0006657897611148655
1695713039524339200,25.531339111328126,-0.005592633970081806,-0.0002663159102667123,-0.002796316985040903
1695713039534369300,25.541369384765623,-0.005592633970081806,-0.0002663159102667123,-0.002796316985040903
1695713039544390700,25.551390625,-0.004527370445430279,0.0007989477599039674,-0.0017310534603893757
1695713039554419700,25.561419677734374,-0.004527370445430279,0.0018642114009708166,-0.002796316985040903
1695713039564465200,25.571465087890626,-0.0034621069207787514,0.002929474925622344,0.0003994738799519837
1695713039574496000,25.58149609375,-0.004527370445430279,0.002929474925622344,0.001464737462811172
1695713039584673800,25.591673828125,-0.005592633970081806,0.0018642114009708166,0.001464737462811172
1695713039594693000,25.601693115234376,-0.004527370445430279,0.0018642114009708166,0.001464737462811172
1695713039604723700,25.6117236328125,-0.005592633970081806,0.002929474925622344,0.001464737462811172
1695713039614775600,25.621775634765626,-0.005592633970081806,0.0018642114009708166,0.0025300011038780212
1695713039624797000,25.631796875,-0.005592633970081806,0.003994738683104515,0.005725792143493891
1695713039634827800,25.641827880859374,-0.005592633970081806,0.002929474925622344,0.00892158318310976
1695713039644871000,25.651870849609374,-0.005592633970081806,0.0050600022077560425,0.00892158318310976
1695713039654910200,25.66191015625,-0.0034621069207787514,0.003994738683104515,0.005725792143493891
1695713039664941000,25.671941162109373,-0.0034621069207787514,0.0018642114009708166,0.0035952648613601923
1695713039674943700,25.68194384765625,-0.001331579522229731,0.003994738683104515,0.0003994738799519837
1695713039684994000,25.691994140625,-0.001331579522229731,0.0050600022077560425,-0.0006657897611148655
1695713039695022800,25.70202294921875,-0.0023968431632965803,0.002929474925622344,-0.0006657897611148655
1695713039705040000,25.712039794921875,-0.0023968431632965803,0.0018642114009708166,-0.0006657897611148655
1695713039715057000,25.722056884765625,-0.0023968431632965803,0.0018642114009708166,0.001464737462811172
1695713039725074000,25.732073974609374,-0.0023968431632965803,0.002929474925622344,0.0003994738799519837
1695713039735091000,25.742091064453124,-0.004527370445430279,0.002929474925622344,0.0025300011038780212
1695713039745108000,25.75210791015625,-0.0034621069207787514,0.0050600022077560425,0.001464737462811172
1695713039755125000,25.762125,-0.0023968431632965803,0.002929474925622344,0.0003994738799519837
1695713039765142000,25.77214208984375,-0.004527370445430279,0.0007989477599039674,0.0025300011038780212
1695713039775159000,25.782158935546875,-0.005592633970081806,0.0018642114009708166,0.0003994738799519837
1695713039785176000,25.792176025390624,-0.007723161485046148,0.0007989477599039674,-0.0006657897611148655
1695713039795318800,25.80231884765625,-0.008788425475358963,0.002929474925622344,-0.0017310534603893757
1695713039805359000,25.812359130859374,-0.007723161485046148,0.00612526573240757,0.0003994738799519837
1695713039815403500,25.822403564453126,-0.007723161485046148,0.007190529722720385,0.0025300011038780212
1695713039825447700,25.83244775390625,-0.008788425475358963,0.00612526573240757,0.0025300011038780212
1695713039835305500,25.842305419921875,-0.006657897960394621,0.0050600022077560425,0.001464737462811172
1695713039845328600,25.85232861328125,-0.005592633970081806,0.003994738683104515,0.0003994738799519837
1695713039855509200,25.86250927734375,-0.0023968431632965803,0.0018642114009708166,0.0003994738799519837
1695713039865574700,25.87257470703125,-0.001331579522229731,0.002929474925622344,-0.0006657897611148655
1695713039875597800,25.882597900390625,-0.001331579522229731,0.00612526573240757,0.0035952648613601923
1695713039885635300,25.89263525390625,-0.0023968431632965803,0.007190529722720385,0.005725792143493891
1695713039895673000,25.902673095703125,-0.0023968431632965803,0.009321057237684727,0.00892158318310976
1695713039905696300,25.9126962890625,-0.0034621069207787514,0.009321057237684727,0.00892158318310976
1695713039915728000,25.922727783203126,-0.0034621069207787514,0.008255792781710625,0.00892158318310976
1695713039925782000,25.932781982421876,-0.0034621069207787514,0.009321057237684727,0.007856319658458233
1695713039935805200,25.94280517578125,-0.004527370445430279,0.009321057237684727,0.006791055668145418
1695713039945825300,25.9528251953125,-0.005592633970081806,0.009321057237684727,0.004660528618842363
1695713039955849700,25.962849609375,-0.005592633970081806,0.008255792781710625,0.005725792143493891
1695713039965883400,25.97288330078125,-0.006657897960394621,0.009321057237684727,0.005725792143493891
1695713039975917000,25.9829169921875,-0.006657897960394621,0.007190529722720385,0.005725792143493891
1695713039985950700,25.99295068359375,-0.007723161485046148,0.008255792781710625,0.005725792143493891
1695713039995975400,26.002975341796876,-0.006657897960394621,0.00612526573240757,0.0035952648613601923
1695713040006001000,26.0130009765625,-0.006657897960394621,0.00612526573240757,0.0025300011038780212
1695713040016025600,26.023025634765624,-0.005592633970081806,0.00612526573240757,0.004660528618842363
1695713040025936400,26.032936279296877,-0.006657897960394621,0.003994738683104515,0.0035952648613601923
1695713040036136400,26.043136474609376,-0.005592633970081806,-0.0002663159102667123,0.0035952648613601923
1695713040046152000,26.05315185546875,-0.005592633970081806,-0.001331579522229731,0.0035952648613601923
1695713040056168000,26.06316796875,-0.005592633970081806,-0.0002663159102667123,0.0035952648613601923
1695713040066228000,26.07322802734375,-0.004527370445430279,-0.0002663159102667123,0.0025300011038780212
1695713040076240100,26.083240234375,-0.004527370445430279,-0.0002663159102667123,0.001464737462811172
1695713040086255900,26.093255859375,-0.004527370445430279,0.0018642114009708166,0.001464737462811172
1695713040096330000,26.103330078125,-0.0034621069207787514,0.003994738683104515,0.0025300011038780212
1695713040106339000,26.113339111328123,-0.0034621069207787514,0.002929474925622344,0.0035952648613601923
1695713040116354600,26.1233544921875,-0.005592633970081806,0.002929474925622344,0.004660528618842363
1695713040126412800,26.133412841796876,-0.005592633970081806,0.003994738683104515,0.004660528618842363
1695713040136431400,26.143431396484374,-0.007723161485046148,0.0050600022077560425,0.005725792143493891
1695713040146466300,26.15346630859375,-0.005592633970081806,0.0050600022077560425,0.004660528618842363
1695713040156501200,26.163501220703125,-0.006657897960394621,0.008255792781710625,0.005725792143493891
1695713040166536200,26.1735361328125,-0.007723161485046148,0.009321057237684727,0.004660528618842363
1695713040176571100,26.183571044921877,-0.007723161485046148,0.00612526573240757,0.004660528618842363
1695713040186606000,26.193606201171875,-0.005592633970081806,0.002929474925622344,0.004660528618842363
1695713040196641000,26.20364111328125,-0.005592633970081806,0.0018642114009708166,0.0035952648613601923
1695713040206659600,26.21365966796875,-0.005592633970081806,0.0018642114009708166,0.0035952648613601923
1695713040216646700,26.223646728515625,-0.004527370445430279,0.0007989477599039674,0.0025300011038780212
1695713040226665200,26.233665283203123,-0.0034621069207787514,0.0018642114009708166,0.0025300011038780212
1695713045924880400,31.93188037109375,1.076448917388916,2.1979053020477295,-2.639723300933838
1695713045934900200,31.941900146484375,0.7751124501228333,2.274604082107544,-2.5726118087768555
1695713045944920000,31.951920166015626,0.22983063757419586,2.1520988941192627,-2.435192584991455
1695713045954951400,31.961951416015626,-0.1952095627784729,2.2277326583862305,-1.9932414293289185
1695713045964981500,31.9719814453125,-0.10466215014457703,1.9933745861053467,-1.3584774732589722
1695713045975011300,31.98201123046875,-0.019441060721874237,1.653688669204712,-0.7247787714004517
1695713045985041200,31.992041259765625,-0.056725289672613144,1.3586106300354004,-0.1592569202184677
1695713045995071200,32.0020712890625,-0.1760348230600357,0.5077312588691711,0.3242396116256714
1695713046005101000,32.01210107421875,-0.45926177501678467,-1.0258488655090332,0.8844351172447205
1695713046015131000,32.022130859375,-0.696815550327301,-0.32517173886299133,0.9588704109191895
1695713046025161000,32.032160888671875,-0.6478134393692017,0.6036050319671631,0.6916224360466003
1695713046035190800,32.042190673828124,-0.5604618191719055,0.6238450407981873,0.4870918095111847
1695713046045220900,32.052220947265624,-0.3996070325374603,0.5013396739959717,0.35513225197792053
1695713046055253000,32.0622529296875,-0.3058638274669647,0.6876276731491089,0.28802067041397095
1695713046065288700,32.072288818359375,-0.33782172203063965,1.0753836631774902,0.3380880355834961
1695713046075324400,32.082324462890625,-0.46458810567855835,1.7186697721481323,0.48496127128601074
1695713046085360000,32.092360107421875,-0.5348954796791077,1.6174696683883667,0.6170539855957031
1695713046095395800,32.102395751953125,-0.521047055721283,1.5162696838378906,0.8428898453712463
1695713046105431600,32.112431640625,-0.5221123695373535,1.742105484008789,1.0920283794403076
1695713046115467300,32.12246728515625,-0.6467481851577759,2.175534725189209,1.3136032819747925
1695713046125503000,32.1325029296875,-0.7692534923553467,2.4427826404571533,1.4084117412567139
1695713046135539000,32.1425390625,-0.8532761931419373,2.7186858654022217,1.4488917589187622
1695713046145574700,32.15257470703125,-1.0982868671417236,3.1670289039611816,1.5041522979736328
1695713046155606800,32.16260668945313,-1.0748510360717773,3.8529255390167236,1.6522239446640015
1695713046165638400,32.17263842773438,-0.9651288390159607,5.759214878082275,1.947301983833313
1695713046175670000,32.182669921875,-1.0695246458053589,7.052178382873535,2.223072052001953
1695713046185702000,32.192701904296875,-1.1398321390151978,7.942472457885742,2.3019015789031982
1695713046195733500,32.2027333984375,-0.5934849977493286,8.65180492401123,2.3306636810302734
1695713046205765400,32.21276538085937,0.48749127984046936,9.272720336914062,2.4552996158599854
1695713046215797000,32.222796875,2.0040271282196045,8.425969123840332,2.41162371635437
1695713046225828900,32.23282885742187,3.517367362976074,6.455763816833496,2.0122830867767334
1695713046235860500,32.24286059570313,4.308724880218506,6.017008304595947,1.7800555229187012
1695713046245892400,32.25289233398438,4.518581867218018,6.045770645141602,1.1751189231872559
1695713046255927800,32.262927734375,4.343878746032715,5.707016944885254,0.06325002759695053
1695713046265979100,32.27297924804687,3.9338855743408203,5.0381646156311035,-0.710930347442627
1695713046276030500,32.283030517578126,3.426953077316284,4.715522766113281,-1.125317931175232
1695713046286081800,32.29308178710937,3.184072971343994,4.603670120239258,-1.0763157606124878
1695713046296133400,32.30313330078125,2.980607748031616,4.35772705078125,-0.8749809265136719
1695713046306184700,32.31318481445312,2.4758057594299316,3.975297689437866,-0.8451535701751709
1695713046316236000,32.323236083984376,1.8326529264450073,3.5322811603546143,-0.8281093239784241
1695713046326287400,32.33328735351562,1.1914973258972168,3.095656156539917,-0.8366314172744751
1695713046336338700,32.343338623046876,0.6568682193756104,2.7357301712036133,-0.9197220206260681
1695713046346370300,32.353370361328125,0.19680745899677277,2.569549083709717,-0.9729851484298706
1695713046356385000,32.36338500976562,-0.2781669795513153,2.4864585399627686,-1.032639980316162
1695713046366400000,32.37339990234375,-0.7735145688056946,2.5759406089782715,-1.1828421354293823
1695713046376414700,32.383414794921876,-1.01413094997406,2.732534408569336,-1.3158669471740723
1695713046386429700,32.3934296875,-1.1345057487487793,2.9539761543273926,-1.4426332712173462
1695713046396444700,32.40344458007812,-1.1920300722122192,3.1169614791870117,-1.5832481384277344
1695713046406459400,32.41345947265625,-1.3156006336212158,3.1766161918640137,-1.6482291221618652
1695713046416474400,32.42347436523438,-1.5040191411972046,3.1766161918640137,-1.6237281560897827
1695713046426489300,32.4334892578125,-1.7021580934524536,3.0477192401885986,-1.542768120765686
1695713046436504000,32.44350415039062,-1.9992334842681885,2.861298084259033,-1.3627384901046753
1695713046446519000,32.45351904296875,-2.444380521774292,2.6217470169067383,-1.0667283535003662
1695713046456550400,32.46355029296875,-2.837462902069092,2.4118900299072266,-0.7631282210350037
1695713046466581500,32.47358154296875,-3.140929937362671,2.359692096710205,-0.4575307369232178
1695713046476612400,32.4836123046875,-3.492466926574707,2.279930591583252,-0.21997694671154022
1695713046486643500,32.4936435546875,-3.920569658279419,2.0242671966552734,-0.10825742036104202
1695713046496674600,32.50367456054688,-4.392348289489746,1.8314545154571533,-0.06990792602300644
