time,seconds_elapsed,z,y,x
1695713089881359000,0.229359130859375,-5.033526420593262,7.646191596984863,-4.388279914855957
1695713089900432600,0.2484326171875,-3.931097984313965,7.160577297210693,-4.026474952697754
1695713089919536600,0.26753662109375,-1.233708381652832,7.194537162780762,-3.411867618560791
1695713089938610200,0.286610107421875,-0.6714153289794922,7.027562618255615,-3.7690672874450684
1695713089957714200,0.305714111328125,-0.8927726745605469,5.982837677001953,-3.7785093784332275
1695713089976818200,0.324818115234375,-0.37087202072143555,5.04594612121582,-2.8351669311523438
1695713089995891500,0.343891357421875,0.20707368850708008,5.435575485229492,-2.158809185028076
1695713090014995500,0.362995361328125,0.3999919891357422,7.038501262664795,-2.591618776321411
1695713090034069000,0.382069091796875,0.49674224853515625,6.457454204559326,-4.007621765136719
1695713090053173000,0.401173095703125,-2.513072967529297,4.870957851409912,-3.4023005962371826
1695713090072277000,0.420277099609375,-6.274128437042236,4.763859272003174,-2.63322114944458
1695713090091381000,0.439381103515625,-4.507655143737793,7.743484973907471,-3.0546531677246094
1695713090110454500,0.45845458984375,-1.867569923400879,7.696674346923828,-3.2762770652770996
1695713090129558500,0.47755859375,-1.2578415870666504,7.304145336151123,-2.8379015922546387
1695713090148662500,0.49666259765625,-1.9852967262268066,7.530853748321533,-3.2661845684051514
1695713090167736000,0.515736083984375,-4.125125408172607,5.258986473083496,-3.17195987701416
1695713090186840000,0.534840087890625,-5.363827228546143,4.988208770751953,-2.9740328788757324
1695713090205913600,0.55391357421875,-3.8440017700195312,5.623191833496094,-2.3156135082244873
1695713090225017600,0.573017578125,-0.8107500076293945,5.951167583465576,-1.184847116470337
1695713090244091000,0.5920908203125,0.5544805526733398,5.814560413360596,-1.703080177307129
1695713090263195100,0.611195068359375,-1.524360179901123,5.145297050476074,-2.3813302516937256
1695713090282268400,0.630268310546875,-2.903933525085449,5.0629048347473145,-2.305816650390625
1695713090301372400,0.649372314453125,-2.6593236923217773,5.616425037384033,-2.1089277267456055
1695713090320446000,0.668446044921875,-1.216752052307129,4.68768310546875,-2.2690625190734863
1695713090339580400,0.687580322265625,-1.7188405990600586,5.008917808532715,-3.1634182929992676
1695713090358684400,0.706684326171875,-2.606201171875,4.831236839294434,-3.146496295928955
1695713090377758000,0.725758056640625,-3.1571640968322754,4.409981727600098,-3.2149858474731445
1695713090396862000,0.744862060546875,-3.402629852294922,4.488948345184326,-3.038890838623047
1695713090415935500,0.763935546875,-2.302811622619629,4.158951282501221,-2.2845640182495117
1695713090435039500,0.78303955078125,-1.3119397163391113,4.655595302581787,-2.670229434967041
1695713090454113000,0.802113037109375,-0.9340128898620605,5.0125603675842285,-3.203225612640381
1695713090473217000,0.821217041015625,-1.8901042938232422,4.177304744720459,-2.659313678741455
1695713090492290600,0.84029052734375,-2.194392204284668,3.878434181213379,-1.7483739852905273
1695713090511394600,0.85939453125,-0.742607593536377,3.2863078117370605,-1.2297310829162598
1695713090530467800,0.8784677734375,-1.503385066986084,3.6332168579101562,-1.7149453163146973
1695713090549571800,0.89757177734375,-3.2940621376037598,4.237388610839844,-2.0632991790771484
1695713090568675800,0.91667578125,-2.536044120788574,3.551025867462158,-1.2465271949768066
1695713090587749400,0.935749267578125,-1.959583044052124,4.373819351196289,-0.7542028427124023
1695713090606853400,0.954853271484375,-2.5111756324768066,5.031885147094727,-0.2654080390930176
1695713090625957400,0.973957275390625,-2.9321916103363037,6.34619665145874,0.1645970344543457
1695713090645061400,0.993061279296875,-2.7549118995666504,7.143506050109863,0.5146994590759277
1695713090664135000,1.012135009765625,-4.398698806762695,8.491039276123047,0.05880880355834961
1695713090683239000,1.031239013671875,-7.1421027183532715,9.818864822387695,-0.632939338684082
1695713090702312400,1.0503125,-7.977264404296875,9.451751708984375,-1.1748414039611816
1695713090721416400,1.06941650390625,-6.005843162536621,7.82614803314209,-0.8883934020996094
1695713090740520400,1.0885205078125,-2.8852577209472656,6.1842780113220215,-0.2746238708496094
1695713090759594000,1.107593994140625,-1.4535490274429321,7.428855895996094,-1.1480684280395508
1695713090778698000,1.126697998046875,-0.010889410972595215,5.089734077453613,-3.093973159790039
1695713090797771500,1.145771484375,-1.7008652687072754,1.8547871112823486,-4.975897789001465
1695713090816875500,1.16487548828125,-4.382359504699707,-0.013747811317443848,-6.840622901916504
1695713090835948800,1.18394873046875,-2.6100120544433594,-2.089810371398926,-7.044460296630859
1695713090855052800,1.203052734375,2.1644744873046875,-2.9588494300842285,-5.378734588623047
1695713090874126300,1.222126220703125,-8.068120002746582,4.20784854888916,-6.756351470947266
1695713090893230300,1.241230224609375,-4.879150867462158,4.0163960456848145,-5.318112373352051
1695713090912334300,1.260334228515625,-7.628010272979736,0.2886554002761841,-4.900179862976074
1695713090931438300,1.279438232421875,-5.636746406555176,-0.3732154369354248,-2.636199951171875
1695713090950542300,1.298542236328125,-4.333528995513916,-0.708491325378418,0.9766817092895508
1695713090969616000,1.317615966796875,-6.0497965812683105,3.249359130859375,3.4729623794555664
1695713090988719900,1.336719970703125,-5.186312198638916,2.139751672744751,1.4901518821716309
1695713091007793400,1.35579345703125,-7.656308174133301,1.518826961517334,-2.2420144081115723
1695713091026897400,1.3748974609375,-10.248818397521973,2.8896310329437256,-9.219963073730469
1695713091045971000,1.393970947265625,-3.4287638664245605,-1.8036761283874512,-2.728456974029541
1695713091065075000,1.413074951171875,-5.195797920227051,2.3327322006225586,-4.314198017120361
1695713091084148500,1.4321484375,-7.493743419647217,1.0292439460754395,-2.1727294921875
1695713091103252500,1.45125244140625,-0.5236344337463379,-4.610408306121826,3.2649407386779785
1695713091122356500,1.4703564453125,-3.511134624481201,-1.8051567077636719,1.8514142036437988
1695713091141429800,1.4894296875,-4.563243389129639,-3.1745810508728027,2.553469181060791
1695713091160533800,1.50853369140625,-6.463440418243408,-3.157951831817627,2.020838737487793
1695713091179607300,1.527607177734375,-4.448084354400635,-1.5154404640197754,1.5883984565734863
1695713091198705200,1.546705078125,-4.241435527801514,-1.2517666816711426,0.016386032104492188
1695713091217809200,1.56580908203125,-5.085373878479004,-2.4727206230163574,0.9870707988739014
1695713091236913200,1.5849130859375,-4.914666652679443,-2.046480655670166,1.5718097686767578
1695713091255986700,1.603986572265625,-4.882939338684082,0.6119208335876465,1.034156084060669
1695713091275121200,1.62312109375,-4.6670403480529785,3.202115535736084,0.7915592193603516
1695713091294194700,1.642194580078125,-3.8251638412475586,4.860722541809082,-1.2412383556365967
1695713091313268200,1.661268310546875,-4.58343505859375,8.130330085754395,-4.924249649047852
1695713091332372200,1.680372314453125,-5.4344048500061035,9.193031311035156,-6.497183322906494
1695713091351445500,1.699445556640625,-4.719906330108643,3.312602996826172,-1.3372793197631836
1695713091370549500,1.718549560546875,-5.463713645935059,2.862567901611328,2.8327674865722656
1695713091389623000,1.737623046875,-3.6932668685913086,1.4194960594177246,-0.03684592247009277
1695713091408727000,1.75672705078125,-7.214649677276611,-1.2135186195373535,-3.0180187225341797
1695713091427800600,1.775800537109375,-5.674770355224609,1.5721564292907715,-4.508389472961426
1695713091446904600,1.794904541015625,-5.038151264190674,2.8962974548339844,-2.286292552947998
1695713091465978000,1.81397802734375,-6.230188846588135,1.338944911956787,-0.49518275260925293
1695713091485112600,1.833112548828125,-7.035855293273926,0.3814525604248047,0.7486550807952881
1695713091504216600,1.852216552734375,-6.550190448760986,1.1415057182312012,1.3878812789916992
1695713091523290000,1.8712900390625,-5.922325134277344,1.9949078559875488,0.7815430164337158
1695713091542394000,1.89039404296875,-6.031003952026367,1.8460168838500977,1.169421672821045
1695713091561467600,1.909467529296875,-5.356926441192627,1.9499106407165527,0.5612888336181641
1695713091580571600,1.928571533203125,-5.73917293548584,-0.2879676818847656,-1.9467597007751465
1695713091599645200,1.947645263671875,-5.071473598480225,-0.21220636367797852,-1.4327619075775146
1695713091618749200,1.966749267578125,-5.315728664398193,-1.7497458457946777,-1.0125126838684082
1695713091637822500,1.985822509765625,-5.795217514038086,-3.3075270652770996,-0.1668543815612793
1695713091656926500,2.004926513671875,-6.093057632446289,-3.1999006271362305,1.4394454956054688
1695713091676030500,2.024030517578125,-6.590781211853027,-0.6559476852416992,1.5760788917541504
1695713091695104000,2.04310400390625,-5.917378902435303,2.3330297470092773,1.344393014907837
1695713091714208000,2.0622080078125,-8.432455062866211,1.4720587730407715,1.2197303771972656
1695713091733281500,2.081281494140625,-7.095270156860352,2.448953628540039,1.461333990097046
1695713091752385500,2.100385498046875,-1.8745956420898438,6.5818657875061035,-0.49019622802734375
1695713091771489500,2.119489501953125,-2.4390029907226562,4.539777755737305,-0.02116262912750244
1695713091790593500,2.138593505859375,-8.205350875854492,-0.5062646865844727,3.4385876655578613
1695713091809667000,2.1576669921875,-11.128968238830566,-3.4710144996643066,3.6313037872314453
1695713091828771000,2.17677099609375,-2.586520195007324,3.45167875289917,2.4877877235412598
1695713091847844600,2.1958447265625,-4.042579174041748,8.990803718566895,1.5163936614990234
1695713091866948600,2.214948486328125,-5.953047752380371,4.222355365753174,2.1768834590911865
1695713091886052600,2.234052490234375,-5.176808834075928,-1.9242162704467773,2.213326930999756
1695713091905126000,2.2531259765625,-6.547547817230225,-2.400404930114746,2.0172274112701416
1695713091924230100,2.272230224609375,-5.192377090454102,-0.385101318359375,1.4297021627426147
1695713091943303400,2.291303466796875,-6.056684494018555,1.5898075103759766,0.9688062071800232
1695713091962407400,2.310407470703125,-5.223216533660889,0.6294794082641602,3.0919880867004395
1695713091981481000,2.32948095703125,-6.306774139404297,5.121665000915527,1.7028515338897705
1695713092000585000,2.3485849609375,-7.301380157470703,9.62382698059082,-2.369579315185547
1695713092019658500,2.367658447265625,-4.976777076721191,6.8664350509643555,-1.61117684841156
1695713092038793000,2.38679296875,-5.866518974304199,3.0248031616210938,-0.045410946011543274
1695713092057866500,2.405866455078125,-4.8950934410095215,1.1106605529785156,1.3941165208816528
1695713092076970500,2.424970458984375,-5.253701686859131,2.4658851623535156,1.5917656421661377
1695713092096074500,2.444074462890625,-5.410267353057861,2.3739986419677734,1.2164874076843262
1695713092115148000,2.46314794921875,-5.175252437591553,0.9257574081420898,2.0169053077697754
1695713092134252000,2.482251953125,-5.399588584899902,-0.12625503540039062,3.128786325454712
1695713092153325600,2.50132568359375,-6.278177261352539,1.6968488693237305,2.000659704208374
1695713092172429600,2.5204296875,-5.941921234130859,2.2532577514648438,1.8148760795593262
1695713092191502800,2.5395029296875,-5.984109401702881,2.9446563720703125,1.3558180332183838
1695713092210606800,2.55860693359375,-5.990721225738525,1.5070123672485352,1.38953697681427
1695713092229680400,2.577680419921875,-5.7523980140686035,0.6535091400146484,-0.8882793188095093
1695713092248784400,2.596784423828125,-5.5753960609436035,0.8183660507202148,-2.4574971199035645
1695713092267888400,2.615888427734375,-3.192500114440918,1.1165027618408203,1.097334384918213
1695713092286962000,2.6349619140625,-4.131651401519775,1.3900079727172852,2.0717716217041016
1695713092306066000,2.65406591796875,-4.861283302307129,1.6655712127685547,1.4637900590896606
1695713092325139500,2.673139404296875,-4.729227542877197,1.6250419616699219,1.3188272714614868
1695713092344243500,2.692243408203125,-5.423864841461182,1.5073184967041016,1.4148550033569336
1695713092363347500,2.711347412109375,-4.806976318359375,1.4366703033447266,1.553252935409546
1695713092382451500,2.730451416015625,-4.778287410736084,1.3551740646362305,1.6276042461395264
1695713092401525000,2.74952490234375,-4.852389812469482,1.3395261764526367,1.5733100175857544
1695713092420629000,2.76862890625,-4.955107688903809,1.229623794555664,1.5940985679626465
1695713092439733000,2.78773291015625,-4.873382091522217,1.192185401916504,1.5680663585662842
1695713092458806500,2.806806640625,-4.830842018127441,1.2278614044189453,1.6372531652450562
1695713092477910500,2.82591064453125,-4.845483779907227,1.3040151596069336,1.6986373662948608
1695713092496983800,2.84498388671875,-5.011655807495117,1.1340608596801758,1.5560253858566284
1695713092516087800,2.864087890625,-4.986128807067871,0.9644193649291992,1.359620213508606
1695713092535161300,2.883161376953125,-4.874676704406738,0.8857393264770508,1.2852075099945068
1695713092554265300,2.902265380859375,-4.887789249420166,1.1440038681030273,1.2877554893493652
1695713092573339000,2.9213388671875,-4.939300537109375,1.3108329772949219,1.3144185543060303
1695713092592443000,2.94044287109375,-4.946121692657471,1.2340526580810547,1.3783491849899292
1695713092611516400,2.959516357421875,-5.0204925537109375,1.1595335006713867,1.258101224899292
1695713092630651000,2.97865087890625,-4.913372993469238,1.2017316818237305,1.0535298585891724
1695713092649755000,2.9977548828125,-4.796390056610107,1.2533178329467773,0.9609420895576477
1695713092668828400,3.016828369140625,-4.935851097106934,1.1355905532836914,0.9543776512145996
1695713092687932400,3.035932373046875,-5.034087181091309,1.0793695449829102,0.9648054242134094
1695713092707006000,3.055005859375,-5.081642150878906,1.1515264511108398,0.9188460111618042
1695713092726110000,3.07410986328125,-5.01759147644043,1.1375312805175781,0.9206008315086365
1695713092745183500,3.09318359375,-4.988636016845703,1.0628604888916016,0.9323687553405762
1695713092764287500,3.11228759765625,-4.941064357757568,0.9896020889282227,1.0250322818756104
1695713092783360800,3.13136083984375,-4.83018159866333,1.060922622680664,1.1097800731658936
1695713092802464800,3.15046484375,-4.869866847991943,1.0397300720214844,1.148573398590088
1695713092821568800,3.16956884765625,-4.878134250640869,0.9818134307861328,1.246699571609497
1695713092840642300,3.188642333984375,-4.802308082580566,1.0042390823364258,1.291711449623108
1695713092859746300,3.207746337890625,-4.729558944702148,1.0535860061645508,1.3735014200210571
1695713092878819800,3.22681982421875,-4.760071277618408,1.0185680389404297,1.5915091037750244
1695713092897923800,3.245923828125,-4.895482540130615,0.9331235885620117,1.686862826347351
1695713092917027800,3.26502783203125,-4.9600396156311035,0.8929357528686523,1.4697914123535156
1695713092936131800,3.2841318359375,-4.889229774475098,0.9353885650634766,1.1691040992736816
1695713092955205400,3.303205322265625,-4.508397579193115,0.8280658721923828,1.0776132345199585
1695713092974339800,3.32233984375,-4.363542556762695,0.8009185791015625,1.1446834802627563
1695713092993383000,3.3413828125,-4.472464084625244,0.9138717651367188,1.3371167182922363
1695713093012487000,3.36048681640625,-4.603996276855469,0.9696645736694336,1.380656123161316
1695713093031560400,3.379560546875,-4.720388889312744,0.8204326629638672,1.25345778465271
1695713093050664400,3.39866455078125,-4.422438144683838,0.8642301559448242,1.4695775508880615
1695713093069768400,3.4177685546875,-3.9537010192871094,0.9431934356689453,1.7938284873962402
1695713093088841700,3.436841796875,-3.7314844131469727,0.903407096862793,1.9874836206436157
1695713093107945700,3.45594580078125,-3.6717357635498047,0.842839241027832,2.214290142059326
1695713093127019300,3.475019287109375,-3.794646739959717,0.8558015823364258,2.519789218902588
1695713093146123300,3.494123291015625,-4.287559986114502,1.1749610900878906,3.208566427230835
1695713093165196800,3.51319677734375,-5.065567970275879,2.376035690307617,4.082316875457764
1695713093184300800,3.53230078125,-5.243443965911865,3.306154251098633,4.2919793128967285
1695713093203404800,3.55140478515625,-4.843475341796875,3.618593215942383,3.1234660148620605
1695713093222508800,3.5705087890625,-3.9611754417419434,3.225879669189453,1.2146586179733276
1695713093241612800,3.58961279296875,-3.693509101867676,2.436382293701172,-0.606084942817688
1695713093260686300,3.608686279296875,-4.508717060089111,1.6525583267211914,-1.1580694913864136
1695713093279790300,3.627790283203125,-5.350778102874756,1.067519187927246,-0.1099807620048523
1695713093298863900,3.64686376953125,-5.742420673370361,0.8733968734741211,0.5550125241279602
1695713093317968000,3.6659677734375,-5.434802055358887,1.4246454238891602,0.12127435207366943
1695713093337041400,3.68504150390625,-4.3387932777404785,2.183619499206543,-0.30618083477020264
1695713093356145400,3.7041455078125,-3.304555892944336,2.9012041091918945,-0.33182764053344727
1695713093375218700,3.72321875,-4.749485015869141,3.353381633758545,1.1989206075668335
1695713093394322700,3.74232275390625,-6.261730670928955,3.574455738067627,2.460362672805786
1695713093413426700,3.7614267578125,-5.889622688293457,3.4011106491088867,2.7172765731811523
1695713093432500200,3.780500244140625,-5.152558326721191,3.530287265777588,2.071514129638672
1695713093451604200,3.799604248046875,-5.732300281524658,3.4293432235717773,1.216188907623291
1695713093470677800,3.818677734375,-6.19047212600708,2.509798526763916,0.719545841217041
1695713093489781800,3.83778173828125,-5.064442157745361,1.5522584915161133,0.47532951831817627
1695713093508885800,3.8568857421875,-4.817956924438477,1.5606732368469238,0.4911367893218994
1695713093527989800,3.87598974609375,-4.902538299560547,2.098844051361084,0.7292922735214233
1695713093547063300,3.895063232421875,-5.107422351837158,2.46663761138916,0.8283047676086426
1695713093566167300,3.914167236328125,-5.043430805206299,2.172914981842041,0.7663180828094482
1695713093585271300,3.933271240234375,-4.767547130584717,1.3832740783691406,0.6704392433166504
1695713093604344800,3.9523447265625,-4.459466457366943,0.6541023254394531,0.5609316825866699
1695713093623448800,3.97144873046875,-4.635531902313232,0.28269004821777344,0.579397439956665
1695713093642522400,3.9905224609375,-4.6589555740356445,0.3292350769042969,0.9196853637695312
1695713093661626400,4.00962646484375,-4.196816921234131,0.57476806640625,1.6935045719146729
1695713093680699600,4.02869970703125,-3.7213940620422363,0.9226016998291016,2.292731285095215
1695713093699803600,4.0478037109375,-3.2974562644958496,1.0451970100402832,2.6027910709381104
1695713093718877200,4.066877197265625,-2.731081008911133,1.099848747253418,2.5878968238830566
1695713093738011600,4.08601171875,-1.90681791305542,1.7564959526062012,2.4899096488952637
1695713093757085200,4.105085205078125,-1.224423885345459,2.867825508117676,2.439790725708008
1695713093776189200,4.124189208984375,-0.5896496772766113,3.9705538749694824,2.9304022789001465
1695713093795293200,4.143293212890625,0.21814489364624023,4.761041641235352,3.897573947906494
1695713093814366700,4.16236669921875,0.5371737480163574,4.686076641082764,4.008386135101318
1695713093833470700,4.181470703125,-0.3772273063659668,3.033470630645752,2.557131052017212
1695713093852544300,4.200544189453125,-1.484825611114502,0.37348461151123047,0.9053716659545898
1695713093871648300,4.219648193359375,-2.347598075866699,-1.7134809494018555,-0.007336258888244629
1695713093890721800,4.2387216796875,-1.7714872360229492,-0.8826360702514648,0.6613879203796387
1695713093909825800,4.25782568359375,-0.17686748504638672,4.208361625671387,1.9133996963500977
1695713093928899300,4.2768994140625,0.7577457427978516,13.195161819458008,2.082594633102417
1695713093948003300,4.29600341796875,-10.062358856201172,15.007413864135742,-1.6601836681365967
1695713093967107300,4.315107421875,-4.779607772827148,1.7075328826904297,-1.0070453882217407
1695713093986180600,4.3341806640625,-4.380020618438721,-10.041448593139648,2.518880844116211
1695713094005284600,4.35328466796875,-13.421661376953125,-8.29368782043457,0.44879150390625
1695713094024358100,4.372358154296875,-6.098443508148193,1.8684849739074707,2.512244701385498
1695713094043462100,4.391462158203125,-4.398763656616211,12.28223991394043,7.80429744720459
1695713094062566100,4.410566162109375,-7.343602657318115,9.323314666748047,5.783138275146484
1695713094081670100,4.429670166015625,-5.9640350341796875,0.8489289283752441,0.616141676902771
1695713094100743700,4.44874365234375,-1.7839736938476562,-2.3003945350646973,-1.3947672843933105
1695713094119847700,4.46784765625,-2.5184006690979004,-1.2301478385925293,-0.27168333530426025
1695713094138951700,4.48695166015625,-7.2269415855407715,1.5219621658325195,1.9277979135513306
1695713094158025200,4.506025146484375,-8.088747024536133,2.5911569595336914,3.028193473815918
1695713094177129200,4.525129150390625,-4.972080707550049,0.46718311309814453,2.980747938156128
1695713094196202800,4.54420263671875,-4.29695987701416,-0.7811813354492188,2.3553953170776367
1695713094215306800,4.563306640625,-5.2435784339904785,-0.19134807586669922,1.985351324081421
1695713094234380300,4.58238037109375,-5.644314765930176,0.9098262786865234,2.1011815071105957
1695713094253484300,4.601484375,-4.619309902191162,0.8500757217407227,2.435105323791504
1695713094272557600,4.6205576171875,-3.379134178161621,0.2636556625366211,2.515068292617798
1695713094291661600,4.63966162109375,-3.4818201065063477,0.6634740829467773,2.2727086544036865
1695713094310735000,4.658735107421875,-3.422062397003174,0.8131656646728516,2.249056816101074
1695713094329839000,4.677839111328125,-3.4184930324554443,0.5200080871582031,1.9736263751983643
1695713094348973600,4.6969736328125,-3.4874064922332764,0.6508455276489258,1.74989914894104
1695713094368047000,4.716047119140625,-2.742553234100342,1.130976676940918,2.0749053955078125
1695713094387151000,4.735151123046875,-3.173811435699463,1.2474555969238281,2.455306053161621
1695713094406224600,4.754224609375,-3.3637194633483887,1.5067358016967773,2.2006213665008545
1695713094425328600,4.77332861328125,-2.8166253566741943,1.3258228302001953,2.1864142417907715
1695713094444402200,4.792402099609375,-2.8354506492614746,1.3960380554199219,2.2446305751800537
1695713094463506200,4.811506103515625,-2.177469253540039,1.8771066665649414,2.0487496852874756
1695713094482579700,4.830579833984375,-1.6914830207824707,1.8625268936157227,2.9799532890319824
1695713094501683700,4.84968359375,-3.2457759380340576,3.1141128540039062,4.28933572769165
1695713094520787700,4.86878759765625,-5.850890159606934,4.867473602294922,4.956857204437256
1695713094539861200,4.887861328125,-7.179016590118408,4.307372093200684,4.20084810256958
1695713094558965200,4.90696533203125,-6.981663703918457,2.9399452209472656,2.0168399810791016
1695713094578038500,4.92603857421875,-5.859875202178955,1.790177345275879,-0.31789565086364746
1695713094597142500,4.945142578125,-4.7847466468811035,1.90679931640625,-1.0783517360687256
1695713094616216000,4.964216064453125,-3.0421786308288574,3.1014342308044434,-0.5971294641494751
1695713094635350500,4.9833505859375,-1.1002655029296875,5.490227699279785,0.37974977493286133
1695713094654424000,5.002424072265625,-0.9790592193603516,6.880221366882324,1.4155592918395996
1695713094673558500,5.02155859375,-5.147332668304443,6.556556224822998,0.9415532350540161
1695713094692601600,5.0406015625,-10.651592254638672,5.633257865905762,-0.44998860359191895
1695713094711705600,5.05970556640625,-12.754759788513184,4.249241828918457,-1.7287633419036865
1695713094730809600,5.0788095703125,-7.628116130828857,1.3368029594421387,-0.1691434383392334
1695713094749883100,5.097883056640625,-3.914921760559082,-0.2936210632324219,1.3075132369995117
1695713094768987100,5.116987060546875,-4.193387031555176,0.017475605010986328,1.3210093975067139
1695713094788060700,5.136060791015625,-3.6347317695617676,0.547783374786377,0.8170793056488037
1695713094807164700,5.15516455078125,-6.25603723526001,0.6574416160583496,0.7894470691680908
1695713094826238000,5.174238037109375,-6.659924030303955,-0.03249549865722656,1.0534899234771729
1695713094845342000,5.193342041015625,-6.404908657073975,-0.8909063339233398,1.137101173400879
1695713094864415500,5.21241552734375,-5.437416076660156,-1.4266858100891113,1.2852561473846436
1695713094883519500,5.23151953125,-4.393345355987549,-1.6836543083190918,1.324528455734253
1695713094902623500,5.25062353515625,-3.375278949737549,-1.634861946105957,1.7333588600158691
1695713094921727500,5.2697275390625,-2.3610658645629883,-1.1277532577514648,2.2133660316467285
1695713094940831500,5.28883154296875,-1.8395156860351562,0.22919893264770508,2.661125659942627
1695713094959905000,5.307905029296875,-1.1439313888549805,2.914797782897949,3.2853736877441406
1695713094979009000,5.327009033203125,-0.47118377685546875,6.604866027832031,3.2835543155670166
1695713094998082600,5.34608251953125,0.7790493965148926,8.846285820007324,3.134679079055786
1695713095017186600,5.3651865234375,3.2814888954162598,8.109389305114746,2.5706443786621094
1695713095036260000,5.384260009765625,2.2480015754699707,4.141899108886719,1.7509455680847168
1695713095055364000,5.403364013671875,-1.6197690963745117,-1.533599853515625,1.504739761352539
1695713095074437600,5.422437744140625,-1.6435832977294922,-4.0067338943481445,1.665741205215454
1695713095093541600,5.441541748046875,-0.19507312774658203,-0.061861515045166016,2.6634268760681152
1695713095112645600,5.460645751953125,2.3023242950439453,8.558246612548828,3.6742196083068848
1695713095131719000,5.479718994140625,-9.487592697143555,15.033123016357422,-0.12981653213500977
1695713095150823000,5.498822998046875,-12.524703025817871,10.111833572387695,-5.178590297698975
1695713095169896400,5.517896484375,-3.0430498123168945,-7.991694450378418,2.424898147583008
1695713095189000400,5.53700048828125,-9.770516395568848,-10.710886001586914,0.5983529090881348
1695713095208104400,5.5561044921875,-2.6094417572021484,-1.4761571884155273,1.9026501178741455
1695713095227208400,5.57520849609375,-5.365437030792236,10.983417510986328,5.685671806335449
1695713095246282000,5.594281982421875,-9.01150894165039,11.54724407196045,5.973031997680664
1695713095265386000,5.613385986328125,-6.7217254638671875,2.747905731201172,2.172222852706909
1695713095284490000,5.632489990234375,-3.454972743988037,-1.6367816925048828,0.16084527969360352
1695713095303563500,5.6515634765625,-4.650356292724609,-1.6984272003173828,1.1455693244934082
1695713095322667500,5.67066748046875,-5.853849411010742,-0.06426143646240234,2.6409902572631836
1695713095341741000,5.689740966796875,-5.101647853851318,1.6017341613769531,2.916309356689453
1695713095360845000,5.708844970703125,-4.022286891937256,1.1211738586425781,2.7173047065734863
1695713095379918600,5.727918701171875,-5.0343523025512695,-0.15186595916748047,2.404512643814087
1695713095399022600,5.747022705078125,-4.376717567443848,-0.24623394012451172,1.6545891761779785
1695713095418095900,5.766095947265625,-3.373377799987793,0.08510494232177734,1.6461222171783447
1695713095437230600,5.785230712890625,-2.944296360015869,-0.04166698455810547,2.410698890686035
1695713095456273400,5.8042734375,-3.024235963821411,0.03072643280029297,2.8114013671875
1695713095475377400,5.82337744140625,-2.6524815559387207,0.7229557037353516,2.9859890937805176
1695713095494512000,5.84251220703125,-1.5185303688049316,1.1133232116699219,3.13631010055542
1695713095513585400,5.86158544921875,-1.6357002258300781,0.9929065704345703,3.1133227348327637
1695713095532689400,5.880689453125,-2.248586893081665,1.2751092910766602,3.001980781555176
1695713095551763000,5.899762939453125,-2.174823522567749,2.2427549362182617,3.113454580307007
1695713095570867000,5.918866943359375,-2.210522174835205,2.6897592544555664,3.943347454071045
1695713095589940500,5.9379404296875,-2.476094961166382,2.7699356079101562,4.40311336517334
1695713095609044500,5.95704443359375,-1.8861150741577148,3.3819713592529297,3.9351181983947754
1695713095628118000,5.976117919921875,-1.6176559925079346,5.532737731933594,3.662714958190918
1695713095647222000,5.995221923828125,-3.404477834701538,6.379158973693848,4.033702850341797
1695713095666326000,6.014325927734375,-5.35371208190918,5.30476188659668,3.439136505126953
1695713095685399600,6.033399658203125,-5.263806343078613,2.181790351867676,1.409186840057373
1695713095704503600,6.052503662109375,-4.447446823120117,0.6789875030517578,-1.533067226409912
1695713095723576800,6.071576904296875,-4.423003196716309,2.332805633544922,-2.6056883335113525
1695713095742680800,6.090680908203125,-3.5476555824279785,4.399662017822266,-2.121682643890381
1695713095761754400,6.10975439453125,-2.8676109313964844,5.814143657684326,-1.7614636421203613
1695713095780888800,6.128888916015625,-1.6635518074035645,5.277183532714844,-0.9199409484863281
1695713095799962400,6.14796240234375,-3.958202838897705,4.748175621032715,-0.5152125358581543
1695713095819066400,6.16706640625,-9.249897003173828,4.525228500366211,-0.1899712085723877
1695713095838170400,6.18617041015625,-12.498344421386719,3.853525161743164,0.7013640403747559
1695713095857244000,6.205243896484375,-6.522704124450684,1.2692699432373047,2.7157628536224365
1695713095876348000,6.224347900390625,-5.035029411315918,-2.138363838195801,1.5526351928710938
1695713095895421400,6.24342138671875,-6.851632118225098,0.09470319747924805,1.369922161102295
1695713095914525400,6.262525390625,-5.3563714027404785,1.3915534019470215,0.9485249519348145
1695713095933599000,6.281598876953125,-3.5969247817993164,1.0268816947937012,0.17137908935546875
1695713095952703000,6.300702880859375,-5.53253173828125,-0.5670232772827148,0.12883853912353516
1695713095971776500,6.319776611328125,-6.294600009918213,-2.2530770301818848,0.902163028717041
1695713095990880500,6.338880615234375,-5.033127307891846,-3.072913646697998,1.713170051574707
1695713096009984500,6.357984619140625,-3.6848959922790527,-3.1626038551330566,2.0963144302368164
1695713096029057800,6.377057861328125,-3.208608627319336,-2.574697971343994,1.9034576416015625
1695713096048161800,6.396161865234375,-3.0456790924072266,-1.6377148628234863,1.9632039070129395
1695713096067265800,6.415265869140625,-2.1288795471191406,0.5993924140930176,1.970454454421997
1695713096086369800,6.434369873046875,0.39623403549194336,4.688873291015625,2.1445391178131104
1695713096105443300,6.453443359375,2.5862364768981934,10.132607460021973,2.6942975521087646
1695713096124547300,6.47254736328125,4.391839981079102,12.79110336303711,1.4145281314849854
1695713096143620900,6.491620849609375,3.341775894165039,6.3958258628845215,-0.11914944648742676
1695713096162724900,6.510724853515625,-2.947070598602295,-4.766406059265137,0.34472203254699707
1695713096181798400,6.52979833984375,-2.1363654136657715,-7.684360504150391,-0.037976980209350586
1695713096200902400,6.54890234375,-0.8588662147521973,-0.25662708282470703,0.08136582374572754
1695713096220006400,6.56800634765625,-0.526984691619873,11.936235427856445,-1.2753877639770508
1695713096239080000,6.587079833984375,-11.603398323059082,17.680866241455078,-5.068634033203125
1695713096258184000,6.606183837890625,-3.343883514404297,3.5989255905151367,3.486462116241455
1695713096277257500,6.625257568359375,-11.380385398864746,-9.170181274414062,5.507232189178467
1695713096296361500,6.644361572265625,-8.455726623535156,-8.021784782409668,1.7151198387145996
1695713096315434800,6.663434814453125,-3.524113178253174,4.443578720092773,2.3940837383270264
1695713096334538800,6.682538818359375,-5.586437225341797,11.541141510009766,3.413095474243164
1695713096353642800,6.701642822265625,-5.938745021820068,8.096595764160156,2.5563156604766846
1695713096372777500,6.720777587890625,-4.929975509643555,0.6117191314697266,-0.1143343448638916
1695713096391820300,6.7398203125,-4.544820785522461,-1.8346567153930664,-0.7189619541168213
1695713096410924300,6.75892431640625,-5.340090751647949,-1.2562885284423828,1.2198901176452637
1695713096430028300,6.7780283203125,-5.599541664123535,0.7629556655883789,2.0653371810913086
1695713096449101800,6.797101806640625,-4.3652496337890625,1.3296699523925781,1.915088176727295
1695713096468205800,6.816205810546875,-3.924215316772461,0.11456775665283203,2.2508649826049805
1695713096487279400,6.835279296875,-5.219639778137207,-0.49608707427978516,2.267338991165161
1695713096506383400,6.85438330078125,-4.671015739440918,-0.12420272827148438,1.9334115982055664
1695713096525457000,6.873456787109375,-3.454271078109741,0.043567657470703125,2.140805959701538
1695713096544561000,6.892560791015625,-2.5653905868530273,0.1542215347290039,2.460958242416382
1695713096563634400,6.911634521484375,-2.5512397289276123,0.02633953094482422,2.344975233078003
1695713096582738400,6.930738525390625,-2.1853187084198,0.132171630859375,2.034956932067871
1695713096601842400,6.949842529296875,-1.4811897277832031,0.40947818756103516,2.1327531337738037
1695713096620915700,6.968915771484375,-1.8115761280059814,0.8181562423706055,2.631856918334961
1695713096640050400,6.988050537109375,-2.7411062717437744,1.855452537536621,2.8435680866241455
1695713096659123700,7.007123779296875,-2.646728277206421,2.4574174880981445,2.393681287765503
1695713096678227700,7.026227783203125,-1.4060842990875244,2.2649126052856445,2.1773922443389893
1695713096697301200,7.04530126953125,-0.9958829879760742,2.581880569458008,1.378173589706421
1695713096716405200,7.0644052734375,-0.6308248043060303,2.939061164855957,1.289905309677124
1695713096735478800,7.083478759765625,-1.5058541297912598,3.7394466400146484,2.0210540294647217
1695713096754582800,7.102582763671875,-3.1190109252929688,4.906353950500488,2.787862539291382
1695713096773656300,7.12165625,-5.083743095397949,4.830230712890625,3.739462375640869
1695713096792760300,7.14076025390625,-5.53264045715332,3.2525177001953125,3.2149977684020996
1695713096811864300,7.1598642578125,-4.975068092346191,1.3097333908081055,0.3468313217163086
1695713096830937900,7.178937744140625,-5.097086429595947,1.1751890182495117,-2.6923940181732178
1695713096850041900,7.198041748046875,-3.7323055267333984,3.1921844482421875,-3.085069417953491
1695713096869115400,7.217115478515625,-2.469888210296631,5.304596424102783,-2.574327230453491
1695713096888219400,7.236219482421875,-0.39751148223876953,5.144442558288574,-1.0866608619689941
1695713096907292700,7.255292724609375,-2.6766867637634277,3.992253303527832,-0.016604900360107422
1695713096926427400,7.274427490234375,-8.423602104187012,4.185134410858154,-0.6512818336486816
1695713096945500700,7.293500732421875,-13.492476463317871,4.369647026062012,-0.5394167900085449
1695713096964604700,7.312604736328125,-9.328435897827148,1.607926845550537,1.8687067031860352
1695713096983708700,7.331708740234375,-3.966848373413086,0.7447109222412109,2.3928685188293457
1695713097002782200,7.3507822265625,-3.3289852142333984,-0.0966339111328125,1.490157127380371
1695713097021886200,7.36988623046875,-3.8992438316345215,-0.43704748153686523,-0.0287935733795166
1695713097040959700,7.388959716796875,-5.097113132476807,-0.20391845703125,-0.7085669040679932
1695713097060063700,7.408063720703125,-6.362201690673828,-0.7439846992492676,0.2643256187438965
1695713097079137300,7.42713720703125,-6.339132785797119,-1.5474190711975098,1.1484830379486084
1695713097098241300,7.4462412109375,-5.609856128692627,-2.217489242553711,1.6022040843963623
1695713097117314800,7.465314697265625,-4.234163284301758,-2.5390467643737793,1.7872912883758545
1695713097136449300,7.48444921875,-3.033082962036133,-2.5030055046081543,1.8638927936553955
1695713097155492400,7.503492431640625,-2.3561782836914062,-1.861738681793213,2.1354970932006836
1695713097174596400,7.522596435546875,-1.2762389183044434,0.17032718658447266,2.308521270751953
1695713097193700400,7.541700439453125,0.852332592010498,3.8728976249694824,1.706308126449585
1695713097212804400,7.560804443359375,2.0616493225097656,8.52375316619873,0.47477102279663086
1695713097231908400,7.579908447265625,2.1053361892700195,10.641735076904297,-0.43140459060668945
1695713097250981600,7.598981689453125,3.8743362426757812,7.186920642852783,-0.6677470207214355
1695713097270085600,7.618085693359375,-0.8850665092468262,-0.5865325927734375,0.3476297855377197
1695713097289159200,7.6371591796875,-3.19581937789917,-5.430039405822754,0.5053117275238037
1695713097308263200,7.65626318359375,-2.245366096496582,-2.4698081016540527,-0.171830415725708
1695713097327336700,7.675336669921875,0.5728235244750977,4.649618625640869,-0.052519798278808594
1695713097346440700,7.694440673828125,1.8441834449768066,13.691193580627441,-1.0496420860290527
1695713097365544700,7.713544677734375,-9.43984317779541,8.53659439086914,-1.0519092082977295
1695713097384618200,7.7326181640625,-8.180212020874023,-3.5089364051818848,4.083881855010986
1695713097403722200,7.75172216796875,-11.162313461303711,-7.478579044342041,2.1866276264190674
1695713097422795800,7.770795654296875,-1.264711856842041,0.9384660720825195,3.236299753189087
1695713097441899800,7.789899658203125,-5.551112651824951,10.052544593811035,4.691493988037109
1695713097460973000,7.80897314453125,-9.472419738769531,10.037782669067383,3.3823187351226807
1695713097480077300,7.828077392578125,-5.939499378204346,4.397132873535156,1.202927827835083
1695713097499181300,7.847181396484375,-1.6766905784606934,0.060298919677734375,-0.7227621078491211
1695713097518285300,7.866285400390625,-1.1394915580749512,-1.3033347129821777,0.06408095359802246
1695713097537358600,7.885358642578125,-4.694942951202393,-0.24733448028564453,1.128854513168335
1695713097556462600,7.904462646484375,-8.315990447998047,1.386260986328125,1.7445006370544434
1695713097575566600,7.923566650390625,-5.537097930908203,0.8103656768798828,2.450836181640625
1695713097594640100,7.94264013671875,-1.9336352348327637,-0.4850435256958008,2.4487714767456055
1695713097613744000,7.961744140625,-3.3220250606536865,-0.8080625534057617,1.8273849487304688
1695713097632817700,7.980817626953125,-4.043539524078369,-0.3691539764404297,1.4195773601531982
1695713097651921700,7.999921630859375,-3.402144432067871,-0.3063011169433594,1.86690354347229
1695713097670995200,8.0189951171875,-2.3289873600006104,-0.19049835205078125,2.5879123210906982
1695713097690099200,8.03809912109375,-1.9097955226898193,0.29001522064208984,2.725559711456299
1695713097709172700,8.0571728515625,-1.836808681488037,0.5156230926513672,2.360383987426758
1695713097728276700,8.07627685546875,-2.0287561416625977,0.5692453384399414,1.9911506175994873
1695713097747380700,8.095380615234374,-2.0937187671661377,0.8307466506958008,1.5872201919555664
1695713097766454000,8.1144541015625,-1.9656505584716797,1.1533203125,1.631606101989746
1695713097785588700,8.133588623046874,-1.759892225265503,2.24075984954834,2.0409929752349854
1695713097804662300,8.152662353515625,-1.2245676517486572,2.815622329711914,2.5361573696136475
1695713097823766300,8.171766357421875,-0.8716146945953369,2.7065658569335938,2.3592350482940674
1695713097842839600,8.190839599609374,-0.2690401077270508,3.1294336318969727,1.6945066452026367
1695713097861943600,8.209943603515624,0.015827655792236328,3.3609542846679688,2.266475200653076
1695713097881017000,8.22901708984375,-1.8622400760650635,3.476820945739746,3.1848397254943848
1695713097900121000,8.24812109375,-4.752988815307617,3.9547901153564453,3.877606153488159
1695713097919194600,8.267194580078124,-6.2432122230529785,2.996000289916992,3.98236346244812
1695713097938298600,8.286298583984374,-5.579935073852539,2.9325695037841797,2.204521656036377
1695713097957402600,8.305402587890624,-3.0596113204956055,3.187323570251465,-0.8226499557495117
1695713097976476200,8.32447607421875,-1.6427326202392578,4.01845645904541,-2.21710467338562
1695713097995580200,8.343580078125,-1.7080793380737305,6.082896709442139,-2.3247387409210205
1695713098014653700,8.36265380859375,-1.1900172233581543,6.72374153137207,-0.7069365978240967
1695713098033757700,8.3817578125,-2.3346052169799805,5.217586040496826,1.448765754699707
1695713098052831000,8.4008310546875,-7.948628902435303,4.183817386627197,0.1097874641418457
1695713098071996200,8.41999609375,-12.698890686035156,3.87406063079834,-1.2194089889526367
1695713098091039000,8.4390390625,-11.863917350769043,1.2037453651428223,0.2664470672607422
1695713098110143000,8.45814306640625,-6.707714557647705,-0.8982362747192383,1.8346068859100342
1695713098129247200,8.477247314453125,-3.693263530731201,-0.7839136123657227,2.024977207183838
1695713098148320500,8.496320556640624,-2.8843231201171875,-0.5114879608154297,1.4739205837249756
1695713098167424500,8.515424560546874,-3.3286361694335938,-0.514122486114502,0.7774291038513184
1695713098186498000,8.534498046875,-4.455458641052246,-0.2553715705871582,0.2167668342590332
1695713098205602000,8.55360205078125,-5.353586196899414,-0.8498950004577637,0.1285078525543213
1695713098224675600,8.572675537109374,-5.000236511230469,-1.993077278137207,0.5284945964813232
1695713098243779600,8.591779541015624,-3.6415181159973145,-2.84031343460083,1.1837079524993896
1695713098262853000,8.61085302734375,-2.622584342956543,-2.799241065979004,2.0486066341400146
1695713098281957000,8.62995703125,-1.8593811988830566,-2.0123820304870605,2.670957565307617
1695713098301061000,8.64906103515625,-1.53773832321167,-0.6194844245910645,2.5149500370025635
1695713098320134700,8.668134765625,-1.8691515922546387,1.8122072219848633,1.931117296218872
1695713098339238700,8.68723876953125,-1.8042120933532715,5.045721054077148,0.8560853004455566
1695713098358342700,8.7063427734375,0.09225654602050781,6.99739408493042,0.15777158737182617
1695713098377446700,8.72544677734375,5.463503837585449,6.734396457672119,1.324972152709961
1695713098396520000,8.74452001953125,4.766337871551514,4.229403018951416,2.165153980255127
1695713098415624000,8.7636240234375,-1.8659038543701172,-0.7486963272094727,2.4913315773010254
1695713098434697500,8.782697509765624,-2.3825159072875977,-3.4641976356506348,2.7322871685028076
1695713098453801500,8.801801513671874,-0.9837665557861328,-1.0116848945617676,2.4501097202301025
1695713098472875000,8.820875,3.0810275077819824,6.985001564025879,1.2066149711608887
1695713098491979000,8.83997900390625,0.27895498275756836,15.284646034240723,-3.872021436691284
1695713098511083000,8.8590830078125,-13.195130348205566,9.685270309448242,-5.848798751831055
1695713098530156500,8.878156494140624,-5.9271745681762695,-7.276761531829834,0.8461248874664307
1695713098549260500,8.897260498046874,-10.623878479003906,-12.900304794311523,0.11019182205200195
1695713098568334000,8.916333984375,-2.760622024536133,-7.665664196014404,0.8708312511444092
1695713098587438000,8.93543798828125,-0.5954375267028809,7.98661994934082,5.083552360534668
1695713098606511600,8.95451171875,-6.617208003997803,16.122135162353516,4.740317344665527
1695713098625615600,8.97361572265625,-7.778074741363525,7.2635087966918945,2.787003517150879
1695713098644719600,8.9927197265625,-3.3250622749328613,-1.1955080032348633,0.5063681602478027
1695713098663823600,9.01182373046875,-1.547377347946167,-3.413577079772949,1.335585594177246
1695713098682927600,9.030927734375,-2.4786837100982666,-2.4709911346435547,1.5483498573303223
1695713098702001000,9.0500009765625,-4.427112102508545,-0.18324851989746094,1.0701920986175537
1695713098721105000,9.06910498046875,-3.8326144218444824,0.5567417144775391,2.1934080123901367
1695713098740178400,9.088178466796874,-4.037433624267578,0.25084495544433594,3.416656017303467
1695713098759282400,9.107282470703124,-3.617187976837158,0.45784664154052734,2.9504873752593994
1695713098778356000,9.12635595703125,-2.462165117263794,-0.012418746948242188,2.3821463584899902
1695713098797460000,9.1454599609375,-1.739220142364502,-0.6763010025024414,2.329892873764038
1695713098816533500,9.164533447265624,-1.8312087059020996,-0.5630102157592773,2.5918691158294678
1695713098835668000,9.18366796875,-1.8313493728637695,0.03893280029296875,2.7621936798095703
1695713098854711000,9.2027109375,-1.11503267288208,0.9288959503173828,2.741157054901123
1695713098873815000,9.22181494140625,-0.6674114465713501,1.2033920288085938,2.7091856002807617
1695713098892919000,9.2409189453125,-1.0333653688430786,1.0986614227294922,2.712505578994751
1695713098911992600,9.25999267578125,-1.3030362129211426,1.8086061477661133,2.3883378505706787
1695713098931127000,9.279126953125,-0.9976595640182495,2.4654483795166016,2.082096576690674
1695713098950200600,9.29820068359375,-0.6297053098678589,2.4030237197875977,2.5233521461486816
1695713098969304600,9.3173046875,-0.06668448448181152,2.803469657897949,2.174468755722046
1695713098988377900,9.3363779296875,1.0759919881820679,2.8071775436401367,2.0987675189971924
1695713099007481900,9.35548193359375,0.13391399383544922,2.76444149017334,3.2778000831604004
1695713099026555400,9.374555419921874,-2.058269500732422,4.159486770629883,4.5184125900268555
1695713099045659400,9.393659423828124,-3.9943490028381348,4.820399284362793,5.208576202392578
1695713099064763400,9.412763427734374,-4.478002071380615,3.975545883178711,3.7857556343078613
1695713099083837000,9.4318369140625,-4.229902267456055,2.246649742126465,0.09015989303588867
1695713099102941000,9.45094091796875,-4.0084662437438965,1.4607429504394531,-3.3047330379486084
1695713099122014500,9.470014404296874,-3.0588221549987793,2.795320510864258,-3.588963747024536
1695713099141118500,9.489118408203124,-2.41481876373291,4.900318145751953,-2.4565603733062744
1695713099160192000,9.50819189453125,0.9532651901245117,5.535548210144043,0.7702867984771729
1695713099179296000,9.5272958984375,0.4860420227050781,5.0064263343811035,1.6703100204467773
1695713099198369500,9.54636962890625,-5.532539367675781,4.400357723236084,0.26583194732666016
1695713099217504000,9.56550390625,-12.039661407470703,3.869804859161377,-0.2921864986419678
1695713099236577500,9.58457763671875,-10.440065383911133,0.8474946022033691,1.6259982585906982
1695713099255681500,9.603681640625,-5.460633277893066,-1.0011954307556152,2.631624221801758
1695713099274785500,9.62278564453125,-3.6363563537597656,-1.291921615600586,2.025512218475342
1695713099293858800,9.64185888671875,-3.889068126678467,-1.5423994064331055,1.1811411380767822
1695713099312962800,9.660962890625,-4.838286399841309,-1.698258399963379,0.8991532325744629
1695713099332036400,9.680036376953124,-5.598169803619385,-1.976335048675537,1.2349390983581543
1695713099351140400,9.699140380859374,-5.341638088226318,-2.624074935913086,1.7456812858581543
1695713099370214000,9.7182138671875,-4.670684337615967,-3.329629898071289,1.804551601409912
1695713099389318000,9.73731787109375,-3.7183351516723633,-3.478875160217285,1.6725268363952637
1695713099408391400,9.756391357421874,-2.5343852043151855,-2.9332680702209473,1.537116527557373
1695713099427495400,9.775495361328124,-1.3934416770935059,-1.6829619407653809,1.551419734954834
1695713099446599400,9.794599365234374,-0.11156702041625977,0.9283289909362793,1.32481050491333
1695713099465673000,9.8136728515625,2.119351387023926,5.443784236907959,1.4218769073486328
1695713099484777000,9.83277685546875,3.708132266998291,11.120645523071289,2.201974391937256
1695713099503881000,9.851880859375,5.5799055099487305,12.042764663696289,0.3136148452758789
1695713099522985000,9.87098486328125,5.1486029624938965,3.317319393157959,-1.195457935333252
1695713099542058500,9.89005859375,-1.7018423080444336,-6.858092308044434,-0.23397111892700195
1695713099561162500,9.90916259765625,-2.9036335945129395,-8.251888275146484,0.3348691463470459
1695713099580235800,9.92823583984375,-1.424173355102539,-1.0858163833618164,1.2671418190002441
1695713099599339800,9.94733984375,1.12445068359375,11.9185791015625,-0.7736759185791016
1695713099618413300,9.966413330078124,-9.063518524169922,15.176302909851074,-1.307581901550293
1695713099637517300,9.985517333984374,-2.4429636001586914,3.134565830230713,3.5184249877929688
1695713099656621300,10.004621337890624,-10.01212215423584,-9.088955879211426,5.084847450256348
1695713099675694800,10.02369482421875,-6.116661548614502,-7.585377216339111,1.9571645259857178
1695713099694798800,10.042798828125,-2.475221633911133,5.139495372772217,2.025005578994751
1695713099713872400,10.061872314453124,-5.182772159576416,9.942028045654297,3.3130555152893066
1695713099732976400,10.080976318359374,-5.962608337402344,5.777565956115723,2.5923635959625244
1695713099752050000,10.1000498046875,-3.8638546466827393,0.3480081558227539,-0.09745287895202637
1695713099771154000,10.11915380859375,-1.0832178592681885,-1.8965263366699219,0.783618688583374
1695713099790258000,10.1382578125,-1.5815675258636475,-0.7525739669799805,2.202437162399292
1695713099809362000,10.15736181640625,-3.818868637084961,0.7038383483886719,1.8538165092468262
1695713099828435500,10.176435546875,-4.015052318572998,0.1537628173828125,2.101743698120117
1695713099847539500,10.19553955078125,-3.4387543201446533,-1.4028148651123047,2.952741861343384
1695713099866643500,10.2146435546875,-3.574061155319214,-1.0216913223266602,2.5783276557922363
1695713099885716700,10.233716796875,-2.8130757808685303,-0.36344242095947266,1.886054277420044
1695713099904820700,10.25282080078125,-1.4618782997131348,-0.4028205871582031,2.2296714782714844
1695713099923894300,10.271894287109374,-0.519210934638977,-0.3089313507080078,2.874870777130127
1695713099942998300,10.290998291015624,-0.8549536466598511,-0.032271385192871094,3.0777578353881836
1695713099962071800,10.31007177734375,-0.7646689414978027,0.22507953643798828,3.0455708503723145
1695713099981175800,10.32917578125,0.07146990299224854,0.6117820739746094,2.9654030799865723
1695713100000279800,10.34827978515625,0.21977615356445312,1.3232049942016602,2.5071027278900146
1695713100019353300,10.367353271484374,-1.1643627882003784,2.0914182662963867,2.107161521911621
1695713100038457300,10.386457275390624,-1.2709035873413086,2.2023820877075195,3.0894763469696045
1695713100057531000,10.40553076171875,0.12325060367584229,2.9081125259399414,3.3395001888275146
1695713100076665300,10.424665283203124,1.9279282093048096,3.516611099243164,2.874980926513672
1695713100095739000,10.44373876953125,1.0175901651382446,3.7009735107421875,3.279646873474121
1695713100114843000,10.4628427734375,-1.535814881324768,4.879708290100098,3.6350202560424805
1695713100133916400,10.48191650390625,-3.7751688957214355,5.296215057373047,4.444022178649902
1695713100153020400,10.5010205078125,-4.080287456512451,4.0667009353637695,3.8392531871795654
1695713100172093700,10.52009375,-3.749405860900879,2.1034488677978516,1.0412836074829102
1695713100191197700,10.53919775390625,-3.5332422256469727,1.370467185974121,-2.8269412517547607
1695713100210301700,10.5583017578125,-3.1746737957000732,2.4374494552612305,-4.117238998413086
1695713100229375200,10.577375244140624,-1.3243279457092285,4.868561744689941,-3.4950950145721436
1695713100248479200,10.596479248046874,2.766040802001953,5.340362548828125,0.5586824417114258
1695713100267552800,10.615552734375,1.0159497261047363,4.674499034881592,1.129758358001709
1695713100286656800,10.63465673828125,-6.4395904541015625,4.0281291007995605,-0.24194097518920898
1695713100305730300,10.653730224609374,-12.33957290649414,3.3310093879699707,0.2095191478729248
1695713100324834300,10.672834228515624,-9.732162475585938,0.12083864212036133,2.7540812492370605
1695713100343907800,10.691907958984375,-4.812150478363037,-1.2131271362304688,3.018643617630005
1695713100363042300,10.711042236328124,-3.4586005210876465,-1.343879222869873,2.153630256652832
1695713100382115800,10.73011572265625,-3.760610580444336,-1.6230316162109375,1.1730592250823975
1695713100401219800,10.7492197265625,-4.776549339294434,-1.8789129257202148,0.7192070484161377
1695713100420323800,10.76832373046875,-5.7847580909729,-2.4039559364318848,1.0265817642211914
1695713100439397400,10.7873974609375,-5.771549224853516,-3.230341911315918,1.4107701778411865
1695713100458501400,10.80650146484375,-4.955734729766846,-3.9282331466674805,1.6158099174499512
1695713100477574700,10.82557470703125,-3.4898242950439453,-3.8859267234802246,1.778247594833374
1695713100496678700,10.8446787109375,-2.512028217315674,-2.8658738136291504,1.9497096538543701
1695713100515752200,10.863752197265624,-0.9992599487304688,-0.7817568778991699,1.9222569465637207
1695713100534886700,10.88288671875,1.4211888313293457,2.827376365661621,1.3099174499511719
1695713100553929700,10.9019296875,5.257026672363281,8.811073303222656,1.879042387008667
1695713100573033700,10.92103369140625,4.27580451965332,11.959784507751465,0.0401759147644043
1695713100592137700,10.9401376953125,6.182374000549316,8.47857666015625,-2.4658761024475098
1695713100611211300,10.959211181640624,0.5851850509643555,-1.2918381690979004,-1.5736639499664307
1695713100630315300,10.978315185546874,-2.0497169494628906,-9.282485961914062,0.449143648147583
1695713100649419300,10.997419189453124,-1.769493579864502,-9.656970024108887,1.639115810394287
1695713100668523300,11.016523193359374,-2.187358856201172,-3.6983633041381836,2.0487866401672363
1695713100687596800,11.0355966796875,3.6288089752197266,9.623112678527832,0.4843912124633789
1695713100706700800,11.05470068359375,-0.14484691619873047,22.73869514465332,-2.6737546920776367
1695713100725774300,11.0737744140625,-9.588013648986816,11.64735221862793,-1.3476309776306152
1695713100744878300,11.09287841796875,-7.557340621948242,-6.675652980804443,4.643993377685547
1695713100763982300,11.111982421875,-10.562957763671875,-12.661710739135742,0.782886266708374
1695713100783055600,11.1310556640625,1.117095947265625,-3.800901412963867,1.7548210620880127
1695713100802159600,11.15015966796875,-1.5353765487670898,6.656855583190918,2.4278013706207275
1695713100821233200,11.169233154296874,-6.669675827026367,8.24255084991455,2.0312399864196777
1695713100840337200,11.188337158203124,-7.0573530197143555,4.571749687194824,0.8398950099945068
1695713100859410700,11.20741064453125,-2.577413320541382,0.3408823013305664,0.08180475234985352
1695713100878514700,11.2265146484375,-0.556199312210083,-1.437973976135254,2.6620521545410156
1695713100897588200,11.245588134765624,-3.369478225708008,-1.075754165649414,3.6269078254699707
1695713100916692200,11.264692138671874,-3.8889381885528564,-0.2656364440917969,2.1348114013671875
1695713100935796200,11.283796142578124,-2.485945224761963,-0.8629169464111328,1.4956092834472656
1695713100954900200,11.302900146484374,-2.1268415451049805,-1.3723468780517578,1.798919677734375
1695713100974004200,11.322004150390624,-2.453878402709961,-0.8200359344482422,1.9317975044250488
1695713100993077800,11.341077880859375,-2.8725476264953613,-0.16862201690673828,1.9965147972106934
1695713101012181800,11.360181640625,-1.9829350709915161,-0.47519683837890625,2.2613565921783447
1695713101031255000,11.379255126953124,-1.0017056465148926,-0.7656421661376953,2.6581766605377197
1695713101050359300,11.398359375,-0.7535544633865356,-0.31645679473876953,2.4372472763061523
1695713101069432600,11.4174326171875,-0.44898760318756104,0.09541893005371094,1.881932020187378
1695713101088536600,11.43653662109375,-0.07644808292388916,0.35114288330078125,1.7040815353393555
1695713101107610000,11.455610107421874,-0.3660547137260437,0.6691150665283203,2.3504416942596436
1695713101126714000,11.474714111328124,-1.1074657440185547,1.4958744049072266,2.7816543579101562
1695713101145818000,11.493818115234374,-0.7770835161209106,1.9162969589233398,2.6063904762268066
1695713101164891600,11.5128916015625,0.031239569187164307,2.005422592163086,2.6955976486206055
1695713101183995600,11.53199560546875,0.6142973899841309,2.1920289993286133,2.3664755821228027
1695713101203069700,11.551069580078124,1.8631781339645386,2.653653144836426,2.1593990325927734
1695713101222204200,11.5702041015625,0.5407941937446594,2.7270517349243164,3.218491315841675
1695713101241277700,11.589277587890624,-1.5739936828613281,4.28635311126709,4.406253814697266
1695713101260381700,11.608381591796874,-3.2519853115081787,5.362361907958984,5.143125534057617
1695713101279455200,11.627455322265625,-2.884794235229492,4.657881736755371,3.6867129802703857
1695713101298559200,11.646559326171875,-2.647830009460449,2.2105531692504883,0.6408290863037109
1695713101317632500,11.665632568359374,-3.0417771339416504,0.6611061096191406,-2.748919725418091
1695713101336736500,11.684736572265624,-3.3054263591766357,1.5252933502197266,-3.605715751647949
1695713101355840500,11.703840576171874,-2.715050458908081,3.5285110473632812,-3.052155017852783
1695713101374914000,11.7229140625,0.8535330295562744,5.177656173706055,-0.9650371074676514
1695713101394018000,11.74201806640625,0.6974790096282959,4.355412483215332,0.08884716033935547
1695713101413091600,11.761091552734374,-3.4055614471435547,3.806671142578125,-1.0499637126922607
1695713101432195600,11.780195556640624,-8.765297889709473,3.602285861968994,-1.3377010822296143
1695713101451269000,11.79926904296875,-10.315519332885742,1.4011149406433105,1.3421413898468018
1695713101470373000,11.818373046875,-4.613173007965088,-0.4286384582519531,2.92089581489563
1695713101489446700,11.83744677734375,-3.827202796936035,-1.4184870719909668,2.1257805824279785
1695713101508581000,11.8565810546875,-4.119905471801758,-1.7549104690551758,1.2164075374603271
1695713101527685000,11.87568505859375,-4.764968395233154,-2.3021798133850098,0.982222318649292
1695713101546758700,11.894758544921874,-5.307777404785156,-2.8259873390197754,1.1553399562835693
1695713101565862700,11.913862548828124,-4.92133092880249,-3.51902437210083,1.4778752326965332
1695713101584936200,11.932936279296875,-4.114619731903076,-4.325793743133545,1.6357204914093018
1695713101604040200,11.952040283203125,-3.018947124481201,-4.421475410461426,1.9336864948272705
1695713101623113500,11.971113525390624,-1.5332107543945312,-3.889273166656494,2.7237119674682617
1695713101642217500,11.990217529296874,-0.7320256233215332,-2.280791759490967,2.737335443496704
1695713101661291000,12.009291015625,0.542510986328125,0.5720252990722656,1.7920291423797607
1695713101680395000,12.02839501953125,3.6990814208984375,6.162715911865234,1.3954291343688965
1695713101699468500,12.047468505859374,5.552177906036377,11.113183975219727,-0.16084051132202148
1695713101718572500,12.066572509765624,8.798784255981445,10.131569862365723,-3.9542884826660156
1695713101737676500,12.085676513671874,-1.5838828086853027,0.4095458984375,-3.8718369007110596
1695713101756750000,12.10475,-3.487666130065918,-7.711127281188965,-1.4880156517028809
1695713101775854000,12.12385400390625,-1.5141692161560059,-4.64098596572876,-1.2932755947113037
1695713101794958000,12.1429580078125,-0.44905805587768555,4.966163635253906,-2.434871196746826
1695713101814062000,12.16206201171875,-1.1246824264526367,12.489197731018066,-0.8902759552001953
1695713101833135600,12.181135498046874,-0.08063077926635742,8.542838096618652,5.624250411987305
1695713101852239600,12.200239501953124,-10.149463653564453,-1.6797566413879395,7.671984672546387
1695713101871313200,12.219313232421875,-10.530101776123047,-5.814752578735352,4.387617111206055
1695713101890417200,12.238417236328125,-4.719731330871582,0.4113154411315918,2.2535457611083984
1695713101909521200,12.257521240234375,-4.108433246612549,5.665426254272461,1.6395585536956787
1695713101928594400,12.276594482421874,-4.2165117263793945,5.160285949707031,1.8113539218902588
1695713101947698400,12.295698486328124,-2.8230183124542236,1.7908992767333984,0.16835474967956543
1695713101966772000,12.31477197265625,0.34738588333129883,-1.1881418228149414,-1.1235427856445312
1695713101985876000,12.3338759765625,0.11986589431762695,-2.550419807434082,0.5517821311950684
1695713102004949500,12.352949462890624,-3.7471697330474854,-1.18475341796875,2.8785431385040283
1695713102024053500,12.372053466796874,-6.03564453125,1.0207157135009766,3.6819210052490234
1695713102043127000,12.391126953125,-3.2994344234466553,-0.010211944580078125,3.607917308807373
1695713102062231000,12.41023095703125,-1.6911778450012207,-1.4659156799316406,2.744220018386841
1695713102081335000,12.4293349609375,-1.5775643587112427,-1.1718521118164062,2.1977877616882324
1695713102100439000,12.44843896484375,-1.8720239400863647,-0.06550312042236328,2.232663869857788
1695713102119543000,12.46754296875,-1.97409987449646,0.2239389419555664,2.3224427700042725
1695713102138616600,12.486616455078124,-1.019669532775879,-0.04892158508300781,2.3316221237182617
1695713102157720600,12.505720458984374,-0.12565875053405762,-0.38802433013916016,2.3546268939971924
1695713102176794000,12.524794189453125,-0.19226205348968506,-0.0037260055541992188,1.568786382675171
1695713102195898000,12.543898193359375,0.2112230658531189,1.2412452697753906,0.8661952018737793
1695713102214971400,12.562971435546874,0.7744920253753662,1.9475946426391602,1.9340922832489014
1695713102234106000,12.582106201171875,-0.8461921811103821,2.9478368759155273,3.426162004470825
1695713102253149000,12.60114892578125,-1.0645906925201416,2.5739316940307617,3.903400182723999
1695713102272253000,12.6202529296875,0.03905174136161804,1.9552831649780273,2.9315876960754395
1695713102291357000,12.63935693359375,2.132950782775879,2.971933364868164,1.5693917274475098
1695713102310430500,12.658430419921874,2.4859273433685303,2.5251426696777344,2.0452919006347656
1695713102329534500,12.677534423828124,0.6859161257743835,1.9922170639038086,3.575279474258423
1695713102348608000,12.69660791015625,-1.6953386068344116,3.3893585205078125,5.707234859466553
1695713102367742500,12.715742431640624,-3.832981586456299,4.415377616882324,6.172264575958252
1695713102386816000,12.73481591796875,-3.8415069580078125,3.5083141326904297,4.116395950317383
1695713102405920000,12.753919921875,-2.819823741912842,2.609262466430664,-0.29595184326171875
1695713102424993500,12.77299365234375,-3.1101877689361572,1.1014337539672852,-4.350503444671631
1695713102444097500,12.79209765625,-2.1420559883117676,1.8706083297729492,-4.849079132080078
1695713102463171000,12.811171142578125,0.12509584426879883,3.800413131713867,-1.7883293628692627
1695713102482275000,12.830275146484375,1.6549255847930908,4.734640121459961,1.7028751373291016
1695713102501379000,12.849379150390625,-0.8419909477233887,4.208272933959961,1.677720546722412
1695713102520452400,12.868452392578124,-5.789054870605469,3.3100223541259766,-0.27404236793518066
1695713102539556400,12.887556396484374,-11.938850402832031,3.186699867248535,-0.9963521957397461
1695713102558630000,12.9066298828125,-11.286702156066895,0.6045446395874023,1.3352324962615967
1695713102577734000,12.92573388671875,-4.987525939941406,-1.0949854850769043,2.1322343349456787
1695713102596807400,12.944807373046874,-3.0580577850341797,-1.1388311386108398,1.307950735092163
1695713102615911400,12.963911376953124,-2.0003018379211426,-1.463181972503662,0.6667511463165283
1695713102634985000,12.98298486328125,-2.4375486373901367,-2.202523708343506,0.46695899963378906
1695713102654119400,13.002119384765624,-3.4404501914978027,-2.980462074279785,0.4389374256134033
1695713102673223400,13.021223388671874,-4.107202053070068,-3.553546905517578,0.9904825687408447
1695713102692297000,13.040296875,-3.5748825073242188,-3.859130382537842,1.4819881916046143
1695713102711401000,13.05940087890625,-2.2916369438171387,-4.111740589141846,1.7429165840148926
1695713102730474500,13.078474609375,-1.4863481521606445,-3.879671573638916,1.7497766017913818
1695713102749578500,13.09757861328125,-0.8603634834289551,-2.716902256011963,1.6640088558197021
1695713102768652000,13.116652099609375,0.4917001724243164,-0.471407413482666,1.4288053512573242
1695713102787756000,13.135756103515625,3.0334725379943848,3.497713088989258,2.0321428775787354
1695713102806829300,13.154829345703124,4.571061134338379,9.102656364440918,2.2411246299743652
1695713102825933300,13.173933349609374,6.805503845214844,11.121023178100586,0.23668956756591797
1695713102845006800,13.1930068359375,5.213747024536133,3.088003158569336,-0.9468693733215332
1695713102864110800,13.21211083984375,0.2854008674621582,-7.973880767822266,0.2637302875518799
1695713102883214800,13.23121484375,-1.779923915863037,-11.019546508789062,0.9846506118774414
1695713102902288400,13.250288330078124,-2.6080737113952637,-5.830312728881836,1.1140086650848389
1695713102921392400,13.269392333984374,2.2968130111694336,9.948134422302246,0.509674072265625
1695713102940496400,13.288496337890624,-8.868307113647461,22.93829345703125,-3.3405110836029053
1695713102959600400,13.307600341796874,-5.051639556884766,10.03973388671875,0.161085844039917
1695713102978674000,13.326673828125,-7.7321457862854,-9.40304183959961,3.6034581661224365
1695713102997778000,13.34577783203125,-6.061784744262695,-11.841522216796875,-0.318591833114624
1695713103016851500,13.3648515625,1.0977873802185059,-1.0446853637695312,0.4870920181274414
1695713103035955500,13.38395556640625,-0.27156734466552734,8.41876220703125,1.8683581352233887
1695713103055059500,13.4030595703125,-5.119908332824707,8.53665542602539,2.689088821411133
1695713103074133000,13.422133056640625,-7.1407623291015625,2.3231687545776367,1.541081190109253
1695713103093237000,13.441237060546875,-4.430212020874023,-1.8509902954101562,2.1431009769439697
1695713103112310300,13.460310302734374,-2.6842398643493652,-2.7187767028808594,3.0782525539398193
1695713103131414300,13.479414306640624,-2.510204315185547,-1.4389410018920898,1.6899125576019287
1695713103150487800,13.49848779296875,-1.5472079515457153,-1.0566654205322266,0.782477855682373
1695713103169591800,13.517591796875,-1.3426624536514282,-1.6512794494628906,1.1597490310668945
1695713103188665300,13.536665283203124,-2.45745849609375,-1.4032621383666992,1.4918735027313232
1695713103207769300,13.555769287109374,-2.3479208946228027,-0.7787704467773438,1.731971025466919
1695713103226903800,13.57490380859375,-1.481029748916626,-0.6893491744995117,2.213286876678467
1695713103245977300,13.593977294921874,-0.3696119785308838,-0.6539697647094727,2.555272340774536
1695713103265081300,13.613081298828124,0.3475671410560608,-0.2748908996582031,2.698381185531616
1695713103284155000,13.63215478515625,0.8359795808792114,0.40682315826416016,2.381403923034668
1695713103303259000,13.6512587890625,1.0765347480773926,0.3817586898803711,1.9146504402160645
1695713103322332400,13.67033251953125,0.275602787733078,0.7120389938354492,1.7639498710632324
1695713103341436400,13.6894365234375,-0.6541517972946167,1.6717519760131836,2.444483518600464
1695713103360510000,13.708510009765625,0.05105515941977501,2.3591041564941406,3.007582664489746
1695713103379614000,13.727614013671875,1.2597352266311646,2.4693603515625,3.18811297416687
1695713103398687200,13.746687255859374,1.6995704174041748,2.4640302658081055,2.5790278911590576
1695713103417791200,13.765791259765624,1.8379088640213013,2.2850141525268555,2.372558116912842
1695713103436895200,13.784895263671874,0.32851535081863403,3.573301315307617,2.9806485176086426
1695713103455968800,13.80396875,-1.9312317371368408,5.196896553039551,3.918684482574463
1695713103475072800,13.82307275390625,-3.972649097442627,4.844255447387695,4.059072494506836
1695713103494146300,13.842146240234374,-3.719203233718872,2.5949811935424805,1.3789288997650146
1695713103513280800,13.86128076171875,-2.2205748558044434,1.1570043563842773,-3.17865252494812
1695713103532354300,13.880354248046874,-0.8438066244125366,2.277515411376953,-5.2362542152404785
1695713103551458300,13.899458251953124,0.30765557289123535,4.709231376647949,-4.5715179443359375
1695713103570531800,13.91853173828125,0.9996542930603027,5.185101509094238,-0.8280518054962158
1695713103589635800,13.9376357421875,-0.3905832767486572,4.518632888793945,0.9023380279541016
1695713103608739800,13.95673974609375,-5.861877918243408,3.6420536041259766,0.14177727699279785
1695713103627813400,13.9758134765625,-9.680009841918945,3.7350330352783203,-0.2736854553222656
1695713103646917400,13.99491748046875,-8.764923095703125,-0.043010711669921875,0.8698854446411133
1695713103665991000,14.013990966796875,-9.80894947052002,-3.445919990539551,0.8024535179138184
1695713103685095000,14.033094970703125,-3.408759117126465,-2.315441608428955,1.1628308296203613
1695713103704168200,14.052168212890624,-1.0489983558654785,-2.017284870147705,1.3203985691070557
1695713103723272200,14.071272216796874,-1.668198585510254,-2.467899799346924,0.6895194053649902
1695713103742345700,14.090345703125,-3.904836654663086,-2.5739307403564453,0.42391395568847656
1695713103761449700,14.10944970703125,-5.40170431137085,-2.6668496131896973,0.4102022647857666
1695713103780523300,14.128523193359374,-4.7841291427612305,-3.094428539276123,0.5483348369598389
1695713103799657700,14.14765771484375,-2.972270965576172,-3.6226797103881836,0.7996482849121094
1695713103818761700,14.16676171875,-1.7911357879638672,-3.8479933738708496,1.173567533493042
1695713103837835300,14.185835205078124,-1.2383699417114258,-3.474867820739746,1.4411656856536865
1695713103856939300,14.204939208984374,-0.3027362823486328,-2.103410243988037,1.4450693130493164
1695713103876012800,14.2240126953125,1.9860596656799316,0.9062786102294922,0.9745604991912842
1695713103895116800,14.24311669921875,3.930110454559326,6.471921920776367,1.34440016746521
1695713103914190300,14.2621904296875,4.40177583694458,11.939783096313477,0.213975191116333
1695713103933324800,14.28132470703125,6.893579959869385,10.45649242401123,-1.8018503189086914
1695713103952367600,14.30036767578125,2.0214505195617676,-0.7646417617797852,-1.3829457759857178
1695713103971471600,14.3194716796875,-0.925137996673584,-9.743959426879883,-0.4536166191101074
1695713103990575900,14.338575927734375,-2.5798583030700684,-9.124858856201172,-0.45508766174316406
1695713104009649200,14.357649169921874,-1.2184629440307617,-1.9613332748413086,0.17398595809936523
1695713104028753200,14.376753173828124,4.017397403717041,11.792943000793457,-0.8775894641876221
1695713104047826700,14.39582666015625,-5.796167373657227,18.482982635498047,-2.9357752799987793
1695713104066930700,14.4149306640625,-5.2437944412231445,4.6216583251953125,-0.4820725917816162
1695713104086034700,14.43403466796875,-9.260204315185547,-11.319230079650879,3.5047807693481445
1695713104105138700,14.453138671875,-7.084445953369141,-10.765730857849121,0.19550728797912598
1695713104124212200,14.472212158203124,-0.033913612365722656,1.776963233947754,1.5945584774017334
1695713104143316200,14.491316162109374,-2.7949259281158447,9.593780517578125,2.5637991428375244
1695713104162389800,14.5103896484375,-6.324280261993408,6.412844657897949,2.4710965156555176
1695713104181493800,14.52949365234375,-4.601133346557617,0.40506839752197266,-0.03675580024719238
1695713104200597800,14.54859765625,-1.444457769393921,-2.0892410278320312,0.07576298713684082
1695713104219671300,14.56767138671875,-0.8831243515014648,-2.030341148376465,1.6060740947723389
1695713104238775300,14.586775390625,-2.4521191120147705,-1.0452489852905273,1.7461059093475342
1695713104257848600,14.6058486328125,-2.7310144901275635,-0.617955207824707,2.0135059356689453
1695713104276952600,14.62495263671875,-2.6809401512145996,-0.5083990097045898,2.2780919075012207
1695713104296026000,14.644026123046874,-2.842219591140747,-0.11634635925292969,2.081287145614624
1695713104315130000,14.663130126953124,-1.6936010122299194,-0.2981290817260742,2.097991466522217
1695713104334203600,14.68220361328125,-0.3363114595413208,-1.1016616821289062,2.0827527046203613
1695713104353307600,14.7013076171875,-0.805166482925415,-1.1327219009399414,1.9716646671295166
1695713104372442000,14.720442138671874,-1.239901065826416,-0.5179815292358398,1.934265375137329
1695713104391515600,14.739515625,-0.5318683981895447,0.016069412231445312,1.7485229969024658
1695713104410619600,14.75861962890625,0.5952651500701904,0.17451000213623047,1.2180185317993164
1695713104429693200,14.777693115234374,1.1095930337905884,0.49225711822509766,0.9669485092163086
1695713104448797200,14.796797119140624,0.7470338344573975,0.6604118347167969,1.7868380546569824
1695713104467870700,14.81587060546875,-0.28634634613990784,1.3428220748901367,3.0362749099731445
1695713104486974700,14.834974609375,-0.2366171032190323,1.5259218215942383,2.706388473510742
1695713104506048300,14.85404833984375,0.8206490278244019,1.516921043395996,1.903848648071289
1695713104525152300,14.87315234375,1.8214563131332397,1.677983283996582,1.1744682788848877
1695713104544225500,14.8922255859375,1.7944873571395874,2.1154003143310547,0.9833633899688721
1695713104563329500,14.91132958984375,0.6321660876274109,2.2880754470825195,2.3098978996276855
1695713104582433500,14.93043359375,-1.623792290687561,3.3527307510375977,2.9669618606567383
1695713104601507000,14.949507080078124,-3.209259033203125,3.892340660095215,3.171231746673584
1695713104620611000,14.968611083984374,-3.5949435234069824,3.241633415222168,1.9715521335601807
1695713104639684600,14.9876845703125,-2.8705339431762695,1.9760913848876953,-1.1017837524414062
1695713104658819000,15.006819091796874,-2.3040685653686523,1.7806110382080078,-4.056284427642822
1695713104677892600,15.025892578125,-2.7081425189971924,3.1089696884155273,-5.220685005187988
1695713104696996600,15.04499658203125,-1.1137547492980957,4.615931510925293,-3.499300956726074
1695713104716070100,15.064070068359374,1.7856276035308838,4.466283798217773,-0.3727705478668213
1695713104735174100,15.083174072265624,-1.7135124206542969,4.298367500305176,-0.32206225395202637
1695713104754278100,15.102278076171874,-4.8683180809021,4.713723182678223,-0.638427734375
1695713104773351700,15.1213515625,-12.241912841796875,0.46996402740478516,-0.4379098415374756
1695713104792455700,15.14045556640625,-9.273336410522461,-2.8828964233398438,1.8332726955413818
1695713104811529200,15.159529296875,-4.252427577972412,-1.7995009422302246,1.723024845123291
1695713104830633200,15.17863330078125,-3.499138832092285,-1.5058951377868652,1.1508495807647705
1695713104849706500,15.19770654296875,-4.121384620666504,-2.4277520179748535,0.14887523651123047
1695713104868810500,15.216810546875,-3.8918728828430176,-2.9218525886535645,-0.20514535903930664
1695713104887884000,15.235884033203124,-3.8153815269470215,-3.408050537109375,0.4461052417755127
1695713104906988000,15.254988037109374,-3.7568588256835938,-4.027506351470947,1.2010788917541504
1695713104926061600,15.2740615234375,-2.5602612495422363,-4.038716793060303,1.4925782680511475
1695713104945196000,15.293196044921874,-2.249894142150879,-3.2712769508361816,1.5037753582000732
1695713104964300000,15.312300048828124,-1.1085968017578125,-1.8735575675964355,1.3424298763275146
1695713104983373600,15.33137353515625,1.7192316055297852,0.4051785469055176,0.5016827583312988
1695713105002477600,15.3504775390625,3.563774585723877,3.0327672958374023,-0.4505743980407715
1695713105021551000,15.369551025390624,2.6430587768554688,6.275574684143066,-0.3417928218841553
1695713105040655000,15.388655029296874,4.516704082489014,7.586261749267578,-0.3655357360839844
1695713105059728600,15.407728759765625,2.8119091987609863,4.4674577713012695,-1.2386815547943115
1695713105078832600,15.42683251953125,-1.0013327598571777,-1.5606236457824707,-1.6679635047912598
1695713105097906200,15.44590625,-0.4831662178039551,-6.6043477058410645,-0.5472292900085449
1695713105117010200,15.46501025390625,-0.9365787506103516,-6.921027660369873,1.2047622203826904
1695713105136114200,15.4841142578125,-0.3521294593811035,-2.8192920684814453,1.0628464221954346
1695713105155187500,15.5031875,-3.425673007965088,4.695087432861328,-0.5033836364746094
1695713105174291500,15.52229150390625,-1.688239574432373,17.01907730102539,-2.467757225036621
1695713105193365000,15.541364990234374,-0.08454036712646484,14.965166091918945,1.2928500175476074
1695713105212469000,15.560468994140624,-15.188678741455078,-4.637746810913086,3.240260362625122
1695713105231573000,15.579572998046874,-7.660092353820801,-11.58716869354248,0.28965067863464355
1695713105250677000,15.598677001953124,0.8131375312805176,-2.526090621948242,0.1306161880493164
1695713105269750500,15.61775048828125,-4.099031925201416,7.2387237548828125,0.8231077194213867
1695713105288854500,15.6368544921875,-5.099270820617676,8.58049201965332,3.292870044708252
1695713105307928000,15.655927978515624,-3.8409061431884766,3.5512123107910156,1.383821725845337
1695713105327032000,15.675031982421874,-1.1469700336456299,-1.3154726028442383,-0.011728286743164062
1695713105346136000,15.694135986328124,-2.6778454780578613,-3.399629592895508,0.5801107883453369
1695713105365209600,15.713209716796875,-4.418769836425781,-2.0960588455200195,0.9168603420257568
1695713105384313600,15.732313720703125,-2.6962921619415283,-0.21015262603759766,1.788984775543213
1695713105403387100,15.75138720703125,-1.041194200515747,-0.08083534240722656,2.127716302871704
1695713105422491100,15.7704912109375,-1.264965295791626,-0.37218189239501953,1.7252142429351807
1695713105441564400,15.789564453125,-1.6166437864303589,-0.4805183410644531,1.6990065574645996
1695713105460668400,15.80866845703125,-1.33794367313385,-0.08503437042236328,2.0345828533172607
1695713105479742000,15.827741943359374,-0.21383392810821533,0.09551525115966797,2.531618118286133
1695713105498846000,15.846845947265624,0.5105671882629395,-0.1460857391357422,2.8205506801605225
1695713105517980400,15.86598046875,-0.2787672281265259,-0.29393577575683594,2.4059624671936035
1695713105537054000,15.885053955078124,-0.8832007646560669,0.7130041122436523,1.5166234970092773
1695713105556158000,15.904157958984374,-0.2556875944137573,1.259572982788086,1.2867486476898193
1695713105575231500,15.9232314453125,-0.3118460774421692,1.0969839096069336,2.041116237640381
1695713105594335500,15.94233544921875,-0.7961814999580383,0.9496793746948242,2.5037083625793457
1695713105613409000,15.961408935546874,-0.9831199049949646,1.0071430206298828,2.298049211502075
1695713105632543500,15.98054345703125,-0.3129134774208069,1.2978582382202148,1.6796460151672363
1695713105651586600,15.999586669921875,0.6335846185684204,1.3557147979736328,0.9567482471466064
1695713105670690600,16.018690673828125,0.3746280074119568,1.6440095901489258,1.127157211303711
1695713105689764000,16.03776416015625,-1.0677917003631592,2.7521419525146484,2.5616233348846436
1695713105708868000,16.0568681640625,-2.4346327781677246,3.916092872619629,3.551821708679199
1695713105727972000,16.07597216796875,-2.4699325561523438,2.23252010345459,2.5929131507873535
1695713105747045400,16.09504541015625,-1.807124137878418,-0.4335470199584961,-0.08789372444152832
1695713105766149400,16.1141494140625,-2.2002146244049072,-1.7087202072143555,-2.7778782844543457
1695713105785223000,16.133222900390624,-2.714564323425293,-0.17578601837158203,-4.292825222015381
1695713105804357400,16.152357421875,-0.5371263027191162,2.947683334350586,-2.0085930824279785
1695713105823431000,16.171430908203124,0.8754768371582031,5.213356018066406,1.0178627967834473
1695713105842535000,16.190534912109374,-2.2989258766174316,5.691471099853516,2.4794600009918213
1695713105861608400,16.2096083984375,-6.730706691741943,5.264678001403809,2.1530885696411133
1695713105880712400,16.22871240234375,-8.696106910705566,3.34671688079834,1.3386409282684326
1695713105899816400,16.24781640625,-6.278631687164307,0.6545982360839844,0.3035273551940918
1695713105918890000,16.266889892578124,-2.223416805267334,-1.0015239715576172,0.2164440155029297
1695713105937994000,16.285993896484374,0.9988617897033691,-2.1095728874206543,-0.0016417503356933594
1695713105957067500,16.305067626953125,-1.7624273300170898,-1.9641799926757812,0.0020122528076171875
1695713105976171500,16.324171630859375,-5.363008499145508,-2.132075786590576,0.916649580001831
1695713105995245000,16.3432451171875,-2.866795063018799,-2.4429845809936523,0.8257508277893066
1695713106014349000,16.36234912109375,-3.15585994720459,-2.645353317260742,0.7245578765869141
1695713106033422300,16.38142236328125,-2.8750057220458984,-2.445301055908203,0.18932604789733887
1695713106052526300,16.4005263671875,-1.998490810394287,-2.010457992553711,-0.5023422241210938
1695713106071630300,16.41963037109375,-1.0409331321716309,-1.0906705856323242,-0.17549514770507812
1695713106090734300,16.438734375,0.4978775978088379,0.3525276184082031,0.3211805820465088
1695713106109838300,16.45783837890625,0.6887211799621582,1.7663230895996094,-0.05991768836975098
1695713106128912000,16.476911865234374,-0.9683468341827393,2.917112350463867,-0.5467181205749512
1695713106148015900,16.496015869140624,-0.4650571346282959,2.5295143127441406,-0.3405008316040039
1695713106167089400,16.51508935546875,1.4773166179656982,1.6660242080688477,0.2922506332397461
1695713106186193400,16.534193359375,-0.7268795967102051,3.0295028686523438,0.4353792667388916
1695713106205267000,16.553266845703124,-3.234863758087158,4.099233627319336,0.31354761123657227
1695713106224371000,16.572370849609374,-4.710636138916016,1.8835382461547852,1.0335149765014648
1695713106243444500,16.591444580078125,-5.927390098571777,-1.4803752899169922,0.9437930583953857
1695713106262548500,16.610548583984375,-3.3445382118225098,-1.771540641784668,0.5621864795684814
1695713106281652500,16.629652587890625,-2.9434092044830322,-0.2684974670410156,1.0559227466583252
1695713106300726000,16.64872607421875,-2.3175089359283447,1.5918388366699219,2.074111223220825
1695713106319830000,16.667830078125,-3.120175361633301,2.920286178588867,1.5032517910003662
1695713106338903300,16.6869033203125,-4.117613792419434,2.266312599182129,0.4548366069793701
1695713106358007300,16.70600732421875,-2.5958690643310547,0.36385250091552734,0.15207219123840332
1695713106377111300,16.725111328125,-0.6620211601257324,-0.3574962615966797,0.8664734363555908
1695713106396215300,16.74421533203125,0.05510544776916504,0.6317176818847656,2.132894992828369
1695713106415288800,16.763288818359374,-1.7753584384918213,1.5437345504760742,3.0678889751434326
1695713106434392800,16.782392822265624,-3.5730667114257812,1.4970273971557617,3.0258586406707764
1695713106453496800,16.801496826171874,-2.687778949737549,0.5148801803588867,2.353423595428467
1695713106472570400,16.8205703125,-1.281541347503662,-0.12229633331298828,1.5887174606323242
1695713106491674400,16.83967431640625,-0.6129393577575684,-0.2599973678588867,0.9335942268371582
1695713106510748000,16.858747802734374,-0.6189072132110596,-0.21384334564208984,0.5188453197479248
1695713106529852000,16.877851806640624,-0.8761242628097534,0.07106304168701172,0.49222612380981445
1695713106548925400,16.896925537109375,-0.8606669902801514,0.5384807586669922,0.41991639137268066
1695713106568029400,16.916029541015625,-0.7591544389724731,0.842829704284668,0.3701176643371582
1695713106587102700,16.935102783203124,-0.5820428133010864,0.8238143920898438,0.8173868656158447
1695713106606207000,16.95420703125,-0.7262318134307861,0.6343326568603516,1.1647708415985107
1695713106625280300,16.9732802734375,-1.4148762226104736,0.2434253692626953,1.249739646911621
1695713106644384300,16.99238427734375,-1.9202219247817993,0.07763099670410156,1.3622026443481445
1695713106663519000,17.01151904296875,-1.6916145086288452,0.40660858154296875,1.7631261348724365
1695713106682592300,17.03059228515625,-1.3087694644927979,0.9581336975097656,2.0308785438537598
1695713106701696300,17.0496962890625,-1.3402574062347412,1.1374645233154297,2.326167583465576
1695713106720769800,17.068769775390624,-1.8558118343353271,1.122873306274414,2.5728049278259277
1695713106739873800,17.087873779296874,-2.769803285598755,1.3036651611328125,2.600534439086914
1695713106758947300,17.106947265625,-3.388704538345337,1.506302833557129,1.948646068572998
1695713106778051300,17.12605126953125,-3.0065550804138184,0.9425172805786133,0.5148754119873047
1695713106797124900,17.145124755859374,-2.1536388397216797,-0.06398582458496094,-0.9439697265625
1695713106816228900,17.164228759765624,-1.2284129858016968,-0.9728364944458008,-1.4852583408355713
1695713106835332900,17.183332763671874,-0.8543450832366943,-0.9302501678466797,-1.0460145473480225
1695713106854406400,17.202406494140625,-1.6671319007873535,0.02288818359375,-0.1376171112060547
1695713106873510400,17.221510498046875,-2.5449166297912598,0.807255744934082,0.4119584560394287
1695713106892583700,17.240583740234374,-2.6345958709716797,1.1381168365478516,0.11654067039489746
1695713106911687700,17.259687744140624,-1.5556819438934326,0.8821096420288086,-0.5418734550476074
1695713106930761200,17.27876123046875,-0.6740813255310059,0.44083404541015625,-0.6395719051361084
1695713106949896000,17.29789599609375,-0.6137423515319824,0.352294921875,0.056947946548461914
1695713106968969200,17.31696923828125,-1.0819575786590576,0.6758394241333008,0.8452377319335938
1695713106988073200,17.3360732421875,-1.3060076236724854,0.8931341171264648,0.9799947738647461
1695713107007146800,17.355146728515624,-1.0214567184448242,0.8016157150268555,0.7254059314727783
1695713107026250800,17.374250732421874,-0.12380266189575195,0.47826099395751953,0.41796374320983887
1695713107045354800,17.393354736328124,0.18019390106201172,0.23259830474853516,-0.012639999389648438
1695713107064428300,17.41242822265625,-0.7593963146209717,0.45849132537841797,-0.4110836982727051
1695713107083532300,17.4315322265625,-2.0898351669311523,0.7456455230712891,-0.6536221504211426
1695713107102605800,17.450605712890624,-3.1647863388061523,0.4955167770385742,-0.4875319004058838
1695713107121709800,17.469709716796874,-3.2048802375793457,-0.1242513656616211,-0.05778050422668457
1695713107140783400,17.488783447265625,-2.698981285095215,-0.49201393127441406,0.29877519607543945
1695713107159887400,17.507887451171875,-2.128441333770752,-0.5409955978393555,0.4857974052429199
1695713107178960600,17.526960693359374,-1.689333438873291,-0.49347686767578125,0.5111520290374756
1695713107198064600,17.546064697265624,-1.4390654563903809,-0.5463953018188477,0.3310561180114746
1695713107217168600,17.565168701171874,-1.4142584800720215,-0.6300678253173828,0.13570189476013184
1695713107236273000,17.58427294921875,-1.5560362339019775,-0.7711715698242188,0.05150485038757324
1695713107255377000,17.603376953125,-1.525507926940918,-0.7793664932250977,0.061331987380981445
1695713107274450200,17.6224501953125,-1.5342676639556885,-0.27651214599609375,0.03156423568725586
1695713107293554200,17.64155419921875,-1.3842213153839111,0.6251907348632812,0.08423876762390137
1695713107312627700,17.660627685546874,-0.6436853408813477,1.4081230163574219,0.2566671371459961
1695713107331762200,17.67976220703125,0.5661649703979492,2.251577377319336,0.538156270980835
1695713107350805200,17.69880517578125,1.1587882041931152,2.7064151763916016,0.5364456176757812
1695713107369909200,17.7179091796875,0.6524806022644043,1.8685064315795898,0.9699873924255371
1695713107388982800,17.736982666015624,-0.7879552841186523,-0.11280584335327148,1.0535783767700195
1695713107408086800,17.756086669921874,-3.492764949798584,-2.573875904083252,0.5729882717132568
1695713107427190800,17.775190673828124,-1.3486785888671875,-2.3855934143066406,1.0540211200714111
1695713107446264300,17.794264404296875,0.7077417373657227,0.3763132095336914,1.3926503658294678
1695713107465368300,17.813368408203125,0.46243906021118164,3.1265931129455566,0.7613310813903809
1695713107484441600,17.832441650390624,-1.029125690460205,3.4025654792785645,-0.39872121810913086
1695713107503545600,17.851545654296874,-1.6590733528137207,0.7664942741394043,-0.4076814651489258
1695713107522649600,17.870649658203124,-1.4884634017944336,-1.939967155456543,0.3985323905944824
1695713107541753600,17.889753662109374,-0.8840775489807129,-2.4861197471618652,0.5365362167358398
1695713107560827100,17.9088271484375,-0.35753822326660156,-1.3882994651794434,0.35216307640075684
1695713107579931100,17.92793115234375,-0.27187585830688477,-0.10033178329467773,0.40492844581604004
1695713107599035100,17.94703515625,-0.893397331237793,0.7569112777709961,0.7708778381347656
1695713107618108700,17.966108642578124,-1.568563461303711,0.8572201728820801,1.1996877193450928
1695713107637212700,17.985212646484374,-1.4582104682922363,1.1791281700134277,1.031334400177002
1695713107656286200,18.0042861328125,-0.8670558929443359,1.7271556854248047,1.0124480724334717
1695713107675390200,18.02339013671875,-0.16905546188354492,1.459479808807373,1.1238102912902832
1695713107694463700,18.042463623046874,0.01986074447631836,0.9451723098754883,0.7732350826263428
1695713107713567700,18.061567626953124,-0.7679057121276855,0.6950807571411133,0.4275391101837158
1695713107732641300,18.080641357421875,-0.7696042060852051,0.5993876457214355,0.6521215438842773
1695713107751745300,18.099745361328125,-0.45538854598999023,0.9335417747497559,1.1917965412139893
1695713107770849300,18.118849365234375,-1.0042667388916016,0.9777593612670898,1.2435855865478516
1695713107789922600,18.137922607421874,-0.8786296844482422,1.0286006927490234,1.0384101867675781
1695713107809057300,18.157057373046875,-0.8380985260009766,1.0639638900756836,0.20009005069732666
1695713107828130600,18.176130615234374,-0.4552316665649414,0.9668326377868652,-0.2616770267486572
1695713107847234600,18.195234619140624,-0.44261837005615234,0.8068790435791016,0.149644136428833
1695713107866308000,18.21430810546875,-0.3200063705444336,1.0420637130737305,0.5246235132217407
1695713107885412000,18.233412109375,-0.6880083084106445,1.291954517364502,0.5138534307479858
1695713107904485600,18.252485595703124,-0.4954509735107422,1.1674652099609375,0.5449138879776001
1695713107923589600,18.271589599609374,-0.42589282989501953,1.1257243156433105,0.7813462018966675
1695713107942663200,18.2906630859375,-0.045226097106933594,1.2388439178466797,0.7570184469223022
1695713107961767200,18.30976708984375,0.09102058410644531,1.3093540668487549,0.7642589807510376
1695713107980871200,18.32887109375,-0.9419927597045898,1.3553922176361084,0.5518769025802612
1695713107999944700,18.34794482421875,-1.2045869827270508,1.1751575469970703,0.3258565664291382
1695713108019048700,18.367048583984374,-0.38587188720703125,1.5263869762420654,0.37579476833343506
1695713108038122200,18.386122314453125,-0.46005725860595703,1.205155611038208,0.08851826190948486
1695713108057226200,18.405226318359375,-0.3381204605102539,1.2441787719726562,-0.11455905437469482
1695713108076299500,18.424299560546874,-0.13807296752929688,1.3887202739715576,-0.014048218727111816
1695713108095434200,18.443434326171875,-0.04449748992919922,1.4282622337341309,-0.14872920513153076
1695713108114507500,18.462507568359374,-0.074615478515625,1.4763352870941162,-0.4846045970916748
1695713108133611500,18.481611572265624,-0.11876773834228516,1.4737563133239746,-0.42229223251342773
1695713108152715500,18.500715576171874,0.06752395629882812,1.4894993305206299,-0.0498659610748291
1695713108171789000,18.5197890625,0.12799644470214844,1.587986946105957,0.26127612590789795
1695713108190893000,18.53889306640625,0.1609325408935547,1.7205467224121094,0.22543859481811523
1695713108209966600,18.557966552734374,-0.05776023864746094,1.8890365362167358,-0.0980302095413208
1695713108229070600,18.577070556640624,-0.2122945785522461,1.9247796535491943,-0.1669486165046692
1695713108248144100,18.59614404296875,-0.03672504425048828,1.730911374092102,0.11842554807662964
1695713108267248000,18.615248046875,0.2854747772216797,1.3213748931884766,0.4750248193740845
1695713108286321700,18.63432177734375,0.49195289611816406,0.8928489685058594,0.1888066530227661
1695713108305425700,18.65342578125,1.3426294326782227,1.0092313289642334,-0.45224034786224365
1695713108324499200,18.672499267578125,2.134511947631836,0.8560128211975098,-0.9027454257011414
1695713108343603200,18.691603271484375,1.9148969650268555,0.4270220994949341,-1.3036866188049316
1695713108362707200,18.710707275390625,1.3827190399169922,1.0363332033157349,-1.302404761314392
1695713108381811200,18.729811279296875,0.887639045715332,1.5209887027740479,-1.0466969013214111
1695713108400915200,18.748915283203125,0.5236110687255859,1.6960382461547852,-0.6697670221328735
1695713108419988500,18.767988525390624,-0.2976083755493164,1.4391324520111084,0.0016948580741882324
1695713108439092500,18.787092529296874,-0.4538106918334961,1.4764742851257324,0.486871600151062
1695713108458166000,18.806166015625,-0.9307098388671875,1.684572696685791,0.44169527292251587
1695713108477270000,18.82527001953125,-1.019230842590332,1.4787766933441162,0.28896665573120117
1695713108496343600,18.844343505859374,-0.5969944000244141,1.011597990989685,-1.1754519939422607
1695713108515447600,18.863447509765624,-0.1936969757080078,0.7213720083236694,-1.8423837423324585
1695713108534521000,18.88252099609375,-0.5759563446044922,1.0061675310134888,-0.11511629819869995
1695713108553625000,18.901625,-0.41678619384765625,0.8669410347938538,0.42589640617370605
1695713108572729000,18.92072900390625,0.15478801727294922,-0.21111318469047546,-0.5160261392593384
1695713108591802600,18.939802734375,0.5568943023681641,-0.8051517009735107,-0.2735605835914612
1695713108610906600,18.95890673828125,-0.16491127014160156,-0.25309139490127563,-0.3667965531349182
1695713108629980200,18.977980224609375,0.3011140823364258,0.47129368782043457,-0.7019237279891968
1695713108649084200,18.997084228515625,0.31111907958984375,0.13112080097198486,-0.17723315954208374
1695713108668188200,19.016188232421875,-0.16250038146972656,-0.38910436630249023,0.6737546324729919
1695713108687292200,19.035292236328125,-0.5105972290039062,-0.45435988903045654,1.063326358795166
1695713108706365400,19.054365478515624,-0.39910888671875,-0.3583325743675232,1.0097126960754395
1695713108725469400,19.073469482421874,0.10054492950439453,-0.10743057727813721,0.8717442154884338
1695713108744573400,19.092573486328124,0.30234813690185547,-0.01478094607591629,0.6904948949813843
1695713108763647000,19.11164697265625,0.05820274353027344,-0.2878594398498535,0.891335129737854
1695713108782751000,19.1307509765625,0.020154953002929688,-0.48971638083457947,1.1287286281585693
1695713108801824500,19.149824462890624,0.021257400512695312,-0.4777054786682129,1.168109655380249
1695713108820928500,19.168928466796874,-0.12697505950927734,-0.3593069911003113,1.1255967617034912
1695713108840002000,19.188001953125,-0.31940174102783203,-0.058090537786483765,0.9934482574462891
1695713108859106000,19.20710595703125,-0.49848079681396484,0.31150925159454346,0.7132349610328674
1695713108878179600,19.2261796875,-0.45076751708984375,0.6504291296005249,0.49546486139297485
1695713108897283600,19.24528369140625,-0.21782970428466797,1.064837098121643,0.4148821532726288
1695713108916387600,19.2643876953125,0.18337154388427734,1.3398815393447876,0.28426292538642883
1695713108935461000,19.283461181640625,0.4821901321411133,1.4197971820831299,0.02737581729888916
1695713108954595600,19.302595703125,0.44730091094970703,1.3909292221069336,-0.14570629596710205
1695713108973669000,19.321669189453125,0.20507240295410156,1.3478922843933105,-0.1574358344078064
1695713108992773000,19.340773193359375,-0.05849742889404297,1.4781874418258667,-0.165771484375
1695713109011846400,19.359846435546874,-0.13610363006591797,1.6053214073181152,-0.18348297476768494
1695713109030981000,19.378981201171875,-0.17073822021484375,1.5725375413894653,-0.24720841646194458
1695713109050024000,19.39802392578125,-0.1647491455078125,1.4752174615859985,-0.2844739556312561
1695713109069128000,19.4171279296875,-0.10515403747558594,1.3295607566833496,-0.2336432933807373
1695713109088232000,19.43623193359375,-0.07068729400634766,1.178521990776062,-0.19835630059242249
1695713109107305500,19.455305419921874,-0.07319259643554688,1.1015701293945312,-0.19379961490631104
1695713109126409500,19.474409423828124,-0.10423946380615234,0.9380714893341064,-0.17929452657699585
1695713109145483000,19.49348291015625,-0.162628173828125,0.7697591781616211,-0.17914994060993195
1695713109164587000,19.5125869140625,-0.1685171127319336,0.5920138955116272,-0.21053938567638397
1695713109183660500,19.53166064453125,-0.18630409240722656,0.4626929759979248,-0.19481350481510162
1695713109202764500,19.5507646484375,-0.1528921127319336,0.5291118621826172,-0.10715943574905396
1695713109221838000,19.569838134765625,-0.04104042053222656,0.6937654614448547,-0.076151043176651
1695713109240972500,19.58897265625,-0.11277103424072266,0.8026881217956543,-0.06702783703804016
1695713109260046000,19.608046142578125,-0.24743938446044922,0.8003519773483276,-0.09976658225059509
1695713109279150000,19.627150146484375,-0.18789196014404297,0.934883177280426,-0.07062964141368866
1695713109298254000,19.646254150390625,-0.04026603698730469,1.057405948638916,-0.07313854992389679
1695713109317327400,19.665327392578124,-0.06771373748779297,1.106451392173767,-0.029221832752227783
1695713109336431400,19.684431396484374,-0.040291786193847656,1.219630241394043,0.07217727601528168
1695713109355505000,19.7035048828125,-0.06296443939208984,1.0622690916061401,-0.008371680974960327
1695713109374609000,19.72260888671875,-0.16427230834960938,0.7990713119506836,-0.10015912353992462
1695713109393682400,19.741682373046874,-0.1606740951538086,0.8680735230445862,-0.08382540941238403
1695713109412786400,19.760786376953124,-0.08559036254882812,0.9386304616928101,-0.053442373871803284
1695713109431860000,19.77985986328125,-0.08322334289550781,0.9167225360870361,-0.06496460735797882
1695713109450964000,19.7989638671875,-0.08443069458007812,0.7981313467025757,-0.07734754681587219
1695713109470037500,19.81803759765625,-0.03904247283935547,0.7175152897834778,-0.0622420608997345
1695713109489141500,19.8371416015625,-0.06038188934326172,0.6514384746551514,-0.03433498740196228
1695713109508245500,19.85624560546875,-0.09966754913330078,0.557136058807373,0.02263963222503662
1695713109527349500,19.875349609375,-0.15923500061035156,0.507789134979248,0.006305009126663208
1695713109546453500,19.89445361328125,-0.043595314025878906,0.578193724155426,0.0046156346797943115
1695713109565527000,19.913527099609375,-0.04242229461669922,0.7066830396652222,-0.01720595359802246
1695713109584631000,19.932631103515625,-0.1997528076171875,0.7403922080993652,0.016615480184555054
1695713109603704300,19.951704345703124,-0.1436605453491211,0.8138467669487,-0.11251972615718842
1695713109622808300,19.970808349609374,-0.06251811981201172,0.9135237336158752,-0.2329266369342804
1695713109641881900,19.9898818359375,-0.08751201629638672,0.9675686359405518,-0.22688418626785278
1695713109660985900,20.00898583984375,-0.1626300811767578,0.7723582983016968,-0.10168108344078064
1695713109680089900,20.02808984375,-0.2079172134399414,0.5943982601165771,-0.0005770027637481689
1695713109699163400,20.047163330078124,-0.13620662689208984,0.7247958183288574,0.07072612643241882
1695713109718267400,20.066267333984374,0.034485816955566406,0.9866219758987427,0.05848211050033569
1695713109737341000,20.0853408203125,-0.1867198944091797,1.1809468269348145,-0.1388261914253235
1695713109756445000,20.10444482421875,-0.15986156463623047,1.2761125564575195,-0.1689152717590332
1695713109775518500,20.1235185546875,-0.027242660522460938,1.0709640979766846,-0.1314677894115448
1695713109794653000,20.14265283203125,-0.16434764862060547,0.46142831444740295,-0.06787559390068054
1695713109813726500,20.1617265625,-0.4358539581298828,0.8706586360931396,-0.10558661818504333
1695713109832830500,20.18083056640625,-0.15154266357421875,0.4488952159881592,0.37196794152259827
1695713109851934500,20.1999345703125,0.2441387176513672,0.5484083294868469,0.3463876247406006
1695713109871008000,20.219008056640625,0.12780094146728516,1.0629026889801025,-0.10081630945205688
1695713109890112000,20.238112060546875,0.07988834381103516,1.0494391918182373,-0.14525005221366882
1695713109909185300,20.257185302734374,-0.20354366302490234,0.7982503175735474,-0.05298605561256409
1695713109928289300,20.276289306640624,-0.11510086059570312,0.7293737530708313,-0.002300828695297241
1695713109947362800,20.29536279296875,-0.11034107208251953,0.7279596924781799,0.03464391827583313
1695713109966466800,20.314466796875,-0.2403240203857422,0.7241759300231934,0.09423667192459106
1695713109985540400,20.333540283203124,-0.14601898193359375,0.7863423228263855,-0.0014340877532958984
1695713110004644400,20.352644287109374,-0.038399696350097656,0.9192938804626465,-0.09349092841148376
1695713110023718000,20.3717177734375,0.023697853088378906,0.8190416097640991,-0.08336594700813293
1695713110042822000,20.39082177734375,-0.10740184783935547,0.7513397336006165,-0.0409468412399292
1695713110061926000,20.40992578125,-0.0954885482788086,0.7794106006622314,-0.0944092869758606
1695713110080999400,20.42899951171875,-0.0036478042602539062,0.7734261155128479,-0.11166253685951233
1695713110100134000,20.4481337890625,-0.08930492401123047,0.7896137237548828,-0.1303192377090454
1695713110119207400,20.46720751953125,-0.12141036987304688,0.7746029496192932,-0.0959632396697998
1695713110138311400,20.4863115234375,-0.10232353210449219,0.752021849155426,-0.0956297218799591
1695713110157384700,20.505384765625,-0.08441162109375,0.7897780537605286,-0.12439405918121338
1695713110176489000,20.524489013671875,-0.08437633514404297,0.8141589760780334,-0.12328639626502991
1695713110195562200,20.543562255859374,-0.08552169799804688,0.8454174995422363,-0.11434653401374817
1695713110214666200,20.562666259765624,-0.11768531799316406,0.8238607048988342,-0.06895202398300171
1695713110233739800,20.58173974609375,-0.16174030303955078,0.7977163791656494,-0.02880367636680603
1695713110252843800,20.60084375,-0.1783914566040039,0.7840337157249451,-0.028598695993423462
1695713110271947800,20.61994775390625,-0.10563945770263672,0.7522603273391724,-0.05436354875564575
1695713110291021300,20.639021240234374,-0.03996849060058594,0.754408597946167,-0.04950171709060669
1695713110310125300,20.658125244140624,-0.0553131103515625,0.7476050853729248,-0.047763317823410034
1695713110329198800,20.67719873046875,-0.07782554626464844,0.7272279262542725,-0.00019758939743041992
1695713110348302800,20.696302734375,-0.08606624603271484,0.7353668212890625,0.021818935871124268
1695713110367376400,20.71537646484375,-0.0931549072265625,0.7199282050132751,0.02114829421043396
1695713110386510800,20.7345107421875,-0.07642650604248047,0.7230647802352905,0.004203826189041138
1695713110405584400,20.75358447265625,-0.07637882232666016,0.7571749687194824,-0.023479938507080078
1695713110424688400,20.7726884765625,-0.058442115783691406,0.7803241610527039,-0.02137318253517151
1695713110443792400,20.79179248046875,-0.03458404541015625,0.7796535491943359,-0.02987074851989746
1695713110462865700,20.81086572265625,-0.1096200942993164,0.7748736143112183,-0.02640211582183838
1695713110481969700,20.8299697265625,-0.14297199249267578,0.7088944911956787,0.0033857524394989014
1695713110501043200,20.849043212890624,-0.07381248474121094,0.7061331868171692,0.0200251042842865
1695713110520147200,20.868147216796874,-0.07617664337158203,0.6793042421340942,-0.010783016681671143
1695713110539220700,20.887220703125,-0.08807754516601562,0.6497068405151367,-0.042614519596099854
1695713110558324700,20.90632470703125,-0.09285259246826172,0.6980748176574707,-0.04459211230278015
1695713110577398300,20.925398193359374,-0.08567523956298828,0.7545578479766846,-0.031917452812194824
1695713110596502300,20.944502197265624,-0.1022939682006836,0.7773808240890503,-0.03177750110626221
1695713110615606300,20.963606201171874,-0.07245159149169922,0.7591005563735962,-0.07529601454734802
1695713110634679800,20.9826796875,-0.07360553741455078,0.7638713121414185,-0.07313856482505798
1695713110653783800,21.00178369140625,-0.09744453430175781,0.7647277116775513,-0.06595268845558167
1695713110672887800,21.0208876953125,-0.11173820495605469,0.7486626505851746,-0.06824710965156555
1695713110691991800,21.03999169921875,-0.11051082611083984,0.7340345978736877,-0.09108155965805054
1695713110711065300,21.0590654296875,-0.0699625015258789,0.722527027130127,-0.0632295310497284
1695713110730199800,21.07819970703125,-0.08068561553955078,0.7051987648010254,-0.04442495107650757
1695713110749242600,21.09724267578125,-0.0854339599609375,0.661392331123352,-0.0413743257522583
1695713110768346600,21.1163466796875,-0.08307838439941406,0.643101692199707,-0.024886906147003174
1695713110787420200,21.135420166015624,-0.08907318115234375,0.6579536199569702,-0.025817185640335083
1695713110806524200,21.154524169921874,-0.11647701263427734,0.7055807709693909,-0.02527037262916565
1695713110825628200,21.173628173828124,-0.09261703491210938,0.734682559967041,-0.020754754543304443
1695713110844701700,21.19270166015625,-0.10089588165283203,0.7323219776153564,-0.007825791835784912
1695713110863805700,21.2118056640625,-0.09723281860351562,0.738927960395813,0.012915968894958496
1695713110882879200,21.230879150390624,-0.0709524154663086,0.7197067737579346,-0.027531921863555908
1695713110901983200,21.249983154296874,-0.0935201644897461,0.740291953086853,-0.06078854203224182
1695713110921056800,21.269056884765625,-0.07079887390136719,0.6946738362312317,-0.06774833798408508
1695713110940160800,21.288160888671875,-0.06954479217529297,0.6972700953483582,-0.06680798530578613
1695713110959264800,21.3072646484375,-0.08734416961669922,0.7040308117866516,-0.04579976201057434
1695713110978368800,21.32636865234375,-0.09916877746582031,0.6704708337783813,-0.057899683713912964
1695713110997472800,21.34547265625,-0.08005237579345703,0.6520330905914307,-0.054488688707351685
1695713111016546300,21.36454638671875,-0.06451702117919922,0.6498426198959351,-0.04048830270767212
1695713111035650300,21.383650390625,-0.072784423828125,0.6800866723060608,-0.05969002842903137
1695713111054723600,21.4027236328125,-0.10375118255615234,0.6831915378570557,-0.04832494258880615
1695713111073827600,21.42182763671875,-0.1096792221069336,0.683501124382019,-0.028073400259017944
1695713111092901000,21.440901123046874,-0.08223724365234375,0.6863540410995483,-0.011771321296691895
1695713111112005000,21.460005126953124,-0.06311988830566406,0.6944068670272827,-0.02721273899078369
1695713111131078700,21.47907861328125,-0.07618331909179688,0.6906795501708984,-0.031082332134246826
1695713111150182700,21.4981826171875,-0.0916585922241211,0.6906492114067078,-0.02291843295097351
1695713111169256200,21.517256103515624,-0.08804893493652344,0.6845957636833191,-0.01689198613166809
1695713111188360200,21.536360107421874,-0.07607841491699219,0.6451539993286133,-0.012310326099395752
1695713111207458000,21.5554580078125,-0.08318042755126953,0.658561110496521,-0.02564886212348938
1695713111226562000,21.57456201171875,-0.09268856048583984,0.658073365688324,-0.012991189956665039
1695713111245666000,21.593666015625,-0.07715892791748047,0.657677412033081,-0.004791051149368286
1695713111264739600,21.612739501953126,-0.08426094055175781,0.6520421504974365,0.010188102722167969
1695713111283843600,21.631843505859376,-0.10683631896972656,0.6429606676101685,-0.014709323644638062
1695713111302917000,21.650917236328127,-0.07101726531982422,0.6557052135467529,-0.04257112741470337
1695713111322021000,21.670021240234377,-0.06854534149169922,0.6397380828857422,-0.03958594799041748
1695713111341094700,21.6890947265625,-0.026795387268066406,0.6418740749359131,-0.0389428436756134
1695713111360198700,21.70819873046875,-0.10772323608398438,0.6888759732246399,-0.0845472514629364
1695713111379302700,21.727302734375,-0.1398153305053711,0.6532742977142334,-0.07001778483390808
1695713111398376000,21.7463759765625,-0.072998046875,0.6278748512268066,-0.05345669388771057
1695713111417480200,21.765480224609377,-0.10511398315429688,0.6297882795333862,-0.042556434869766235
1695713111436553500,21.784553466796876,-0.11696624755859375,0.6386662125587463,-0.022363632917404175
1695713111455657500,21.803657470703126,-0.06568050384521484,0.6382980346679688,-0.031645745038986206
1695713111474731000,21.82273095703125,-0.0775442123413086,0.658981204032898,-0.0580596923828125
1695713111493865500,21.841865478515626,-0.10367774963378906,0.6450965404510498,-0.05342504382133484
1695713111512939000,21.86093896484375,-0.0952901840209961,0.6598184704780579,-0.03803035616874695
1695713111532043000,21.88004296875,-0.09644126892089844,0.6547049880027771,-0.01556020975112915
1695713111551116500,21.899116455078126,-0.07732391357421875,0.6508089900016785,-0.021476060152053833
1695713111570220500,21.918220458984376,-0.06295585632324219,0.6298520565032959,-0.02959689497947693
1695713111589324500,21.937324462890626,-0.049782752990722656,0.6455717086791992,-0.02497917413711548
1695713111608398000,21.956398193359377,-0.07955455780029297,0.6463280320167542,-0.028407037258148193
1695713111627502000,21.975502197265627,-0.1009359359741211,0.6362301111221313,-0.023780226707458496
1695713111646575600,21.99457568359375,-0.11158943176269531,0.6530067920684814,-0.0297471284866333
1695713111665679600,22.0136796875,-0.1067495346069336,0.6366527676582336,-0.016906023025512695
1695713111684753000,22.0327529296875,-0.10315132141113281,0.6404107809066772,-0.03381440043449402
1695713111703857000,22.05185693359375,-0.1007223129272461,0.5922999978065491,-0.07617565989494324
1695713111722930400,22.070930419921876,-0.10183143615722656,0.6016509532928467,-0.07622724771499634
1695713111742034400,22.090034423828126,-0.07551860809326172,0.624526858329773,-0.060257792472839355
1695713111761138400,22.109138427734376,-0.0492401123046875,0.6209642887115479,-0.013227909803390503
1695713111780212000,22.1282119140625,-0.0968637466430664,0.6348152160644531,0.013548225164413452
1695713111799316000,22.14731591796875,-0.13134765625,0.6295204162597656,-0.006778985261917114
1695713111818420000,22.166419921875,-0.031160354614257812,0.658602237701416,0.02338320016860962
1695713111837524000,22.18552392578125,-0.022904396057128906,0.5698461532592773,-0.012626320123672485
1695713111856597500,22.204597412109376,-0.13370513916015625,0.5486226677894592,-0.019528359174728394
1695713111875701500,22.223701416015626,-0.10618400573730469,0.6224055886268616,-0.03638947010040283
1695713111894775000,22.242775146484377,-0.08705329895019531,0.595791220664978,-0.05715245008468628
1695713111913879000,22.261879150390627,-0.05003547668457031,0.604134202003479,-0.024204641580581665
1695713111932952600,22.28095263671875,-0.02368450164794922,0.6007823944091797,0.0033077597618103027
1695713111952056600,22.300056640625,-0.09625816345214844,0.5873150825500488,-0.0539625883102417
1695713111971160600,22.31916064453125,-0.1343545913696289,0.5724900960922241,-0.09646618366241455
1695713111990233900,22.33823388671875,-0.12839126586914062,0.5932871103286743,-0.11724463105201721
1695713112009337900,22.357337890625,-0.07591533660888672,0.6006931066513062,-0.08423081040382385
1695713112028411400,22.376411376953126,-0.05081462860107422,0.5639212131500244,-0.06435048580169678
1695713112047515400,22.395515380859376,-0.07342147827148438,0.567750871181488,-0.06091541051864624
1695713112066589000,22.4145888671875,-0.0913381576538086,0.5629593133926392,-0.06661790609359741
1695713112085693000,22.43369287109375,-0.10331058502197266,0.6043762564659119,-0.07983016967773438
1695713112104797000,22.452796875,-0.0640401840209961,0.5912781953811646,-0.045973241329193115
1695713112123901000,22.47190087890625,-0.08311843872070312,0.606253445148468,-0.02122357487678528
1695713112143005000,22.4910048828125,-0.0950326919555664,0.6305758953094482,0.011484742164611816
1695713112162078500,22.510078369140626,-0.1093454360961914,0.6258189678192139,0.04119345545768738
1695713112181182500,22.529182373046876,-0.06762313842773438,0.6029126048088074,0.03569313883781433
1695713112200256000,22.548256103515627,-0.061573028564453125,0.5978225469589233,0.030309945344924927
1695713112219360000,22.567360107421877,-0.034076690673828125,0.619819164276123,0.03811335563659668
1695713112238433500,22.58643359375,-0.11617755889892578,0.6237891912460327,0.01593741774559021
1695713112257537500,22.60553759765625,-0.11485958099365234,0.5415596961975098,-0.009645909070968628
1695713112276610800,22.62461083984375,-0.06825923919677734,0.5108548998832703,-0.003840804100036621
1695713112295714800,22.64371484375,-0.049083709716796875,0.5324873924255371,-0.009355604648590088
1695713112314788400,22.662788330078126,-0.08112525939941406,0.5533425807952881,-0.013950496912002563
1695713112333892400,22.681892333984376,-0.07147407531738281,0.5664146542549133,-0.012975960969924927
1695713112352996400,22.700996337890626,-0.09039115905761719,0.5910919308662415,-0.04118874669075012
1695713112372100400,22.720100341796876,-0.09862518310546875,0.6021308898925781,-0.054440468549728394
1695713112391204400,22.739204345703126,-0.07826709747314453,0.6061643362045288,-0.047979652881622314
1695713112410278000,22.75827783203125,-0.09723281860351562,0.6115176677703857,-0.047577887773513794
1695713112429412400,22.777412353515626,-0.10309219360351562,0.6039698719978333,-0.07760679721832275
1695713112448455400,22.796455322265626,-0.08752632141113281,0.566145658493042,-0.06968069076538086
1695713112467559400,22.815559326171876,-0.08626747131347656,0.5530471205711365,-0.07793271541595459
1695713112486633000,22.834633056640627,-0.0826416015625,0.5463703274726868,-0.08212083578109741
1695713112505737000,22.853737060546877,-0.0849599838256836,0.5549097657203674,-0.0717240571975708
1695713112524841000,22.872841064453127,-0.08370780944824219,0.5345233678817749,-0.050433605909347534
1695713112543914500,22.89191455078125,-0.08963203430175781,0.5356148481369019,-0.027160704135894775
1695713112563018500,22.9110185546875,-0.0943765640258789,0.5507681369781494,-0.04110074043273926
1695713112582091800,22.930091796875,-0.09078311920166016,0.5043280720710754,-0.061018168926239014
1695713112601195800,22.94919580078125,-0.0800008773803711,0.5195555686950684,-0.045647650957107544
1695713112620269300,22.968269287109376,-0.05493450164794922,0.5350251197814941,-0.03582325577735901
1695713112639373300,22.987373291015626,-0.06083393096923828,0.5465195178985596,-0.02417883276939392
1695713112658477300,23.006477294921876,-0.10010051727294922,0.5508654117584229,-0.01651167869567871
1695713112677581300,23.025581298828126,-0.08933639526367188,0.5423473119735718,0.021342605352401733
1695713112696685300,23.044685302734376,-0.03563404083251953,0.5392417907714844,0.014406144618988037
1695713112715758800,23.0637587890625,-0.05701255798339844,0.5431267619132996,-0.00024944543838500977
1695713112734862800,23.08286279296875,-0.1046457290649414,0.5653380155563354,0.00824350118637085
1695713112753936400,23.101936279296876,-0.11529827117919922,0.55571448802948,-0.006097137928009033
1695713112773040400,23.121040283203126,-0.09733963012695312,0.5625544786453247,-0.03291577100753784
1695713112792114000,23.140114013671877,-0.10794353485107422,0.5682095885276794,-0.021945267915725708
1695713112811218000,23.159218017578127,-0.08043575286865234,0.5768600702285767,0.006383270025253296
1695713112830291500,23.17829150390625,-0.06722831726074219,0.5674380660057068,-0.014137446880340576
1695713112849395500,23.1973955078125,-0.07189178466796875,0.539738655090332,-0.028813809156417847
1695713112868468700,23.21646875,-0.1074819564819336,0.5422646999359131,-0.05155116319656372
1695713112887572700,23.23557275390625,-0.08591842651367188,0.5375156402587891,-0.042923808097839355
1695713112906676700,23.2546767578125,-0.085845947265625,0.5217631459236145,-0.047099769115448
1695713112925750300,23.273750244140626,-0.1130361557006836,0.5766230225563049,-0.02184903621673584
1695713112944854300,23.292854248046876,0.0300750732421875,0.4960920810699463,0.004507333040237427
1695713112963958300,23.311958251953126,-0.10459041595458984,0.4767397940158844,0.0009640753269195557
1695713112983062300,23.331062255859376,-0.09133720397949219,0.49596357345581055,0.014041721820831299
1695713113002135800,23.3501357421875,-0.09951400756835938,0.5140317678451538,-0.024006247520446777
1695713113021239800,23.36923974609375,-0.05531501770019531,0.45908671617507935,-0.05732989311218262
1695713113040313300,23.388313232421876,-0.04090595245361328,0.4699864685535431,0.0003890395164489746
1695713113059417300,23.407417236328126,-0.08722972869873047,0.5051566362380981,-0.013532817363739014
1695713113078521300,23.426521240234376,-0.11566448211669922,0.48059597611427307,-0.045817553997039795
1695713113097595000,23.445594970703127,-0.08103466033935547,0.47732987999916077,-0.08162900805473328
1695713113116699000,23.464698974609377,-0.06664752960205078,0.5253399610519409,-0.09806275367736816
1695713113135772400,23.4837724609375,-0.04390525817871094,0.51677405834198,-0.059105247259140015
1695713113154876400,23.50287646484375,-0.060509681701660156,0.5597740411758423,-0.06510010361671448
1695713113173949700,23.52194970703125,-0.1068735122680664,0.5132443904876709,-0.05161011219024658
1695713113193084400,23.54108447265625,-0.08889389038085938,0.5111376047134399,-0.018711775541305542
1695713113212127200,23.560127197265626,-0.08644294738769531,0.4943070113658905,0.011822700500488281
1695713113231261700,23.57926171875,-0.10319042205810547,0.43893107771873474,0.021743088960647583
1695713113250335200,23.598335205078126,-0.08890438079833984,0.41399598121643066,0.0033724606037139893
1695713113269439200,23.617439208984376,-0.04596996307373047,0.4294634461402893,-0.024317800998687744
1695713113288543200,23.636543212890626,-0.06022167205810547,0.4601718783378601,-0.033830463886260986
1695713113307616800,23.65561669921875,-0.07680225372314453,0.4909878075122833,-0.04037153720855713
1695713113326720800,23.674720703125,-0.08152294158935547,0.500412106513977,-0.034522294998168945
1695713113345794300,23.693794189453126,-0.1112222671508789,0.5279477834701538,-0.02063402533531189
1695713113364898300,23.712898193359376,-0.08253192901611328,0.5402586460113525,-0.002703726291656494
1695713113384002300,23.732002197265626,-0.08006668090820312,0.5668016672134399,-0.025105386972427368
1695713113403228400,23.751228515625,-0.07403945922851562,0.5865076780319214,-0.028608232736587524
1695713113422454500,23.77045458984375,-0.07989025115966797,0.5777979493141174,-0.027338296175003052
1695713113441680400,23.789680419921876,-0.09172821044921875,0.5584914684295654,-0.04515177011489868
1695713113460510000,23.808510009765627,-0.09519577026367188,0.5263310670852661,-0.03111976385116577
1695713113479369700,23.82736962890625,-0.09392929077148438,0.5348919630050659,-0.03968045115470886
1695713113498534700,23.84653466796875,-0.07831382751464844,0.5223450660705566,-0.036562830209732056
1695713113517638700,23.865638671875,-0.0698862075805664,0.47618213295936584,-0.026115238666534424
1695713113536742700,23.88474267578125,-0.061461448669433594,0.450013667345047,-0.020565658807754517
1695713113555816200,23.903816162109376,-0.08517742156982422,0.47782009840011597,-0.0033986568450927734
1695713113574920200,23.922920166015626,-0.07552337646484375,0.45351842045783997,-0.013416141271591187
1695713113593993700,23.94199365234375,-0.05992412567138672,0.44486749172210693,-0.012536227703094482
1695713113613097700,23.96109765625,-0.05743694305419922,0.4507002830505371,-0.006745874881744385
1695713113632201700,23.98020166015625,-0.05613422393798828,0.45153945684432983,-0.0023213326930999756
1695713113651275300,23.999275146484376,-0.09895515441894531,0.44097572565078735,0.008931726217269897
1695713113670379300,24.018379150390626,-0.10723400115966797,0.4114159345626831,-0.018557608127593994
1695713113689452800,24.037452880859377,-0.08210277557373047,0.42405015230178833,-0.022446751594543457
1695713113708556800,24.056556884765627,-0.04741954803466797,0.43306514620780945,-0.068091481924057
1695713113727630300,24.07563037109375,-0.05445671081542969,0.41766759753227234,-0.07040479779243469
1695713113746734300,24.094734375,-0.04720497131347656,0.42917710542678833,-0.061607420444488525
1695713113765807600,24.1138076171875,-0.07344436645507812,0.45295408368110657,-0.03449961543083191
1695713113784911600,24.13291162109375,-0.14854049682617188,0.4947119653224945,-0.0467357337474823
