time,seconds_elapsed,z,y,x
1695713089743022800,0.09102294921875,3.576974868774414,1.720062255859375,-1.7332382202148438
1695713089752544300,0.100544189453125,1.8039093017578125,3.741374969482422,-6.068729400634766
1695713089762096400,0.110096435546875,2.9454269409179688,4.283985137939453,-6.176233291625977
1695713089771679000,0.119678955078125,4.163005828857422,3.9758472442626953,-4.290872573852539
1695713089781230800,0.12923095703125,4.446588516235352,3.5730819702148438,-2.9559078216552734
1695713089790752500,0.13875244140625,3.9866275787353516,3.376340866088867,-2.542062759399414
1695713089800304400,0.148304443359375,5.509349822998047,3.6560306549072266,-2.142292022705078
1695713089809856500,0.1578564453125,9.788843154907227,4.290872573852539,-1.4101276397705078
1695713089819378000,0.1673779296875,13.31790542602539,4.914035797119141,-0.6587982177734375
1695713089828929800,0.1769296875,13.408340454101562,5.219778060913086,0.11618804931640625
1695713089838482000,0.18648193359375,12.450387954711914,3.895294189453125,1.6619682312011719
1695713089848033800,0.19603369140625,12.214717864990234,1.5140380859375,2.678913116455078
1695713089857555500,0.205555419921875,12.910348892211914,-0.2841815948486328,3.1598358154296875
1695713089867107300,0.215107421875,13.119966506958008,-1.4026412963867188,2.9804630279541016
1695713089876659500,0.224659423828125,13.074748992919922,-1.7913322448730469,3.0640106201171875
1695713089886211300,0.23421142578125,12.645931243896484,-1.8290634155273438,3.355978012084961
1695713089895763500,0.243763427734375,12.34797477722168,-1.6230392456054688,3.14306640625
1695713089905284900,0.253284912109375,11.413978576660156,-1.3433494567871094,2.664539337158203
1695713089914836700,0.262836669921875,9.788843154907227,-1.5260162353515625,2.3246593475341797
1695713089924388900,0.272388916015625,8.718894958496094,-1.6895179748535156,2.365385055541992
1695713089933940700,0.281940673828125,8.485620498657227,-1.6490917205810547,2.678913116455078
1695713089943462400,0.29146240234375,8.954864501953125,-1.2795658111572266,2.973276138305664
1695713089953014300,0.30101416015625,9.026433944702148,-0.6704769134521484,3.1167144775390625
1695713089962566400,0.31056640625,8.79286003112793,-0.03803062438964844,2.9085941314697266
1695713089972118300,0.3201181640625,8.535629272460938,0.5545883178710938,2.389341354370117
1695713089981670400,0.32967041015625,8.073272705078125,0.876800537109375,2.2051773071289062
1695713089991191800,0.33919189453125,7.59893798828125,0.857635498046875,2.2267379760742188
1695713090000744000,0.348743896484375,7.603729248046875,0.1446361541748047,1.5565605163574219
1695713090010295800,0.3582958984375,7.448911666870117,-0.6090888977050781,1.9371662139892578
1695713090019848000,0.367847900390625,7.02009391784668,-1.1633777618408203,3.303274154663086
1695713090029369300,0.377369384765625,6.917680740356445,-0.6656856536865234,4.41364860534668
1695713090038921200,0.386921142578125,6.917680740356445,0.5237445831298828,4.451679229736328
1695713090048473300,0.396473388671875,8.349668502807617,1.4430675506591797,4.253141403198242
1695713090058025200,0.406025146484375,11.047147750854492,1.985677719116211,4.262723922729492
1695713090067607800,0.41560791015625,12.95556640625,2.160858154296875,3.872835159301758
1695713090077129200,0.425129150390625,13.72995376586914,1.6158523559570312,3.724306106567383
1695713090086681300,0.434681396484375,12.474344253540039,-0.6587982177734375,4.028251647949219
1695713090096233200,0.444233154296875,10.854000091552734,-1.7913322448730469,4.765207290649414
1695713090105785300,0.453785400390625,9.619651794433594,-1.5329036712646484,4.939788818359375
1695713090115306800,0.463306640625,8.680864334106445,-1.1846389770507812,4.609790802001953
1695713090124859000,0.47285888671875,8.5284423828125,-0.646820068359375,4.274702072143555
1695713090134410800,0.48241064453125,8.585638046264648,-1.4643287658691406,4.880197525024414
1695713090143963000,0.491962890625,8.935699462890625,-1.6916141510009766,5.219778060913086
1695713090153514800,0.5015146484375,9.436086654663086,-0.87200927734375,5.456645965576172
1695713090163036400,0.511036376953125,10.641986846923828,0.5306320190429688,5.609966278076172
1695713090172588300,0.52058837890625,11.666418075561523,1.5376949310302734,5.633623123168945
1695713090182140400,0.530140380859375,12.252748489379883,1.6751441955566406,5.681535720825195
1695713090191692300,0.5396923828125,12.207530975341797,1.0283241271972656,5.755800247192383
1695713090201213700,0.549213623046875,11.356782913208008,0.46684837341308594,5.65757942199707
1695713090210765800,0.558765869140625,9.865203857421875,0.9926891326904297,4.849054336547852
1695713090220317700,0.568317626953125,8.147237777709961,0.7938518524169922,4.114494323730469
1695713090229869800,0.577869873046875,6.91288948059082,-0.059291839599609375,4.463657379150391
1695713090239391200,0.58739111328125,6.112150192260742,0.09941864013671875,4.753229141235352
1695713090248943400,0.596943359375,6.102567672729492,0.7654037475585938,5.344350814819336
1695713090258495200,0.6064951171875,7.425254821777344,0.8624267578125,5.860908508300781
1695713090268047400,0.61604736328125,8.711708068847656,1.2178783416748047,6.21516227722168
1695713090277599200,0.62559912109375,9.266895294189453,1.4951725006103516,6.203184127807617
1695713090287121000,0.635120849609375,9.328882217407227,0.7085075378417969,6.267866134643555
1695713090296672800,0.6446728515625,9.266895294189453,0.3647346496582031,6.207975387573242
1695713090306225000,0.654224853515625,8.583242416381836,0.6872463226318359,6.313383102416992
1695713090315776800,0.66377685546875,7.79448127746582,1.118459701538086,6.499942779541016
1695713090325298200,0.673298095703125,6.970085144042969,1.6751441955566406,6.777536392211914
1695713090334850300,0.682850341796875,7.513294219970703,1.4595375061035156,7.318050384521484
1695713090344433000,0.692432861328125,7.975650787353516,0.6279544830322266,8.191556930541992
1695713090353984800,0.70198486328125,8.409259796142578,0.9241142272949219,8.210721969604492
1695713090363537000,0.711536865234375,8.452081680297852,1.5424861907958984,7.71782112121582
1695713090373058300,0.721058349609375,8.602108001708984,1.6086654663085938,8.059797286987305
1695713090382610200,0.730610107421875,8.895273208618164,1.765279769897461,8.442798614501953
1695713090392162300,0.740162353515625,8.840473175048828,1.73443603515625,8.356555938720703
1695713090401714200,0.749714111328125,8.688051223754883,1.5897998809814453,8.138853073120117
1695713090411235800,0.75923583984375,7.973255157470703,1.8078022003173828,7.820533752441406
1695713090420787700,0.76878759765625,6.974876403808594,2.2557849884033203,7.440227508544922
1695713090430339800,0.77833984375,6.362493515014648,1.923990249633789,7.624391555786133
1695713090439891700,0.7878916015625,6.281341552734375,1.1537952423095703,8.689249038696289
1695713090449443800,0.79744384765625,5.869293212890625,0.9858016967773438,8.8734130859375
1695713090458965200,0.80696533203125,5.640510559082031,1.4194107055664062,8.782379150390625
1695713090468517400,0.816517333984375,6.092985153198242,1.5993824005126953,8.725183486938477
1695713090478069200,0.8260693359375,6.90330696105957,2.549549102783203,8.10291862487793
1695713090487621400,0.835621337890625,6.950920104980469,2.5067272186279297,7.60283088684082
1695713090497142800,0.845142822265625,6.2885284423828125,2.2911205291748047,7.62199592590332
1695713090506694700,0.854694580078125,5.11137580871582,2.864574432373047,7.155447006225586
1695713090516246800,0.864246826171875,4.842166900634766,3.1727123260498047,7.244085311889648
1695713090525798700,0.873798583984375,5.23774528503418,2.9571056365966797,7.763338088989258
1695713090535320300,0.8833203125,5.718967437744141,2.504331588745117,7.825325012207031
1695713090544872200,0.8928720703125,6.593372344970703,2.0470657348632812,8.299060821533203
1695713090554424300,0.90242431640625,7.374946594238281,2.359994888305664,8.172391891479492
1695713090563976200,0.91197607421875,6.622119903564453,2.878948211669922,7.68907356262207
1695713090573528300,0.9215283203125,5.352136611938477,3.0140018463134766,7.298885345458984
1695713090583049700,0.9310498046875,5.054180145263672,2.6064453125,7.064413070678711
1695713090592601900,0.940601806640625,5.302127838134766,1.703592300415039,7.112325668334961
1695713090602153700,0.95015380859375,5.418914794921875,1.6679573059082031,6.782327651977539
1695713090611705900,0.959705810546875,5.547380447387695,1.3457450866699219,6.626611709594727
1695713090621227300,0.969227294921875,5.602180480957031,0.6019020080566406,6.428073883056641
1695713090630809900,0.978809814453125,5.676145553588867,-0.2227935791015625,6.349018096923828
1695713090640361700,0.98836181640625,5.273380279541016,-0.45726585388183594,6.11933708190918
1695713090649913900,0.997913818359375,5.037410736083984,-0.8103218078613281,6.23432731628418
1695713090659465700,1.0074658203125,5.776163101196289,-1.52362060546875,6.521503448486328
1695713090668987100,1.016987060546875,7.036563873291016,-2.582489013671875,7.121908187866211
1695713090678539300,1.026539306640625,8.20443344116211,-3.407184600830078,7.57408332824707
1695713090688091100,1.036091064453125,9.150407791137695,-3.691366195678711,7.978645324707031
1695713090697643300,1.045643310546875,9.343255996704102,-3.6560306549072266,8.476337432861328
1695713090707164700,1.05516455078125,8.738059997558594,-3.3526840209960938,8.84466552734375
1695713090716716800,1.064716796875,7.651342391967773,-2.8669700622558594,8.861434936523438
1695713090726268700,1.0742685546875,5.723758697509766,-1.8646984100341797,8.674875259399414
1695713090735820800,1.08382080078125,3.507801055908203,-0.7201862335205078,8.571863174438477
1695713090745372700,1.09337255859375,2.9717788696289062,-1.9832820892333984,8.557489395141602
1695713090754894300,1.102894287109375,1.9018306732177734,-3.1795997619628906,9.368709564208984
1695713090764446200,1.1124462890625,0.8986606597900391,-3.5185813903808594,10.294620513916016
1695713090773998300,1.121998291015625,-0.5836353302001953,-2.7223339080810547,11.691871643066406
1695713090783550200,1.13155029296875,-0.6980266571044922,-0.9004573822021484,12.469552993774414
1695713090793071600,1.141071533203125,-0.48122215270996094,0.2084197998046875,13.550880432128906
1695713090802623700,1.150623779296875,0.8675174713134766,0.9810104370117188,14.687606811523438
1695713090812175600,1.160175537109375,1.9994525909423828,1.3364620208740234,15.792890548706055
1695713090821727700,1.169727783203125,1.9183006286621094,1.9051246643066406,16.156726837158203
1695713090831249200,1.179249267578125,0.28148651123046875,2.561227798461914,16.22110939025879
1695713090840801300,1.18880126953125,-1.4436664581298828,3.2317047119140625,15.881528854370117
1695713090850353200,1.198353271484375,-6.03309440612793,3.4688720703125,14.850210189819336
1695713090859905300,1.2079052734375,-6.118738174438477,2.6040496826171875,13.431398391723633
1695713090869457200,1.21745703125,3.3670578002929688,-2.7675514221191406,14.720846176147461
1695713090878978800,1.226978759765625,3.007413864135742,-6.449335098266602,15.321550369262695
1695713090888530700,1.23653076171875,-1.308013916015625,-5.783649444580078,13.48649787902832
1695713090898082800,1.246082763671875,0.6411304473876953,-4.046817779541016,13.204113006591797
1695713090907634700,1.255634765625,2.676218032836914,-2.113544464111328,13.278377532958984
1695713090917186800,1.265186767578125,2.459413528442383,-1.4595375061035156,12.596221923828125
1695713090926738700,1.27473876953125,1.329874038696289,-1.5212249755859375,11.167827606201172
1695713090936290800,1.284290771484375,0.017068862915039062,-1.8907508850097656,10.04817008972168
1695713090945842700,1.2938427734375,-0.35006141662597656,-1.720062255859375,8.184370040893555
1695713090955394800,1.303394775390625,-1.0028705596923828,-2.0755138397216797,5.447063446044922
1695713090964916200,1.312916259765625,-0.0044918060302734375,-4.511270523071289,4.210020065307617
1695713090974468000,1.322468017578125,1.6778392791748047,-8.017873764038086,3.8752307891845703
1695713090984020200,1.332020263671875,-0.5740528106689453,-5.721961975097656,5.562053680419922
1695713090993572000,1.341572021484375,0.15272140502929688,-5.070350646972656,6.035789489746094
1695713091003093800,1.35109375,1.1558914184570312,-4.492404937744141,7.791786193847656
1695713091012645600,1.360645751953125,3.043048858642578,-5.546781539916992,10.811477661132812
1695713091022197800,1.37019775390625,5.249723434448242,-8.776090621948242,17.606382369995117
1695713091031749600,1.37974951171875,3.8961925506591797,-4.584636688232422,14.472299575805664
1695713091041301800,1.3893017578125,-0.7432441711425781,-2.1276187896728516,9.832862854003906
1695713091050823200,1.3988232421875,-3.802762985229492,-2.5019359588623047,8.849456787109375
1695713091060375300,1.408375244140625,-2.151275634765625,-5.501863479614258,10.560235977172852
1695713091069927200,1.41792724609375,1.1082782745361328,-8.006195068359375,10.885442733764648
1695713091079479300,1.427479248046875,1.4418697357177734,-7.3402099609375,9.725059509277344
1695713091089000700,1.437000732421875,2.4926528930664062,-4.584636688232422,7.038360595703125
1695713091098552600,1.446552490234375,-4.224393844604492,0.0023956298828125,2.3534069061279297
1695713091108104700,1.456104736328125,-5.921098709106445,-1.267587661743164,2.910989761352539
1695713091117656600,1.465656494140625,-2.258779525756836,-3.7293968200683594,4.169593811035156
1695713091127208700,1.475208740234375,-2.0488624572753906,-3.6937618255615234,3.3008785247802734
1695713091136730000,1.484730224609375,-1.3056182861328125,-2.7319164276123047,2.6717262268066406
1695713091146282200,1.4942822265625,-0.8360748291015625,-2.618124008178711,2.791208267211914
1695713091155834000,1.503834228515625,0.9010562896728516,-2.5115184783935547,2.9565067291259766
1695713091165386200,1.51338623046875,0.6770648956298828,-3.4308414459228516,2.8606815338134766
1695713091174907600,1.52290771484375,-0.9696311950683594,-4.423530578613281,2.3821544647216797
1695713091184459800,1.532459716796875,-1.7512054443359375,-5.233852386474609,3.447011947631836
1695713091194011600,1.54201171875,-1.9180011749267578,-5.466228485107422,4.157615661621094
1695713091203557400,1.551557373046875,-1.4936752319335938,-5.134433746337891,3.8560657501220703
1695713091213140000,1.561139892578125,-1.1316356658935547,-4.492404937744141,2.9469242095947266
1695713091222661400,1.570661376953125,-0.8264923095703125,-4.035139083862305,2.1644515991210938
1695713091232213500,1.580213623046875,-1.0432968139648438,-4.229484558105469,1.4466609954833984
1695713091241765400,1.589765380859375,-1.4580402374267578,-5.371301651000977,1.7314414978027344
1695713091251317500,1.5993173828125,-1.3008270263671875,-6.913787841796875,1.8868579864501953
1695713091260839000,1.6088388671875,-1.4364795684814453,-8.124479293823242,1.7793540954589844
1695713091270390800,1.618390869140625,-1.338857650756836,-9.740631103515625,1.6212425231933594
1695713091279943000,1.62794287109375,-1.9392623901367188,-10.581796646118164,2.0590438842773438
1695713091289494800,1.637494873046875,-2.3276538848876953,-11.091167449951172,2.925363540649414
1695713091299047000,1.647046875,-2.7019710540771484,-12.628862380981445,4.463657379150391
1695713091308568300,1.656568359375,-1.8200798034667969,-14.379768371582031,5.69590950012207
1695713091318120400,1.666120361328125,-1.679636001586914,-15.974359512329102,8.837478637695312
1695713091327672300,1.67567236328125,-0.9980792999267578,-18.5616397857666,10.636896133422852
1695713091337224400,1.685224365234375,-0.7384529113769531,-13.958137512207031,7.083578109741211
1695713091346745900,1.694745849609375,-1.5104446411132812,-10.503339767456055,4.578647613525391
1695713091356298000,1.704298095703125,-1.5344009399414062,-10.299711227416992,2.9921417236328125
1695713091365849900,1.713849853515625,-0.9504661560058594,-9.95623779296875,-0.3120307922363281
1695713091375402000,1.723402099609375,-0.35485267639160156,-10.039186477661133,-0.1278667449951172
1695713091384923400,1.73292333984375,-0.5788440704345703,-9.361522674560547,2.506427764892578
1695713091394475300,1.742475341796875,-3.9599761962890625,-7.669609069824219,3.588054656982422
1695713091404027400,1.75202734375,1.8018131256103516,-5.508750915527344,4.856241226196289
1695713091413579300,1.761579345703125,0.7770824432373047,-6.165153503417969,7.528865814208984
1695713091423131400,1.77113134765625,-0.2641181945800781,-7.584264755249023,8.526346206665039
1695713091432652800,1.78065283203125,-0.3024482727050781,-9.631629943847656,6.784723281860352
1695713091442205000,1.790204833984375,-0.8552398681640625,-10.351816177368164,5.798921585083008
1695713091451756800,1.7997568359375,-0.9624443054199219,-9.607973098754883,4.90625
1695713091461309000,1.809308837890625,-0.11169624328613281,-8.757225036621094,3.772218704223633
1695713091470830300,1.818830322265625,0.7770824432373047,-8.238271713256836,3.2029571533203125
1695713091480382500,1.828382568359375,1.1130695343017578,-7.738483428955078,2.674121856689453
1695713091489964800,1.83796484375,1.2226696014404297,-7.423158645629883,1.7410240173339844
1695713091499517000,1.847516845703125,1.2154827117919922,-7.849880218505859,1.3029232025146484
1695713091509068800,1.85706884765625,0.08833885192871094,-8.790464401245117,1.8149890899658203
1695713091518590500,1.866590576171875,-0.03323936462402344,-9.129146575927734,2.1285171508789062
1695713091528142300,1.876142333984375,0.06707763671875,-9.178855895996094,2.2623729705810547
1695713091537694500,1.885694580078125,0.3075389862060547,-9.176759719848633,1.9491443634033203
1695713091547246300,1.895246337890625,0.062286376953125,-8.868621826171875,1.8054065704345703
1695713091556767700,1.904767822265625,-0.3713226318359375,-9.103094100952148,2.2339248657226562
1695713091566319900,1.91431982421875,-0.45007896423339844,-9.198020935058594,2.9085941314697266
1695713091575871700,1.923871826171875,-0.2856788635253906,-7.195873260498047,3.6096153259277344
1695713091585424000,1.933423828125,0.27669525146484375,-6.624814987182617,6.640985488891602
1695713091594975700,1.942975830078125,-0.5429096221923828,-6.6909942626953125,4.490009307861328
1695713091604497400,1.952497314453125,-0.8076267242431641,-7.3402099609375,4.595417022705078
1695713091614049300,1.96204931640625,-0.45966148376464844,-6.4849700927734375,4.195646286010742
1695713091623601400,1.971601318359375,-0.34766578674316406,-4.634645462036133,3.7841968536376953
1695713091633153300,1.9811533203125,0.12666893005371094,-4.032743453979492,3.3296260833740234
1695713091642675000,1.990675048828125,0.10750389099121094,-4.170192718505859,2.6429786682128906
1695713091652226800,2.000226806640625,0.0574951171875,-4.440299987792969,1.7769584655761719
1695713091661779000,2.009779052734375,0.8723087310791016,-4.179475784301758,0.6689796447753906
1695713091671330800,2.019330810546875,0.8438606262207031,-6.302602767944336,0.9154300689697266
1695713091680883000,2.028883056640625,1.1298389434814453,-7.57977294921875,0.8842868804931641
1695713091690404400,2.038404296875,0.7794780731201172,-9.771474838256836,1.2457275390625
1695713091699956200,2.047956298828125,-0.16170501708984375,-10.23802375793457,0.5590801239013672
1695713091709508400,2.05750830078125,2.0542526245117188,-10.363794326782227,0.6474189758300781
1695713091719060200,2.067060302734375,3.503009796142578,-8.063091278076172,0.7192878723144531
1695713091728582000,2.076581787109375,3.889005661010742,-9.908624649047852,0.19045257568359375
1695713091738133800,2.0861337890625,-1.1268444061279297,-10.543766021728516,0.06138801574707031
1695713091747686000,2.095685791015625,-3.4335365295410156,-11.766435623168945,1.1043853759765625
1695713091757237800,2.10523779296875,-4.4055633544921875,-16.95536994934082,2.4827709197998047
1695713091766759400,2.114759521484375,-3.998006820678711,-15.19967269897461,2.0398788452148438
1695713091776341800,2.124341796875,-2.6684322357177734,-9.603181838989258,-0.16589736938476562
1695713091785894000,2.133893798828125,0.5554866790771484,-7.7738189697265625,-2.127918243408203
1695713091795445800,2.14344580078125,4.603801727294922,-7.238395690917969,-3.6617202758789062
1695713091804998000,2.152997802734375,7.877729415893555,-3.9189510345458984,-3.321840286254883
1695713091814519300,2.162519287109375,2.983457565307617,-5.11317253112793,-3.5611038208007812
1695713091824071400,2.172071533203125,-2.2728538513183594,-10.091291427612305,-2.8648738861083984
1695713091833623300,2.181623291015625,-4.098323822021484,-12.69504165649414,-2.1303138732910156
1695713091843175400,2.191175537109375,-3.2975845336914062,-16.54302215576172,-1.8287639617919922
1695713091852696800,2.20069677734375,-0.2165050506591797,-17.28716468811035,-1.6565780639648438
1695713091862248700,2.210248779296875,0.9127349853515625,-13.47691535949707,-1.6469955444335938
1695713091871800800,2.21980078125,-0.5360221862792969,-10.865978240966797,-3.384126663208008
1695713091881352700,2.229352783203125,-0.5692615509033203,-7.5725860595703125,-2.2453041076660156
1695713091890904800,2.23890478515625,-0.5024833679199219,-4.5493011474609375,-3.027477264404297
1695713091900426200,2.24842626953125,0.9962825775146484,-5.087120056152344,-2.726226806640625
1695713091909978400,2.257978271484375,0.7962474822998047,-6.167549133300781,-2.242908477783203
1695713091919530200,2.2675302734375,-0.17607879638671875,-7.231208801269531,-2.0824012756347656
1695713091929082400,2.277082275390625,-0.6336441040039062,-8.13166618347168,-1.6517868041992188
1695713091938603800,2.286603759765625,0.17667770385742188,-9.299835205078125,-1.3789844512939453
1695713091948156000,2.296156005859375,0.9271087646484375,-10.143396377563477,-1.3074150085449219
1695713091957707800,2.305707763671875,1.2439308166503906,-9.780757904052734,-1.8146896362304688
1695713091967260000,2.315260009765625,-1.372396469116211,-8.032247543334961,-4.738256454467773
1695713091976811800,2.324811767578125,0.3575477600097656,-12.069782257080078,-2.7094573974609375
1695713091986333200,2.334333251953125,1.9731006622314453,-14.910400390625,-0.9172267913818359
1695713091995885300,2.34388525390625,3.236196517944336,-17.459949493408203,1.6595726013183594
1695713092005437200,2.353437255859375,1.1939220428466797,-18.590087890625,2.968484878540039
1695713092014989300,2.3629892578125,-0.47403526306152344,-16.652023315429688,2.2719554901123047
1695713092024510700,2.3725107421875,0.3003520965576172,-13.910524368286133,0.8603305816650391
1695713092034062800,2.382062744140625,0.9675350189208984,-12.188066482543945,0.16410064697265625
1695713092043614700,2.39161474609375,0.6698780059814453,-10.712059020996094,-0.2521400451660156
1695713092053166800,2.401166748046875,0.0026950836181640625,-9.494180679321289,-1.2235679626464844
1695713092062718700,2.41071875,-0.2832832336425781,-9.593599319458008,-1.8239727020263672
1695713092072270800,2.420270751953125,0.06707763671875,-10.557840347290039,-1.8527202606201172
1695713092081822700,2.42982275390625,0.43151283264160156,-11.278326034545898,-1.7044906616210938
1695713092091374800,2.439374755859375,0.5459041595458984,-11.29000473022461,-1.4556446075439453
1695713092100926700,2.4489267578125,0.3195171356201172,-10.394338607788086,-1.4652271270751953
1695713092110448400,2.458448486328125,0.11708641052246094,-9.617256164550781,-2.0824012756347656
1695713092120000300,2.468000244140625,0.3290996551513672,-9.200416564941406,-2.5157108306884766
1695713092129552400,2.477552490234375,0.7794780731201172,-7.811849594116211,-3.465578079223633
1695713092139104300,2.487104248046875,0.18146896362304688,-8.939592361450195,-3.4344348907470703
1695713092148625700,2.496625732421875,1.1606826782226562,-10.553348541259766,-2.2788429260253906
1695713092158177800,2.506177734375,1.6038742065429688,-9.870893478393555,-2.4198856353759766
1695713092167729700,2.515729736328125,0.6602954864501953,-11.022293090820312,-2.4534244537353516
1695713092177281800,2.52528173828125,1.449056625366211,-10.524900436401367,-1.8527202606201172
1695713092186833700,2.534833740234375,0.8747043609619141,-11.659830093383789,-1.8742809295654297
1695713092196355300,2.544355224609375,1.2822608947753906,-11.2498779296875,-1.4364795684814453
1695713092205907200,2.5539072265625,1.2154827117919922,-10.503339767456055,-1.5155353546142578
1695713092215459300,2.563459228515625,0.8866825103759766,-9.491785049438477,-1.7092819213867188
1695713092225011200,2.57301123046875,0.5863304138183594,-8.705120086669922,-1.2139854431152344
1695713092234532900,2.582532958984375,0.915130615234375,-9.508255004882812,2.776834487915039
1695713092244084700,2.592084716796875,1.0774345397949219,-9.475015640258789,3.748262405395508
1695713092253636900,2.601636962890625,-0.16410064697265625,-8.925518035888672,0.9896945953369141
1695713092263188700,2.611188720703125,-2.4636058807373047,-9.219282150268555,-0.7115020751953125
1695713092272740900,2.620740966796875,-1.5508708953857422,-9.67654800415039,-1.6326217651367188
1695713092282262300,2.63026220703125,-1.362813949584961,-9.681339263916016,-2.1638526916503906
1695713092291814100,2.639814208984375,-0.8600311279296875,-9.707391738891602,-2.1542701721191406
1695713092301366300,2.6493662109375,-0.16889190673828125,-9.932580947875977,-1.7883377075195312
1695713092310918100,2.658918212890625,-0.6432266235351562,-9.977499008178711,-1.3957538604736328
1695713092320439800,2.668439697265625,-0.7621097564697266,-10.003551483154297,-1.3574237823486328
1695713092329991700,2.67799169921875,-0.2880744934082031,-9.842445373535156,-1.5966873168945312
1695713092339543800,2.687543701171875,0.15511703491210938,-9.799922943115234,-1.6134567260742188
1695713092349095700,2.697095703125,0.2218952178955078,-9.835258483886719,-1.5895004272460938
1695713092358678300,2.70667822265625,-0.2952613830566406,-9.802019119262695,-1.6996994018554688
1695713092368199700,2.71619970703125,-0.5405139923095703,-9.704996109008789,-1.8122940063476562
1695713092377751800,2.725751708984375,-0.5024833679199219,-9.681339263916016,-1.8575115203857422
1695713092387303700,2.7353037109375,-0.36922645568847656,-9.67654800415039,-1.8335552215576172
1695713092396855800,2.744855712890625,-0.33568763732910156,-9.68613052368164,-1.8051071166992188
1695713092406377200,2.754377197265625,-0.36443519592285156,-9.65528678894043,-1.8122940063476562
1695713092415929300,2.763929443359375,-0.2832832336425781,-9.600786209106445,-1.8383464813232422
1695713092425481200,2.773481201171875,-0.18566131591796875,-9.536703109741211,-1.8551158905029297
1695713092435033300,2.783033447265625,-0.2380657196044922,-9.527420043945312,-1.8287639617919922
1695713092444585200,2.792585205078125,-0.36922645568847656,-9.551076889038086,-1.8455333709716797
1695713092454106600,2.802106689453125,-0.3904876708984375,-9.560359954833984,-1.8886547088623047
1695713092463658800,2.81165869140625,-0.2713050842285156,-9.607973098754883,-1.9533367156982422
1695713092473210600,2.821210693359375,-0.33329200744628906,-9.738235473632812,-1.9772930145263672
1695713092482762800,2.8307626953125,-0.2617225646972656,-9.60557746887207,-2.010831832885742
1695713092492284200,2.8402841796875,-0.16170501708984375,-9.527420043945312,-1.9221935272216797
1695713092501836300,2.849836181640625,-0.056896209716796875,-9.503463745117188,-1.7955245971679688
1695713092511388200,2.85938818359375,-0.08085250854492188,-9.418418884277344,-1.6853256225585938
1695713092520940300,2.868940185546875,-0.1380481719970703,-9.30462646484375,-1.6422042846679688
1695713092530461700,2.878461669921875,-0.2069225311279297,-9.252521514892578,-1.5871047973632812
1695713092540013800,2.888013916015625,-0.17847442626953125,-9.347148895263672,-1.5895004272460938
1695713092549565700,2.897565673828125,-0.16170501708984375,-9.484598159790039,-1.5966873168945312
1695713092559117800,2.907117919921875,-0.1428394317626953,-9.664569854736328,-1.5775222778320312
1695713092568669700,2.916669677734375,-0.11409187316894531,-9.747518539428711,-1.5966873168945312
1695713092578191000,2.926191162109375,-0.035335540771484375,-9.766683578491211,-1.6158523559570312
1695713092587743200,2.9357431640625,-0.059291839599609375,-9.714578628540039,-1.6661605834960938
1695713092597295000,2.945295166015625,-0.026052474975585938,-9.67654800415039,-1.6517868041992188
1695713092606847200,2.95484716796875,0.0407257080078125,-9.64570426940918,-1.5823135375976562
1695713092616368600,2.96436865234375,0.0742645263671875,-9.626838684082031,-1.4748096466064453
1695713092625920800,2.973920654296875,0.0050907135009765625,-9.664569854736328,-1.3646106719970703
1695713092635503000,2.983503173828125,-0.054500579833984375,-9.721466064453125,-1.2666893005371094
1695713092645055200,2.99305517578125,-0.1380481719970703,-9.764287948608398,-1.2163810729980469
1695713092654607000,3.002607177734375,-0.09492683410644531,-9.754705429077148,-1.2163810729980469
1695713092664128800,3.012128662109375,-0.009283065795898438,-9.690921783447266,-1.2163810729980469
1695713092673680600,3.0216806640625,0.10989952087402344,-9.624443054199219,-1.2044029235839844
1695713092683232800,3.031232666015625,0.16230392456054688,-9.598390579223633,-1.2283592224121094
1695713092692784600,3.04078466796875,0.18626022338867188,-9.634025573730469,-1.2211723327636719
1695713092702306300,3.050306396484375,0.25513458251953125,-9.695413589477539,-1.1876335144042969
1695713092711858200,3.059858154296875,0.2386646270751953,-9.709787368774414,-1.1804466247558594
1695713092721410300,3.069410400390625,0.2051258087158203,-9.704996109008789,-1.1924247741699219
1695713092730962200,3.078962158203125,0.2099170684814453,-9.700204849243164,-1.1924247741699219
1695713092740514300,3.088514404296875,0.2099170684814453,-9.657682418823242,-1.1996116638183594
1695713092750035700,3.09803564453125,0.1979389190673828,-9.626838684082031,-1.2259635925292969
1695713092759587600,3.107587646484375,0.17907333374023438,-9.598390579223633,-1.2858543395996094
1695713092769139700,3.1171396484375,0.18865585327148438,-9.569942474365234,-1.3457450866699219
1695713092778691600,3.126691650390625,0.11708641052246094,-9.634025573730469,-1.3933582305908203
1695713092788213200,3.136213134765625,0.08354759216308594,-9.707391738891602,-1.4316883087158203
1695713092797765000,3.14576513671875,0.13834762573242188,-9.693017959594727,-1.4436664581298828
1695713092807317200,3.155317138671875,0.1931476593017578,-9.634025573730469,-1.4915790557861328
1695713092816869000,3.164869140625,0.16469955444335938,-9.612464904785156,-1.5586566925048828
1695713092826421200,3.174421142578125,0.2314777374267578,-9.624443054199219,-1.6062698364257812
1695713092835942700,3.183942626953125,0.16709518432617188,-9.640913009643555,-1.6254348754882812
1695713092845494800,3.193494873046875,0.12187767028808594,-9.664569854736328,-1.6517868041992188
1695713092855046700,3.203046630859375,0.07666015625,-9.695413589477539,-1.6949081420898438
1695713092864598800,3.212598876953125,0.11229515075683594,-9.733444213867188,-1.7500076293945312
1695713092874120200,3.2221201171875,0.10271263122558594,-9.721466064453125,-1.8742809295654297
1695713092883672000,3.231672119140625,0.1979389190673828,-9.664569854736328,-2.0036449432373047
1695713092893224200,3.24122412109375,0.29106903076171875,-9.622047424316406,-2.0632362365722656
1695713092902776000,3.250776123046875,0.3434734344482422,-9.626838684082031,-2.0036449432373047
1695713092912297700,3.260297607421875,0.4006690979003906,-9.584016799926758,-1.9006328582763672
1695713092921880000,3.269880126953125,0.43869972229003906,-9.624443054199219,-1.7260513305664062
1695713092931432200,3.27943212890625,0.42911720275878906,-9.671756744384766,-1.5730304718017578
1695713092940984000,3.288984130859375,0.3506603240966797,-9.664569854736328,-1.4364795684814453
1695713092950536200,3.2985361328125,0.13355636596679688,-9.610069274902344,-1.3933582305908203
1695713092960057600,3.3080576171875,-0.03563499450683594,-9.553472518920898,-1.4053363800048828
1695713092969609700,3.317609619140625,-0.09253120422363281,-9.551076889038086,-1.4077320098876953
1695713092979161600,3.32716162109375,-0.016469955444335938,-9.600786209106445,-1.4867877960205078
1695713092988713700,3.336713623046875,0.071868896484375,-9.657682418823242,-1.5823135375976562
1695713092998235100,3.346235107421875,0.12427330017089844,-9.764287948608398,-1.6565780639648438
1695713093007787300,3.355787353515625,0.2075214385986328,-9.802019119262695,-1.6637649536132812
1695713093017339100,3.365339111328125,0.3410778045654297,-9.77596664428711,-1.6254348754882812
1695713093026891300,3.374891357421875,0.42911720275878906,-9.603181838989258,-1.5011615753173828
1695713093036412700,3.38441259765625,0.44828224182128906,-9.723861694335938,-1.4867877960205078
1695713093045964500,3.393964599609375,0.3123302459716797,-9.716974258422852,-1.5966873168945312
1695713093055516700,3.4035166015625,0.062286376953125,-9.743026733398438,-1.7524032592773438
1695713093065068500,3.413068603515625,-0.16889190673828125,-9.811601638793945,-1.9030284881591797
1695713093074620700,3.42262060546875,-0.3072395324707031,-9.847236633300781,-2.010831832885742
1695713093084142000,3.43214208984375,-0.41204833984375,-9.811601638793945,-2.084796905517578
1695713093093694200,3.441694091796875,-0.42851829528808594,-9.804414749145508,-2.132709503173828
1695713093103246000,3.45124609375,-0.45487022399902344,-9.764287948608398,-2.247699737548828
1695713093112798200,3.460798095703125,-0.43091392517089844,-9.764287948608398,-2.3384342193603516
1695713093122350000,3.47035009765625,-0.35245704650878906,-9.778362274169922,-2.4342594146728516
1695713093131871700,3.479871826171875,-0.2165050506591797,-9.80681037902832,-2.6615447998046875
1695713093141423600,3.489423583984375,0.012277603149414062,-9.941864013671875,-2.963094711303711
1695713093150975700,3.498975830078125,0.46744728088378906,-10.30689811706543,-3.3721485137939453
1695713093160527600,3.508527587890625,0.8842868804931641,-10.998636245727539,-3.7812023162841797
1695713093170049000,3.518049072265625,1.1870346069335938,-11.662225723266602,-4.121082305908203
1695713093179601200,3.52760107421875,1.2511177062988281,-12.107513427734375,-4.202533721923828
1695713093189153000,3.537153076171875,1.1750564575195312,-12.40367317199707,-3.912961959838867
1695713093198705200,3.546705078125,1.0010738372802734,-12.562383651733398,-3.257457733154297
1695713093208257000,3.556257080078125,0.5839347839355469,-12.54351806640625,-2.321664810180664
1695713093217809200,3.56580908203125,0.08115196228027344,-12.306650161743164,-1.3050193786621094
1695713093227361000,3.575361083984375,-0.35485267639160156,-11.958385467529297,-0.2737007141113281
1695713093236913200,3.5849130859375,-0.5072746276855469,-11.546037673950195,0.7144966125488281
1695713093246465000,3.594465087890625,-0.4952964782714844,-11.036666870117188,1.5041561126708984
1695713093255986700,3.603986572265625,-0.07366561889648438,-10.603057861328125,1.8317584991455078
1695713093265538600,3.61353857421875,0.3599433898925781,-10.233232498168945,1.6236381530761719
1695713093275090700,3.623090576171875,0.6294517517089844,-9.884967803955078,1.078033447265625
1695713093284642600,3.632642578125,0.8390693664550781,-9.505859375,0.4273204803466797
1695713093294164200,3.642164306640625,0.9127349853515625,-9.307022094726562,0.11379241943359375
1695713093303716000,3.651716064453125,0.7103042602539062,-9.323492050170898,0.23357391357421875
1695713093313268200,3.661268310546875,0.3910865783691406,-9.501367568969727,0.5327281951904297
1695713093322820000,3.670820068359375,-0.061687469482421875,-9.792736053466797,0.8555393218994141
1695713093332372200,3.680372314453125,-0.7788791656494141,-10.084104537963867,1.125946044921875
1695713093341893600,3.6898935546875,-1.765279769897461,-10.250001907348633,1.2457275390625
1695713093351445500,3.699445556640625,-2.561227798461914,-10.479682922363281,1.305318832397461
1695713093360997600,3.70899755859375,-2.709157943725586,-10.799798965454102,1.1427154541015625
1695713093370549500,3.718549560546875,-1.9488449096679688,-10.865978240966797,0.16410064697265625
1695713093380071200,3.7280712890625,-1.0432968139648438,-10.839925765991211,-0.8788967132568359
1695713093389623000,3.737623046875,-0.5668659210205078,-10.86837387084961,-1.4772052764892578
1695713093399175200,3.747175048828125,0.0550994873046875,-10.816268920898438,-1.8287639617919922
1695713093408727000,3.75672705078125,-0.3761138916015625,-10.600662231445312,-1.9725017547607422
1695713093418279200,3.766279052734375,-1.3152008056640625,-10.323368072509766,-1.7883377075195312
1695713093427800600,3.775800537109375,-1.779653549194336,-10.370681762695312,-1.3553276062011719
1695713093437352700,3.785352783203125,-1.720062255859375,-10.460817337036133,-0.9771175384521484
1695713093446904600,3.794904541015625,-1.5676403045654297,-10.32815933227539,-0.43151283264160156
1695713093456456700,3.804456787109375,-1.0316181182861328,-9.998760223388672,0.018266677856445312
1695713093465978000,3.81397802734375,-0.6956310272216797,-9.446866989135742,0.32221221923828125
1695713093475530000,3.823530029296875,-1.1696662902832031,-8.790464401245117,0.5423107147216797
1695713093485082000,3.83308203125,-1.8820667266845703,-8.205032348632812,0.7432441711425781
1695713093494634000,3.842634033203125,-2.368379592895508,-7.901985168457031,0.9178256988525391
1695713093504216600,3.852216552734375,-2.451627731323242,-7.87114143371582,0.9825077056884766
1695713093513738000,3.861738037109375,-2.4064102172851562,-8.06069564819336,0.9010562896728516
1695713093523290000,3.8712900390625,-2.4088058471679688,-8.333198547363281,0.8315830230712891
1695713093532842000,3.880842041015625,-2.3752670288085938,-8.508378982543945,0.7863655090332031
1695713093542394000,3.89039404296875,-2.189605712890625,-8.648223876953125,0.7672004699707031
1695713093551915500,3.89991552734375,-2.2611751556396484,-8.788068771362305,0.8315830230712891
1695713093561467600,3.909467529296875,-2.330049514770508,-8.591327667236328,0.9226169586181641
1695713093571019500,3.91901953125,-2.3159751892089844,-8.134061813354492,0.9417819976806641
1695713093580571600,3.928571533203125,-2.4779796600341797,-7.728900909423828,1.037607192993164
1695713093590123500,3.93812353515625,-2.775636672973633,-7.314157485961914,1.1307373046875
1695713093599645200,3.947645263671875,-2.9235668182373047,-6.90899658203125,1.202606201171875
1695713093609197000,3.957197021484375,-2.9783668518066406,-6.612836837768555,1.2577056884765625
1695713093618749200,3.966749267578125,-2.897214889526367,-6.409208297729492,1.2457275390625
1695713093628301000,3.976301025390625,-2.6540584564208984,-6.35710334777832,1.2097930908203125
1695713093637822500,3.985822509765625,-2.6232147216796875,-6.399625778198242,1.0660552978515625
1695713093647374600,3.99537451171875,-2.8400192260742188,-6.4969482421875,0.7480354309082031
1695713093656926500,4.004926513671875,-3.0331668853759766,-6.61762809753418,0.3434734344482422
1695713093666478600,4.014478515625,-3.2619495391845703,-6.861682891845703,-0.017667770385742188
1695713093676000000,4.024,-3.4643802642822266,-7.072498321533203,-0.2880744934082031
1695713093685552000,4.03355224609375,-3.6431541442871094,-7.245582580566406,-0.5225467681884766
1695713093695104000,4.04310400390625,-3.8051586151123047,-7.34979248046875,-0.6635894775390625
1695713093704656100,4.05265625,-3.9839324951171875,-7.390218734741211,-0.71868896484375
1695713093714208000,4.0622080078125,-4.248350143432617,-7.43992805480957,-0.6779632568359375
1695713093723729400,4.0717294921875,-4.489110946655273,-7.605825424194336,-0.6396331787109375
1695713093733281500,4.081281494140625,-4.896368026733398,-7.9990081787109375,-0.5608768463134766
1695713093742833400,4.09083349609375,-5.2967376708984375,-8.56287956237793,-0.5369205474853516
1695713093752385500,4.100385498046875,-5.580320358276367,-9.193229675292969,-0.47463417053222656
1695713093761937700,4.109937744140625,-5.792333602905273,-9.790340423583984,-0.5273380279541016
1695713093771459000,4.119458984375,-6.078311920166016,-10.399129867553711,-0.8025360107421875
1695713093781041700,4.129041748046875,-6.385551452636719,-10.982166290283203,-1.2044029235839844
1695713093790593500,4.138593505859375,-6.750286102294922,-11.427453994750977,-1.7452163696289062
1695713093800145700,4.148145751953125,-7.186290740966797,-11.685882568359375,-2.2165565490722656
1695713093809667000,4.1576669921875,-7.439029693603516,-11.688278198242188,-2.3048954010009766
1695713093819219000,4.167218994140625,-7.131490707397461,-11.306774139404297,-1.9653148651123047
1695713093828771000,4.17677099609375,-6.626312255859375,-10.42757797241211,-1.2139854431152344
1695713093838323000,4.186322998046875,-6.266668319702148,-9.167177200317383,-0.3431739807128906
1695713093847844600,4.1958447265625,-5.787542343139648,-7.726505279541016,0.3746166229248047
1695713093857396500,4.205396484375,-5.077537536621094,-6.404417037963867,1.2050018310546875
1695713093866948600,4.214948486328125,-4.581941604614258,-5.267091751098633,1.7434196472167969
1695713093876500500,4.22450048828125,-4.627159118652344,-4.606197357177734,1.7002983093261719
1695713093886052600,4.234052490234375,-4.960750579833984,-4.9805145263671875,1.319692611694336
1695713093895574000,4.243573974609375,-5.273080825805664,-6.610441207885742,1.042398452758789
1695713093905126000,4.2531259765625,-5.928285598754883,-9.228864669799805,0.5782451629638672
1695713093914678000,4.262677978515625,-7.198268890380859,-12.745050430297852,-0.40276527404785156
1695713093924230100,4.272230224609375,-8.201438903808594,-17.670764923095703,-0.6279544830322266
1695713093933751600,4.28175146484375,-6.433464050292969,-22.594383239746094,0.5686626434326172
1695713093943303400,4.291303466796875,0.503082275390625,-23.795791625976562,2.5615272521972656
1695713093952855600,4.30085546875,6.607746124267578,-20.350576400756836,4.353757858276367
1695713093962407400,4.310407470703125,2.5642223358154297,-13.218786239624023,3.9279346466064453
1695713093971959600,4.31995947265625,-6.275951385498047,-4.155818939208984,1.429891586303711
1695713093981481000,4.32948095703125,-5.72076416015625,2.2036800384521484,-0.733062744140625
1695713093991033000,4.339033203125,1.1702651977539062,3.930929183959961,-1.060964584350586
1695713094000585000,4.3485849609375,6.691293716430664,2.6774158477783203,0.4656505584716797
1695713094010137000,4.35813720703125,7.1605377197265625,-0.3626384735107422,1.7865409851074219
1695713094019658500,4.367658447265625,1.9114131927490234,-5.70549201965332,0.7719917297363281
1695713094029210400,4.37721044921875,-2.3824539184570312,-12.510278701782227,-2.326456069946289
1695713094038762500,4.386762451171875,-2.699575424194336,-18.526304244995117,-5.279069900512695
1695713094048314400,4.396314453125,-0.8124179840087891,-20.791372299194336,-6.733816146850586
1695713094057866500,4.405866455078125,0.8794956207275391,-19.02130126953125,-5.436882019042969
1695713094067418400,4.41541845703125,1.8518218994140625,-14.777742385864258,-2.9654903411865234
1695713094076970500,4.424970458984375,1.320291519165039,-10.141000747680664,-0.2665138244628906
1695713094086522600,4.434522705078125,-1.0409011840820312,-7.044050216674805,1.7649803161621094
1695713094096074500,4.444074462890625,-3.352384567260742,-5.653387069702148,2.688495635986328
1695713094105596000,4.453595947265625,-4.450780868530273,-5.454250335693359,2.757669448852539
1695713094115148000,4.46314794921875,-3.9956111907958984,-6.143892288208008,2.1141433715820312
1695713094124700000,4.472699951171875,-2.029996871948242,-7.345001220703125,0.9801120758056641
1695713094134252000,4.482251953125,0.7651042938232422,-8.92312240600586,-0.2856788635253906
1695713094143804000,4.491803955078125,2.9286575317382812,-10.31857681274414,-1.2523155212402344
1695713094153325600,4.50132568359375,3.4649791717529297,-11.015405654907227,-1.8383464813232422
1695713094162877400,4.51087744140625,2.261474609375,-10.5982666015625,-2.089588165283203
1695713094172429600,4.5204296875,0.44349098205566406,-9.321096420288086,-2.094379425048828
1695713094181981400,4.5299814453125,-0.6360397338867188,-8.26192855834961,-1.8742809295654297
1695713094191502800,4.5395029296875,-0.7504310607910156,-7.698057174682617,-1.5538654327392578
1695713094201055000,4.549054931640625,-0.45966148376464844,-7.603429794311523,-1.2738761901855469
1695713094210606800,4.55860693359375,0.1979389190673828,-8.006195068359375,-1.1109733581542969
1695713094220159000,4.568158935546875,0.8055305480957031,-8.669485092163086,-1.0585689544677734
1695713094229680400,4.577680419921875,1.0726432800292969,-9.313909530639648,-1.1325340270996094
1695713094239232500,4.587232421875,1.0438957214355469,-9.740631103515625,-1.3146018981933594
1695713094248784400,4.596784423828125,0.5150604248046875,-9.745122909545898,-1.4987659454345703
1695713094258336500,4.60633642578125,-0.1284656524658203,-9.359127044677734,-1.6278305053710938
1695713094267888400,4.615888427734375,-0.7716922760009766,-9.017749786376953,-1.6829299926757812
1695713094277410000,4.62541015625,-1.0172443389892578,-9.065362930297852,-1.5942916870117188
1695713094286962000,4.6349619140625,-0.7860660552978516,-9.342357635498047,-1.4364795684814453
1695713094296514000,4.64451416015625,-0.5072746276855469,-9.67654800415039,-1.3313713073730469
1695713094306066000,4.65406591796875,-0.5024833679199219,-9.769079208374023,-1.3550281524658203
1695713094315587300,4.66358740234375,-0.6360397338867188,-9.669361114501953,-1.3146018981933594
1695713094325139500,4.673139404296875,-0.5908222198486328,-9.51544189453125,-1.1277427673339844
1695713094334691300,4.68269140625,-0.3120307922363281,-9.43488883972168,-0.9172267913818359
1695713094344243500,4.692243408203125,-0.1428394317626953,-9.496576309204102,-0.7546234130859375
1695713094353826000,4.701825927734375,-0.3952789306640625,-9.799922943115234,-0.7474365234375
1695713094363347500,4.711347412109375,-0.819305419921875,-10.124231338500977,-0.8812923431396484
1695713094372899300,4.7208994140625,-0.9980792999267578,-10.202688217163086,-1.1516990661621094
1695713094382451500,4.730451416015625,-0.6716747283935547,-10.242815017700195,-1.3529319763183594
1695713094392003600,4.740003662109375,-0.11169624328613281,-10.370681762695312,-1.3361625671386719
1695713094401525000,4.74952490234375,0.023956298828125,-10.553348541259766,-1.1493034362792969
1695713094411076900,4.759076904296875,-0.3072395324707031,-10.614736557006836,-0.9531612396240234
1695713094420629000,4.76862890625,-0.6025009155273438,-10.503339767456055,-0.9411830902099609
1695713094430180900,4.778180908203125,-0.6932353973388672,-10.325763702392578,-1.0777339935302734
1695713094439733000,4.78773291015625,-0.6001052856445312,-10.363794326782227,-1.1229515075683594
1695713094449254400,4.79725439453125,-0.6336441040039062,-10.605453491210938,-0.9483699798583984
1695713094458806500,4.806806640625,-0.9861011505126953,-10.908500671386719,-0.752227783203125
1695713094468358400,4.8163583984375,-1.5984840393066406,-10.993844985961914,-0.83367919921875
1695713094477910500,4.82591064453125,-1.9416580200195312,-10.910896301269531,-1.3002281188964844
1695713094487432000,4.835431884765625,-1.7176666259765625,-10.904008865356445,-2.0371837615966797
1695713094496983800,4.84498388671875,-0.9052486419677734,-11.475067138671875,-2.7477874755859375
1695713094506536000,4.854535888671875,0.14074325561523438,-12.740259170532227,-3.1065330505371094
1695713094516087800,4.864087890625,1.4966697692871094,-13.730552673339844,-3.4344348907470703
1695713094525640000,4.873639892578125,2.621417999267578,-13.841949462890625,-3.6856765747070312
1695713094535161300,4.883161376953125,3.1502532958984375,-13.448467254638672,-3.297883987426758
1695713094544713500,4.89271337890625,3.1885833740234375,-12.801647186279297,-2.262073516845703
1695713094554265300,4.902265380859375,2.9574050903320312,-12.017377853393555,-1.1564903259277344
1695713094563817500,4.9118173828125,2.4378528594970703,-11.228616714477539,0.0038928985595703125
1695713094573339000,4.9213388671875,1.6206436157226562,-10.522504806518555,1.2720794677734375
1695713094582891000,4.93089111328125,0.8486518859863281,-10.055656433105469,2.3054943084716797
1695713094592443000,4.94044287109375,0.14313888549804688,-10.003551483154297,2.616626739501953
1695713094601995000,4.9499951171875,-0.5977096557617188,-10.33774185180664,2.5902748107910156
1695713094611516400,4.959516357421875,-1.7011966705322266,-10.704872131347656,2.370176315307617
1695713094621068300,4.969068359375,-3.002023696899414,-11.484350204467773,2.0949783325195312
1695713094630620400,4.978620361328125,-4.126771926879883,-12.640541076660156,1.6523857116699219
1695713094640203000,4.988203125,-5.172763824462891,-13.742530822753906,1.15948486328125
1695713094649755000,4.9977548828125,-5.539894104003906,-14.273162841796875,0.5375194549560547
1695713094659276300,5.0072763671875,-4.717594146728516,-14.296819686889648,0.30544281005859375
1695713094668828400,5.016828369140625,-2.6828060150146484,-13.96742057800293,0.5327281951904297
1695713094678380300,5.02638037109375,0.0598907470703125,-13.417922973632812,0.9920902252197266
1695713094687932400,5.035932373046875,2.7094573974609375,-12.825603485107422,1.5877037048339844
1695713094697453800,5.045453857421875,5.151802062988281,-12.287485122680664,2.461210250854492
1695713094707006000,5.055005859375,6.57929801940918,-11.650247573852539,3.274526596069336
1695713094716557800,5.064557861328125,5.156593322753906,-10.304502487182617,3.5425376892089844
1695713094726110000,5.07410986328125,2.266265869140625,-8.577253341674805,2.8510990142822266
1695713094735661800,5.083661865234375,-1.0816268920898438,-7.072498321533203,1.377187728881836
1695713094745183500,5.09318359375,-3.195171356201172,-6.117839813232422,0.8387699127197266
1695713094754735400,5.1027353515625,-3.3595714569091797,-5.771671295166016,0.8459568023681641
1695713094764287500,5.11228759765625,-3.2667407989501953,-5.895046234130859,0.8151130676269531
1695713094773839400,5.12183935546875,-2.947223663330078,-6.240915298461914,1.14031982421875
1695713094783360800,5.13136083984375,-3.1044368743896484,-6.468500137329102,1.4370784759521484
1695713094792913000,5.140912841796875,-4.353158950805664,-6.458917617797852,1.7865409851074219
1695713094802464800,5.15046484375,-1.710479736328125,-6.688898086547852,1.8078022003173828
1695713094812017000,5.160016845703125,-0.5572834014892578,-6.331050872802734,1.6020774841308594
1695713094821568800,5.16956884765625,-0.7884616851806641,-6.022912979125977,1.5493736267089844
1695713094831090400,5.17909033203125,-0.6620922088623047,-5.511146545410156,1.5781211853027344
1695713094840642300,5.188642333984375,-0.7812747955322266,-5.051485061645508,1.6212425231933594
1695713094850194400,5.1981943359375,-1.1412181854248047,-4.679563522338867,1.6068687438964844
1695713094859746300,5.207746337890625,-1.660470962524414,-4.407060623168945,1.5733299255371094
1695713094869268000,5.21726806640625,-2.1324100494384766,-4.229484558105469,1.5589561462402344
1695713094878819800,5.22681982421875,-2.6471710205078125,-4.1204833984375,1.5924949645996094
1695713094888372000,5.2363720703125,-3.1331844329833984,-4.087244033813477,1.5424861907958984
1695713094897923800,5.245923828125,-3.6048240661621094,-4.148931503295898,1.314901351928711
1695713094907476000,5.25547607421875,-4.048015594482422,-4.364538192749023,0.9944858551025391
1695713094916997400,5.264997314453125,-4.524745941162109,-4.693637847900391,0.7312660217285156
1695713094926580000,5.274580078125,-4.917928695678711,-5.148807525634766,0.5662670135498047
1695713094936131800,5.2841318359375,-5.04429817199707,-5.918703079223633,0.3554515838623047
1695713094945684000,5.29368408203125,-5.127546310424805,-7.022789001464844,-0.0032939910888671875
1695713094955205400,5.303205322265625,-5.441972732543945,-8.468252182006836,-0.3599433898925781
1695713094964757200,5.31275732421875,-5.73992919921875,-10.23802375793457,-0.49619483947753906
1695713094974309400,5.322309326171875,-5.975898742675781,-12.266223907470703,-0.41713905334472656
1695713094983861200,5.331861328125,-6.1831207275390625,-14.135713577270508,-0.3048439025878906
1695713094993383000,5.3413828125,-6.673925399780273,-15.327539443969727,-0.20662307739257812
1695713095002934800,5.350934814453125,-7.751060485839844,-15.716230392456055,-0.06797599792480469
1695713095012487000,5.36048681640625,-9.12824821472168,-15.374853134155273,0.23357391357421875
1695713095022038800,5.370038818359375,-10.324565887451172,-14.145296096801758,0.6761665344238281
1695713095031591000,5.3795908203125,-9.936174392700195,-12.105117797851562,1.0495853424072266
1695713095041112300,5.3891123046875,-7.667812347412109,-9.387575149536133,1.2457275390625
1695713095050664400,5.39866455078125,-5.432689666748047,-6.359498977661133,1.2529144287109375
1695713095060216300,5.40821630859375,-4.605598449707031,-3.7506580352783203,1.2337493896484375
1695713095069768400,5.4177685546875,-4.789163589477539,-2.4001216888427734,1.1810455322265625
1695713095079289900,5.427289794921875,-5.144315719604492,-2.795999526977539,1.0400028228759766
1695713095088841700,5.436841796875,-5.639911651611328,-5.011358261108398,0.7049140930175781
1695713095098393900,5.446393798828125,-6.890729904174805,-8.23138427734375,-0.17787551879882812
1695713095107945700,5.45594580078125,-8.973430633544922,-12.664497375488281,-0.9172267913818359
1695713095117497900,5.465497802734375,-8.053808212280273,-18.163665771484375,-0.3168220520019531
1695713095127019300,5.475019287109375,-0.8600311279296875,-21.53761100769043,1.3460445404052734
1695713095136571400,5.4845712890625,7.675298690795898,-22.653675079345703,4.636142730712891
1695713095146123300,5.494123291015625,11.74038314819336,-21.25582504272461,8.117292404174805
1695713095155675400,5.50367529296875,0.8079261779785156,-12.941492080688477,7.61241340637207
1695713095165196800,5.51319677734375,-6.073520660400391,-1.4691200256347656,1.2481231689453125
1695713095174749000,5.5227490234375,-0.42612266540527344,3.6512393951416016,-0.5033817291259766
1695713095184300800,5.53230078125,4.103414535522461,4.124975204467773,1.4322872161865234
1695713095193853000,5.54185302734375,3.3146533966064453,3.120607376098633,3.0496368408203125
1695713095203404800,5.55140478515625,-2.5492496490478516,-1.6134567260742188,2.0114307403564453
1695713095212957000,5.56095703125,-3.9887237548828125,-9.835258483886719,0.05180549621582031
1695713095222508800,5.5705087890625,-1.720062255859375,-16.47444725036621,-1.9269847869873047
1695713095232061000,5.58006103515625,1.022634506225586,-20.170604705810547,-3.6066207885742188
1695713095241612800,5.58961279296875,3.2646446228027344,-20.540130615234375,-3.817136764526367
1695713095251134200,5.59913427734375,3.707836151123047,-17.670764923095703,-2.659149169921875
1695713095260686300,5.608686279296875,2.6402835845947266,-12.37282943725586,-0.46984291076660156
1695713095270238200,5.61823828125,0.10510826110839844,-8.579648971557617,1.3652095794677734
1695713095279790300,5.627790283203125,-1.7368316650390625,-6.4897613525390625,2.4444408416748047
1695713095289342200,5.63734228515625,-1.6463966369628906,-5.933076858520508,2.568714141845703
1695713095298863900,5.64686376953125,-0.6504135131835938,-6.06573486328125,1.9922657012939453
1695713095308415700,5.656415771484375,0.14793014526367188,-6.539470672607422,1.0708465576171875
1695713095317968000,5.6659677734375,1.1274433135986328,-7.5773773193359375,0.25513458251953125
1695713095327519700,5.675519775390625,1.2535133361816406,-8.591327667236328,-0.21380996704101562
1695713095337041400,5.68504150390625,1.0534782409667969,-9.636421203613281,-0.3048439025878906
1695713095346593300,5.69459326171875,0.25992584228515625,-10.09817886352539,-0.17547988891601562
1695713095356145400,5.7041455078125,-0.2856788635253906,-9.849632263183594,-0.07037162780761719
1695713095365697300,5.713697265625,-0.1308612823486328,-9.141124725341797,0.011079788208007812
1695713095375218700,5.72321875,0.8414649963378906,-8.444595336914062,0.06857490539550781
1695713095384770800,5.732770751953125,1.1702651977539062,-8.21221923828125,0.4608592987060547
1695713095394322700,5.74232275390625,0.8031349182128906,-8.209823608398438,0.9130344390869141
1695713095403874800,5.751874755859375,0.29346466064453125,-8.437408447265625,1.135528564453125
1695713095413426700,5.7614267578125,-0.18566131591796875,-8.681463241577148,1.212188720703125
1695713095422948400,5.7709482421875,-0.36443519592285156,-8.764411926269531,0.9178256988525391
1695713095432500200,5.780500244140625,-0.5360221862792969,-8.69314193725586,0.5087718963623047
1695713095442052400,5.79005224609375,-0.5524921417236328,-8.610193252563477,0.15451812744140625
1695713095451604200,5.799604248046875,-0.4024658203125,-8.626962661743164,-0.027250289916992188
1695713095461126000,5.8091259765625,-0.2165050506591797,-8.92312240600586,-0.05120658874511719
1695713095470677800,5.818677734375,-0.2952613830566406,-9.323492050170898,-0.11109733581542969
1695713095480230000,5.82822998046875,-0.7384529113769531,-9.702600479125977,-0.22578811645507812
1695713095489781800,5.83778173828125,-1.3508358001708984,-9.925394058227539,-0.2593269348144531
1695713095499364400,5.8473642578125,-1.6128578186035156,-9.958633422851562,-0.2569313049316406
1695713095508885800,5.8568857421875,-1.4271965026855469,-9.878080368041992,-0.20183181762695312
1695713095518438000,5.86643798828125,-1.0244312286376953,-9.813997268676758,-0.14433670043945312
1695713095527989800,5.87598974609375,-0.6525096893310547,-9.967916488647461,-0.010480880737304688
1695713095537542000,5.8855419921875,-0.3856964111328125,-10.29731559753418,0.027849197387695312
1695713095547063300,5.895063232421875,-0.44289207458496094,-10.894426345825195,0.05899238586425781
1695713095556615200,5.904615234375,-0.6312484741210938,-11.287609100341797,-0.12067985534667969
1695713095566167300,5.914167236328125,-0.5860309600830078,-11.52956771850586,-0.5608768463134766
1695713095575719200,5.92371923828125,-0.34766578674316406,-11.52956771850586,-1.0585689544677734
1695713095585271300,5.933271240234375,-0.15451812744140625,-11.505611419677734,-1.3481407165527344
1695713095594792700,5.942792724609375,-0.2212963104248047,-11.688278198242188,-1.104085922241211
1695713095604344800,5.9523447265625,-0.5264396667480469,-11.97245979309082,-0.7689971923828125
1695713095613896700,5.961896728515625,-1.0648574829101562,-12.396486282348633,-0.6492156982421875
1695713095623448800,5.97144873046875,-1.3104095458984375,-13.585916519165039,-0.45786476135253906
1695713095632970200,5.98097021484375,-0.9196224212646484,-15.024192810058594,-0.3431739807128906
1695713095642522400,5.9905224609375,0.009881973266601562,-15.322748184204102,-0.6087894439697266
1695713095652074200,6.00007421875,1.1226520538330078,-14.924774169921875,-0.9651393890380859
1695713095661626400,6.00962646484375,2.1138439178466797,-14.443851470947266,-0.6827545166015625
1695713095671178200,6.01917822265625,2.587879180908203,-13.574237823486328,0.22159576416015625
1695713095680699600,6.02869970703125,2.330648422241211,-11.768831253051758,1.2073974609375
1695713095690251800,6.038251708984375,1.6991004943847656,-9.858915328979492,2.303098678588867
1695713095699803600,6.0478037109375,1.0250301361083984,-9.036914825439453,3.935121536254883
1695713095709355800,6.057355712890625,0.6935348510742188,-9.335470199584961,5.401546478271484
1695713095718877200,6.066877197265625,0.6674823760986328,-10.276054382324219,5.813295364379883
1695713095728429300,6.07642919921875,0.16230392456054688,-11.036666870117188,5.631227493286133
1695713095737981200,6.085981201171875,-0.6480178833007812,-12.029356002807617,5.327581405639648
1695713095747533300,6.095533203125,-1.2268619537353516,-12.946283340454102,5.083526611328125
1695713095757085200,6.105085205078125,-1.6820316314697266,-13.53620719909668,4.894571304321289
1695713095766606800,6.11460693359375,-2.511219024658203,-13.749418258666992,4.664590835571289
1695713095776158700,6.12415869140625,-3.6644153594970703,-13.164285659790039,4.059394836425781
1695713095785741300,6.1337412109375,-3.7812023162841797,-12.557592391967773,3.621593475341797
1695713095795293200,6.143293212890625,-2.799592971801758,-12.301858901977539,3.3775386810302734
1695713095804814800,6.15281494140625,-0.8956661224365234,-11.884719848632812,3.11431884765625
1695713095814366700,6.16236669921875,1.8087005615234375,-11.628986358642578,2.8271427154541016
1695713095823918800,6.1719189453125,4.351362228393555,-11.664621353149414,2.611835479736328
1695713095833470700,6.181470703125,6.026506423950195,-11.354087829589844,2.2099685668945312
1695713095843022800,6.19102294921875,6.143293380737305,-10.1766357421875,1.3939571380615234
1695713095852544300,6.200544189453125,3.567392349243164,-8.278697967529297,0.4464855194091797
1695713095862096100,6.21009619140625,-3.7075366973876953,-7.617504119873047,-0.5800418853759766
1695713095871648300,6.219648193359375,-4.162406921386719,-4.47114372253418,0.9681339263916016
1695713095881200000,6.2292001953125,0.6318473815917969,-4.170192718505859,1.25531005859375
1695713095890721800,6.2387216796875,0.5198516845703125,-5.741127014160156,1.25531005859375
1695713095900273700,6.248273681640625,-0.7288703918457031,-6.963497161865234,1.4706172943115234
1695713095909825800,6.25782568359375,-0.2880744934082031,-7.487241744995117,1.7769584655761719
1695713095919377700,6.267377685546875,-3.07598876953125,-7.427949905395508,2.1836166381835938
1695713095928899300,6.2768994140625,-3.8360023498535156,-7.252769470214844,2.762460708618164
1695713095938451200,6.286451171875,-3.1475582122802734,-6.655658721923828,3.0448455810546875
1695713095948003300,6.29600341796875,-2.0323925018310547,-5.786045074462891,3.11431884765625
1695713095957555200,6.30555517578125,-1.1004924774169922,-4.828691482543945,2.920572280883789
1695713095967107300,6.315107421875,-0.6716747283935547,-3.9450035095214844,2.535175323486328
1695713095976628700,6.324628662109375,-0.8765010833740234,-3.290996551513672,2.0901870727539062
1695713095986180600,6.3341806640625,-1.5508708953857422,-2.8834400177001953,1.6907157897949219
1695713095995732700,6.343732666015625,-2.4135971069335938,-2.765155792236328,1.4418697357177734
1695713096005284600,6.35328466796875,-3.09515380859375,-2.7058639526367188,1.2193756103515625
1695713096014836700,6.362836669921875,-3.407184600830078,-2.9238662719726562,1.193023681640625
1695713096024358100,6.372358154296875,-3.531158447265625,-3.371549606323242,1.348440170288086
1695713096033910300,6.38191015625,-3.657228469848633,-3.757844924926758,1.415517807006836
1695713096043462100,6.391462158203125,-3.5452327728271484,-4.312433242797852,1.3364620208740234
1695713096053014300,6.40101416015625,-3.53594970703125,-5.18414306640625,1.260101318359375
1695713096062535700,6.41053564453125,-3.8195323944091797,-6.418790817260742,1.2577056884765625
1695713096072118300,6.4201181640625,-4.493602752685547,-8.143644332885742,1.334066390991211
1695713096081670100,6.429670166015625,-5.680337905883789,-10.323368072509766,1.343648910522461
1695713096091222300,6.43922216796875,-7.0838775634765625,-12.927417755126953,0.9657382965087891
1695713096100743700,6.44874365234375,-8.14903450012207,-15.85128402709961,0.5351238250732422
1695713096110295800,6.4582958984375,-8.675474166870117,-18.514326095581055,0.7624092102050781
1695713096119847700,6.46784765625,-9.438182830810547,-19.966676712036133,1.4370784759521484
1695713096129399800,6.47739990234375,-11.132192611694336,-19.537858963012695,2.544757843017578
1695713096138951700,6.48695166015625,-11.246583938598633,-16.116600036621094,3.3775386810302734
1695713096148473000,6.49647314453125,-7.603429794311523,-10.349420547485352,3.511394500732422
1695713096158025200,6.506025146484375,-3.7311935424804688,-4.217506408691406,2.906198501586914
1695713096167577000,6.5155771484375,-2.8256454467773438,0.16350173950195312,2.7196388244628906
1695713096177129200,6.525129150390625,-3.9099674224853516,1.760488510131836,3.0304718017578125
1695713096186650600,6.534650634765625,-4.369928359985352,0.1302623748779297,3.389516830444336
1695713096196202800,6.54420263671875,-4.8798980712890625,-3.5611038208007812,3.05682373046875
1695713096205754600,6.553754638671875,-5.782751083374023,-9.418418884277344,3.4062862396240234
1695713096215306800,6.563306640625,-6.361894607543945,-16.099830627441406,4.315427780151367
1695713096224858600,6.572858642578125,-4.489110946655273,-21.492692947387695,5.234151840209961
1695713096234380300,6.58238037109375,2.3522090911865234,-25.030139923095703,7.428249359130859
1695713096243932200,6.59193212890625,8.981216430664062,-24.248266220092773,9.387874603271484
1695713096253484300,6.601484375,0.0074863433837890625,-15.547937393188477,3.2005615234375
1695713096263036200,6.6110361328125,-5.511146545410156,-5.347644805908203,-3.6114120483398438
1695713096272557600,6.6205576171875,3.0954532623291016,1.0235328674316406,-3.812345504760742
1695713096282109700,6.630109619140625,7.749263763427734,3.253265380859375,-0.8908748626708984
1695713096291661600,6.63966162109375,5.347345352172852,2.8978137969970703,1.3460445404052734
1695713096301213700,6.649213623046875,0.019464492797851562,-1.281961441040039,1.415517807006836
1695713096310735000,6.658735107421875,-2.4444408416748047,-8.551200866699219,0.9944858551025391
1695713096320287200,6.668287353515625,-1.798818588256836,-14.912796020507812,0.5207500457763672
1695713096329839000,6.677839111328125,-0.2069225311279297,-18.483482360839844,-0.17787551879882812
1695713096339391200,6.68739111328125,0.5746517181396484,-19.57349395751953,-0.41474342346191406
1695713096348943000,6.696943115234375,0.6935348510742188,-18.09958267211914,-0.1254711151123047
1695713096358495200,6.7064951171875,0.8222999572753906,-13.531415939331055,0.8914737701416016
1695713096368047000,6.716047119140625,0.18386459350585938,-9.674152374267578,2.3342418670654297
1695713096377599200,6.72559912109375,-0.416839599609375,-7.274030685424805,3.4994163513183594
1695713096387151000,6.735151123046875,-0.2952613830566406,-6.342729568481445,3.7889881134033203
1695713096396672800,6.7446728515625,-0.33568763732910156,-5.989673614501953,3.1406707763671875
1695713096406224600,6.754224609375,0.1955432891845703,-6.300207138061523,1.9898700714111328
1695713096415776800,6.76377685546875,1.2654914855957031,-7.520481109619141,0.9657382965087891
1695713096425328600,6.77332861328125,1.3514347076416016,-8.624567031860352,0.6162757873535156
1695713096434880800,6.782880859375,1.0867176055908203,-9.517837524414062,0.5590801239013672
1695713096444402200,6.792402099609375,0.483917236328125,-9.858915328979492,0.7336616516113281
1695713096453954000,6.8019541015625,-0.12367439270019531,-9.640913009643555,0.6761665344238281
1695713096463506200,6.811506103515625,-0.3809051513671875,-8.95396614074707,0.4153423309326172
1695713096473058000,6.82105810546875,0.2194995880126953,-8.321220397949219,0.23357391357421875
1695713096482579700,6.830579833984375,1.384674072265625,-8.053508758544922,0.14733123779296875
1695713096492131600,6.840131591796875,1.3990478515625,-8.188562393188477,0.3913860321044922
1695713096501683700,6.84968359375,1.1343307495117188,-8.468252182006836,0.6042976379394531
1695713096511235600,6.859235595703125,0.8914737701416016,-8.671880722045898,0.5827369689941406
1695713096520787700,6.86878759765625,0.2338733673095703,-8.759620666503906,0.4800243377685547
1695713096530309000,6.87830908203125,-0.2928657531738281,-8.849756240844727,0.32460784912109375
1695713096539861200,6.887861328125,-0.6596965789794922,-8.975227355957031,0.16410064697265625
1695713096549413000,6.8974130859375,-0.819305419921875,-8.972831726074219,0.06857490539550781
1695713096558965200,6.90696533203125,-0.6480178833007812,-8.897069931030273,0.15930938720703125
1695713096568486700,6.916486572265625,-0.5000877380371094,-8.901861190795898,0.3841991424560547
1695713096578038500,6.92603857421875,-0.6025009155273438,-8.99409294128418,0.5827369689941406
1695713096587590700,6.935590576171875,-0.9172267913818359,-9.107885360717773,0.6809577941894531
1695713096597142500,6.945142578125,-1.2316532135009766,-9.268991470336914,0.6593971252441406
1695713096606694700,6.954694580078125,-1.348440170288086,-9.458545684814453,0.5351238250732422
1695713096616216000,6.964216064453125,-1.0816268920898438,-9.64570426940918,0.31502532958984375
1695713096625768200,6.973768310546875,-0.5381183624267578,-9.941864013671875,0.025453567504882812
1695713096635320000,6.983320068359375,0.02874755859375,-10.515317916870117,-0.06558036804199219
1695713096644902700,6.992902587890625,0.43390846252441406,-11.157346725463867,0.14014434814453125
1695713096654424000,7.002424072265625,0.44828224182128906,-11.463088989257812,0.4776287078857422
1695713096663976200,7.01197607421875,-0.023656845092773438,-11.408588409423828,0.6306495666503906
1695713096673528000,7.021528076171875,-0.7384529113769531,-11.29958724975586,0.7049140930175781
1695713096683080200,7.031080078125,-1.214883804321289,-11.176511764526367,0.9441776275634766
1695713096692601600,7.0406015625,-1.3316707611083984,-11.375349044799805,1.4322872161865234
1695713096702153700,7.05015380859375,-1.4224052429199219,-11.702352523803711,1.9180011749267578
1695713096711705600,7.05970556640625,-1.7059879302978516,-11.868249893188477,2.0018482208251953
1695713096721257700,7.0692578125,-1.8416404724121094,-11.873041152954102,1.6164512634277344
1695713096730809600,7.0788095703125,-1.3936576843261719,-12.126379013061523,1.1427154541015625
1695713096740331000,7.0883310546875,-0.5405139923095703,-13.159494400024414,1.0612640380859375
1695713096749883100,7.097883056640625,0.0646820068359375,-13.794635772705078,0.7073097229003906
1695713096759435000,7.10743505859375,1.003469467163086,-13.770978927612305,-0.06318473815917969
1695713096768987100,7.116987060546875,1.9970569610595703,-13.754209518432617,-0.5944156646728516
1695713096778508500,7.126508544921875,2.6498661041259766,-13.574237823486328,-0.723480224609375
1695713096788060700,7.136060791015625,2.7690486907958984,-12.699832916259766,-0.5393161773681641
1695713096797612500,7.145612548828125,2.256683349609375,-11.325639724731445,0.20482635498046875
1695713096807164700,7.15516455078125,1.7254524230957031,-10.285636901855469,1.7506065368652344
1695713096816716500,7.164716552734375,1.5299091339111328,-9.640913009643555,3.5760765075683594
1695713096826238000,7.174238037109375,1.6110610961914062,-9.373201370239258,5.205404281616211
1695713096835790000,7.1837900390625,1.1082782745361328,-9.982290267944336,6.13850212097168
1695713096845342000,7.193342041015625,-0.016469955444335938,-10.823455810546875,6.160062789916992
1695713096854894000,7.20289404296875,-0.9480705261230469,-12.117095947265625,5.951942443847656
1695713096864415500,7.21241552734375,-1.5960884094238281,-13.192733764648438,5.748613357543945
1695713096873967600,7.221967529296875,-2.921171188354492,-13.427206039428711,5.282064437866211
1695713096883519500,7.23151953125,-4.58433723449707,-13.221181869506836,4.466053009033203
1695713096893071600,7.241071533203125,-4.987102508544922,-12.564779281616211,3.432638168334961
1695713096902623500,7.25062353515625,-3.907571792602539,-11.733196258544922,2.776834487915039
1695713096912145200,7.260145263671875,-1.8988361358642578,-11.30916976928711,2.669330596923828
1695713096921697000,7.269697021484375,0.8486518859863281,-11.287609100341797,2.973276138305664
1695713096931279600,7.279279541015625,4.141744613647461,-11.716726303100586,3.4302425384521484
1695713096940831500,7.28883154296875,7.086872100830078,-11.917959213256836,3.525768280029297
1695713096950353200,7.298353271484375,7.527667999267578,-11.022293090820312,2.650165557861328
1695713096959905000,7.307905029296875,5.030523300170898,-9.008466720581055,1.2672882080078125
1695713096969457200,7.31745703125,0.9366912841796875,-7.949298858642578,0.5063762664794922
1695713096979009000,7.327009033203125,-1.9156055450439453,-7.496824264526367,0.4321117401123047
1695713096988561200,7.33656103515625,-3.2688369750976562,-7.124603271484375,0.7168922424316406
1695713096998082600,7.34608251953125,-3.585958480834961,-6.435260772705078,1.2073974609375
1695713097007634400,7.355634521484375,-3.357175827026367,-5.899837493896484,1.9395618438720703
1695713097017186600,7.3651865234375,-3.161632537841797,-5.568042755126953,2.7983951568603516
1695713097026738700,7.37473876953125,-2.9496192932128906,-5.660573959350586,3.530559539794922
1695713097036260000,7.384260009765625,-2.368379592895508,-5.762388229370117,3.9491958618164062
1695713097045812000,7.39381201171875,-1.4912796020507812,-5.698305130004883,3.853670120239258
1695713097055364000,7.403364013671875,-0.8100223541259766,-5.338361740112305,3.2338008880615234
1695713097064916000,7.412916015625,-0.5620746612548828,-4.923618316650391,2.738504409790039
1695713097074437600,7.422437744140625,-0.6096878051757812,-4.501688003540039,2.331846237182617
1695713097083989500,7.431989501953125,-0.7836704254150391,-4.084848403930664,2.0350875854492188
1695713097093541600,7.441541748046875,-1.0816268920898438,-3.7506580352783203,1.8581104278564453
1695713097103093500,7.451093505859375,-1.698801040649414,-3.4829463958740234,1.7625846862792969
1695713097112645600,7.460645751953125,-2.3848495483398438,-3.3526840209960938,1.6955070495605469
1695713097122167000,7.4701669921875,-3.011606216430664,-3.321840286254883,1.6787376403808594
1695713097131719000,7.479718994140625,-3.571584701538086,-3.407184600830078,1.6883201599121094
1695713097141271000,7.48927099609375,-3.9908199310302734,-3.5682907104492188,1.6068687438964844
1695713097150823000,7.498822998046875,-4.181571960449219,-3.937816619873047,1.4706172943115234
1695713097160344600,7.508344482421875,-4.343576431274414,-4.717594146728516,1.3412532806396484
1695713097169896400,7.517896484375,-4.755924224853516,-5.876180648803711,1.23614501953125
1695713097179448600,7.527448486328125,-5.373098373413086,-7.359375,1.3268795013427734
1695713097189000400,7.53700048828125,-6.33793830871582,-9.373201370239258,1.6811332702636719
1695713097198552600,7.546552490234375,-7.443521499633789,-11.766435623168945,2.2123641967773438
1695713097208074000,7.556073974609375,-7.97265625,-14.280349731445312,2.891824722290039
1695713097217656600,7.565656494140625,-7.810651779174805,-16.48373031616211,3.5425376892089844
1695713097227208400,7.57520849609375,-7.517486572265625,-17.62584686279297,4.013877868652344
1695713097236760600,7.584760498046875,-8.299060821533203,-17.369813919067383,4.320219039916992
1695713097246282000,7.594281982421875,-9.7550048828125,-15.5811767578125,4.523548126220703
1695713097255834000,7.603834228515625,-9.857418060302734,-12.266223907470703,4.30824089050293
1695713097265386000,7.613385986328125,-6.862281799316406,-8.110404968261719,3.664714813232422
1695713097274938000,7.622938232421875,-3.5643978118896484,-4.068378448486328,2.829538345336914
1695713097284490000,7.632489990234375,-2.699575424194336,-1.3909626007080078,2.6765174865722656
1695713097294011400,7.642011474609375,-3.352384567260742,-0.9878978729248047,3.2960872650146484
1695713097303563500,7.6515634765625,-3.8051586151123047,-2.6678333282470703,3.863252639770508
1695713097313115400,7.661115478515625,-4.195945739746094,-5.541990280151367,3.540142059326172
1695713097322667500,7.67066748046875,-5.642307281494141,-8.989301681518555,3.389516830444336
1695713097332189000,7.68018896484375,-7.770225524902344,-13.46523666381836,4.128868103027344
1695713097341741000,7.689740966796875,-9.385778427124023,-19.04046630859375,4.803537368774414
1695713097351293000,7.69929296875,-6.242712020874023,-21.615768432617188,5.0092620849609375
1695713097360845000,7.708844970703125,2.175830841064453,-18.061851501464844,5.62883186340332
1695713097370397000,7.71839697265625,4.632549285888672,-12.370433807373047,3.848878860473633
1695713097379918600,7.727918701171875,-0.07845687866210938,-5.641408920288086,-0.17787551879882812
1695713097389470500,7.737470458984375,4.170192718505859,-0.6492156982421875,-0.8408660888671875
1695713097399022600,7.747022705078125,7.022489547729492,1.1229515075683594,0.5995063781738281
1695713097408574500,7.756574462890625,3.331422805786133,0.2084197998046875,2.0925827026367188
1695713097418095900,7.766095947265625,-3.631175994873047,-4.316925048828125,1.3077144622802734
1695713097427648000,7.77564794921875,-5.349142074584961,-11.399005889892578,-0.38839149475097656
1695713097437200000,7.785199951171875,-1.779653549194336,-16.26333236694336,-1.046590805053711
1695713097446752000,7.794751953125,1.899435043334961,-18.075925827026367,-0.8908748626708984
1695713097456303900,7.804303955078125,4.24894905090332,-18.20648765563965,-0.20422744750976562
1695713097465825500,7.813825439453125,4.241762161254883,-16.678075790405273,0.5447063446044922
1695713097475377400,7.82337744140625,2.2926177978515625,-13.48649787902832,1.439474105834961
1695713097484929500,7.832929443359375,-0.6120834350585938,-10.460817337036133,2.9229679107666016
1695713097494481400,7.8424814453125,-2.8543930053710938,-8.427825927734375,4.025856018066406
1695713097504033500,7.852033447265625,-3.7311935424804688,-7.079685211181641,4.056999206542969
1695713097513585400,7.86158544921875,-4.033941268920898,-6.4969482421875,3.540142059326172
1695713097523137500,7.871137451171875,-3.1544456481933594,-6.610740661621094,2.901407241821289
1695713097532689400,7.880689453125,-0.9840049743652344,-7.281217575073242,2.298307418823242
1695713097542211000,7.890211181640625,1.453847885131836,-8.31193733215332,1.8892536163330078
1695713097551763000,7.899762939453125,3.681783676147461,-9.35433578491211,1.6260337829589844
1695713097561315000,7.909315185546875,4.537023544311523,-9.821184158325195,1.2289581298828125
1695713097570867000,7.918866943359375,2.9954357147216797,-9.491785049438477,0.8339786529541016
1695713097580419000,7.928419189453125,0.13834762573242188,-8.764411926269531,0.6162757873535156
1695713097589940500,7.9379404296875,-1.8820667266845703,-8.157718658447266,0.6306495666503906
1695713097599492400,7.947492431640625,-1.765279769897461,-7.705244064331055,0.8246955871582031
1695713097609044500,7.95704443359375,-0.6836528778076172,-7.5677947998046875,1.1427154541015625
1695713097618596400,7.966596435546875,0.2075214385986328,-7.833110809326172,1.525716781616211
1695713097628118000,7.976117919921875,0.6174736022949219,-8.136457443237305,1.7697715759277344
1695713097637670000,7.985669921875,0.6911392211914062,-8.278697967529297,1.7242546081542969
1695713097647222000,7.995221923828125,0.43869972229003906,-8.333198547363281,1.501760482788086
1695713097656774000,8.00477392578125,-0.061687469482421875,-8.323616027832031,1.1475067138671875
1695713097666326000,8.014325927734374,-0.5740528106689453,-8.39249038696289,0.7695960998535156
1695713097675847400,8.023847412109374,-0.8052310943603516,-8.610193252563477,0.5063762664794922
1695713097685399600,8.033399658203125,-0.8956661224365234,-8.901861190795898,0.4416942596435547
1695713097694951400,8.042951416015624,-0.9504661560058594,-9.16478157043457,0.6162757873535156
1695713097704503600,8.052503662109375,-0.8836879730224609,-9.280969619750977,0.8222999572753906
1695713097714025000,8.06202490234375,-0.7597141265869141,-9.328283309936523,1.013650894165039
1695713097723576800,8.071576904296874,-0.6240615844726562,-9.330678939819336,1.2097930908203125
1695713097733129000,8.08112890625,-0.2904701232910156,-9.468128204345703,1.4131221771240234
1695713097742680800,8.090680908203124,-0.16410064697265625,-9.65528678894043,1.6356163024902344
1695713097752233000,8.10023291015625,-0.3000526428222656,-9.72625732421875,1.8652973175048828
1695713097761754400,8.10975439453125,-0.2760963439941406,-9.821184158325195,1.8317584991455078
1695713097771306500,8.119306396484374,-0.19284820556640625,-10.228740692138672,1.6835289001464844
1695713097780858400,8.1288583984375,-0.2689094543457031,-10.825851440429688,1.501760482788086
1695713097790441000,8.13844091796875,-0.46445274353027344,-11.38972282409668,1.305318832397461
1695713097799962400,8.14796240234375,-0.7004222869873047,-11.690673828125,1.0660552978515625
1695713097809514500,8.157514404296874,-1.0244312286376953,-11.659830093383789,0.8315830230712891
1695713097819066400,8.16706640625,-1.1412181854248047,-11.51998519897461,0.9393863677978516
1695713097828618500,8.176618408203124,-1.30322265625,-11.581672668457031,1.377187728881836
1695713097838140000,8.186139892578124,-1.5772228240966797,-11.754457473754883,1.7601890563964844
1695713097847692000,8.195692138671875,-2.2015838623046875,-12.131170272827148,1.9563312530517578
1695713097857244000,8.205243896484374,-2.487262725830078,-12.221305847167969,1.6212425231933594
1695713097866796000,8.214796142578125,-2.0680274963378906,-12.05301284790039,1.0016727447509766
1695713097876348000,8.224347900390624,-1.1912269592285156,-12.048221588134766,0.5734539031982422
1695713097885869300,8.233869384765624,0.07666015625,-12.363546371459961,0.23357391357421875
1695713097895421400,8.24342138671875,1.5038566589355469,-12.688154220581055,-0.14912796020507812
1695713097904973300,8.252973388671874,2.6690311431884766,-12.529443740844727,-0.41953468322753906
1695713097914525400,8.262525390625,3.1742095947265625,-11.830219268798828,-0.46265602111816406
1695713097924046800,8.272046875,3.312257766723633,-11.231012344360352,-0.2784919738769531
1695713097933599000,8.281598876953124,2.8978137969970703,-11.152555465698242,0.6498146057128906
1695713097943150800,8.29115087890625,1.5418872833251953,-11.47027587890625,2.2482986450195312
1695713097952703000,8.300702880859374,-0.011678695678710938,-11.548433303833008,3.8656482696533203
1695713097962254800,8.3102548828125,-1.3652095794677734,-11.235504150390625,5.1146697998046875
1695713097971776500,8.319776611328125,-2.3611927032470703,-11.61221694946289,5.784547805786133
1695713097981328400,8.329328369140624,-2.740001678466797,-12.450986862182617,5.865699768066406
1695713097990880500,8.338880615234375,-2.8115711212158203,-13.377496719360352,5.803712844848633
1695713098000432400,8.348432373046874,-3.1140193939208984,-14.374977111816406,5.853721618652344
1695713098009953800,8.357953857421874,-3.7503585815429688,-14.673532485961914,5.016448974609375
1695713098019506000,8.367505859375,-4.126771926879883,-13.90603256225586,3.1262969970703125
1695713098029057800,8.377057861328124,-4.002798080444336,-12.9747314453125,1.7074851989746094
1695713098038610000,8.38660986328125,-2.4135971069335938,-12.20244026184082,1.6835289001464844
1695713098048161800,8.396161865234374,0.4719390869140625,-11.628986358642578,2.312681198120117
1695713098057683500,8.405683349609374,3.6698055267333984,-11.183399200439453,3.2385921478271484
1695713098067235300,8.4152353515625,5.654584884643555,-11.219034194946289,4.011482238769531
1695713098076818000,8.42481787109375,7.584863662719727,-10.735715866088867,3.9635696411132812
1695713098086369800,8.434369873046874,7.046146392822266,-9.119863510131836,3.14306640625
1695713098095891500,8.443891357421874,4.303749084472656,-7.22911262512207,2.0279006958007812
1695713098105443300,8.453443359375,1.5778217315673828,-6.037286758422852,1.334066390991211
1695713098114995500,8.462995361328124,-0.7932529449462891,-5.700700759887695,1.078033447265625
1695713098124547300,8.47254736328125,-2.3800582885742188,-5.691417694091797,1.0756378173828125
1695713098134099500,8.482099365234374,-3.161632537841797,-5.816888809204102,1.29364013671875
1695713098143620900,8.491620849609374,-3.6048240661621094,-5.911516189575195,1.6931114196777344
1695713098153173000,8.501173095703125,-3.7551498413085938,-5.798023223876953,2.0350875854492188
1695713098162724900,8.510724853515624,-3.471567153930664,-5.684230804443359,2.4013195037841797
1695713098172277000,8.520277099609375,-3.061614990234375,-5.850128173828125,2.9038028717041016
1695713098181798400,8.52979833984375,-2.4183883666992188,-6.011234283447266,3.1837921142578125
1695713098191350300,8.539350341796874,-1.8392448425292969,-5.989673614501953,3.3679561614990234
1695713098200902400,8.54890234375,-1.2720794677734375,-5.669857025146484,3.408681869506836
1695713098210454300,8.558454345703124,-1.1004924774169922,-5.174860000610352,3.4206600189208984
1695713098220006400,8.56800634765625,-1.1960182189941406,-4.61308479309082,3.205352783203125
1695713098229527800,8.57752783203125,-1.7464141845703125,-4.046817779541016,2.891824722290039
1695713098239080000,8.587079833984374,-2.470792770385742,-3.648843765258789,2.592670440673828
1695713098248631800,8.5966318359375,-3.040353775024414,-3.475759506225586,2.1812210083007812
1695713098258184000,8.606183837890624,-3.521575927734375,-3.5611038208007812,1.7170677185058594
1695713098267705300,8.615705322265624,-3.867145538330078,-3.8620548248291016,1.2289581298828125
1695713098277257500,8.625257568359375,-4.25074577331543,-4.32171630859375,0.8531436920166016
1695713098286809300,8.634809326171874,-4.4343109130859375,-4.959253311157227,0.7360572814941406
1695713098296361500,8.644361572265625,-4.557985305786133,-5.736335754394531,0.8291873931884766
1695713098305913300,8.653913330078124,-4.3959808349609375,-6.684106826782227,1.0495853424072266
1695713098315434800,8.663434814453124,-4.067180633544922,-7.984933853149414,1.362813949584961
1695713098324987000,8.67298681640625,-3.7287979125976562,-9.671756744384766,1.7793540954589844
1695713098334538800,8.682538818359374,-3.612010955810547,-11.484350204467773,2.379758834838867
1695713098344091000,8.6920908203125,-3.821928024291992,-12.946283340454102,3.07598876953125
1695713098353612300,8.7016123046875,-4.505580902099609,-14.026712417602539,3.5856590270996094
1695713098363195000,8.71119482421875,-6.392738342285156,-14.462717056274414,3.442220687866211
1695713098372746800,8.720746826171874,-9.533409118652344,-14.322872161865234,2.7744388580322266
1695713098382299000,8.730298828125,-12.06618881225586,-13.602685928344727,2.0446701049804688
1695713098391820300,8.7398203125,-11.687379837036133,-12.45338249206543,1.5972862243652344
1695713098401372400,8.749372314453124,-8.711408615112305,-10.406316757202148,1.377187728881836
1695713098410924300,8.75892431640625,-4.713102340698242,-7.698057174682617,1.1235504150390625
1695713098420476400,8.768476318359374,-2.575601577758789,-5.233852386474609,0.9226169586181641
1695713098430028300,8.7780283203125,-2.809175491333008,-3.7838973999023438,0.7911567687988281
1695713098439550000,8.787550048828125,-3.3999977111816406,-3.748262405395508,0.7815742492675781
1695713098449101800,8.797101806640624,-3.897989273071289,-5.10359001159668,1.1043853759765625
1695713098458654000,8.806654052734375,-4.8415679931640625,-7.435136795043945,1.221771240234375
1695713098468205800,8.816205810546874,-6.90510368347168,-11.437036514282227,1.7098808288574219
1695713098477727200,8.825727294921874,-9.49058723449707,-17.3060302734375,3.346395492553711
1695713098487279400,8.835279296875,-9.102195739746094,-22.25090980529785,6.045372009277344
1695713098496831200,8.844831298828124,-1.2720794677734375,-23.3906307220459,9.136632919311523
1695713098506383400,8.85438330078125,8.213716506958008,-20.897977828979492,10.859390258789062
1695713098515935200,8.863935302734374,8.152029037475586,-13.680843353271484,7.734590530395508
1695713098525457000,8.873456787109374,0.2003345489501953,-3.6985530853271484,3.4898338317871094
1695713098535008800,8.8830087890625,1.444265365600586,3.1535472869873047,1.6835289001464844
1695713098544561000,8.892560791015624,5.761789321899414,5.28386116027832,2.6717262268066406
1695713098554112800,8.90211279296875,5.756998062133789,5.150903701782227,4.076164245605469
1695713098563634400,8.911634521484375,1.384674072265625,3.433237075805664,4.140846252441406
1695713098573186300,8.921186279296874,-5.160785675048828,-3.5778732299804688,1.405935287475586
1695713098582738400,8.930738525390625,-5.477907180786133,-12.176387786865234,-0.9867000579833984
1695713098592290300,8.940290283203124,-2.349214553833008,-19.30099105834961,-1.6206436157226562
1695713098601842400,8.949842529296875,1.1846389770507812,-23.952106475830078,-1.1157646179199219
1695713098611363800,8.95936376953125,3.4745616912841797,-24.096742630004883,-0.9028530120849609
1695713098620915700,8.968915771484374,4.398975372314453,-18.576013565063477,-0.1302623748779297
1695713098630467800,8.9784677734375,2.909791946411133,-12.166805267333984,1.5233211517333984
1695713098640019700,8.988019775390624,0.3267040252685547,-8.136457443237305,2.7456912994384766
1695713098649571800,8.99757177734375,-1.5939922332763672,-5.961524963378906,2.9660892486572266
1695713098659123700,9.007123779296874,-2.041675567626953,-5.05388069152832,2.298307418823242
1695713098668675800,9.01667578125,-2.2728538513183594,-4.878700256347656,1.6739463806152344
1695713098678227700,9.026227783203124,-1.7176666259765625,-5.418914794921875,1.506551742553711
1695713098687779800,9.03577978515625,-0.2832832336425781,-6.63679313659668,1.9347705841064453
1695713098697301200,9.04530126953125,0.9938869476318359,-7.954090118408203,2.2315292358398438
1695713098706853400,9.054853271484374,1.2726783752441406,-8.868621826171875,2.0590438842773438
1695713098716405200,9.0644052734375,0.7962474822998047,-9.297439575195312,1.444265365600586
1695713098725957400,9.073957275390624,0.7150955200195312,-9.178855895996094,0.5686626434326172
1695713098735478800,9.083478759765624,0.9938869476318359,-8.95396614074707,-0.19224929809570312
1695713098745031000,9.093031005859375,1.3370609283447266,-9.053384780883789,-0.24495315551757812
1695713098754582800,9.102582763671874,1.2226696014404297,-9.290252685546875,0.06857490539550781
1695713098764135000,9.112135009765625,0.6126823425292969,-9.242938995361328,0.4225292205810547
1695713098773656300,9.12165625,0.13595199584960938,-9.067758560180664,0.7528266906738281
1695713098783208200,9.131208251953124,-0.2572307586669922,-8.636545181274414,0.8603305816650391
1695713098792760300,9.14076025390625,-0.5312309265136719,-8.30235481262207,0.9058475494384766
1695713098802312200,9.150312255859374,-0.6788616180419922,-8.169696807861328,0.8199043273925781
1695713098811864300,9.1598642578125,-0.5144615173339844,-8.29277229309082,0.6929359436035156
1695713098821385700,9.1693857421875,-0.20003509521484375,-8.468252182006836,0.5542888641357422
1695713098830937900,9.178937744140624,-0.10450935363769531,-8.769203186035156,0.4824199676513672
1695713098840489700,9.18848974609375,-0.2856788635253906,-9.238147735595703,0.5135631561279297
1695713098850041900,9.198041748046874,-0.6072921752929688,-9.712182998657227,0.5399150848388672
1695713098859563300,9.207563232421874,-0.867218017578125,-10.102970123291016,0.6210670471191406
1695713098869115400,9.217115478515625,-1.0196399688720703,-10.211971282958984,0.6689796447753906
1695713098878667300,9.226667236328124,-1.0028705596923828,-10.169448852539062,0.6857490539550781
1695713098888219400,9.236219482421875,-0.6716747283935547,-10.050865173339844,0.7121009826660156
1695713098897771300,9.245771240234374,-0.31652259826660156,-10.124231338500977,0.7624092102050781
1695713098907292700,9.255292724609374,-0.12367439270019531,-10.491661071777344,0.9681339263916016
1695713098916844800,9.2648447265625,-0.1260700225830078,-11.086376190185547,1.2768707275390625
1695713098926396700,9.274396728515624,-0.2737007141113281,-11.427453994750977,1.5541648864746094
1695713098935979300,9.283979248046874,-0.47403526306152344,-11.441827774047852,1.3987483978271484
1695713098945500700,9.293500732421874,-0.6432266235351562,-11.351692199707031,1.0995941162109375
1695713098955052800,9.303052734375,-0.7932529449462891,-11.37055778503418,1.0400028228759766
1695713098964604700,9.312604736328124,-1.0600662231445312,-11.609821319580078,1.260101318359375
1695713098974156800,9.32215673828125,-1.5391921997070312,-11.875436782836914,1.6523857116699219
1695713098983708700,9.331708740234374,-2.2776451110839844,-11.844593048095703,1.7218589782714844
1695713098993230300,9.341230224609374,-2.6828060150146484,-11.605329513549805,1.4131221771240234
1695713099002782200,9.3507822265625,-2.1276187896728516,-11.484350204467773,0.7240791320800781
1695713099012334300,9.360334228515624,-1.0792312622070312,-11.83261489868164,0.11139678955078125
1695713099021886200,9.36988623046875,-0.08564376831054688,-12.678571701049805,-0.46026039123535156
1695713099031407900,9.379407958984375,1.003469467163086,-13.358631134033203,-1.1301383972167969
1695713099040959700,9.388959716796874,1.9206962585449219,-13.699708938598633,-1.5107440948486328
1695713099050512000,9.398511962890625,2.4878616333007812,-13.57663345336914,-1.4412708282470703
1695713099060063700,9.408063720703124,2.6046485900878906,-13.109785079956055,-0.723480224609375
1695713099069615900,9.417615966796875,2.2638702392578125,-12.370433807373047,0.6042976379394531
1695713099079137300,9.42713720703125,1.9542350769042969,-11.361274719238281,2.456418991088867
1695713099088689200,9.436689208984374,1.775461196899414,-10.520109176635742,4.765207290649414
1695713099098241300,9.4462412109375,1.5323047637939453,-10.003551483154297,6.593072891235352
1695713099107793200,9.455793212890624,0.9771175384521484,-10.09608268737793,7.368358612060547
1695713099117314800,9.465314697265624,0.07875633239746094,-10.712059020996094,7.337215423583984
1695713099126866700,9.47486669921875,-0.4192352294921875,-11.733196258544922,7.162633895874023
1695713099136418800,9.484418701171874,-0.7004222869873047,-12.84446907043457,6.808679580688477
1695713099145970700,9.493970703125,-1.9275836944580078,-13.422414779663086,5.356328964233398
1695713099155492400,9.503492431640625,-4.191154479980469,-13.552976608276367,3.5377464294433594
1695713099165044200,9.513044189453124,-6.078311920166016,-13.574237823486328,2.1021652221679688
1695713099174596400,9.522596435546875,-6.047468185424805,-13.109785079956055,1.6428031921386719
1695713099184148200,9.532148193359374,-4.212715148925781,-12.541122436523438,1.9850788116455078
1695713099193700400,9.541700439453125,-1.269683837890625,-12.185670852661133,2.621417999267578
1695713099203221800,9.5512216796875,2.1590614318847656,-11.868249893188477,3.4350337982177734
1695713099212773600,9.560773681640624,5.344949722290039,-11.697561264038086,3.6979541778564453
1695713099222356200,9.570356201171874,8.004098892211914,-10.998636245727539,3.279317855834961
1695713099231908400,9.579908447265625,6.545759201049805,-9.190834045410156,2.293516159057617
1695713099241429800,9.5894296875,3.3434009552001953,-7.176708221435547,1.042398452758789
1695713099250981600,9.598981689453124,0.5315303802490234,-6.245706558227539,0.6977272033691406
1695713099260533800,9.60853369140625,-0.9908924102783203,-5.97559928894043,0.9178256988525391
1695713099270085600,9.618085693359374,-2.089588165283203,-5.776462554931641,1.2720794677734375
1695713099279637800,9.6276376953125,-2.4827709197998047,-5.373697280883789,1.7458152770996094
1695713099289159200,9.6371591796875,-2.3324451446533203,-5.172464370727539,2.2099685668945312
1695713099298711300,9.646711181640624,-2.065631866455078,-5.117963790893555,2.6094398498535156
1695713099308263200,9.65626318359375,-1.6296272277832031,-4.940088272094727,2.752878189086914
1695713099317815300,9.665815185546874,-1.0196399688720703,-4.847856521606445,2.7196388244628906
1695713099327336700,9.675336669921874,-0.6620922088623047,-4.703220367431641,2.583087921142578
1695713099336888800,9.684888916015625,-0.4929008483886719,-4.445091247558594,2.317472457885742
1695713099346440700,9.694440673828124,-0.6240615844726562,-4.1180877685546875,2.0422744750976562
1695713099355992800,9.703992919921875,-0.9744224548339844,-3.7198143005371094,1.9707050323486328
1695713099365544700,9.713544677734374,-1.2268619537353516,-3.376340866088867,1.9898700714111328
1695713099375066000,9.723066162109374,-1.5772228240966797,-3.101442337036133,2.0302963256835938
1695713099384618200,9.7326181640625,-2.056049346923828,-3.0352630615234375,2.1069564819335938
1695713099394170000,9.742170166015624,-2.442045211791992,-3.286205291748047,2.259977340698242
1695713099403722200,9.75172216796875,-3.0544281005859375,-3.6203956604003906,2.3581981658935547
1695713099413243600,9.76124365234375,-3.485940933227539,-4.065982818603516,2.303098678588867
1695713099422795800,9.770795654296874,-3.931528091430664,-4.7696990966796875,2.3054943084716797
1695713099432347600,9.78034765625,-4.393585205078125,-5.8477325439453125,2.298307418823242
1695713099441899800,9.789899658203124,-4.913137435913086,-7.281217575073242,2.3869457244873047
1695713099451451600,9.79945166015625,-5.28955078125,-9.103094100952148,2.631000518798828
1695713099460973000,9.80897314453125,-6.2022857666015625,-11.453506469726562,2.7292213439941406
1695713099470525200,9.818525146484374,-7.729499816894531,-14.465112686157227,2.0925827026367188
1695713099480077300,9.828077392578125,-8.730274200439453,-17.592607498168945,1.319692611694336
1695713099489629200,9.837629150390624,-8.008291244506836,-19.907684326171875,1.9539356231689453
1695713099499150600,9.847150634765624,-8.725482940673828,-20.60421371459961,2.98974609375
1695713099508733200,9.856733154296874,-12.040136337280273,-18.511930465698242,4.152824401855469
1695713099518285300,9.866285400390625,-12.235380172729492,-13.607477188110352,5.045196533203125
1695713099527837200,9.875837158203124,-8.201438903808594,-7.7834014892578125,4.9661407470703125
1695713099537358600,9.885358642578124,-4.107606887817383,-2.151275634765625,4.078559875488281
1695713099546910700,9.89491064453125,-2.9996280670166016,1.2274608612060547,3.738679885864258
1695713099556462600,9.904462646484374,-2.725627899169922,1.8245716094970703,3.6383628845214844
1695713099566014700,9.9140146484375,-2.120431900024414,0.15391921997070312,3.061614990234375
1695713099575566600,9.923566650390624,-3.030771255493164,-3.390714645385742,2.298307418823242
1695713099585088300,9.933088134765624,-4.534328460693359,-8.958757400512695,2.863077163696289
1695713099594640100,9.94264013671875,-6.349916458129883,-16.246862411499023,4.468448638916016
1695713099604192300,9.952192138671874,-5.644702911376953,-22.30061912536621,5.250921249389648
1695713099613744000,9.961744140625,1.0415000915527344,-24.04463768005371,5.262899398803711
1695713099623265500,9.971265625,7.446516036987305,-21.239055633544922,5.262899398803711
1695713099632817700,9.980817626953124,-0.6740703582763672,-14.796907424926758,2.6477699279785156
1695713099642369800,9.990369873046875,-4.465154647827148,-6.2645721435546875,-1.9868755340576172
1695713099651921700,9.999921630859374,3.2338008880615234,0.059291839599609375,-2.479776382446289
1695713099661473800,10.009473876953125,7.089267730712891,2.935544967651367,-0.3216133117675781
1695713099670995200,10.0189951171875,3.762636184692383,2.433361053466797,1.6308250427246094
1695713099680547000,10.028547119140624,-0.7312660217285156,-2.795999526977539,1.7434196472167969
1695713099690099200,10.03809912109375,-2.2680625915527344,-10.20718002319336,1.8269672393798828
1695713099699651000,10.047651123046874,-1.5844097137451172,-15.749170303344727,1.5853080749511719
1695713099709172700,10.0571728515625,0.24555206298828125,-18.07832145690918,0.7192878723144531
1695713099718724600,10.066724609375,1.885061264038086,-17.805818557739258,0.08773994445800781
1695713099728276700,10.07627685546875,2.3186702728271484,-15.638072967529297,0.32700347900390625
1695713099737828600,10.08582861328125,1.825469970703125,-12.268619537353516,1.6619682312011719
1695713099747380700,10.095380615234374,0.8914737701416016,-9.636421203613281,3.284109115600586
1695713099756902100,10.104902099609374,-0.5953140258789062,-7.655534744262695,3.906373977661133
1695713099766454000,10.1144541015625,-2.101266860961914,-6.532283782958984,3.2817134857177734
1695713099776006100,10.124006103515624,-2.6684322357177734,-6.511022567749023,2.0877914428710938
1695713099785558000,10.13355810546875,-2.2276363372802734,-7.283613204956055,1.329275131225586
1695713099795110100,10.143110107421874,-0.9624443054199219,-8.309541702270508,1.1307373046875
1695713099804662300,10.152662353515625,0.42193031311035156,-9.193229675292969,1.4083309173583984
1695713099814214100,10.162214111328124,1.3562259674072266,-9.546285629272461,1.6140556335449219
1695713099823766300,10.171766357421875,1.5514698028564453,-9.389970779418945,1.4801998138427734
1695713099833287700,10.18128759765625,1.0702476501464844,-8.444595336914062,0.9298038482666016
1695713099842839600,10.190839599609374,0.8579349517822266,-7.593847274780273,0.4584636688232422
1695713099852391700,10.2003916015625,1.0630607604980469,-7.288105010986328,0.18326568603515625
1695713099861943600,10.209943603515624,1.3035221099853516,-7.705244064331055,0.4728374481201172
1695713099871495700,10.21949560546875,1.2822608947753906,-8.053508758544922,0.8986606597900391
1695713099881017000,10.22901708984375,0.9819087982177734,-8.470647811889648,1.338857650756836
1695713099890569200,10.2385693359375,0.45307350158691406,-8.681463241577148,1.4562435150146484
1695713099900121000,10.24812109375,-0.17368316650390625,-8.59372329711914,1.240936279296875
1695713099909673200,10.257673095703124,-0.7004222869873047,-8.536827087402344,0.9465732574462891
1695713099919194600,10.267194580078124,-1.1481056213378906,-8.619775772094727,0.6042976379394531
1695713099928746500,10.27674658203125,-1.229257583618164,-8.740755081176758,0.3818035125732422
1695713099938298600,10.286298583984374,-0.85284423828125,-8.878204345703125,0.28627777099609375
1695713099947850800,10.295850830078125,-0.47882652282714844,-9.067758560180664,0.3841991424560547
1695713099957402600,10.305402587890624,-0.45726585388183594,-9.167177200317383,0.4321117401123047
1695713099966924000,10.314924072265624,-0.6525096893310547,-9.311813354492188,0.4153423309326172
1695713099976476200,10.32447607421875,-1.0480880737304688,-9.510650634765625,0.4824199676513672
1695713099986028000,10.334028076171874,-1.367605209350586,-9.73583984375,0.6617927551269531
1695713099995580200,10.343580078125,-1.4436664581298828,-10.058052062988281,0.8938694000244141
1695713100005132000,10.353132080078124,-1.0196399688720703,-10.583892822265625,1.3029232025146484
1695713100014653700,10.36265380859375,-0.12367439270019531,-11.048345565795898,1.6619682312011719
1695713100024205600,10.37220556640625,0.5554866790771484,-11.098054885864258,1.4418697357177734
1695713100033757700,10.3817578125,0.5506954193115234,-11.055532455444336,0.8483524322509766
1695713100043309600,10.3913095703125,0.16709518432617188,-11.283117294311523,0.3770122528076172
1695713100052831000,10.4008310546875,-0.5477008819580078,-11.655038833618164,0.28388214111328125
1695713100062383000,10.410383056640624,-1.5412883758544922,-12.050617218017578,0.5375194549560547
1695713100071965700,10.419965576171874,-2.6280059814453125,-12.327911376953125,0.8411655426025391
1695713100081517600,10.429517578125,-3.1523494720458984,-12.541122436523438,1.008859634399414
1695713100091039000,10.4390390625,-2.5423622131347656,-12.46296501159668,0.6929359436035156
1695713100100591000,10.448591064453124,-1.5532665252685547,-12.730676651000977,0.4105510711669922
1695713100110143000,10.45814306640625,-0.32850074768066406,-13.49608039855957,0.3913860321044922
1695713100119695000,10.467695068359374,1.0678520202636719,-14.019525527954102,0.0038928985595703125
1695713100129247200,10.477247314453125,2.1398963928222656,-14.2779541015625,-0.5297336578369141
1695713100138768600,10.4867685546875,2.6786136627197266,-14.041086196899414,-0.7546234130859375
1695713100148320500,10.496320556640624,2.6450748443603516,-13.500871658325195,-0.41953468322753906
1695713100157872600,10.50587255859375,2.235422134399414,-12.304254531860352,0.25753021240234375
1695713100167424500,10.515424560546874,1.9018306732177734,-11.204959869384766,1.5709342956542969
1695713100176946200,10.5249462890625,1.6182479858398438,-10.579401016235352,3.748262405395508
1695713100186498000,10.534498046875,1.2130870819091797,-9.987081527709961,5.846534729003906
1695713100196050200,10.54405029296875,1.0319175720214844,-10.162261962890625,7.107534408569336
1695713100205602000,10.55360205078125,0.5650691986083984,-10.54855728149414,7.512096405029297
1695713100215154200,10.563154296875,-0.040126800537109375,-11.446619033813477,7.969062805175781
1695713100224675600,10.572675537109374,-1.0124530792236328,-12.825603485107422,8.009788513183594
1695713100234227500,10.5822275390625,-3.180797576904297,-13.647603988647461,6.227140426635742
1695713100243779600,10.591779541015624,-5.894746780395508,-13.56705093383789,3.7602405548095703
1695713100253331500,10.60133154296875,-7.441425323486328,-13.443975448608398,2.317472457885742
1695713100262853000,10.61085302734375,-6.600259780883789,-13.012762069702148,2.0279006958007812
1695713100272405000,10.620405029296874,-4.255537033081055,-12.26382827758789,2.635791778564453
1695713100281957000,10.62995703125,-0.2236919403076172,-11.906280517578125,3.2769222259521484
1695713100291509000,10.639509033203124,3.3742446899414062,-11.728404998779297,3.719514846801758
1695713100301030700,10.64903076171875,6.074119567871094,-11.553224563598633,3.5473289489746094
1695713100310582500,10.65858251953125,8.349668502807617,-10.420391082763672,2.374967575073242
1695713100320134700,10.668134765625,6.009737014770508,-8.49190902709961,0.9250125885009766
1695713100329686500,10.6776865234375,2.909791946411133,-6.77873420715332,0.09013557434082031
1695713100339238700,10.68723876953125,0.071868896484375,-6.172340393066406,0.19524383544921875
1695713100348760000,10.696760009765624,-1.3960533142089844,-5.999256134033203,0.5734539031982422
1695713100358342700,10.7063427734375,-2.075214385986328,-5.830963134765625,1.078033447265625
1695713100367894500,10.71589453125,-2.3944320678710938,-5.636617660522461,1.6140556335449219
1695713100377446700,10.72544677734375,-2.2372188568115234,-5.4021453857421875,2.1644515991210938
1695713100386968000,10.734968017578124,-1.9108142852783203,-5.214986801147461,2.597461700439453
1695713100396520000,10.74452001953125,-1.5032577514648438,-5.089515686035156,2.8654727935791016
1695713100406072000,10.754072021484374,-0.7384529113769531,-4.878700256347656,2.858285903930664
1695713100415624000,10.7636240234375,-0.2689094543457031,-4.62266731262207,2.688495635986328
1695713100425176000,10.773176025390624,0.02874755859375,-4.253141403198242,2.4731884002685547
1695713100434697500,10.782697509765624,-0.0068874359130859375,-3.821928024291992,2.2959117889404297
1695713100444249600,10.79224951171875,-0.19045257568359375,-3.4095802307128906,2.1884078979492188
1695713100453801500,10.801801513671874,-0.5453052520751953,-3.054128646850586,2.1213302612304688
1695713100463353600,10.811353515625,-1.1388225555419922,-2.843313217163086,2.0614395141601562
1695713100472875000,10.820875,-1.8820667266845703,-2.885835647583008,1.9898700714111328
1695713100482427100,10.83042724609375,-2.492053985595703,-3.2460784912109375,1.9587268829345703
1695713100491979000,10.83997900390625,-2.8352279663085938,-3.817136764526367,1.8820667266845703
1695713100501531100,10.84953125,-3.111623764038086,-4.639137268066406,1.7625846862792969
1695713100511083000,10.8590830078125,-3.7551498413085938,-5.800119400024414,1.7577934265136719
1695713100520604400,10.8686044921875,-4.636741638183594,-7.252769470214844,1.9515399932861328
1695713100530156500,10.878156494140624,-5.503959655761719,-9.115072250366211,2.3390331268310547
1695713100539708400,10.88770849609375,-6.997934341430664,-11.657434463500977,2.5854835510253906
1695713100549260500,10.897260498046874,-9.175861358642578,-14.984066009521484,2.1117477416992188
1695713100558782000,10.906781982421874,-10.46021842956543,-18.123538970947266,1.6068687438964844
1695713100568334000,10.916333984375,-9.116270065307617,-19.627994537353516,2.752878189086914
1695713100577886000,10.925885986328124,-8.666191101074219,-19.748674392700195,4.571460723876953
1695713100587438000,10.93543798828125,-10.967792510986328,-17.9100284576416,5.908821105957031
1695713100596990000,10.944989990234374,-11.20376205444336,-14.12852668762207,6.454425811767578
1695713100606511600,10.95451171875,-7.872638702392578,-8.996488571166992,5.906425476074219
1695713100616063500,10.9640634765625,-3.635967254638672,-3.269735336303711,4.425327301025391
1695713100625615600,10.97361572265625,-2.6232147216796875,0.9453754425048828,3.477855682373047
1695713100635167500,10.98316748046875,-3.8195323944091797,2.8834400177001953,2.748086929321289
1695713100644719600,10.9927197265625,-3.9456024169921875,3.0613155364990234,2.1333084106445312
1695713100654271500,11.002271484375,-3.0092105865478516,1.5781211853027344,1.8964405059814453
1695713100663823600,11.01182373046875,-2.7615623474121094,-1.4074325561523438,1.7482109069824219
1695713100673375500,11.02137548828125,-3.080780029296875,-5.887859344482422,1.7934284210205078
1695713100682897000,11.03089697265625,-5.7566986083984375,-12.24256706237793,2.707660675048828
1695713100692449000,11.040448974609374,-11.153753280639648,-21.805322647094727,4.444492340087891
1695713100702001000,11.0500009765625,-11.26335334777832,-30.61016082763672,5.64799690246582
1695713100711553000,11.059552978515624,2.1946964263916016,-29.88967514038086,7.76573371887207
1695713100721105000,11.06910498046875,9.588808059692383,-23.819448471069336,8.435611724853516
1695713100730626600,11.07862646484375,-0.030843734741210938,-14.571718215942383,1.8940448760986328
1695713100740178400,11.088178466796874,-0.7004222869873047,-4.437904357910156,-1.8431377410888672
1695713100749730600,11.09773046875,6.136106491088867,2.4830703735351562,-0.2904701232910156
1695713100759282400,11.107282470703124,8.04931640625,5.051485061645508,1.7697715759277344
1695713100768834600,11.11683447265625,3.786592483520508,4.501688003540039,3.346395492553711
1695713100778356000,11.12635595703125,-4.22199821472168,-0.6656856536865234,2.307889938354492
1695713100787908000,11.135908203125,-6.886238098144531,-7.64116096496582,1.0852203369140625
1695713100797460000,11.1454599609375,-4.438802719116211,-13.282869338989258,0.9154300689697266
1695713100807012000,11.15501220703125,-0.7788791656494141,-16.197153091430664,1.2577056884765625
1695713100816533500,11.164533447265624,1.9614219665527344,-16.98621368408203,1.3795833587646484
1695713100826085400,11.17408544921875,3.731792449951172,-16.099830627441406,1.319692611694336
1695713100835637500,11.183637451171874,4.189357757568359,-14.296819686889648,1.8509235382080078
1695713100845189400,11.193189453125,2.621417999267578,-11.754457473754883,2.867868423461914
1695713100854711000,11.2027109375,0.11229515075683594,-9.65528678894043,3.482646942138672
1695713100864263000,11.212262939453124,-1.9392623901367188,-8.126874923706055,2.611835479736328
1695713100873815000,11.22181494140625,-2.9900455474853516,-7.359375,1.06365966796875
1695713100883367000,11.231366943359374,-2.3564014434814453,-7.112924575805664,-0.23776626586914062
1695713100892919000,11.2409189453125,-0.44049644470214844,-7.383031845092773,-0.7857666015625
1695713100902440400,11.2504404296875,1.344247817993164,-8.105613708496094,-0.5081729888916016
1695713100911992600,11.25999267578125,1.5990829467773438,-8.544013977050781,0.3482646942138672
1695713100921544400,11.26954443359375,0.9082431793212891,-8.81412124633789,1.1427154541015625
1695713100931096600,11.2790966796875,0.3695259094238281,-8.39249038696289,1.348440170288086
1695713100940648400,11.2886484375,-0.20003509521484375,-7.956485748291016,1.2672882080078125
1695713100950200600,11.29820068359375,-0.047313690185546875,-7.662721633911133,0.9896945953369141
1695713100959752400,11.30775244140625,-0.09971809387207031,-7.7977752685546875,0.9369907379150391
1695713100969304600,11.3173046875,0.12666893005371094,-8.122383117675781,0.8675174713134766
1695713100978856400,11.3268564453125,0.7366561889648438,-8.539222717285156,0.7528266906738281
1695713100988377900,11.3363779296875,1.1058826446533203,-8.95396614074707,0.7624092102050781
1695713100997930000,11.345929931640624,0.943878173828125,-9.084228515625,0.7312660217285156
1695713101007481900,11.35548193359375,0.5530910491943359,-8.889883041381836,0.6042976379394531
1695713101017034000,11.365033935546874,0.0742645263671875,-8.591327667236328,0.3985729217529297
1695713101026555400,11.374555419921874,-0.34766578674316406,-8.420938491821289,0.19284820556640625
1695713101036107500,11.384107421875,-0.6144790649414062,-8.520357131958008,0.09013557434082031
1695713101045659400,11.393659423828124,-0.5405139923095703,-8.764411926269531,0.26471710205078125
1695713101055211500,11.40321142578125,-0.5240440368652344,-9.103094100952148,0.5566844940185547
1695713101064763400,11.412763427734374,-0.5860309600830078,-9.311813354492188,0.8818912506103516
1695713101074285000,11.42228515625,-0.6908397674560547,-9.394462585449219,1.15948486328125
1695713101083837000,11.4318369140625,-0.8076267242431641,-9.560359954833984,1.3029232025146484
1695713101093389000,11.44138916015625,-0.857635498046875,-9.652891159057617,1.221771240234375
1695713101102941000,11.45094091796875,-0.6408309936523438,-9.752309799194336,0.8842868804931641
1695713101112462300,11.46046240234375,-0.15930938720703125,-10.074522018432617,0.4872112274169922
1695713101122014500,11.470014404296874,0.3123302459716797,-10.541370391845703,0.28627777099609375
1695713101131566300,11.47956640625,0.5578823089599609,-10.910896301269531,0.34377288818359375
1695713101141118500,11.489118408203124,0.3767127990722656,-11.105241775512695,0.5087718963623047
1695713101150670300,11.49867041015625,-0.049709320068359375,-11.171720504760742,0.5399150848388672
1695713101160192000,11.50819189453125,-0.47403526306152344,-11.221429824829102,0.4752330780029297
1695713101169744000,11.517743896484374,-0.7312660217285156,-11.221429824829102,0.4440898895263672
1695713101179296000,11.5272958984375,-0.9244136810302734,-11.29000473022461,0.6617927551269531
1695713101188847900,11.536847900390624,-1.4364795684814453,-11.501119613647461,0.9849033355712891
1695713101198369500,11.54636962890625,-2.3707752227783203,-11.875436782836914,1.2265625
1695713101207922000,11.555921875,-2.530384063720703,-11.799375534057617,0.9321994781494141
1695713101217504500,11.56550439453125,-1.6580753326416016,-11.697561264038086,0.34137725830078125
1695713101227056400,11.575056396484374,-0.6764659881591797,-12.079065322875977,-0.19704055786132812
1695713101236578000,11.584578125,0.3099346160888672,-12.981918334960938,-0.771392822265625
1695713101246130000,11.5941298828125,1.403839111328125,-13.865606307983398,-1.3717975616455078
1695713101255682000,11.60368212890625,2.2734527587890625,-14.446247100830078,-1.8263683319091797
1695713101265234000,11.61323388671875,2.4902572631835938,-14.514822006225586,-1.7619857788085938
1695713101274786000,11.6227861328125,2.0850963592529297,-14.21866226196289,-0.9459743499755859
1695713101284307500,11.632307373046874,1.4918785095214844,-13.301734924316406,0.22399139404296875
1695713101293859300,11.641859375,1.2178783416748047,-11.887115478515625,1.6739463806152344
1695713101303411500,11.651411376953124,1.2370433807373047,-10.700080871582031,3.559307098388672
1695713101312963300,11.66096337890625,1.2274608612060547,-9.813997268676758,5.444667816162109
1695713101322485000,11.670485107421875,1.2035045623779297,-9.567546844482422,6.461612701416016
1695713101332036900,11.680036865234374,1.1178607940673828,-10.174240112304688,6.779932022094727
1695713101341589000,11.689589111328125,0.8366737365722656,-10.707267761230469,6.82275390625
1695713101351140900,11.699140869140624,0.3551521301269531,-11.598142623901367,6.648172378540039
1695713101360693000,11.70869287109375,-0.6620922088623047,-12.951074600219727,5.892051696777344
1695713101370214400,11.71821435546875,-3.1044368743896484,-13.711687088012695,4.810724258422852
1695713101379766500,11.7277666015625,-5.370702743530273,-13.728157043457031,3.6335716247558594
1695713101389318400,11.737318359375,-5.3111114501953125,-12.948678970336914,3.0735931396484375
1695713101398870500,11.74687060546875,-3.857563018798828,-12.422538757324219,3.231405258178711
1695713101408392000,11.756391845703124,-2.0584449768066406,-11.993721008300781,3.844087600708008
1695713101417943800,11.76594384765625,0.16469955444335938,-11.861063003540039,4.616977691650391
1695713101427496000,11.775495849609374,2.776235580444336,-11.839801788330078,4.9182281494140625
1695713101437047800,11.7850478515625,5.299732208251953,-11.226221084594727,4.006690979003906
1695713101446600000,11.794599853515624,6.779333114624023,-9.908624649047852,2.4992408752441406
1695713101456121300,11.804121337890624,3.9653663635253906,-8.446990966796875,1.15948486328125
1695713101465673500,11.813673583984375,0.1955432891845703,-7.506107330322266,0.33898162841796875
1695713101475225300,11.823225341796874,-1.3172969818115234,-6.77873420715332,0.3937816619873047
1695713101484777500,11.832777587890625,-1.6820316314697266,-6.12712287902832,0.9130344390869141
1695713101494299000,11.842298828125,-1.6032752990722656,-5.710283279418945,1.4993648529052734
1695713101503881500,11.851881591796875,-1.6128578186035156,-5.558460235595703,1.9707050323486328
1695713101513433300,11.861433349609374,-1.5320053100585938,-5.243434906005859,2.2959117889404297
1695713101522985500,11.8709853515625,-1.2672882080078125,-4.880796432495117,2.394132614135742
1695713101532537300,11.880537353515624,-0.83367919921875,-4.615480422973633,2.360593795776367
1695713101542059000,11.89005908203125,-0.5953140258789062,-4.312433242797852,2.2815380096435547
1695713101551611000,11.89961083984375,-0.5477008819580078,-4.011482238769531,2.1620559692382812
1695713101561163000,11.9091630859375,-0.7812747955322266,-3.6868743896484375,2.0162220001220703
1695713101570715000,11.91871484375,-1.1552925109863281,-3.1939735412597656,1.8581104278564453
1695713101580236300,11.928236328125,-1.5532665252685547,-2.739103317260742,1.8101978302001953
1695713101589788400,11.937788330078124,-1.9344711303710938,-2.530384063720703,1.8437366485595703
1695713101599340300,11.94734033203125,-2.3968276977539062,-2.539966583251953,1.7697715759277344
1695713101608892400,11.956892333984374,-3.1188106536865234,-2.622915267944336,1.386770248413086
1695713101618413800,11.966413818359374,-3.807554244995117,-2.940336227416992,0.9657382965087891
1695713101627966000,11.975966064453125,-4.331598281860352,-3.5302600860595703,0.6833534240722656
1695713101637517800,11.985517822265624,-4.522350311279297,-4.485218048095703,0.7001228332519531
1695713101647070000,11.995070068359375,-4.598711013793945,-5.646200180053711,0.9729251861572266
1695713101656621800,12.004621826171874,-4.987102508544922,-7.1485595703125,1.473012924194336
1695713101666143500,12.0141435546875,-5.873485565185547,-9.21449089050293,2.1476821899414062
1695713101675695400,12.0236953125,-7.631877899169922,-12.25214958190918,2.370176315307617
1695713101685247500,12.03324755859375,-8.906652450561523,-15.666221618652344,2.0806045532226562
1695713101694799400,12.04279931640625,-9.061470031738281,-18.29871940612793,2.8894290924072266
1695713101704320800,12.05232080078125,-11.013010025024414,-19.578285217285156,4.758020401000977
1695713101713873000,12.061872802734374,-14.108463287353516,-19.244094848632812,6.9688873291015625
1695713101723424800,12.0714248046875,-12.652519226074219,-16.460073471069336,8.454776763916016
1695713101732977000,12.080976806640624,-5.811498641967773,-11.043554306030273,8.284687042236328
1695713101742528800,12.09052880859375,-0.5596790313720703,-5.082328796386719,6.787118911743164
1695713101752050400,12.100050537109375,-0.36683082580566406,-0.6728725433349609,5.435085296630859
1695713101761602300,12.109602294921874,-2.4944496154785156,0.9405841827392578,4.793954849243164
1695713101771154400,12.119154541015625,-3.4335365295410156,-0.8788967132568359,4.887384414672852
1695713101780706300,12.128706298828124,-3.51678466796875,-4.802639007568359,5.138326644897461
1695713101790258400,12.138258544921875,-3.681184768676758,-9.64570426940918,6.090888977050781
1695713101799810300,12.147810302734374,-5.208698272705078,-15.13079833984375,6.669733047485352
1695713101809362400,12.157362548828125,-5.565946578979492,-19.57109832763672,5.863304138183594
1695713101818914300,12.166914306640624,-1.7272491455078125,-20.279605865478516,4.040229797363281
