time,seconds_elapsed,z,y,x
1696082150273273300,0.3162734375,-0.17470745742321014,-0.5418374538421631,0.13072516024112701
1696082150283273200,0.326273193359375,-0.17837265133857727,-0.6279694437980652,0.11484266817569733
1696082150293273300,0.3362734375,-0.2174680233001709,-0.7012733221054077,0.08735372871160507
1696082150303273200,0.346273193359375,-0.2321287989616394,-0.9193521738052368,0.0806342139840126
1696082150313273300,0.3562734375,-0.22602014243602753,-1.2467759847640991,0.10567969083786011
1696082150323273200,0.366273193359375,-0.22479841113090515,-1.6285667419433594,0.15271630883216858
1696082150333273300,0.3762734375,-0.23396138846874237,-2.0164661407470703,0.2119702398777008
1696082150343273200,0.386273193359375,-0.24190263450145721,-2.3628268241882324,0.2779437005519867
1696082150353273300,0.3962734375,-0.24862214922904968,-2.5925121307373047,0.33108896017074585
1696082150363273200,0.406273193359375,-0.3066543638706207,-2.704911231994629,0.3488040566444397
1696082150373273300,0.4162734375,-0.3878994286060333,-2.7061331272125244,0.34758231043815613
1696082150383273200,0.426273193359375,-0.4245513379573822,-2.7006351947784424,0.3500257730484009
1696082150393273300,0.4362734375,-0.4050036668777466,-2.7177395820617676,0.3683517575263977
1696082150403273200,0.446273193359375,-0.4080579876899719,-2.758667469024658,0.3781255781650543
1696082150413273300,0.4562734375,-0.42088615894317627,-2.9571986198425293,0.3995058834552765
1696082150423273200,0.466273193359375,-0.4544837474822998,-3.2174272537231445,0.41661009192466736
1696082150433273300,0.4762734375,-0.513737678527832,-3.4629950523376465,0.4300491213798523
1696082150443273200,0.486273193359375,-0.607810914516449,-3.6951239109039307,0.423329621553421
1696082150453273300,0.4962734375,-0.7214318513870239,-3.9119811058044434,0.3982841372489929
1696082150463273200,0.506273193359375,-0.816726803779602,-4.03598690032959,0.35185837745666504
1696082150473273300,0.5162734375,-0.8875871896743774,-4.0408735275268555,0.28955012559890747
1696082150483273200,0.526273193359375,-0.9340129494667053,-3.9345829486846924,0.20525072515010834
1696082150493273300,0.5362734375,-0.9676105380058289,-3.7672059535980225,0.09468411654233932
1696082150503273200,0.546273193359375,-0.9871582388877869,-3.5417966842651367,-0.028099801391363144
1696082150513273300,0.5562734375,-0.9767735004425049,-3.3683109283447266,-0.13805554807186127
1696082150523273200,0.566273193359375,-0.9181304574012756,-3.38297176361084,-0.19364428520202637
1696082150533273300,0.5762734375,-0.799011766910553,-3.562566041946411,-0.20891591906547546
1696082150543273200,0.586273193359375,-0.6114761233329773,-3.712838888168335,-0.21991148591041565
1696082150553273300,0.5962734375,-0.35552358627319336,-3.72994327545166,-0.23029619455337524
1696082150563273200,0.606273193359375,-0.06841690838336945,-3.648698091506958,-0.22052235901355743
1696082150573273300,0.6162734375,0.1362229436635971,-2.274862289428711,0.12217304855585098
1696082150583273500,0.6262734375,0.394618958234787,-1.1936306953430176,0.2822197377681732
1696082150593273300,0.6362734375,0.6279694437980652,-1.0073168277740479,0.3139847218990326
1696082150603273500,0.6462734375,0.8741481900215149,-1.4972307682037354,-0.00855211354792118
1696082150613273300,0.6562734375,1.140485405921936,-3.009122133255005,-0.3170390725135803
1696082150623273500,0.6662734375,1.2510520219802856,-4.1245622634887695,-0.5302310585975647
1696082150633273300,0.6762734375,1.3555099964141846,-5.0292534828186035,-0.6969972252845764
1696082150643273500,0.6862734375,1.4624114036560059,-5.735413551330566,-0.8429940342903137
1696082150653273300,0.6962734375,1.4410310983657837,-5.8246002197265625,-0.7299839854240417
1696082150663273500,0.7062734375,1.243721604347229,-4.871039390563965,-0.22846360504627228
1696082150673273300,0.7162734375,1.0800096988677979,-2.7812695503234863,0.46547931432724
1696082150683273500,0.7262734375,1.214400053024292,-0.6151412725448608,0.911410927772522
1696082150693273300,0.7362734375,1.3451253175735474,-0.0555887371301651,0.6579018831253052
1696082150703273500,0.7462734375,1.3585642576217651,-0.251676470041275,-0.004886921960860491
1696082150713273300,0.7562734375,1.3457361459732056,-0.24495697021484375,-0.7373143434524536
1696082150723273500,0.7662734375,1.3799445629119873,0.02687807008624077,-1.415374755859375
1696082150733273300,0.7762734375,1.4953981637954712,0.2816088795661926,-1.958433985710144
1696082150743273500,0.7862734375,1.681712031364441,0.5051855444908142,-2.3860397338867188
1696082150753273300,0.7962734375,1.8949040174484253,0.6310238242149353,-2.704911231994629
1696082150763273500,0.8062734375,2.172236919403076,0.5503895878791809,-2.869234085083008
1696082150773273300,0.8162734375,2.5051584243774414,0.2021963894367218,-2.8270843029022217
1696082150783273000,0.82627294921875,2.797762870788574,-0.26450464129447937,-2.4837779998779297
1696082150793273000,0.836273193359375,3.0799825191497803,-0.588263213634491,-1.9339994192123413
1696082150803273000,0.84627294921875,3.310889720916748,-0.7654141783714294,-1.3530665636062622
1696082150813273000,0.856273193359375,3.539964199066162,-0.9352346658706665,-0.9321803450584412
1696082150823273000,0.86627294921875,3.721390962600708,-1.2412781715393066,-0.749531626701355
1696082150833273000,0.876273193359375,3.833179473876953,-1.832595705986023,-0.7043276429176331
1696082150843273000,0.88627294921875,3.8851029872894287,-2.543031930923462,-0.6866125464439392
1696082150853273000,0.896273193359375,3.933361291885376,-3.1282408237457275,-0.6450737118721008
1696082150863273000,0.90627294921875,3.9797871112823486,-3.4067955017089844,-0.6096435189247131
1696082150873273000,0.916273193359375,3.9797871112823486,-3.4880404472351074,-0.6420193910598755
1696082150883273000,0.92627294921875,3.835622787475586,-3.447112560272217,-0.7250970602035522
1696082150893273000,0.936273193359375,3.503922939300537,-3.346930742263794,-0.7757988572120667
1696082150903273000,0.94627294921875,2.9889636039733887,-3.224757671356201,-0.7422012686729431
1696082150913273000,0.956273193359375,2.2675318717956543,-3.0109548568725586,-0.6010913848876953
1696082150923273000,0.96627294921875,1.4471397399902344,-2.93154239654541,-0.39156460762023926
1696082150933273000,0.976273193359375,0.7538077235221863,-2.8344147205352783,-0.3500257730484009
1696082150943273000,0.98627294921875,0.27977627515792847,-2.7733283042907715,-0.43249258399009705
1696082150953273000,0.996273193359375,0.025045474991202354,-2.9162707328796387,-0.5338962078094482
1696082150963272700,1.006272705078125,-0.08124507963657379,-3.126408338546753,-0.6780604124069214
1696082150973272800,1.01627294921875,-0.17959438264369965,-3.185051441192627,-0.7458664774894714
1696082150983272700,1.026272705078125,-0.45265114307403564,-3.433673620223999,-0.7605272531509399
1696082150993272600,1.0362724609375,-0.6579018831253052,-3.6774086952209473,-0.5852088928222656
1696082151003272700,1.046272705078125,-0.7867944240570068,-3.5833356380462646,-0.3952298164367676
1696082151013272600,1.0562724609375,-1.0329731702804565,-3.503922939300537,-0.28038713335990906
1696082151023272700,1.066272705078125,-1.3274102210998535,-3.495370864868164,-0.251676470041275
1696082151033272600,1.0762724609375,-1.5888605117797852,-3.3231070041656494,-0.32131510972976685
1696082151043272700,1.086272705078125,-1.7763961553573608,-3.1593949794769287,-0.4447098970413208
1696082151053272600,1.0962724609375,-1.9144517183303833,-2.9608638286590576,-0.608421802520752
1696082151063272400,1.1062724609375,-2.0085248947143555,-2.757445812225342,-0.7483099102973938
1696082151073272600,1.1162724609375,-2.015855312347412,-2.48988676071167,-0.8710938692092896
1696082151083273000,1.12627294921875,-1.9083430767059326,-2.1991147994995117,-0.978606104850769
1696082151093273000,1.136273193359375,-1.7360789775848389,-1.9150625467300415,-1.0690141916275024
1696082151103273000,1.14627294921875,-1.5583171844482422,-1.567480206489563,-1.1258246898651123
1696082151113272800,1.15627294921875,-1.3823879957199097,-1.1679743528366089,-1.147204875946045
1696082151123272400,1.1662724609375,-1.1728612184524536,-0.7654141783714294,-1.112385630607605
1696082151133272300,1.176272216796875,-0.9388998746871948,-0.375071257352829,-1.0280861854553223
1696082151143272400,1.1862724609375,-0.6743952035903931,-0.02076941914856434,-0.9175195693969727
1696082151153272300,1.196272216796875,-0.40744712948799133,0.3194825351238251,-0.7898487448692322
1696082151163272400,1.2062724609375,-0.1459967941045761,0.6536257863044739,-0.645684540271759
1696082151173271600,1.216271484375,0.12339477986097336,0.9633345007896423,-0.5094616413116455
1696082151183271400,1.226271484375,0.41661009192466736,1.2516628503799438,-0.4141666293144226
1696082151193271600,1.236271484375,0.7250970602035522,1.49906325340271,-0.36163222789764404
1696082151203271400,1.246271484375,1.0384708642959595,1.6365079879760742,-0.3689626157283783
1696082151213271600,1.256271484375,1.3255776166915894,1.6743816137313843,-0.4080579876899719
1696082151223272200,1.266272216796875,1.5845844745635986,1.6108516454696655,-0.46364670991897583
1696082151233272300,1.276272216796875,1.825876235961914,1.5448782444000244,-0.5070181488990784
1696082151243272200,1.286272216796875,2.0360138416290283,1.4801265001296997,-0.5155702829360962
1696082151253272300,1.296272216796875,2.27852725982666,1.281595230102539,-0.5296201705932617
1696082151263272400,1.3062724609375,2.5357015132904053,1.1740829944610596,-0.5925393104553223
1696082151273272600,1.3162724609375,2.6835310459136963,1.1936306953430176,-0.6346889734268188
1696082151283272400,1.3262724609375,2.73301100730896,1.2113457918167114,-0.6346889734268188
1696082151293272600,1.3362724609375,2.6975808143615723,1.2980886697769165,-0.6206390857696533
1696082151303272400,1.3462724609375,2.543642997741699,1.4129313230514526,-0.6377432942390442
1696082151313272600,1.3562724609375,2.2797491550445557,1.4214833974838257,-0.6743952035903931
1696082151323272400,1.3662724609375,1.966986060142517,1.2974777221679688,-0.7336491346359253
1696082151333272600,1.3762724609375,1.653001308441162,1.0097602605819702,-0.8613200187683105
1696082151343272400,1.3862724609375,1.3255776166915894,0.6762278079986572,-1.0531316995620728
1696082151353272600,1.3962724609375,0.9755517840385437,0.3390302062034607,-1.2614367008209229
1696082151363272400,1.4062724609375,0.6713408827781677,0.10873401165008545,-1.4764612913131714
1696082151373273000,1.416273193359375,0.5100724697113037,0.007941247895359993,-1.642616629600525
1696082151383273200,1.426273193359375,0.4660901725292206,-0.012828170321881771,-1.6890424489974976
1696082151393273000,1.436273193359375,0.4398229718208313,0.10751228034496307,-1.6389514207839966
1696082151403273200,1.446273193359375,0.41111230850219727,0.21991148591041565,-1.5082262754440308
1696082151413273300,1.4562734375,0.3549126982688904,0.27000242471694946,-1.3903292417526245
1696082151423273700,1.466273681640625,0.26083946228027344,0.3439171314239502,-1.3145819902420044
1696082151435740000,1.478739990234375,0.06352998316287994,0.4294382631778717,-1.3164145946502686
1696082151445740000,1.488739990234375,-0.2174680233001709,0.48319441080093384,-1.4862351417541504
1696082151455740000,1.498739990234375,-0.4105014503002167,0.5253441333770752,-1.7311921119689941
1696082151465740000,1.508739990234375,-0.5900958180427551,0.4404338300228119,-1.7678439617156982
1696082151475741000,1.518740966796875,-0.523511528968811,0.4386012554168701,-1.7623462677001953
1696082151485740800,1.52874072265625,-0.4905247986316681,1.0757336616516113,-2.0274617671966553
1696082151495741000,1.538740966796875,-0.7092145681381226,1.4844025373458862,-1.796554684638977
1696082151505740800,1.54874072265625,-0.9755517840385437,1.5302174091339111,-1.2870930433273315
1696082151515741000,1.558740966796875,-1.1258246898651123,1.2718214988708496,-0.9443976879119873
1696082151525740000,1.568739990234375,-1.094059705734253,1.0775662660598755,-0.7947356700897217
1696082151535740000,1.578739990234375,-0.9260717034339905,1.1435397863388062,-0.7031059265136719
1696082151545740000,1.588739990234375,-0.7623597979545593,1.043968677520752,-0.5143485069274902
1696082151555740000,1.598739990234375,-0.5931501388549805,0.970054030418396,-0.28527405858039856
1696082151565740000,1.608739990234375,-0.5180137157440186,1.0366383790969849,0.014049900695681572
1696082151575740000,1.618739990234375,-0.2773328125476837,1.0629055500030518,-0.08552113175392151
1696082151585740000,1.628739990234375,-0.2174680233001709,1.4428637027740479,-0.14355333149433136
1696082151595740000,1.638739990234375,-0.3903428912162781,2.0470094680786133,-0.05314527451992035
1696082151605740000,1.648739990234375,-0.6102544069290161,2.3915374279022217,0.09834930300712585
1696082151615740000,1.658739990234375,-0.7037167549133301,2.3658812046051025,0.1716531366109848
1696082151625739500,1.668739501953125,-0.7006624341011047,2.0323486328125,0.2076941877603531
1696082151635739600,1.67873974609375,-0.5913175344467163,1.5027284622192383,0.14294247329235077
1696082151645739500,1.688739501953125,-0.43615779280662537,0.9743300676345825,0.0012217304902151227
1696082151655739600,1.69873974609375,-0.413555771112442,0.607810914516449,-0.24678955972194672
1696082151665739500,1.708739501953125,-0.3066543638706207,0.5968153476715088,-0.6041457056999207
1696082151675739000,1.71873876953125,-0.04459316283464432,0.7360926270484924,-0.9108000993728638
1696082151685738800,1.72873876953125,0.38667771220207214,0.9279043078422546,-1.094059705734253
1696082151695739000,1.73873876953125,1.1527026891708374,1.5155566930770874,-1.2901474237442017
1696082151705738800,1.74873876953125,2.0506746768951416,2.161241292953491,-1.3744467496871948
1696082151715739000,1.75873876953125,2.9443705081939697,2.646268129348755,-1.340238332748413
1696082151725738800,1.76873876953125,3.724445343017578,3.028669834136963,-1.2229522466659546
1696082151735739000,1.77873876953125,4.347527980804443,2.3719897270202637,-1.2919800281524658
1696082151745738800,1.78873876953125,4.931515216827393,1.1441506147384644,-1.4141530990600586
1696082151755739000,1.79873876953125,5.420818328857422,0.20891591906547546,-1.36955988407135
1696082151765738800,1.80873876953125,5.985257625579834,-0.4960225820541382,-1.2773191928863525
1696082151775737900,1.81873779296875,6.495330333709717,-1.1887437105178833,-1.2608258724212646
1696082151785738000,1.828738037109375,6.75616979598999,-1.1282681226730347,-1.1276572942733765
1696082151795737900,1.83873779296875,6.957144260406494,-0.4807509481906891,-0.8350527882575989
1696082151805738000,1.848738037109375,7.255857467651367,-0.048258353024721146,-0.31642818450927734
1696082151815737900,1.85873779296875,6.992574691772461,0.5552765130996704,0.588263213634491
1696082151825737700,1.86873779296875,6.090326309204102,1.7708983421325684,1.6853772401809692
1696082151835737600,1.878737548828125,5.27665376663208,2.8368582725524902,2.1197023391723633
1696082151845737700,1.88873779296875,3.646254539489746,1.4220943450927734,1.3903292417526245
1696082151855737600,1.898737548828125,1.9871445894241333,0.26572638750076294,0.29626965522766113
1696082151865737700,1.90873779296875,0.7941248416900635,0.5601634383201599,-0.3885102868080139
1696082151875737000,1.918737060546875,0.07147123664617538,1.0555751323699951,-0.6328563690185547
1696082151885737200,1.9287373046875,-0.13439035415649414,1.0971139669418335,-0.626747727394104
1696082151895737000,1.938737060546875,-0.012828170321881771,0.5931501388549805,-0.5167919993400574
1696082151905737200,1.9487373046875,0.3396410644054413,0,-0.5351179838180542
1696082151915737000,1.958737060546875,0.6517932415008545,-0.39767327904701233,-0.931569516658783
1696082151925738000,1.968738037109375,0.9651671051979065,-0.37201693654060364,-1.3573426008224487
1696082151935738000,1.978738037109375,1.3145819902420044,0.04581489413976669,-1.7440202236175537
1696082151945738000,1.988738037109375,1.7818939685821533,0.7458664774894714,-2.007303237915039
1696082151955738000,1.998738037109375,2.1704041957855225,1.4178181886672974,-2.1734585762023926
1696082151965738000,2.008738037109375,2.2394320964813232,2.1502456665039062,-2.068389654159546
1696082151975738400,2.01873828125,2.3017401695251465,2.7507262229919434,-1.8771889209747314
1696082151985738200,2.02873828125,2.439795732498169,3.375641345977783,-1.6847662925720215
1696082151995738400,2.03873828125,2.6004533767700195,4.094018936157227,-1.6200146675109863
1696082152005738200,2.04873828125,2.6481008529663086,4.761083602905273,-1.6646077632904053
1696082152015738400,2.05873828125,2.4630086421966553,4.936401844024658,-1.703092336654663
1696082152025738200,2.06873828125,2.1734585762023926,4.494746685028076,-1.5766432285308838
1696082152035738400,2.07873828125,1.901012659072876,3.6169331073760986,-1.474017858505249
1696082152045738200,2.08873828125,1.7348573207855225,2.252260208129883,-1.4098769426345825
1696082152055738400,2.09873828125,1.6688838005065918,0.7232644557952881,-1.1704177856445312
1696082152065738200,2.10873828125,1.69148588180542,-0.6591235995292664,-0.8881980776786804
1696082152075739100,2.1187392578125,1.757459282875061,-1.6438384056091309,-0.7141014933586121
1696082152085739300,2.1287392578125,1.8484781980514526,-2.0500638484954834,-0.7855727076530457
1696082152095739100,2.1387392578125,1.9645426273345947,-2.1154263019561768,-0.9535606503486633
1696082152105739300,2.1487392578125,2.1868975162506104,-1.6218472719192505,-1.1386528015136719
1696082152115739100,2.1587392578125,2.6902506351470947,-1.2003501653671265,-0.9474520087242126
1696082152125739500,2.168739501953125,3.3255503177642822,-2.1398608684539795,-0.16065755486488342
1696082152135739600,2.17873974609375,3.809966564178467,-2.955976963043213,0.484416127204895
1696082152145739500,2.188739501953125,3.6419785022735596,-2.8906142711639404,0.6096435189247131
1696082152155739600,2.19873974609375,2.3964242935180664,-1.4520267248153687,-0.4434881806373596
1696082152165739500,2.208739501953125,0.6908885836601257,0.16737708449363708,-1.2131783962249756
1696082152175740200,2.218740234375,-0.40133845806121826,1.32863187789917,-1.4245377779006958
1696082152185740000,2.228739990234375,-0.8203920125961304,1.9834794998168945,-1.3475687503814697
1696082152195740200,2.238740234375,-0.8319984674453735,2.2290472984313965,-1.1160508394241333
1696082152205740000,2.248739990234375,-0.6536257863044739,2.219273328781128,-0.826500654220581
1696082152215740200,2.258740234375,-0.4398229718208313,1.9822577238082886,-0.5088507533073425
1696082152225739500,2.268739501953125,-0.2675589919090271,1.5082262754440308,-0.1466076523065567
1696082152235739600,2.27873974609375,-0.13377949595451355,0.8625417351722717,0.2064724564552307
1696082152245739500,2.288739501953125,-0.04764748737215996,0.18448130786418915,0.4948008358478546
1696082152255739600,2.29873974609375,-0.02687807008624077,-0.3903428912162781,0.6743952035903931
1696082152265739500,2.308739501953125,-0.06902777403593063,-0.7874053120613098,0.7507534027099609
1696082152275739600,2.31873974609375,-0.1466076523065567,-1.0525208711624146,0.7751879692077637
1696082152285739500,2.328739501953125,-0.21135938167572021,-1.215621829032898,0.7348709106445312
1696082152295739600,2.33873974609375,-0.2370157092809677,-1.2724323272705078,0.5943718552589417
1696082152305739500,2.348739501953125,-0.2028072625398636,-1.2693779468536377,0.37201693654060364
1696082152315739600,2.35873974609375,-0.11178833991289139,-1.2260065078735352,0.13255776464939117
1696082152325739500,2.368739501953125,0.00733038317412138,-1.0977247953414917,-0.048258353024721146
1696082152335739600,2.37873974609375,0.1111774742603302,-0.8246681094169617,-0.13561208546161652
1696082152345739500,2.388739501953125,0.16737708449363708,-0.4440990388393402,-0.15760323405265808
1696082152355739600,2.39873974609375,0.16920967400074005,-0.09651670604944229,-0.14233160018920898
1696082152365739500,2.408739501953125,0.14416420459747314,0.12522737681865692,-0.13805554807186127
1696082152375739600,2.41873974609375,0.11789698898792267,0.1820378452539444,-0.16065755486488342
1696082152385739500,2.428739501953125,0.09346238523721695,0.12828169763088226,-0.18509216606616974
1696082152395739600,2.43873974609375,0.06291911751031876,0.025656340643763542,-0.18631389737129211
1696082152405739500,2.448739501953125,0.024434609338641167,-0.05375614017248154,-0.16493362188339233
1696082152415739600,2.45873974609375,-0.00427605677396059,-0.08307767659425735,-0.1258382350206375
1696082152425739500,2.468739501953125,-0.028099801391363144,-0.06414084881544113,-0.07757988572120667
1696082152435739600,2.47873974609375,-0.0555887371301651,-0.0354301854968071,-0.03420845419168472
1696082152445739500,2.488739501953125,-0.08307767659425735,-0.03420845419168472,-0.0012217304902151227
1696082152455739600,2.49873974609375,-0.10506882518529892,-0.07452555745840073,0.01710422709584236
1696082152465739500,2.508739501953125,-0.10873401165008545,-0.1618792861700058,0.021991148591041565
1696082152475739600,2.51873974609375,-0.08796459436416626,-0.2675589919090271,0.013439035043120384
1696082152485739500,2.528739501953125,-0.04581489413976669,-0.35185837745666504,-0.00427605677396059
1696082152495739600,2.53873974609375,0.00366519158706069,-0.40133845806121826,-0.009773843921720982
1696082152505739500,2.548739501953125,0.06108652427792549,-0.4178318381309509,0.00427605677396059
1696082152515739600,2.55873974609375,0.11056660860776901,-0.41599923372268677,0.03726277872920036
1696082152525739500,2.568739501953125,0.13866640627384186,-0.39584067463874817,0.06963863968849182
1696082152535739400,2.578739501953125,0.1508837193250656,-0.37751471996307373,0.09529497474431992
1696082152545739500,2.588739501953125,0.15393804013729095,-0.37568211555480957,0.10445795953273773
1696082152555739400,2.598739501953125,0.1472185254096985,-0.3793473243713379,0.08002334833145142
1696082152565739500,2.608739501953125,0.13927727937698364,-0.38117989897727966,0.030543262138962746
1696082152575739400,2.618739501953125,0.13255776464939117,-0.3805690407752991,-0.024434609338641167
1696082152585739500,2.628739501953125,0.12095131725072861,-0.36163222789764404,-0.07696902006864548
1696082152595739400,2.638739501953125,0.10201449692249298,-0.3219259977340698,-0.10873401165008545
1696082152605739500,2.648739501953125,0.08491026610136032,-0.2822197377681732,-0.10812314599752426
1696082152615739400,2.658739501953125,0.06719517707824707,-0.2632829248905182,-0.09407325088977814
1696082152625739500,2.668739501953125,0.051312681287527084,-0.28955012559890747,-0.08796459436416626
1696082152635739400,2.678739501953125,0.027488935738801956,-0.3396410644054413,-0.10018189996480942
1696082152645739500,2.688739501953125,-0.01466076634824276,-0.40133845806121826,-0.13072516024112701
1696082152655739400,2.698739501953125,-0.0555887371301651,-0.48258355259895325,-0.16371189057826996
1696082152665739500,2.708739501953125,-0.08796459436416626,-0.5357288122177124,-0.20952677726745605
1696082152675739400,2.718739501953125,-0.09224065393209457,-0.5949827432632446,-0.27550023794174194
1696082152685739500,2.728739501953125,-0.04886921867728233,-0.6676757335662842,-0.3689626157283783
1696082152695739400,2.738739501953125,0.03420845419168472,-0.6988298296928406,-0.45326200127601624
1696082152705739500,2.748739501953125,0.11972958594560623,-0.665232241153717,-0.4337143301963806
1696082152715739600,2.75873974609375,0.18081611394882202,-0.6414085030555725,-0.28099802136421204
1696082152725739500,2.768739501953125,0.19058994948863983,-0.617584764957428,-0.054367005825042725
1696082152735739600,2.77873974609375,0.13927727937698364,-0.5510004758834839,0.14966198801994324
1696082152745739500,2.788739501953125,0.07452555745840073,-0.4740314185619354,0.2590068578720093
1696082152755739600,2.79873974609375,0.024434609338641167,-0.41722095012664795,0.251676470041275
1696082152765739500,2.808739501953125,-0.0006108652451075613,-0.3292563557624817,0.16798794269561768
1696082152775739400,2.818739501953125,-0.009773843921720982,-0.2278527319431305,0.03787364438176155
1696082152785739500,2.828739501953125,-0.015271631069481373,-0.17409659922122955,-0.10384709388017654
1696082152795739400,2.838739501953125,-0.025045474991202354,-0.1514945775270462,-0.23579397797584534
1696082152805739500,2.848739501953125,-0.05619960278272629,-0.13988813757896423,-0.3274237811565399
1696082152815739400,2.858739501953125,-0.07819075137376785,-0.14355333149433136,-0.3830125033855438
1696082152825739500,2.868739501953125,-0.07880161702632904,-0.15882496535778046,-0.42149701714515686
1696082152835739400,2.878739501953125,-0.04642575979232788,-0.16798794269561768,-0.45142942667007446
1696082152845739500,2.888739501953125,-0.0024434609804302454,-0.17470745742321014,-0.45692721009254456
1696082152855739400,2.898739501953125,0.04337143152952194,-0.17470745742321014,-0.44104471802711487
1696082152865739500,2.908739501953125,0.08246681094169617,-0.1771509200334549,-0.41111230850219727
1696082152875739400,2.918739501953125,0.11850785464048386,-0.18997909128665924,-0.37751471996307373
1696082152885739500,2.928739501953125,0.1563815027475357,-0.21624629199504852,-0.3536909818649292
1696082152895739400,2.938739501953125,0.19792033731937408,-0.2541199326515198,-0.34147366881370544
1696082152905739500,2.948739501953125,0.2376265823841095,-0.30482175946235657,-0.3488040566444397
1696082152915739400,2.958739501953125,0.2724458873271942,-0.3597996234893799,-0.37140607833862305
1696082152925739500,2.968739501953125,0.29565876722335815,-0.41111230850219727,-0.403781920671463
1696082152935739100,2.9787392578125,0.31093040108680725,-0.4489859640598297,-0.4398229718208313
1696082152945739300,2.9887392578125,0.33169981837272644,-0.4740314185619354,-0.4758640229701996
1696082152955739100,2.9987392578125,0.3646865487098694,-0.5094616413116455,-0.503963828086853
1696082152965739300,3.0087392578125,0.4086688458919525,-0.5412266254425049,-0.5106833577156067
1696082152975739400,3.018739501953125,0.45814892649650574,-0.5619960427284241,-0.47769662737846375
1696082152985739300,3.0287392578125,0.48808133602142334,-0.5674937963485718,-0.3952298164367676
1696082152995739400,3.038739501953125,0.4856378734111786,-0.5595525503158569,-0.2632829248905182
1696082153005739300,3.0487392578125,0.45142942667007446,-0.5485569834709167,-0.11362093687057495
1696082153015739400,3.058739501953125,0.394008070230484,-0.5564982295036316,0.009773843921720982
1696082153025739300,3.0687392578125,0.33658674359321594,-0.5998696684837341,0.0757472887635231
1696082153035739400,3.078739501953125,0.27977627515792847,-0.6890559792518616,0.0757472887635231
1696082153045739300,3.0887392578125,0.2070833146572113,-0.7739662528038025,0.042760565876960754
1696082153055739400,3.098739501953125,0.11972958594560623,-0.8045095205307007,0.025045474991202354
1696082153065739300,3.1087392578125,0.04703662544488907,-0.7360926270484924,0.06658431142568588
1696082153075739400,3.118739501953125,0.009773843921720982,-0.5406157374382019,0.18325957655906677
1696082153085739300,3.1287392578125,-0.00427605677396059,-0.26145032048225403,0.3628539443016052
1696082153095739400,3.138739501953125,-0.015882495790719986,0.02382374368607998,0.5913175344467163
1696082153105739300,3.1487392578125,-0.05803219974040985,0.2474004179239273,0.827111542224884
1696082153115739400,3.158739501953125,-0.1667662113904953,0.36224308609962463,1.034194827079773
1696082153125739300,3.1687392578125,-0.33475416898727417,0.3683517575263977,1.2046263217926025
1696082153135739400,3.178739501953125,-0.5119050741195679,0.30970868468284607,1.376279354095459
1696082153145739300,3.1887392578125,-0.6487388610839844,0.23579397797584534,1.6206254959106445
1696082153155739400,3.198739501953125,-0.7464773058891296,0.10995574295520782,1.9730947017669678
1696082153165739300,3.2087392578125,-0.8362745046615601,-0.1368338167667389,2.4446825981140137
1696082153175739400,3.218739501953125,-0.9236282706260681,-0.47342056035995483,2.9297096729278564
1696082153185739300,3.2287392578125,-1.0012081861495972,-0.7812966704368591,3.232698917388916
1696082153195739400,3.238739501953125,-1.0378600358963013,-0.9627236127853394,3.2595770359039307
1696082153205739300,3.2487392578125,-1.0097602605819702,-1.0293079614639282,3.051271915435791
1696082153215739400,3.258739501953125,-0.9279043078422546,-1.0574077367782593,2.7201828956604004
1696082153225739300,3.2687392578125,-0.8222246170043945,-0.9804387092590332,2.367713689804077
1696082153235739600,3.27873974609375,-0.7434229850769043,-0.8827002644538879,2.0500638484954834
1696082153245739500,3.288739501953125,-0.7226535677909851,-0.8875871896743774,1.8191566467285156
1696082153255739600,3.29873974609375,-0.759916365146637,-1.06351637840271,1.652390480041504
1696082153265739500,3.308739501953125,-0.827722430229187,-1.3616186380386353,1.4929546117782593
1696082153275739600,3.31873974609375,-0.912021815776825,-1.6224581003189087,1.3329079151153564
1696082153285739500,3.328739501953125,-1.026253581047058,-1.6780468225479126,1.1820242404937744
1696082153295739600,3.33873974609375,-1.171028733253479,-1.4147639274597168,1.015868902206421
1696082153305739500,3.348739501953125,-1.3145819902420044,-0.969443142414093,0.9089674949645996
1696082153315739600,3.35873974609375,-1.4184291362762451,-0.5375614166259766,0.9071348905563354
1696082153325739500,3.368739501953125,-1.4953981637954712,-0.22602014243602753,0.921184778213501
1696082153335739600,3.37873974609375,-1.5204435586929321,-0.02626720629632473,0.9028588533401489
1696082153345739500,3.388739501953125,-1.4868459701538086,0.12400564551353455,0.9040805697441101
1696082153355739600,3.39873974609375,-1.4343116283416748,0.19853121042251587,0.930347740650177
1696082153365739500,3.408739501953125,-1.386053204536438,0.3243694305419922,0.9175195693969727
1696082153375739600,3.41873974609375,-1.3261884450912476,0.394008070230484,0.9162978529930115
1696082153385739500,3.428739501953125,-1.2589932680130005,0.3952298164367676,0.9395107626914978
1696082153395739600,3.43873974609375,-1.2064588069915771,0.5204572081565857,0.941343367099762
1696082153405739500,3.448739501953125,-1.1355985403060913,0.7159340381622314,0.9474520087242126
1696082153415739600,3.45873974609375,-1.018923282623291,0.9046914577484131,0.9743300676345825
1696082153425739500,3.468739501953125,-0.8594874143600464,1.0726794004440308,0.9902125597000122
1696082153435739600,3.47873974609375,-0.6994407176971436,1.2040153741836548,1.0036516189575195
1696082153445739500,3.488739501953125,-0.5400048494338989,1.1856894493103027,0.979216992855072
1696082153455739400,3.498739501953125,-0.38728857040405273,1.0488556623458862,0.902247965335846
1696082153465739500,3.508739501953125,-0.27000242471694946,0.8643743395805359,0.79840087890625
1696082153475739600,3.51873974609375,-0.18387043476104736,0.7000515460968018,0.6811147332191467
1696082153485739500,3.528739501953125,-0.1062905490398407,0.5448917746543884,0.5436700582504272
1696082153495739600,3.53873974609375,-0.031154127791523933,0.4202753007411957,0.3927863538265228
1696082153505739500,3.548739501953125,0.05497787147760391,0.33292156457901,0.22663100063800812
1696082153515739400,3.558739501953125,0.15821409225463867,0.2528982162475586,0.05864306539297104
1696082153525739500,3.568739501953125,0.27611109614372253,0.17104226350784302,-0.09346238523721695
1696082153535739400,3.578739501953125,0.38606682419776917,0.12339477986097336,-0.22113321721553802
1696082153545739500,3.588739501953125,0.4764748811721802,0.06963863968849182,-0.32009339332580566
1696082153555739400,3.598739501953125,0.5424483418464661,0.03848451003432274,-0.40744712948799133
1696082153565739500,3.608739501953125,0.5809328556060791,0.06108652427792549,-0.4948008358478546
1696082153575739400,3.618739501953125,0.5962044596672058,0.16432274878025055,-0.5778785347938538
1696082153585739500,3.628739501953125,0.5949827432632446,0.394618958234787,-0.6572909951210022
1696082153595739400,3.638739501953125,0.5778785347938538,0.7580837607383728,-0.7550294399261475
1696082153605739500,3.648739501953125,0.5412266254425049,1.1582005023956299,-0.8729264140129089
1696082153615739400,3.658739501953125,0.46792277693748474,1.4538593292236328,-0.9517280459403992
1696082153625739500,3.668739501953125,0.3683517575263977,1.5344934463500977,-0.921795666217804
1696082153635739400,3.678739501953125,0.2590068578720093,1.472796082496643,-0.7855727076530457
1696082153645739500,3.688739501953125,0.1062905490398407,1.3542882204055786,-0.5931501388549805
1696082153655739400,3.698739501953125,-0.0861319974064827,1.1484266519546509,-0.3738495409488678
1696082153665739500,3.708739501953125,-0.2981022298336029,0.7531968355178833,-0.12034045159816742
1696082153675739400,3.718739501953125,-0.48380526900291443,0.3023782968521118,0.11728613078594208
1696082153685739500,3.728739501953125,-0.5717698931694031,0.1215621829032898,0.20525072515010834
1696082153695739400,3.738739501953125,-0.5650503635406494,0.2773328125476837,0.1258382350206375
1696082153705739500,3.748739501953125,-0.503963828086853,0.4813618063926697,-0.09712757170200348
1696082153715739600,3.75873974609375,-0.3701843321323395,0.4544837474822998,-0.3897320330142975
1696082153725739500,3.768739501953125,-0.2376265823841095,-0.08246681094169617,-0.5601634383201599
1696082153735739600,3.77873974609375,-0.1411098688840866,-0.7904596328735352,-0.7073819637298584
1696082153745739500,3.788739501953125,-0.04337143152952194,-1.1331549882888794,-0.9266825914382935
1696082153755739600,3.79873974609375,0.05864306539297104,-0.9731083512306213,-0.9859365224838257
1696082153765739500,3.808739501953125,0.06291911751031876,-0.6010913848876953,-0.6133087277412415
1696082153775739400,3.818739501953125,-0.04703662544488907,-0.5357288122177124,0.00733038317412138
1696082153785739500,3.828739501953125,-0.07513642311096191,-0.807563841342926,0.543059229850769
1696082153795739400,3.838739501953125,0.06414084881544113,-0.8558222055435181,0.7684684991836548
1696082153805739500,3.848739501953125,0.2669481039047241,-0.59803706407547,0.817337691783905
1696082153815739400,3.858739501953125,0.4349360466003418,-0.3744603991508484,0.749531626701355
1696082153825739500,3.868739501953125,0.5467243790626526,-0.4343251883983612,0.5467243790626526
1696082153835739400,3.878739501953125,0.6059783101081848,-0.8234463334083557,0.252287358045578
1696082153845739500,3.888739501953125,0.6921103000640869,-1.4599679708480835,-0.09896016865968704
1696082153855739400,3.898739501953125,0.7916813492774963,-2.093435287475586,-0.4612032473087311
1696082153865739500,3.908739501953125,0.8936958312988281,-2.5137104988098145,-0.7947356700897217
1696082153875739400,3.918739501953125,1.0054842233657837,-2.5815165042877197,-1.0757336616516113
1696082153885739500,3.928739501953125,1.0873401165008545,-2.308459758758545,-1.2986994981765747
1696082153895739400,3.938739501953125,1.1441506147384644,-1.7996090650558472,-1.4972307682037354
1696082153905739500,3.948739501953125,1.188132882118225,-1.2137892246246338,-1.6823228597640991
1696082153915739400,3.958739501953125,1.2608258724212646,-0.5772676467895508,-1.8118263483047485
1696082153925739500,3.968739501953125,1.3487904071807861,0.06963863968849182,-1.9248363971710205
1696082153935739400,3.978739501953125,1.4599679708480835,0.5510004758834839,-2.012190103530884
1696082153945739500,3.988739501953125,1.5424346923828125,0.7623597979545593,-2.0396790504455566
1696082153955739600,3.99873974609375,1.5143349170684814,0.7269296646118164,-1.929112434387207
1696082153965739500,4.008739501953125,1.3750576972961426,0.5778785347938538,-1.6365079879760742
1696082153975739100,4.0187392578125,1.1704177856445312,0.5412266254425049,-1.2376129627227783
1696082153985739300,4.0287392578125,0.9590584635734558,0.626747727394104,-0.8765916228294373
1696082153995739100,4.0387392578125,0.7721336483955383,0.8289441466331482,-0.6346889734268188
1696082154005739300,4.0487392578125,0.6249151229858398,1.0115928649902344,-0.5601634383201599
1696082154015739100,4.0587392578125,0.5143485069274902,1.0512990951538086,-0.6010913848876953
1696082154025739300,4.0687392578125,0.4343251883983612,0.9010262489318848,-0.6713408827781677
1696082154035739100,4.0787392578125,0.39706242084503174,0.5619960427284241,-0.7214318513870239
1696082154045739300,4.0887392578125,0.38606682419776917,0.20586158335208893,-0.7342600226402283
1696082154055739100,4.0987392578125,0.36102136969566345,-0.15027284622192383,-0.7519751191139221
1696082154065739300,4.1087392578125,0.3280346393585205,-0.44776421785354614,-0.7910705208778381
1696082154075739100,4.1187392578125,0.3335324227809906,-0.5937610268592834,-0.8765916228294373
1696082154085739300,4.1287392578125,0.34025195240974426,-0.6609562039375305,-1.0054842233657837
1696082154095739100,4.1387392578125,0.35613444447517395,-0.7428121566772461,-1.1624765396118164
1696082154105739300,4.1487392578125,0.40072759985923767,-0.7861835956573486,-1.2638801336288452
1696082154115739100,4.1587392578125,0.45204028487205505,-0.769079327583313,-1.2559388875961304
1696082154125739300,4.1687392578125,0.4911356568336487,-0.6334672570228577,-1.1533136367797852
1696082154135739100,4.1787392578125,0.5106833577156067,-0.4196644127368927,-0.99876469373703
1696082154145739300,4.1887392578125,0.5125159621238708,-0.1918116807937622,-0.808174729347229
1696082154155739100,4.1987392578125,0.48685958981513977,-0.02871066704392433,-0.607810914516449
1696082154165739300,4.2087392578125,0.4349360466003418,0.00366519158706069,-0.4740314185619354
1696082154175739000,4.21873876953125,0.3799581825733185,-0.10018189996480942,-0.45814892649650574
1696082154185738800,4.22873876953125,0.3378084897994995,-0.26450464129447937,-0.5827654600143433
1696082154195739000,4.23873876953125,0.33169981837272644,-0.3530801236629486,-0.8002334833145142
1696082154205738800,4.24873876953125,0.3695734739303589,-0.2974913716316223,-1.0213667154312134
1696082154215739000,4.25873876953125,0.44226643443107605,-0.16432274878025055,-1.186300277709961
1696082154225738800,4.26873876953125,0.5601634383201599,-0.09346238523721695,-1.2504411935806274
1696082154235739000,4.27873876953125,0.7012733221054077,-0.16920967400074005,-1.1539244651794434
1696082154245738800,4.28873876953125,0.8161159753799438,-0.342695415019989,-0.8802568316459656
1696082154255739000,4.29873876953125,0.8478809595108032,-0.5082398653030396,-0.4899139404296875
1696082154265738800,4.30873876953125,0.8118399381637573,-0.6004805564880371,-0.10995574295520782
1696082154275739100,4.3187392578125,0.769079327583313,-0.6328563690185547,0.1667662113904953
1696082154285739000,4.328739013671875,0.7446447610855103,-0.6285803318023682,0.30054569244384766
1696082154295739100,4.3387392578125,0.7067710757255554,-0.5962044596672058,0.294437050819397
1696082154305739000,4.348739013671875,0.6243042945861816,-0.5510004758834839,0.1771509200334549
1696082154315739100,4.3587392578125,0.46731191873550415,-0.4905247986316681,0.016493361443281174
1696082154325739000,4.368739013671875,0.22296582162380219,-0.3732386529445648,-0.09773843735456467
1696082154335739100,4.3787392578125,-0.08796459436416626,-0.2028072625398636,-0.0507018156349659
1696082154345739000,4.388739013671875,-0.41599923372268677,-0.04214970022439957,0.1618792861700058
1696082154355739100,4.3987392578125,-0.6860016584396362,0.03420845419168472,0.4502076804637909
1696082154365739000,4.408739013671875,-0.8704829812049866,0.06658431142568588,0.7709119319915771
1696082154375739100,4.4187392578125,-0.9859365224838257,0.2168571650981903,1.1459832191467285
1696082154385739000,4.428739013671875,-1.0848966836929321,0.5345070958137512,1.5399912595748901
1696082154395739100,4.4387392578125,-1.2211196422576904,0.9199630618095398,1.8490891456604004
1696082154405739000,4.448739013671875,-1.4220943450927734,1.0659598112106323,2.0030272006988525
1696082154415739100,4.4587392578125,-1.6371188163757324,0.8930850028991699,2.1502456665039062
1696082154425739000,4.468739013671875,-1.8295414447784424,0.49724429845809937,2.362215995788574
1696082154435739100,4.4787392578125,-1.9737056493759155,0.039706241339445114,2.579684019088745
1696082154445739000,4.488739013671875,-2.0225749015808105,-0.19853121042251587,2.668259382247925
1696082154455739100,4.4987392578125,-2.051896333694458,-0.770301103591919,2.83380389213562
1696082154465739300,4.5087392578125,-2.0036380290985107,-1.3054190874099731,2.9138271808624268
1696082154475739400,4.518739501953125,-1.8613064289093018,-1.6670511960983276,2.791043281555176
1696082154485739500,4.528739501953125,-1.633453607559204,-1.757459282875061,2.4391849040985107
1696082154495739400,4.538739501953125,-1.3292428255081177,-1.6267341375350952,1.9834794998168945
1696082154505739500,4.548739501953125,-1.0433578491210938,-1.3298536539077759,1.5320500135421753
1696082154515739400,4.558739501953125,-0.8863654732704163,-0.8698720932006836,1.1527026891708374
1696082154525739500,4.568739501953125,-0.836885392665863,-0.5864306092262268,1.0042624473571777
1696082154535739400,4.578739501953125,-0.8827002644538879,-0.3433062732219696,1.0299187898635864
1696082154545739500,4.588739501953125,-0.9657779335975647,-0.0806342139840126,1.1447614431381226
1696082154555739400,4.598739501953125,-1.017701506614685,0.17776179313659668,1.2724323272705078
1696082154565739500,4.608739501953125,-1.0525208711624146,0.4440990388393402,1.3603968620300293
1696082154575740000,4.618739990234375,-1.0708467960357666,0.5748242139816284,1.38849675655365
1696082154585739800,4.62873974609375,-1.0604621171951294,0.3805690407752991,1.3799445629119873
1696082154595740000,4.638739990234375,-1.0580185651779175,0.04886921867728233,1.3145819902420044
1696082154605739800,4.64873974609375,-1.092837929725647,-0.26022860407829285,1.2113457918167114
1696082154615740000,4.658739990234375,-1.1551461219787598,-0.46792277693748474,1.1087204217910767
1696082154625739800,4.66873974609375,-1.2247848510742188,-0.5381723046302795,1.0024298429489136
1696082154635740000,4.678739990234375,-1.2797627449035645,-0.4605923891067505,0.9101892113685608
1696082154645739800,4.68873974609375,-1.2864822149276733,-0.23579397797584534,0.8600982427597046
1696082154655740000,4.698739990234375,-1.2278391122817993,0.05864306539297104,0.8393288254737854
1696082154665739800,4.70873974609375,-1.1129964590072632,0.35735616087913513,0.8246681094169617
1696082154675740000,4.718739990234375,-0.9633345007896423,0.6475171446800232,0.7947356700897217
1696082154685739800,4.72873974609375,-0.8014551997184753,0.8930850028991699,0.7483099102973938
1696082154695740000,4.738739990234375,-0.6438519954681396,1.056796908378601,0.684779942035675
1696082154705739800,4.74873974609375,-0.5070181488990784,1.1258246898651123,0.588874101638794
1696082154715740000,4.758739990234375,-0.41172316670417786,1.13926362991333,0.43799036741256714
1696082154725739800,4.76873974609375,-0.34025195240974426,1.1429288387298584,0.2590068578720093
1696082154735740000,4.778739990234375,-0.2632829248905182,1.1062769889831543,0.07452555745840073
1696082154745739800,4.78873974609375,-0.16432274878025055,1.0519099235534668,-0.11239920556545258
1696082154755740000,4.798739990234375,-0.048258353024721146,1.0024298429489136,-0.3084869384765625
1696082154765739800,4.80873974609375,0.06780604273080826,0.9590584635734558,-0.5167919993400574
1696082154775740000,4.818739990234375,0.1966986060142517,0.8723155856132507,-0.7263187766075134
1696082154785740000,4.828739990234375,0.3543018400669098,0.7086036801338196,-0.9285151958465576
1696082154795740000,4.838739990234375,0.5326744914054871,0.5357288122177124,-1.1270463466644287
1696082154805740000,4.848739990234375,0.694553792476654,0.4331034719944,-1.3261884450912476
1696082154815740000,4.858739990234375,0.7672467231750488,0.45142942667007446,-1.5143349170684814
1696082154825740000,4.868739990234375,0.7183775305747986,0.5949827432632446,-1.6413949728012085
1696082154835740000,4.878739990234375,0.5681046843528748,0.8045095205307007,-1.6676621437072754
1696082154845740000,4.888739990234375,0.35735616087913513,1.0464121103286743,-1.4911220073699951
1696082154855740000,4.898739990234375,0.16065755486488342,1.2376129627227783,-1.2107349634170532
1696082154865740000,4.908739990234375,0.02932153269648552,1.1252137422561646,-1.0317513942718506
1696082154875739600,4.91873974609375,-0.08307767659425735,0.8631525635719299,-0.7189884185791016
1696082154885739500,4.928739501953125,-0.3170390725135803,0.50335294008255,-0.14477506279945374
1696082154895739600,4.93873974609375,-0.7031059265136719,0.35124751925468445,0.4196644127368927
1696082154905739500,4.948739501953125,-0.9376781582832336,0.31093040108680725,0.7037167549133301
1696082154915739600,4.95873974609375,-0.902247965335846,0.3072652220726013,0.7220427393913269
1696082154925739500,4.968739501953125,-0.8093964457511902,0.3677408695220947,0.5473352670669556
1696082154935739600,4.97873974609375,-0.6737843751907349,0.3891211748123169,0.20952677726745605
1696082154945739800,4.98873974609375,-0.5064072608947754,0.3995058834552765,-0.17409659922122955
1696082154955739600,4.99873974609375,-0.2828305959701538,0.42577308416366577,-0.5375614166259766
1696082154965739800,5.00873974609375,0.03787364438176155,0.2076941877603531,-0.7446447610855103
1696082154975739600,5.01873974609375,0.32559117674827576,-0.33169981837272644,-0.9230173826217651
1696082154985739800,5.02873974609375,0.45265114307403564,-0.7348709106445312,-1.1808024644851685
1696082154995739600,5.03873974609375,0.48380526900291443,-0.8668177723884583,-1.1618657112121582
1696082155005739800,5.04873974609375,0.4648684561252594,-0.8155050873756409,-0.8460483551025391
1696082155015739600,5.05873974609375,0.4239404797554016,-0.6872233748435974,-0.4954117238521576
1696082155025739800,5.06873974609375,0.39645153284072876,-1.1246029138565063,-0.2577851414680481
1696082155035739600,5.07873974609375,0.3591887652873993,-1.9468275308609009,-0.01710422709584236
1696082155045739800,5.08873974609375,0.33108896017074585,-2.0671679973602295,0.4343251883983612
1696082155055739600,5.09873974609375,0.38240164518356323,-1.5748106241226196,0.8063421249389648
1696082155065739800,5.10873974609375,0.47219884395599365,-1.0659598112106323,0.8155050873756409
1696082155075739600,5.11873974609375,0.646906316280365,-0.8087855577468872,0.46670106053352356
1696082155085739500,5.128739501953125,0.8912523984909058,-0.7623597979545593,-0.06902777403593063
1696082155095739600,5.13873974609375,1.043968677520752,-0.779464066028595,-0.5583308339118958
1696082155105739500,5.148739501953125,1.1270463466644287,-0.788627028465271,-0.8900306820869446
1696082155115739600,5.15873974609375,1.2577714920043945,-0.7470881938934326,-1.0793988704681396
1696082155125739500,5.168739501953125,1.3848315477371216,-0.5687155723571777,-1.1551461219787598
1696082155135739600,5.17873974609375,1.4330898523330688,-0.20891591906547546,-1.2125675678253174
1696082155145739500,5.188739501953125,1.4306464195251465,0.33536502718925476,-1.3573426008224487
1696082155155739600,5.19873974609375,1.4636331796646118,0.9156870245933533,-1.6371188163757324
1696082155165739500,5.208739501953125,1.540602207183838,1.2779301404953003,-2.012800931930542
1696082155175740000,5.218739990234375,1.6016886234283447,1.3084733486175537,-2.3408355712890625
1696082155185740000,5.228739990234375,1.5894713401794434,1.007927656173706,-2.492330312728882
1696082155195740000,5.238739990234375,1.4776830673217773,0.49296826124191284,-2.3970351219177246
1696082155205740000,5.248739990234375,1.2675453424453735,-0.02626720629632473,-2.034792184829712
1696082155215740000,5.258739990234375,0.9724974632263184,-0.34025195240974426,-1.5125023126602173
1696082155225740000,5.268739990234375,0.6682865619659424,-0.4386012554168701,-1.007927656173706
1696082155235740000,5.278739990234375,0.45326200127601624,-0.3530801236629486,-0.617584764957428
1696082155245740000,5.288739990234375,0.3481931984424591,-0.19120082259178162,-0.3500257730484009
1696082155255740000,5.298739990234375,0.3078760802745819,-0.039706241339445114,-0.19547687470912933
1696082155265740000,5.308739990234375,0.29565876722335815,-0.14294247329235077,-0.17776179313659668
1696082155275740000,5.318739990234375,0.3500257730484009,-0.5119050741195679,-0.3121521472930908
1696082155285739800,5.32873974609375,0.44837507605552673,-0.9059131741523743,-0.5564982295036316
1696082155295740000,5.338739990234375,0.5106833577156067,-1.0458012819290161,-0.79840087890625
1696082155305739800,5.34873974609375,0.513737678527832,-0.9340129494667053,-1.0183123350143433
1696082155315740000,5.358739990234375,0.513126790523529,-0.7183775305747986,-1.1771373748779297
1696082155325739800,5.36873974609375,0.5540547966957092,-0.5204572081565857,-1.1954632997512817
1696082155335739400,5.378739501953125,0.6102544069290161,-0.44715335965156555,-1.0329731702804565
1696082155345739500,5.388739501953125,0.5931501388549805,-0.5222898125648499,-0.7525860071182251
1696082155355739400,5.398739501953125,0.43249258399009705,-0.6145304441452026,-0.4386012554168701
1696082155365739500,5.408739501953125,0.23640485107898712,-0.6047565937042236,-0.2021963894367218
1696082155375739400,5.418739501953125,0.14844025671482086,-0.53328537940979,-0.11911872029304504
1696082155385739500,5.428739501953125,0.16310101747512817,-0.4502076804637909,-0.19975294172763824
1696082155395739400,5.438739501953125,0.1918116807937622,-0.3536909818649292,-0.42088615894317627
1696082155405739500,5.448739501953125,0.22968533635139465,-0.2632829248905182,-0.7128797173500061
1696082155415739400,5.458739501953125,0.2993239760398865,-0.10567969083786011,-1.0030407905578613
1696082155425739500,5.468739501953125,0.38667771220207214,0.13744467496871948,-1.274264931678772
1696082155435739400,5.478739501953125,0.49235737323760986,0.3597996234893799,-1.4886785745620728
1696082155445739500,5.488739501953125,0.6316346526145935,0.4202753007411957,-1.5265522003173828
1696082155455739400,5.498739501953125,0.8063421249389648,0.2168571650981903,-1.273043155670166
1696082155465739500,5.508739501953125,0.9657779335975647,-0.1973094791173935,-0.7415903806686401
1696082155475739100,5.5187392578125,1.0231993198394775,-0.6218608021736145,-0.12400564551353455
1696082155485739000,5.528739013671875,0.9847147464752197,-0.8258898258209229,0.3597996234893799
1696082155495739100,5.5387392578125,0.9260717034339905,-0.7562511563301086,0.6126978397369385
1696082155505739000,5.548739013671875,0.8723155856132507,-0.5393940210342407,0.6505714654922485
1696082155515739100,5.5587392578125,0.8063421249389648,-0.3243694305419922,0.513737678527832
1696082155525739000,5.568739013671875,0.6817256212234497,-0.2620611786842346,0.24068090319633484
1696082155535739100,5.5787392578125,0.455705463886261,-0.3683517575263977,-0.021380282938480377
1696082155545739000,5.588739013671875,0.11972958594560623,-0.4746423065662384,-0.0861319974064827
1696082155555739100,5.5987392578125,-0.3127630054950714,-0.47769662737846375,0.10690141469240189
1696082155565739000,5.608739013671875,-0.7709119319915771,-0.4911356568336487,0.45631635189056396
1696082155575739100,5.6187392578125,-1.129489779472351,-0.578489363193512,0.901637077331543
1696082155585739000,5.628739013671875,-1.3249666690826416,-0.4758640229701996,1.4618005752563477
1696082155595739100,5.6387392578125,-1.3915510177612305,0.03848451003432274,2.161241292953491
1696082155605739000,5.648739013671875,-1.4776830673217773,0.7782423496246338,2.858849287033081
1696082155615739100,5.6587392578125,-1.6896532773971558,1.3744467496871948,3.308446168899536
1696082155625739000,5.668739013671875,-1.966986060142517,1.6371188163757324,3.393967390060425
1696082155635739400,5.678739501953125,-2.2266037464141846,1.4648548364639282,3.204599142074585
1696082155645739500,5.688739501953125,-2.411695957183838,1.017701506614685,2.941926956176758
1696082155655739400,5.698739501953125,-2.4630086421966553,0.3634648323059082,2.805093288421631
1696082155665739500,5.708739501953125,-2.326174736022949,-0.4605923891067505,2.822808265686035
1696082155675739100,5.7187392578125,-2.051896333694458,-1.3017538785934448,2.84968638420105
1696082155685739000,5.728739013671875,-1.7434093952178955,-1.9559905529022217,2.66337251663208
1696082155695739100,5.7387392578125,-1.4672982692718506,-2.263866662979126,2.272418737411499
1696082155705739000,5.748739013671875,-1.2205088138580322,-2.2492058277130127,1.7678439617156982
1696082155715739100,5.7587392578125,-1.0506882667541504,-2.0580050945281982,1.302364706993103
1696082155725739000,5.768739013671875,-1.0085384845733643,-1.6462818384170532,1.0421360731124878
1696082155735739100,5.7787392578125,-1.0714576244354248,-1.092837929725647,1.062294602394104
1696082155745739000,5.788739013671875,-1.1349875926971436,-0.5277875661849976,1.218676209449768
1696082155755739100,5.7987392578125,-1.1655309200286865,0.09346238523721695,1.301142930984497
1696082155765739000,5.808739013671875,-1.1655309200286865,0.5992587804794312,1.299310326576233
1696082155775739100,5.8187392578125,-1.1484266519546509,0.8454375267028809,1.2638801336288452
1696082155785739000,5.828739013671875,-1.1484266519546509,0.9053022861480713,1.2131783962249756
1696082155795739100,5.8387392578125,-1.149037480354309,0.8509352803230286,1.1435397863388062
1696082155805739000,5.848739013671875,-1.1441506147384644,0.6450737118721008,1.0708467960357666
1696082155815739100,5.8587392578125,-1.1484266519546509,0.3188716471195221,1.016479730606079
1696082155825739000,5.868739013671875,-1.1575896739959717,-0.004886921960860491,0.9841039180755615
1696082155835739100,5.8787392578125,-1.1520918607711792,-0.21441370248794556,0.9535606503486633
1696082155845739000,5.888739013671875,-1.0971139669418335,-0.16249015927314758,0.9138544201850891
1696082155855739100,5.8987392578125,-1.0085384845733643,0.05192354694008827,0.8411614298820496
1696082155865739000,5.908739013671875,-0.9279043078422546,0.4440990388393402,0.7110471725463867
1696082155875739100,5.9187392578125,-0.8497135639190674,0.9034696817398071,0.5534439086914062
1696082155885739000,5.928739013671875,-0.759916365146637,1.2907582521438599,0.4239404797554016
1696082155895739100,5.9387392578125,-0.6450737118721008,1.5473216772079468,0.32009339332580566
1696082155905739000,5.948739013671875,-0.50335294008255,1.6175711154937744,0.21441370248794556
1696082155915739100,5.9587392578125,-0.3341432809829712,1.547932505607605,0.08491026610136032
1696082155925739000,5.968739013671875,-0.14905111491680145,1.4031574726104736,-0.07513642311096191
1696082155935739100,5.9787392578125,0.029932396486401558,1.2571606636047363,-0.2687807083129883
1696082155945739000,5.988739013671875,0.192422553896904,1.1545352935791016,-0.4893030524253845
1696082155955738600,5.998738525390625,0.3494149148464203,1.0415252447128296,-0.7318165898323059
1696082155965738800,6.00873876953125,0.5167919993400574,0.8527678847312927,-0.9853256344795227
1696082155975739100,6.0187392578125,0.7049384713172913,0.6133087277412415,-1.2443325519561768
1696082155985739300,6.0287392578125,0.8888089060783386,0.4129449129104614,-1.5045610666275024
1696082155995739100,6.0387392578125,1.0299187898635864,0.29016098380088806,-1.750128984451294
1696082156005739300,6.0487392578125,1.053742527961731,0.2889392673969269,-1.976759910583496
1696082156015739100,6.0587392578125,0.9321803450584412,0.4300491213798523,-2.1453588008880615
1696082156025739300,6.0687392578125,0.7079927921295166,0.6743952035903931,-2.1264219284057617
1696082156035739000,6.07873876953125,0.37751471996307373,0.9236282706260681,-1.7256942987442017
1696082156045738800,6.08873876953125,0.01771509274840355,1.120937705039978,-1.2528846263885498
1696082156055739000,6.09873876953125,-0.16554448008537292,0.940121591091156,-1.0891727209091187
1696082156065738800,6.10873876953125,-0.22663100063800812,0.48808133602142334,-0.8240572214126587
1696082156075739000,6.11873876953125,-0.3634648323059082,0.11667526513338089,-0.3139847218990326
1696082156085738800,6.12873876953125,-0.6340781450271606,-0.03237585723400116,0.25473082065582275
1696082156095739000,6.13873876953125,-0.7305948138237,-0.2730567753314972,0.5797111392021179
1696082156105738800,6.14873876953125,-0.6762278079986572,-0.494189977645874,0.5583308339118958
1696082156115739000,6.15873876953125,-0.5870414972305298,-0.4612032473087311,0.25595253705978394
1696082156125738800,6.16873876953125,-0.4813618063926697,-0.2974913716316223,-0.1258382350206375
1696082156135737900,6.17873779296875,-0.33047810196876526,-0.33658674359321594,-0.3891211748123169
1696082156145738000,6.188738037109375,-0.1612684279680252,-0.6927211880683899,-0.4862487316131592
1696082156155737900,6.19873779296875,0.007941247895359993,-1.1997393369674683,-0.6902777552604675
1696082156165738000,6.208738037109375,0.14905111491680145,-1.2327260971069336,-0.9279043078422546
1696082156175737900,6.21873779296875,0.23029619455337524,-0.5167919993400574,-0.7238753437995911
1696082156185738000,6.228738037109375,0.1966986060142517,0.2926044464111328,-0.0659734457731247
1696082156195737900,6.23873779296875,0.3274237811565399,0.21991148591041565,0.6126978397369385
1696082156205738000,6.248738037109375,0.513737678527832,-0.29077184200286865,0.8900306820869446
1696082156215737900,6.25873779296875,0.637132465839386,-0.4001167416572571,0.9486737251281738
1696082156225738000,6.268738037109375,0.7672467231750488,-0.18509216606616974,0.8692612648010254
1696082156235738000,6.278738037109375,0.8637634515762329,-0.01038470957428217,0.6255260109901428
1696082156245738000,6.288738037109375,0.902247965335846,0.039706241339445114,0.23335053026676178
1696082156255738400,6.29873828125,0.9627236127853394,-0.0757472887635231,-0.20586158335208893
1696082156265738200,6.30873828125,1.0195341110229492,-0.3139847218990326,-0.5448917746543884
1696082156275738400,6.31873828125,1.0403034687042236,-0.6133087277412415,-0.7330383062362671
1696082156285738200,6.32873828125,1.0286970138549805,-0.9492846131324768,-0.827722430229187
1696082156295738400,6.33873828125,1.0219775438308716,-1.2113457918167114,-1.045190453529358
1696082156305738200,6.34873828125,1.0525208711624146,-1.2779301404953003,-1.4953981637954712
1696082156315738400,6.35873828125,1.1508700847625732,-1.1398745775222778,-1.9694294929504395
1696082156325738200,6.36873828125,1.2492194175720215,-0.8289441466331482,-2.263866662979126
1696082156335739000,6.37873876953125,1.313360333442688,-0.4660901725292206,-2.3487768173217773
1696082156345738800,6.38873876953125,1.3231340646743774,-0.20586158335208893,-2.272418737411499
1696082156355739000,6.39873876953125,1.2760975360870361,-0.06352998316287994,-2.0677788257598877
1696082156365738800,6.40873876953125,1.1746938228607178,0.00427605677396059,-1.7409659624099731
1696082156375739000,6.41873876953125,1.0317513942718506,0.04337143152952194,-1.3432927131652832
1696082156385738800,6.42873876953125,0.8735373020172119,0.11362093687057495,-0.979827880859375
1696082156395739000,6.43873876953125,0.749531626701355,0.2321287989616394,-0.7214318513870239
1696082156405738800,6.44873876953125,0.6627888083457947,0.32559117674827576,-0.5852088928222656
1696082156415739000,6.45873876953125,0.607810914516449,0.3683517575263977,-0.5302310585975647
1696082156425738800,6.46873876953125,0.5717698931694031,0.2681698501110077,-0.5161811113357544
1696082156435739600,6.47873974609375,0.5699372887611389,0.022602014243602753,-0.5222898125648499
1696082156445739500,6.488739501953125,0.6023131608963013,-0.26145032048225403,-0.5687155723571777
1696082156455739600,6.49873974609375,0.6218608021736145,-0.5644394755363464,-0.6908885836601257
1696082156465739800,6.50873974609375,0.6536257863044739,-0.8063421249389648,-0.8558222055435181
1696082156475739600,6.51873974609375,0.6902777552604675,-0.8759807348251343,-0.9908234477043152
1696082156485739800,6.52873974609375,0.7012733221054077,-0.7635815739631653,-1.0952813625335693
1696082156495739600,6.53873974609375,0.7037167549133301,-0.5693264007568359,-1.1789699792861938
1696082156505739800,6.54873974609375,0.7293730974197388,-0.3604104816913605,-1.1905763149261475
1696082156515739600,6.55873974609375,0.7739662528038025,-0.17348572611808777,-1.1264355182647705
1696082156525739500,6.568739501953125,0.7867944240570068,-0.06963863968849182,-0.9999864101409912
1696082156535739400,6.578739501953125,0.7324274182319641,-0.08246681094169617,-0.8478809595108032
1696082156545739500,6.588739501953125,0.6420193910598755,-0.1973094791173935,-0.7226535677909851
1696082156555739400,6.598739501953125,0.5571091175079346,-0.3579670190811157,-0.6737843751907349
1696082156565739500,6.608739501953125,0.5216789245605469,-0.43799036741256714,-0.7141014933586121
1696082156575739600,6.61873974609375,0.5259549617767334,-0.37568211555480957,-0.827111542224884
1696082156585739500,6.628739501953125,0.5534439086914062,-0.21930062770843506,-0.970054030418396
1696082156595739600,6.63873974609375,0.598647952079773,-0.05253441259264946,-1.0787880420684814
1696082156605739500,6.648739501953125,0.684779942035675,0.012828170321881771,-1.1099421977996826
1696082156615739600,6.65873974609375,0.8057312369346619,-0.0708603709936142,-1.0390818119049072
1696082156625739500,6.668739501953125,0.9126327037811279,-0.24495697021484375,-0.8362745046615601
1696082156635739600,6.67873974609375,0.960280179977417,-0.39217549562454224,-0.49785518646240234
1696082156645739500,6.688739501953125,0.9462302923202515,-0.43615779280662537,-0.10323622822761536
1696082156655739600,6.69873974609375,0.9089674949645996,-0.3488040566444397,0.24190263450145721
1696082156665739500,6.708739501953125,0.8808676600456238,-0.19364428520202637,0.44837507605552673
1696082156675739600,6.71873974609375,0.8393288254737854,-0.0757472887635231,0.48869219422340393
1696082156685739500,6.728739501953125,0.7397578358650208,-0.04703662544488907,0.3781255781650543
1696082156695739600,6.73873974609375,0.5338962078094482,-0.10201449692249298,0.15882496535778046
1696082156705739500,6.748739501953125,0.192422553896904,-0.20402899384498596,-0.039095375686883926
1696082156715739000,6.75873876953125,-0.24923302233219147,-0.2742784917354584,-0.07391469180583954
1696082156725738800,6.76873876953125,-0.7238753437995911,-0.2840523421764374,0.12339477986097336
1696082156735739000,6.77873876953125,-1.1105530261993408,-0.3176499307155609,0.5112941861152649
1696082156745738800,6.78873876953125,-1.3390166759490967,-0.3237585723400116,1.0506882667541504
1696082156755738600,6.798738525390625,-1.4489723443984985,-0.16004669666290283,1.680490255355835
1696082156765738800,6.80873876953125,-1.5460999011993408,0.22846360504627228,2.3035728931427
1696082156775739000,6.81873876953125,-1.7495180368423462,0.6835582256317139,2.788599729537964
1696082156785739000,6.828739013671875,-2.0445659160614014,0.9621127843856812,3.062878370285034
1696082156795739000,6.83873876953125,-2.3548855781555176,0.9859365224838257,3.0909781455993652
1696082156805739000,6.848739013671875,-2.604118585586548,0.7391469478607178,2.940094470977783
1696082156815739000,6.85873876953125,-2.730567693710327,0.16371189057826996,2.726902484893799
1696082156825739000,6.868739013671875,-2.6988027095794678,-0.6432411074638367,2.5729644298553467
1696082156835739000,6.87873876953125,-2.434298038482666,-1.367727279663086,2.490497589111328
1696082156845739000,6.888739013671875,-2.0360138416290283,-1.9737056493759155,2.4691174030303955
1696082156855739000,6.89873876953125,-1.6584991216659546,-2.258979558944702,2.3206770420074463
1696082156865739000,6.908739013671875,-1.3701707124710083,-2.0622811317443848,1.99752938747406
1696082156875739000,6.91873876953125,-1.1826350688934326,-1.4899003505706787,1.557706356048584
1696082156885738800,6.92873876953125,-1.0873401165008545,-0.816726803779602,1.2027937173843384
1696082156895739000,6.93873876953125,-1.0219775438308716,-0.494189977645874,1.1423180103302002
1696082156905738800,6.94873876953125,-1.027475357055664,-0.21319197118282318,1.205847978591919
1696082156915739000,6.95873876953125,-1.0604621171951294,0.2272418737411499,1.2583824396133423
1696082156925738800,6.96873876953125,-1.0610729455947876,0.5320636034011841,1.2864822149276733
1696082156935739000,6.97873876953125,-1.026253581047058,0.48869219422340393,1.2736539840698242
1696082156945738800,6.98873876953125,-1.0042624473571777,0.28649580478668213,1.2260065078735352
1696082156955739000,6.99873876953125,-1.0219775438308716,0.1569923609495163,1.1423180103302002
1696082156965738800,7.00873876953125,-1.073290228843689,0.15454891324043274,1.0427470207214355
1696082156975739000,7.01873876953125,-1.131933331489563,0.17776179313659668,0.9779952764511108
1696082156985739000,7.028739013671875,-1.1808024644851685,0.16371189057826996,0.9382890462875366
1696082156995739000,7.03873876953125,-1.215621829032898,0.13927727937698364,0.8778133392333984
1696082157005739000,7.048739013671875,-1.2150110006332397,0.14844025671482086,0.7782423496246338
1696082157015739600,7.05873974609375,-1.1575896739959717,0.3225368559360504,0.6627888083457947
1696082157025739800,7.06873974609375,-1.045190453529358,0.6322455406188965,0.53328537940979
1696082157035739600,7.07873974609375,-0.8998045325279236,0.9230173826217651,0.40256020426750183
1696082157045739800,7.08873974609375,-0.7605272531509399,1.1410962343215942,0.27061331272125244
1696082157055739600,7.09873974609375,-0.6310238242149353,1.2779301404953003,0.1661553531885147
1696082157065739800,7.10873974609375,-0.4996877610683441,1.3829989433288574,0.08796459436416626
1696082157075739600,7.11873974609375,-0.35735616087913513,1.4324790239334106,0.025656340643763542
1696082157085739500,7.128739501953125,-0.2076941877603531,1.3933836221694946,-0.05803219974040985
1696082157095739600,7.13873974609375,-0.05925392732024193,1.3176363706588745,-0.1771509200334549
1696082157105739500,7.148739501953125,0.08918632566928864,1.2620476484298706,-0.31520646810531616
1696082157115739600,7.15873974609375,0.2321287989616394,1.1936306953430176,-0.47769662737846375
1696082157125739500,7.168739501953125,0.3787364661693573,1.0629055500030518,-0.6713408827781677
1696082157135739600,7.17873974609375,0.5393940210342407,0.8747590184211731,-0.9004153609275818
1696082157145739500,7.188739501953125,0.7183775305747986,0.6884451508522034,-1.1478158235549927
1696082157155739600,7.19873974609375,0.8869763612747192,0.5626068711280823,-1.4110987186431885
1696082157165739500,7.208739501953125,0.9950994849205017,0.5149593949317932,-1.670716404914856
1696082157175739600,7.21873974609375,0.9877691268920898,0.5626068711280823,-1.872912883758545
1696082157185739500,7.228739501953125,0.8503243923187256,0.6878342628479004,-1.9071213006973267
1696082157195739600,7.23873974609375,0.5907067060470581,0.8142833709716797,-1.5992451906204224
1696082157205739500,7.248739501953125,0.22846360504627228,0.8967501521110535,-1.1239920854568481
1696082157215739600,7.25873974609375,-0.06169738993048668,0.788627028465271,-0.9676105380058289
1696082157225739500,7.268739501953125,-0.2015855312347412,0.4386012554168701,-0.9908234477043152
1696082157235739600,7.27873974609375,-0.29138273000717163,0.03726277872920036,-0.7635815739631653
1696082157245739500,7.288739501953125,-0.42577308416366577,-0.3182607889175415,-0.2779437005519867
1696082157255739600,7.29873974609375,-0.5369505286216736,-0.4899139404296875,0.15943582355976105
1696082157265739500,7.308739501953125,-0.5668829679489136,-0.41661009192466736,0.30482175946235657
1696082157275739400,7.318739501953125,-0.5491678714752197,-0.10384709388017654,0.19792033731937408
1696082157285739500,7.328739501953125,-0.4893030524253845,0.3646865487098694,-0.027488935738801956
1696082157295739400,7.338739501953125,-0.3292563557624817,0.7776314616203308,-0.2889392673969269
1696082157305739500,7.348739501953125,-0.04214970022439957,0.8765916228294373,-0.4386012554168701
1696082157315739400,7.358739501953125,0.1966986060142517,0.48197266459465027,-0.4147774875164032
1696082157325739500,7.368739501953125,0.21807889640331268,0.10812314599752426,-0.48197266459465027
1696082157335740200,7.378740234375,0.1215621829032898,-0.18570303916931152,-0.5070181488990784
1696082157345740300,7.388740234375,0.012828170321881771,-0.6420193910598755,-0.3744603991508484
1696082157355740200,7.398740234375,-0.07757988572120667,-1.2663236856460571,-0.2840523421764374
1696082157365740300,7.408740234375,-0.08796459436416626,-2.330451011657715,-0.2968805134296417
1696082157375740200,7.418740234375,-0.09651670604944229,-2.961474657058716,-0.06169738993048668
1696082157385740000,7.428739990234375,-0.10445795953273773,-2.5057692527770996,0.46547931432724
1696082157395740200,7.438740234375,-0.006719517521560192,-2.1258111000061035,0.6725626587867737
1696082157405740000,7.448739990234375,0.14416420459747314,-1.7635679244995117,0.4440990388393402
1696082157415740200,7.458740234375,0.3280346393585205,-1.2162326574325562,0.08674286305904388
1696082157425740000,7.468739990234375,0.6401867866516113,-0.7379252314567566,-0.17531833052635193
1696082157435740200,7.478740234375,1.0134254693984985,-0.35674530267715454,-0.3170390725135803
1696082157445740000,7.488739990234375,1.2932016849517822,0.0403171069920063,-0.45265114307403564
1696082157455740200,7.498740234375,1.4404202699661255,0.323147714138031,-0.5949827432632446
1696082157465740000,7.508739990234375,1.4300355911254883,0.5729916095733643,-0.79840087890625
1696082157475740200,7.518740234375,1.3561208248138428,0.9321803450584412,-1.034194827079773
1696082157485740000,7.528739990234375,1.2516628503799438,1.3274102210998535,-1.2394455671310425
1696082157495740200,7.538740234375,1.1985175609588623,1.6591099500656128,-1.4288138151168823
1696082157505740000,7.548739990234375,1.3542882204055786,1.5234979391098022,-1.9187277555465698
1696082157515740200,7.558740234375,1.651168704032898,0.6401867866516113,-2.685974597930908
1696082157525740000,7.568739990234375,1.7989981174468994,-0.5363397002220154,-3.103806257247925
1696082157535740200,7.578740234375,1.750128984451294,-1.5974125862121582,-2.9712486267089844
1696082157545740000,7.588739990234375,1.5650367736816406,-2.2986860275268555,-2.4294111728668213
1696082157555740200,7.598740234375,1.3213015794754028,-2.378709316253662,-1.6823228597640991
1696082157565740000,7.608739990234375,1.054964303970337,-1.8851301670074463,-0.9639453291893005
1696082157575740200,7.618740234375,0.8387179970741272,-0.9553932547569275,-0.4288274049758911
1696082157585740300,7.628740234375,0.7446447610855103,-0.006719517521560192,-0.1466076523065567
1696082157595740200,7.638740234375,0.7055493593215942,0.6976081132888794,-0.03787364438176155
1696082157605740300,7.648740234375,0.6805039048194885,0.9724974632263184,-0.02015855349600315
1696082157615740200,7.658740234375,0.6664539575576782,0.7629706859588623,-0.0959058403968811
1696082157625740300,7.668740234375,0.6872233748435974,0.22663100063800812,-0.26939156651496887
1696082157635739400,7.678739501953125,0.7422012686729431,-0.4648684561252594,-0.588874101638794
1696082157645739500,7.688739501953125,0.8283332586288452,-1.0073168277740479,-0.9877691268920898
1696082157655739400,7.698739501953125,0.8814785480499268,-1.2901474237442017,-1.3280210494995117
1696082157665739500,7.708739501953125,0.8674286603927612,-1.2809844017028809,-1.4550809860229492
1696082157675739600,7.71873974609375,0.8155050873756409,-1.122159481048584,-1.3426817655563354
1696082157685739500,7.728739501953125,0.7605272531509399,-0.8796459436416626,-1.0506882667541504
1696082157695739600,7.73873974609375,0.6811147332191467,-0.6023131608963013,-0.6762278079986572
1696082157705739500,7.748739501953125,0.5558874011039734,-0.3481931984424591,-0.3799581825733185
1696082157715739600,7.75873974609375,0.4508185386657715,-0.1661553531885147,-0.28588494658470154
1696082157725739800,7.76873974609375,0.3842342495918274,-0.08246681094169617,-0.3988949954509735
1696082157735739600,7.77873974609375,0.3634648323059082,-0.08246681094169617,-0.6536257863044739
1696082157745739800,7.78873974609375,0.3982841372489929,-0.06352998316287994,-0.9230173826217651
1696082157755739600,7.79873974609375,0.47830748558044434,0.07452555745840073,-1.0696250200271606
1696082157765739500,7.808739501953125,0.5717698931694031,0.21563543379306793,-1.0519099235534668
1696082157775739600,7.81873974609375,0.6633996367454529,0.21013765037059784,-0.8674286603927612
1696082157785739500,7.828739501953125,0.7324274182319641,-0.00855211354792118,-0.5485569834709167
1696082157795739600,7.83873974609375,0.7476990818977356,-0.3744603991508484,-0.17959438264369965
1696082157805739500,7.848739501953125,0.7195992469787598,-0.7147123217582703,0.14233160018920898
1696082157815739600,7.85873974609375,0.694553792476654,-0.8393288254737854,0.3744603991508484
1696082157825739500,7.868739501953125,0.6701191663742065,-0.6896668672561646,0.503963828086853
1696082157835739600,7.87873974609375,0.6426302194595337,-0.4050036668777466,0.5186246037483215
1696082157845739500,7.888739501953125,0.6041457056999207,-0.2119702398777008,0.3781255781650543
1696082157855739600,7.89873974609375,0.5106833577156067,-0.2785545587539673,0.11789698898792267
1696082157865739500,7.908739501953125,0.29626965522766113,-0.4801400899887085,-0.05375614017248154
1696082157875739400,7.918739501953125,-0.039095375686883926,-0.5088507533073425,0.06108652427792549
1696082157885739500,7.928739501953125,-0.47219884395599365,-0.31093040108680725,0.44654250144958496
1696082157895739400,7.938739501953125,-0.902247965335846,-0.15760323405265808,0.9437867999076843
1696082157905739500,7.948739501953125,-1.216843605041504,-0.1569923609495163,1.4563027620315552
1696082157915739400,7.958739501953125,-1.4172073602676392,-0.09162978827953339,1.9993619918823242
1696082157925739500,7.968739501953125,-1.49906325340271,0.06780604273080826,2.27852725982666
1696082157935739400,7.978739501953125,-1.6878206729888916,0.6188064813613892,2.7953193187713623
1696082157945739500,7.988739501953125,-1.9700404405593872,1.1362093687057495,3.0500502586364746
1696082157955739400,7.998739501953125,-2.30051851272583,1.3213015794754028,2.965139865875244
1696082157965739500,8.008739501953125,-2.5973989963531494,1.158811330795288,2.7543914318084717
1696082157975739600,8.01873974609375,-2.8008172512054443,0.8515461683273315,2.5717427730560303
1696082157985739500,8.028739501953124,-2.8356363773345947,0.5894849896430969,2.4434609413146973
1696082157995739600,8.03873974609375,-2.6566529273986816,0.3481931984424591,2.395813465118408
1696082158005739500,8.048739501953126,-2.31945538520813,-0.1062905490398407,2.428189277648926
1696082158015739600,8.05873974609375,-1.9663752317428589,-0.7397578358650208,2.3518311977386475
1696082158025739500,8.068739501953125,-1.693318486213684,-1.2846496105194092,2.0427334308624268
1696082158035739600,8.07873974609375,-1.4978415966033936,-1.5008958578109741,1.570534586906433
1696082158045739500,8.088739501953125,-1.3347405195236206,-1.4758504629135132,1.2125675678253174
1696082158055739600,8.09873974609375,-1.2424999475479126,-1.2687671184539795,1.1636983156204224
1696082158065739500,8.108739501953124,-1.2394455671310425,-0.8509352803230286,1.3274102210998535
1696082158075739600,8.11873974609375,-1.2614367008209229,-0.2577851414680481,1.4147639274597168
1696082158085739500,8.128739501953126,-1.226617455482483,0.4251621961593628,1.3463469743728638
1696082158095739600,8.13873974609375,-1.1575896739959717,0.8973610401153564,1.236391305923462
1696082158105739500,8.148739501953125,-1.0696250200271606,0.8668177723884583,1.1545352935791016
1696082158115739600,8.15873974609375,-0.9999864101409912,0.46731191873550415,1.0965031385421753
1696082158125739500,8.168739501953125,-0.9804387092590332,0.033597588539123535,1.0097602605819702
1696082158135739100,8.1787392578125,-1.0097602605819702,-0.2474004179239273,0.8924741148948669
1696082158145739300,8.1887392578125,-1.0641272068023682,-0.30970868468284607,0.778853178024292
1696082158155739100,8.1987392578125,-1.1252137422561646,-0.18387043476104736,0.6823364496231079
1696082158165739300,8.2087392578125,-1.1447614431381226,0.09285151958465576,0.6505714654922485
1696082158175739100,8.2187392578125,-1.112385630607605,0.4105014503002167,0.6762278079986572
1696082158185739300,8.2287392578125,-1.0299187898635864,0.7006624341011047,0.7031059265136719
1696082158195739100,8.2387392578125,-0.9150761365890503,0.9804387092590332,0.6835582256317139
1696082158205739300,8.2487392578125,-0.8051204085350037,1.1917980909347534,0.5858197808265686
1696082158215739100,8.2587392578125,-0.6921103000640869,1.3573426008224487,0.45142942667007446
1696082158225739300,8.2687392578125,-0.5455026626586914,1.4526375532150269,0.33047810196876526
1696082158235739100,8.2787392578125,-0.3585779070854187,1.386053204536438,0.21441370248794556
1696082158245739300,8.2887392578125,-0.14233160018920898,1.2125675678253174,0.06230825558304787
1696082158255739100,8.2987392578125,0.07208210229873657,1.024420976638794,-0.13744467496871948
1696082158265739000,8.308739013671875,0.2577851414680481,0.9248499870300293,-0.36163222789764404
1696082158275739100,8.3187392578125,0.4294382631778717,0.8808676600456238,-0.5992587804794312
1696082158285739000,8.328739013671875,0.6279694437980652,0.8014551997184753,-0.8411614298820496
1696082158295739100,8.3387392578125,0.8515461683273315,0.6994407176971436,-1.0855075120925903
1696082158305739000,8.348739013671874,1.0586295127868652,0.6805039048194885,-1.3274102210998535
1696082158315739100,8.3587392578125,1.1746938228607178,0.7837401032447815,-1.5430456399917603
1696082158325739000,8.368739013671876,1.1655309200286865,1.0225883722305298,-1.700037956237793
1696082158335739100,8.3787392578125,1.0396926403045654,1.3823879957199097,-1.777006983757019
1696082158345739000,8.388739013671875,0.7574729323387146,1.681712031364441,-1.6591099500656128
1696082158355739100,8.3987392578125,0.30054569244384766,1.7751743793487549,-1.4672982692718506
1696082158365739000,8.408739013671875,-0.20036379992961884,1.205847978591919,-1.4886785745620728
1696082158375739100,8.4187392578125,-0.6120869517326355,0.17348572611808777,-1.3494013547897339
1696082158385739000,8.428739013671875,-0.8460483551025391,-0.6041457056999207,-0.6878342628479004
1696082158395739100,8.4387392578125,-0.8881980776786804,-1.0042624473571777,0.26145032048225403
1696082158405739000,8.448739013671876,-0.8045095205307007,-1.1905763149261475,0.7489207983016968
1696082158415739100,8.4587392578125,-0.7195992469787598,-0.9254608750343323,0.6676757335662842
1696082158425739000,8.468739013671875,-0.6933320760726929,-0.43615779280662537,0.2718350291252136
1696082158435739100,8.4787392578125,-0.6017022728919983,0.019547687843441963,-0.20097467303276062
1696082158445739000,8.488739013671875,-0.3878994286060333,0.25045475363731384,-0.48747047781944275
1696082158455739100,8.4987392578125,-0.13377949595451355,0.01771509274840355,-0.485027015209198
1696082158465739000,8.508739013671875,0.06719517707824707,-0.3732386529445648,-0.5662720799446106
1696082158475739100,8.5187392578125,0.28038713335990906,-0.42271876335144043,-0.6096435189247131
1696082158485739000,8.528739013671874,0.46853363513946533,-0.05803219974040985,-0.2590068578720093
1696082158495739100,8.5387392578125,0.45204028487205505,0.24678955972194672,0.31154128909111023
1696082158505739000,8.548739013671875,0.3903428912162781,-0.3182607889175415,0.6780604124069214
1696082158515739100,8.5587392578125,0.4050036668777466,-1.3347405195236206,0.6835582256317139
1696082158525739000,8.568739013671875,0.5100724697113037,-1.6438384056091309,0.656069278717041
1696082158535739100,8.5787392578125,0.6255260109901428,-1.2388347387313843,0.6322455406188965
1696082158545739000,8.588739013671875,0.6866125464439392,-0.8106181621551514,0.5302310585975647
1696082158555739100,8.5987392578125,0.7635815739631653,-0.8429940342903137,0.39584067463874817
1696082158565739000,8.608739013671874,0.8735373020172119,-1.2956452369689941,0.19120082259178162
1696082158575739100,8.6187392578125,1.0286970138549805,-1.7916678190231323,-0.09224065393209457
1696082158585739000,8.628739013671876,1.1966849565505981,-2.1148154735565186,-0.4043927788734436
1696082158595739100,8.6387392578125,1.3310753107070923,-2.074498414993286,-0.6921103000640869
1696082158605739000,8.648739013671875,1.3811663389205933,-1.7177530527114868,-0.9718865752220154
1696082158615739100,8.6587392578125,1.3750576972961426,-1.111163854598999,-1.226617455482483
1696082158625739000,8.668739013671875,1.357953429222107,-0.25534167885780334,-1.519832730293274
1696082158635739100,8.6787392578125,1.4062118530273438,0.720820963382721,-1.8857409954071045
1696082158645739000,8.688739013671874,1.49906325340271,1.4196507930755615,-2.2968533039093018
1696082158655739100,8.6987392578125,1.5613715648651123,1.632842779159546,-2.6566529273986816
1696082158665739000,8.708739013671876,1.549154281616211,1.3530665636062622,-2.822197437286377
1696082158675739100,8.7187392578125,1.4660766124725342,0.7275404930114746,-2.671924591064453
1696082158685739000,8.728739013671875,1.320690631866455,0.10812314599752426,-2.194227933883667
1696082158695739100,8.7387392578125,1.1154398918151855,-0.2987131178379059,-1.510058879852295
1696082158705739000,8.748739013671875,0.8759807348251343,-0.4001167416572571,-0.8943067193031311
1696082158715739100,8.7587392578125,0.656069278717041,-0.17104226350784302,-0.5216789245605469
1696082158725739000,8.768739013671874,0.5167919993400574,0.16310101747512817,-0.4105014503002167
1696082158735739400,8.778739501953124,0.45204028487205505,0.42638394236564636,-0.4337143301963806
1696082158745739500,8.788739501953126,0.43737950921058655,0.5283984541893005,-0.48808133602142334
1696082158755739400,8.798739501953126,0.45204028487205505,0.40744712948799133,-0.5479460954666138
1696082158765739500,8.808739501953125,0.48258355259895325,0.19547687470912933,-0.5845980644226074
1696082158775739400,8.818739501953125,0.5656611919403076,-0.08491026610136032,-0.6701191663742065
1696082158785739500,8.828739501953125,0.6969972252845764,-0.3078760802745819,-0.8497135639190674
1696082158795739400,8.838739501953125,0.8032878041267395,-0.47708576917648315,-1.0677924156188965
1696082158805739500,8.848739501953125,0.8381071090698242,-0.5736024379730225,-1.2809844017028809
1696082158815739400,8.858739501953124,0.8319984674453735,-0.5412266254425049,-1.3946053981781006
1696082158825739500,8.868739501953126,0.8338310718536377,-0.4245513379573822,-1.3530665636062622
1696082158835739400,8.878739501953126,0.8588765263557434,-0.3335324227809906,-1.186300277709961
1696082158845739500,8.888739501953125,0.9004153609275818,-0.2877175211906433,-0.9431759119033813
1696082158855739400,8.898739501953125,0.9004153609275818,-0.24678955972194672,-0.6976081132888794
1696082158865739500,8.908739501953125,0.8326093554496765,-0.22479841113090515,-0.5558874011039734
1696082158875739400,8.918739501953125,0.7354817390441895,-0.23335053026676178,-0.5766568183898926
1696082158885739500,8.928739501953125,0.646295428276062,-0.2669481039047241,-0.7654141783714294
1696082158895739400,8.938739501953124,0.607200026512146,-0.29504790902137756,-1.0329731702804565
1696082158905739500,8.948739501953124,0.6346889734268188,-0.2565633952617645,-1.2119566202163696
1696082158915739400,8.958739501953126,0.7086036801338196,-0.12400564551353455,-1.1820242404937744
1696082158925739500,8.968739501953126,0.8002334833145142,-0.019547687843441963,-0.9376781582832336
1696082158935739400,8.978739501953125,0.8698720932006836,-0.06780604273080826,-0.5638286471366882
1696082158945739500,8.988739501953125,0.8918632864952087,-0.2168571650981903,-0.14416420459747314
1696082158955739400,8.998739501953125,0.8747590184211731,-0.34208452701568604,0.2480112910270691
1696082158965739500,9.008739501953125,0.8423831462860107,-0.3995058834552765,0.5082398653030396
1696082158975739400,9.018739501953124,0.8087855577468872,-0.4288274049758911,0.5522221922874451
1696082158985739500,9.028739501953124,0.7568620443344116,-0.4715879559516907,0.37690386176109314
1696082158995739400,9.038739501953126,0.6407976150512695,-0.5082398653030396,0.08552113175392151
1696082159005739500,9.048739501953126,0.4178318381309509,-0.5094616413116455,-0.15332718193531036
1696082159015739400,9.058739501953125,0.09529497474431992,-0.48258355259895325,-0.23396138846874237
1696082159025739500,9.068739501953125,-0.2877175211906433,-0.4282165467739105,-0.08857546001672745
1696082159035739400,9.078739501953125,-0.6731734871864319,-0.3341432809829712,0.2932153046131134
1696082159045739500,9.088739501953125,-1.0073168277740479,-0.2742784917354584,0.8008443117141724
1696082159055739400,9.098739501953125,-1.224173903465271,-0.3084869384765625,1.2950342893600464
1696082159065739500,9.108739501953124,-1.2748757600784302,-0.27977627515792847,1.7739527225494385
1696082159075739400,9.118739501953126,-1.217454433441162,0.12095131725072861,2.3212878704071045
1696082159085739500,9.128739501953126,-1.2760975360870361,0.846659243106842,2.8747317790985107
1696082159095739400,9.138739501953125,-1.615127682685852,1.423926830291748,3.1477885246276855
1696082159105739500,9.148739501953125,-2.1392500400543213,1.703092336654663,2.976135492324829
1696082159115739400,9.158739501953125,-2.6639833450317383,1.4477506875991821,2.540588617324829
1696082159125739500,9.168739501953125,-2.995072364807129,0.8778133392333984,2.186286687850952
1696082159135739400,9.178739501953125,-3.059213161468506,0.32681289315223694,2.0916025638580322
1696082159145739500,9.188739501953124,-2.881451368331909,-0.19608774781227112,2.211332082748413
1696082159155739400,9.198739501953124,-2.520430088043213,-0.8765916228294373,2.4642302989959717
1696082159165739500,9.208739501953126,-2.1447479724884033,-1.7299703359603882,2.571131706237793
1696082159175739400,9.218739501953126,-1.8600846529006958,-2.249816656112671,2.2174408435821533
1696082159185739500,9.228739501953125,-1.6273449659347534,-2.3359487056732178,1.5632041692733765
1696082159195739400,9.238739501953125,-1.443474531173706,-2.034792184829712,1.072068452835083
1696082159205739500,9.248739501953125,-1.4123204946517944,-1.2687671184539795,0.9938777685165405
1696082159215739400,9.258739501953125,-1.453248381614685,-0.33475416898727417,1.1282681226730347
1696082159225739500,9.268739501953124,-1.4190399646759033,0.5552765130996704,1.2192870378494263
1696082159235739400,9.278739501953124,-1.3176363706588745,1.1349875926971436,1.253495454788208
1696082159245739500,9.288739501953126,-1.1655309200286865,1.205847978591919,1.2791517972946167
1696082159255739400,9.298739501953126,-1.0323622226715088,0.9676105380058289,1.3127493858337402
1696082159265739500,9.308739501953125,-0.9517280459403992,0.5241223573684692,1.3139711618423462
1696082159275739400,9.318739501953125,-0.9162978529930115,0.11301007121801376,1.2424999475479126
1696082159285739500,9.328739501953125,-0.930347740650177,-0.019547687843441963,1.1282681226730347
1696082159295739400,9.338739501953125,-0.9761626720428467,0.02687807008624077,1.0531316995620728
1696082159305739500,9.348739501953125,-1.0403034687042236,0.09468411654233932,1.0122036933898926
1696082159315739400,9.358739501953124,-1.083064079284668,0.10934487730264664,0.9834930300712585
1696082159325739500,9.368739501953126,-1.0855075120925903,0.1765400618314743,0.9431759119033813
1696082159335739400,9.378739501953126,-1.0183123350143433,0.34147366881370544,0.8594874143600464
1696082159345739500,9.388739501953125,-0.8998045325279236,0.5681046843528748,0.7165449261665344
1696082159355739400,9.398739501953125,-0.7489207983016968,0.7898487448692322,0.543059229850769
1696082159365739500,9.408739501953125,-0.5943718552589417,0.9804387092590332,0.3787364661693573
1696082159375739400,9.418739501953125,-0.44165557622909546,1.0879509449005127,0.242513507604599
1696082159385739500,9.428739501953125,-0.2919935882091522,1.0708467960357666,0.13255776464939117
1696082159395739400,9.438739501953124,-0.1368338167667389,0.9633345007896423,0.01160643994808197
1696082159405739500,9.448739501953124,0.025045474991202354,0.8539896011352539,-0.1508837193250656
1696082159415739400,9.458739501953126,0.18814650177955627,0.8228355050086975,-0.36224308609962463
1696082159425739500,9.468739501953126,0.36713001132011414,0.8338310718536377,-0.6041457056999207
1696082159435739400,9.478739501953125,0.5821545720100403,0.8045095205307007,-0.8710938692092896
1696082159445739500,9.488739501953125,0.8387179970741272,0.7348709106445312,-1.1478158235549927
1696082159455739400,9.498739501953125,1.1148290634155273,0.7073819637298584,-1.4214833974838257
1696082159465739500,9.508739501953125,1.3310753107070923,0.8069530129432678,-1.6615535020828247
1696082159475739400,9.518739501953124,1.398881435394287,1.0403034687042236,-1.8576412200927734
1696082159485739500,9.528739501953124,1.2858713865280151,1.3365731239318848,-2.023796558380127
1696082159495739400,9.538739501953126,0.9755517840385437,1.5656476020812988,-1.965153455734253
1696082159505739500,9.548739501953126,0.4508185386657715,1.8283196687698364,-1.5845844745635986
1696082159515739400,9.558739501953125,-0.10567969083786011,1.8710802793502808,-1.351233959197998
1696082159525739500,9.568739501953125,-0.4715879559516907,1.3469579219818115,-1.2956452369689941
1696082159535739400,9.578739501953125,-0.5815436840057373,0.1661553531885147,-0.9841039180755615
1696082159545739500,9.588739501953125,-0.5693264007568359,-1.2082914113998413,-0.2541199326515198
1696082159555739400,9.598739501953125,-0.646906316280365,-2.0219640731811523,0.37568211555480957
1696082159565739500,9.608739501953124,-0.6908885836601257,-2.004248857498169,0.4746423065662384
1696082159575739400,9.618739501953126,-0.6505714654922485,-1.4074335098266602,0.24923302233219147
1696082159585739500,9.628739501953126,-0.5674937963485718,-0.6163630485534668,-0.05192354694008827
1696082159595739400,9.638739501953125,-0.33292156457901,-0.09346238523721695,-0.2583959996700287
1696082159605739500,9.648739501953125,-0.029932396486401558,-0.23273965716362,-0.1918116807937622
1696082159615739400,9.658739501953125,0.152105450630188,-0.7110471725463867,-0.11423180252313614
1696082159625739500,9.668739501953125,0.23579397797584534,-0.7739662528038025,-0.05925392732024193
1696082159635739400,9.678739501953125,0.3170390725135803,-0.38117989897727966,0.2877175211906433
1696082159645739500,9.688739501953124,0.3090978264808655,-0.2773328125476837,0.5705481171607971
1696082159655739400,9.698739501953124,0.34086281061172485,-1.2565498352050781,0.40744712948799133
1696082159665739500,9.708739501953126,0.4605923891067505,-2.5894577503204346,0.19975294172763824
1696082159675739400,9.718739501953126,0.4434881806373596,-2.9743027687072754,0.3933972120285034
1696082159685739500,9.728739501953125,0.46731191873550415,-2.724458932876587,0.627358615398407
1696082159695739400,9.738739501953125,0.5442809462547302,-2.1838431358337402,0.6298020482063293
1696082159705739500,9.748739501953125,0.608421802520752,-1.567480206489563,0.4098905920982361
1696082159715739400,9.758739501953125,0.675616979598999,-1.1117748022079468,0.10751228034496307
1696082159725739500,9.768739501953124,0.8539896011352539,-0.6737843751907349,-0.14233160018920898
1696082159735739400,9.778739501953124,1.112385630607605,-0.14233160018920898,-0.3280346393585205
1696082159745739500,9.788739501953126,1.3866641521453857,0.3585779070854187,-0.4990769028663635
1696082159755739400,9.798739501953126,1.5717562437057495,0.7733554244041443,-0.646906316280365
1696082159765739500,9.808739501953125,1.5937473773956299,1.0800096988677979,-0.8252789378166199
1696082159775739400,9.818739501953125,1.5155566930770874,1.2467759847640991,-1.2040153741836548
1696082159785739500,9.828739501953125,1.431868076324463,1.2443325519561768,-1.7861700057983398
1696082159795739400,9.838739501953125,1.4123204946517944,1.045190453529358,-2.30051851272583
1696082159805739500,9.848739501953125,1.4269812107086182,0.6530149579048157,-2.58457088470459
1696082159815739400,9.858739501953124,1.4062118530273438,0.012217304669320583,-2.635272741317749
1696082159825739500,9.868739501953126,1.3298536539077759,-0.6792821288108826,-2.428800106048584
1696082159835739400,9.878739501953126,1.1716395616531372,-1.1624765396118164,-2.004248857498169
1696082159845739500,9.888739501953125,0.9450085163116455,-1.273043155670166,-1.4636331796646118
1696082159855739400,9.898739501953125,0.7122688889503479,-0.9871582388877869,-0.9584475755691528
1696082159865739500,9.908739501953125,0.5369505286216736,-0.5613851547241211,-0.6249151229858398
1696082159875739400,9.918739501953125,0.4447098970413208,-0.12034045159816742,-0.4538728892803192
1696082159885739500,9.928739501953125,0.4245513379573822,0.24923302233219147,-0.3695734739303589
1696082159895739400,9.938739501953124,0.43249258399009705,0.4300491213798523,-0.3066543638706207
1696082159905739500,9.948739501953124,0.4795292317867279,0.44165557622909546,-0.27488934993743896
1696082159915739400,9.958739501953126,0.5925393104553223,0.2938261926174164,-0.32070425152778625
1696082159925739500,9.968739501953126,0.7189884185791016,0.025656340643763542,-0.4593706727027893
1696082159935739400,9.978739501953125,0.8240572214126587,-0.21013765037059784,-0.6725626587867737
1696082159945739500,9.988739501953125,0.8820894360542297,-0.42271876335144043,-0.9810495972633362
1696082159955739400,9.998739501953125,0.8753699064254761,-0.4996877610683441,-1.2693779468536377
1696082159965739500,10.008739501953125,0.8362745046615601,-0.4703662395477295,-1.4086552858352661
1696082159975739400,10.018739501953124,0.8307767510414124,-0.375071257352829,-1.3616186380386353
1696082159985739500,10.028739501953124,0.8741481900215149,-0.2669481039047241,-1.1728612184524536
1696082159995739400,10.038739501953126,0.9334021210670471,-0.15577064454555511,-0.93095862865448
1696082160005739500,10.048739501953126,0.9327912330627441,-0.07024950534105301,-0.7745771408081055
1696082160015739400,10.058739501953125,0.8906415104866028,-0.0659734457731247,-0.8032878041267395
1696082160025739500,10.068739501953125,0.8533787727355957,-0.13500121235847473,-1.0170906782150269
1696082160035739400,10.078739501953125,0.8448266386985779,-0.22113321721553802,-1.2760975360870361
1696082160045739500,10.088739501953125,0.8649851679801941,-0.23945917189121246,-1.3933836221694946
1696082160055739400,10.098739501953125,0.9053022861480713,-0.12828169763088226,-1.253495454788208
1696082160065739500,10.108739501953124,0.9450085163116455,0.03481931984424591,-0.8857545852661133
1696082160075739400,10.118739501953126,0.9468411207199097,0.08918632566928864,-0.4386012554168701
1696082160085739500,10.128739501953126,0.8991936445236206,-0.015271631069481373,-0.03481931984424591
1696082160095739400,10.138739501953125,0.8185594081878662,-0.21502456068992615,0.26511552929878235
1696082160105739500,10.148739501953125,0.7458664774894714,-0.4337143301963806,0.4251621961593628
1696082160115739400,10.158739501953125,0.6896668672561646,-0.5925393104553223,0.4349360466003418
1696082160125739500,10.168739501953125,0.6499606370925903,-0.6731734871864319,0.33108896017074585
1696082160135739400,10.178739501953125,0.59803706407547,-0.6908885836601257,0.1820378452539444
1696082160145739500,10.188739501953124,0.485027015209198,-0.7086036801338196,0.04092797264456749
1696082160155739400,10.198739501953124,0.29016098380088806,-0.7489207983016968,-0.04581489413976669
1696082160165739500,10.208739501953126,0.02076941914856434,-0.7415903806686401,0.0012217304902151227
1696082160175739400,10.218739501953126,-0.2871066629886627,-0.5705481171607971,0.24068090319633484
1696082160185739500,10.228739501953125,-0.6114761233329773,-0.25473082065582275,0.6285803318023682
1696082160195739400,10.238739501953125,-0.8973610401153564,-0.01038470957428217,1.027475357055664
1696082160205739500,10.248739501953125,-1.0855075120925903,0.06414084881544113,1.359786033630371
1696082160215739400,10.258739501953125,-1.1801916360855103,0.16310101747512817,1.7146987915039062
1696082160225739500,10.268739501953124,-1.2718214988708496,0.5968153476715088,2.1813998222351074
1696082160235739400,10.278739501953124,-1.4856243133544922,1.2712105512619019,2.6645941734313965
1696082160245739500,10.288739501953126,-1.8949040174484253,1.7592918872833252,2.9022207260131836
1696082160255739400,10.298739501953126,-2.39520263671875,1.8741345405578613,2.838690757751465
1696082160265739500,10.308739501953125,-2.8325822353363037,1.4501941204071045,2.6004533767700195
1696082160275739400,10.318739501953125,-3.084258556365967,0.759305477142334,2.3799309730529785
1696082160285739500,10.328739501953125,-3.09281063079834,0.06963863968849182,2.3237314224243164
1696082160295739400,10.338739501953125,-2.8008172512054443,-0.6102544069290161,2.4013113975524902
1696082160305739500,10.348739501953125,-2.3157901763916016,-1.4489723443984985,2.520430088043213
1696082160315739400,10.358739501953124,-1.891238808631897,-2.2174408435821533,2.381152629852295
1696082160325739500,10.368739501953126,-1.632842779159546,-2.378709316253662,1.872912883758545
1696082160335739400,10.378739501953126,-1.4947872161865234,-1.842369556427002,1.2308934926986694
1696082160345739500,10.388739501953125,-1.3842206001281738,-1.0384708642959595,0.8900306820869446
1696082160355739400,10.398739501953125,-1.340238332748413,-0.4239404797554016,1.0256427526474
1696082160365739500,10.408739501953125,-1.3194689750671387,-0.018936822190880775,1.274264931678772
1696082160375739400,10.418739501953125,-1.2559388875961304,0.35185837745666504,1.3726142644882202
1696082160385739500,10.428739501953125,-1.1453723907470703,0.7226535677909851,1.3005321025848389
1696082160395739400,10.438739501953124,-1.024420976638794,0.8411614298820496,1.1624765396118164
1696082160405739500,10.448739501953124,-0.9621127843856812,0.8210029006004333,1.037249207496643
1696082160415739400,10.458739501953126,-0.9853256344795227,0.6676757335662842,0.9761626720428467
1696082160425739500,10.468739501953126,-1.0641272068023682,0.4954117238521576,0.9443976879119873
1696082160435739400,10.478739501953125,-1.168585181236267,0.3677408695220947,0.8906415104866028
1696082160445739500,10.488739501953125,-1.2553280591964722,0.21441370248794556,0.827722430229187
1696082160455739400,10.498739501953125,-1.2767083644866943,0.07880161702632904,0.788016140460968
1696082160465739500,10.508739501953125,-1.235169529914856,0.02076941914856434,0.7562511563301086
1696082160475739400,10.518739501953124,-1.1465940475463867,0.13500121235847473,0.7000515460968018
1696082160485739500,10.528739501953124,-1.0250319242477417,0.4599815309047699,0.6224716901779175
1696082160495739400,10.538739501953126,-0.8888089060783386,0.8222246170043945,0.523511528968811
1696082160505739500,10.548739501953126,-0.7654141783714294,1.205847978591919,0.4031710624694824
1696082160515739400,10.558739501953125,-0.6591235995292664,1.5241087675094604,0.2791654169559479
1696082160525739500,10.568739501953125,-0.5601634383201599,1.6462818384170532,0.17348572611808777
1696082160535739400,10.578739501953125,-0.44654250144958496,1.5937473773956299,0.08185594528913498
1696082160545739500,10.588739501953125,-0.30970868468284607,1.441641926765442,-0.027488935738801956
1696082160555739400,10.598739501953125,-0.16432274878025055,1.282817006111145,-0.17898350954055786
1696082160565739500,10.608739501953124,-0.010995574295520782,1.2137892246246338,-0.3640756905078888
1696082160575739400,10.618739501953126,0.1618792861700058,1.2424999475479126,-0.5626068711280823
1696082160585739500,10.628739501953126,0.3549126982688904,1.3017538785934448,-0.778853178024292
1696082160595739400,10.638739501953125,0.5705481171607971,1.2571606636047363,-1.0286970138549805
1696082160605739500,10.648739501953125,0.7727445363998413,1.102611780166626,-1.3139711618423462
1696082160615739400,10.658739501953125,0.9101892113685608,0.9443976879119873,-1.6029103994369507
1696082160625739500,10.668739501953125,0.9706648588180542,0.8655960559844971,-1.8692476749420166
1696082160635739400,10.678739501953125,0.9382890462875366,0.8637634515762329,-2.0610592365264893
1696082160645739500,10.688739501953124,0.7843509912490845,0.9456194043159485,-2.031737804412842
1696082160655739400,10.698739501953124,0.48380526900291443,1.1044443845748901,-1.6126842498779297
1696082160665739500,10.708739501953126,0.12095131725072861,1.1496484279632568,-1.1930198669433594
1696082160675739400,10.718739501953126,-0.15271630883216858,0.5192354321479797,-1.0598511695861816
1696082160685739500,10.728739501953125,-0.2724458873271942,-0.5772676467895508,-0.988990843296051
1696082160695739400,10.738739501953125,-0.33719760179519653,-1.2956452369689941,-0.5919284224510193
1696082160705739500,10.748739501953125,-0.4300491213798523,-1.2986994981765747,-0.016493361443281174
1696082160715739400,10.758739501953125,-0.45814892649650574,-0.8936958312988281,0.2840523421764374
1696082160725739500,10.768739501953124,-0.46731191873550415,-0.33108896017074585,0.25534167885780334
1696082160735739400,10.778739501953124,-0.44715335965156555,0.2871066629886627,0.04092797264456749
1696082160745739500,10.788739501953126,-0.3066543638706207,0.6866125464439392,-0.13316862285137177
1696082160755739400,10.798739501953126,-0.07819075137376785,0.5974262356758118,-0.09529497474431992
1696082160765739500,10.808739501953125,-0.036041051149368286,-0.04214970022439957,-0.07452555745840073
1696082160775739400,10.818739501953125,-0.13439035415649414,-0.5674937963485718,-0.2883284091949463
1696082160785739500,10.828739501953125,-0.13255776464939117,-0.788627028465271,-0.2993239760398865
1696082160795739400,10.838739501953125,-0.10262536257505417,-1.1203268766403198,0.09224065393209457
1696082160805739500,10.848739501953125,-0.12950342893600464,-1.5546520948410034,0.46303585171699524
1696082160815739400,10.858739501953124,-0.04886921867728233,-1.5039502382278442,0.6933320760726929
1696082161131098000,11.17409814453125,0.7043276429176331,-0.2871066629886627,-1.2150110006332397
1696082161141098000,11.184097900390626,0.7275404930114746,-0.29016098380088806,-0.9272934198379517
1696082161151098000,11.19409814453125,0.7122688889503479,-0.33597588539123535,-0.6426302194595337
1696082161161098000,11.204097900390625,0.6682865619659424,-0.4239404797554016,-0.4960225820541382
1696082161171098000,11.21409814453125,0.6285803318023682,-0.48808133602142334,-0.5442809462547302
1696082161181098000,11.224097900390625,0.6279694437980652,-0.46242499351501465,-0.7336491346359253
1696082161191098000,11.23409814453125,0.6713408827781677,-0.3640756905078888,-0.969443142414093
1696082161201098000,11.244097900390624,0.7586946487426758,-0.21380282938480377,-1.1074986457824707
1696082161211098000,11.25409814453125,0.8662069439888,-0.09285151958465576,-1.0604621171951294
1696082161221098200,11.26409814453125,0.959669291973114,-0.10873401165008545,-0.8387179970741272
1696082161231098000,11.27409814453125,1.0030407905578613,-0.2828305959701538,-0.5161811113357544
1696082161241098200,11.28409814453125,0.9834930300712585,-0.475253164768219,-0.15271630883216858
1696082161251098000,11.29409814453125,0.9327912330627441,-0.5442809462547302,0.1966986060142517
1696082161261098200,11.30409814453125,0.8765916228294373,-0.4990769028663635,0.4337143301963806
1696082161271098000,11.31409814453125,0.8124507665634155,-0.4386012554168701,0.4911356568336487
1696082161281098200,11.32409814453125,0.7092145681381226,-0.3982841372489929,0.3640756905078888
1696082161291098000,11.33409814453125,0.5253441333770752,-0.37568211555480957,0.13866640627384186
1696082161301098200,11.34409814453125,0.22968533635139465,-0.3891211748123169,-0.06475171446800232
1696082161311098000,11.35409814453125,-0.152105450630188,-0.4355469346046448,-0.13072516024112701
1696082161321098800,11.3640986328125,-0.5833762884140015,-0.42210787534713745,0.02321287989616394
1696082161331099000,11.374098876953125,-0.978606104850769,-0.3536909818649292,0.3799581825733185
1696082161341098800,11.3840986328125,-1.2406673431396484,-0.304210901260376,0.8484918475151062
1696082161351099000,11.394098876953125,-1.351233959197998,-0.22296582162380219,1.3542882204055786
1696082161361098800,11.4040986328125,-1.3836097717285156,0.0006108652451075613,1.8973474502563477
1696082161371099000,11.414098876953124,-1.4636331796646118,0.48685958981513977,2.445293664932251
1696082161381098800,11.4240986328125,-1.742187738418579,1.0641272068023682,2.8380799293518066
1696082161391099000,11.434098876953126,-2.1710150241851807,1.4129313230514526,2.9602530002593994
1696082161401098800,11.4440986328125,-2.392759084701538,1.4355332851409912,2.8350255489349365
1696082161411099000,11.454098876953125,-2.7763824462890625,1.171028733253479,2.7287349700927734
1696082161421098800,11.4640986328125,-3.017674207687378,0.626747727394104,2.5118777751922607
1696082161431099000,11.474098876953125,-3.084258556365967,0.1270599663257599,2.3823745250701904
1696082161441098800,11.4840986328125,-2.9529225826263428,-0.3323107063770294,2.412306785583496
1696082161451099000,11.494098876953124,-2.6138923168182373,-1.0238101482391357,2.5357015132904053
1696082161461098800,11.5040986328125,-2.1991147994995117,-1.9834794998168945,2.5521950721740723
1696082161471099000,11.514098876953126,-1.881464958190918,-2.4306328296661377,2.168571710586548
1696082161481098800,11.5240986328125,-1.6291775703430176,-2.289522886276245,1.5876387357711792
1696082161491099000,11.534098876953125,-1.4300355911254883,-1.7464637756347656,1.2748757600784302
1696082161501098800,11.5440986328125,-1.310916781425476,-1.016479730606079,1.2919800281524658
1696082161511099000,11.554098876953125,-1.2406673431396484,-0.4960225820541382,1.4453071355819702
1696082161521098800,11.5640986328125,-1.122159481048584,-0.08368854224681854,1.4654656648635864
1696082161531099000,11.574098876953125,-0.9578366875648499,0.3701843321323395,1.29381263256073
1696082161541098800,11.5840986328125,-0.8478809595108032,0.6401867866516113,1.0885618925094604
1696082161551099000,11.594098876953124,-0.8045095205307007,0.7147123217582703,0.960280179977417
1696082161561098800,11.6040986328125,-0.836885392665863,0.6585127115249634,0.9474520087242126
1696082161571099000,11.614098876953125,-0.9364564418792725,0.5338962078094482,1.009149432182312
1696082161581098800,11.6240986328125,-1.084285855293274,0.43799036741256714,1.0726794004440308
1696082161591099000,11.634098876953125,-1.1985175609588623,0.2125810980796814,1.1160508394241333
1696082161601098800,11.6440986328125,-1.243721604347229,-0.1258382350206375,1.1117748022079468
1696082161611099000,11.654098876953125,-1.2327260971069336,-0.3805690407752991,1.06351637840271
1696082161621098500,11.664098388671874,-1.1789699792861938,-0.36529740691185,0.9877691268920898
1696082161631098400,11.674098388671876,-1.0946705341339111,0.02015855349600315,0.8961393237113953
1696082161641098500,11.684098388671876,-0.9853256344795227,0.6664539575576782,0.8063421249389648
1696082161651098400,11.694098388671875,-0.8558222055435181,1.2290608882904053,0.7244861721992493
1696082161661098500,11.704098388671875,-0.7049384713172913,1.5076154470443726,0.6475171446800232
1696082161671098400,11.714098388671875,-0.5418374538421631,1.5503759384155273,0.5656611919403076
1696082161681098500,11.724098388671875,-0.3701843321323395,1.4715744256973267,0.46242499351501465
1696082161691098400,11.734098388671875,-0.1973094791173935,1.359175205230713,0.32131510972976685
1696082161701098500,11.744098388671874,-0.03726277872920036,1.2400563955307007,0.15943582355976105
1696082161711098400,11.754098388671874,0.10934487730264664,1.1148290634155273,-0.013439035043120384
1696082161721098500,11.764098388671876,0.2565633952617645,0.96883225440979,-0.2119702398777008
1696082161731098400,11.774098388671876,0.4245513379573822,0.8399397134780884,-0.4453207552433014
1696082161741098500,11.784098388671875,0.6310238242149353,0.7018841505050659,-0.7110471725463867
1696082161751098400,11.794098388671875,0.8619308471679688,0.5870414972305298,-0.99876469373703
1696082161761098500,11.804098388671875,1.0506882667541504,0.5149593949317932,-1.320690631866455
1696082161771098400,11.814098388671875,1.1301007270812988,0.5650503635406494,-1.633453607559204
1696082161781098500,11.824098388671874,1.1050552129745483,0.7971791625022888,-1.834428310394287
1696082161791098400,11.834098388671874,0.950506329536438,1.1649199724197388,-1.8588629961013794
1696082161801098500,11.844098388671876,0.5974262356758118,1.5192219018936157,-1.5992451906204224
1696082161811098400,11.854098388671876,0.13866640627384186,1.8429805040359497,-1.1582005023956299
1696082161821098500,11.864098388671875,-0.21563543379306793,1.9425514936447144,-0.8484918475151062
1696082161831098400,11.874098388671875,-0.40256020426750183,1.6969836950302124,-0.5656611919403076
1696082161841098500,11.884098388671875,-0.48808133602142334,1.341460108757019,-0.14233160018920898
1696082161851098400,11.894098388671875,-0.4917465150356293,1.303586483001709,0.19608774781227112
1696082161861098500,11.904098388671875,-0.423329621553421,1.207680583000183,0.32070425152778625
1696082161871098400,11.914098388671874,-0.34147366881370544,0.6194173693656921,0.28466320037841797
1696082161881098500,11.924098388671876,-0.34025195240974426,-0.17287486791610718,0.13011430203914642
1696082161891098400,11.934098388671876,-0.33108896017074585,-0.8338310718536377,-0.12278391420841217
1696082161901098500,11.944098388671875,-0.18387043476104736,-1.3701707124710083,-0.3170390725135803
1696082161911098400,11.954098388671875,-0.059864792972803116,-1.9413297176361084,-0.40072759985923767
1696082161921098200,11.96409814453125,-0.03481931984424591,-2.540588617324829,-0.5290092825889587
1696082161931098400,11.974098388671875,0.013439035043120384,-2.9266552925109863,-0.6524040699005127
1696082161941098200,11.98409814453125,0.1661553531885147,-2.5497515201568604,-0.6921103000640869
1696082161951098400,11.994098388671874,0.3378084897994995,-1.379333734512329,-0.6530149579048157
1696082161961098200,12.00409814453125,0.5931501388549805,-0.6548475623130798,-0.21502456068992615
1696082161971098400,12.014098388671876,0.912021815776825,-0.8429940342903137,0.3194825351238251
1696082161981098200,12.02409814453125,1.1233811378479004,-1.2846496105194092,0.5583308339118958
1696082161991098400,12.034098388671875,1.2498302459716797,-1.5008958578109741,0.645684540271759
1696082162001098200,12.04409814453125,1.289536476135254,-1.2412781715393066,0.6304129362106323
1696082162011098400,12.054098388671875,1.263269305229187,-0.7709119319915771,0.485027015209198
1696082162021098200,12.06409814453125,1.2260065078735352,-0.42271876335144043,0.1814269721508026
1696082162031098400,12.074098388671874,1.1753047704696655,-0.11056660860776901,-0.23151792585849762
1696082162041098200,12.08409814453125,1.0965031385421753,0.28038713335990906,-0.6383541822433472
1696082162051098400,12.094098388671876,1.0219775438308716,0.5943718552589417,-0.9645562171936035
1696082162061098200,12.10409814453125,0.960280179977417,0.59803706407547,-1.264491081237793
1696082162071098400,12.114098388671875,0.9150761365890503,0.34086281061172485,-1.5650367736816406
1696082162081098200,12.12409814453125,0.9169087409973145,-0.019547687843441963,-1.778228759765625
1696082162091098400,12.134098388671875,0.9517280459403992,-0.3634648323059082,-1.8686367273330688
1696082162101098200,12.14409814453125,0.9816604256629944,-0.6243042945861816,-1.8564194440841675
1696082162111098400,12.154098388671875,1.0115928649902344,-0.7776314616203308,-1.7727309465408325
1696082162121098200,12.16409814453125,1.0323622226715088,-0.827722430229187,-1.663996934890747
1696082162131098400,12.174098388671876,1.036027431488037,-0.7745771408081055,-1.5540411472320557
1696082162141098200,12.18409814453125,1.043968677520752,-0.5717698931694031,-1.4147639274597168
1696082162151098400,12.194098388671875,1.074512004852295,-0.19853121042251587,-1.2113457918167114
1696082162161098200,12.20409814453125,1.1154398918151855,0.2791654169559479,-0.9853256344795227
1696082162171098400,12.214098388671875,1.1527026891708374,0.788016140460968,-0.788627028465271
1696082162181098200,12.22409814453125,1.1643091440200806,1.2211196422576904,-0.6743952035903931
1696082162191098400,12.234098388671875,1.111163854598999,1.4660766124725342,-0.646295428276062
1696082162201098200,12.24409814453125,1.0323622226715088,1.5442672967910767,-0.6200281977653503
1696082162211098400,12.254098388671874,0.9572258591651917,1.4135421514511108,-0.607810914516449
1696082162221098500,12.264098388671876,0.8857545852661133,1.035416603088379,-0.6487388610839844
1696082162231098400,12.274098388671876,0.7910705208778381,0.41233405470848083,-0.7550294399261475
1696082162241098500,12.284098388671875,0.7037167549133301,-0.21441370248794556,-0.8637634515762329
1696082162251098400,12.294098388671875,0.618195652961731,-0.6017022728919983,-0.969443142414093
1696082162261098500,12.304098388671875,0.5296201705932617,-0.8234463334083557,-1.1105530261993408
1696082162271098400,12.314098388671875,0.45814892649650574,-0.9034696817398071,-1.2516628503799438
1696082162281098500,12.324098388671874,0.42577308416366577,-0.9010262489318848,-1.341460108757019
1696082162575616000,12.618615966796876,-2.102598190307617,0.37262779474258423,2.1991147994995117
1696082162585616100,12.6286162109375,-2.2272145748138428,0.29016098380088806,2.488054037094116
1696082162595616000,12.638615966796875,-2.3664920330047607,0.016493361443281174,2.626720666885376
1696082162605616000,12.6486162109375,-2.4966063499450684,-0.3543018400669098,2.5747969150543213
1696082162615616000,12.658615966796875,-2.582738161087036,-0.6676757335662842,2.4581217765808105
1696082162625616100,12.6686162109375,-2.5692992210388184,-0.8796459436416626,2.4000895023345947
1696082162635616000,12.678615966796874,-2.4220807552337646,-1.037249207496643,2.4000895023345947
1696082162645616000,12.6886162109375,-2.1710150241851807,-1.1887437105178833,2.3206770420074463
1696082162655616000,12.698615966796876,-1.8680258989334106,-1.1313223838806152,2.03540301322937
1696082162665616100,12.7086162109375,-1.4941763877868652,-0.7269296646118164,1.6340645551681519
1696082162675616000,12.718615966796875,-1.1838568449020386,-0.4862487316131592,1.3713924884796143
1696082162685616000,12.7286162109375,-1.0323622226715088,-0.28466320037841797,1.2712105512619019
1696082162695616000,12.738615966796875,-0.9969320893287659,-0.13255776464939117,1.299310326576233
1696082162705616100,12.7486162109375,-0.9755517840385437,0.08429940044879913,1.3115277290344238
1696082162715616300,12.7586162109375,-0.9388998746871948,0.46731191873550415,1.2473868131637573
1696082162725616000,12.7686162109375,-0.9095783233642578,0.759305477142334,1.1808024644851685
1696082162735616300,12.7786162109375,-0.8784242272377014,0.8533787727355957,1.169806957244873
1696082162745616100,12.7886162109375,-0.8704829812049866,0.8686503767967224,1.1887437105178833
1696082162755616300,12.7986162109375,-0.8991936445236206,0.788627028465271,1.2101240158081055
1696082162765616000,12.8086162109375,-0.9608910083770752,0.6395758986473083,1.1942415237426758
1696082162775616300,12.8186162109375,-1.0598511695861816,0.5369505286216736,1.1258246898651123
1696082162785616100,12.8286162109375,-1.1771373748779297,0.44226643443107605,1.0268645286560059
1696082162795616300,12.8386162109375,-1.2699888944625854,0.2565633952617645,0.9291260242462158
1696082162805616000,12.8486162109375,-1.2785409688949585,0.08979719132184982,0.8417723178863525
1696082162815616300,12.8586162109375,-1.1887437105178833,0.08552113175392151,0.7538077235221863
1696082162825616100,12.8686162109375,-1.0366383790969849,0.26450464129447937,0.6383541822433472
1696082162835616300,12.8786162109375,-0.8527678847312927,0.5839871764183044,0.4996877610683441
1696082162845616000,12.8886162109375,-0.6572909951210022,0.9077457785606384,0.3689626157283783
1696082162855616300,12.8986162109375,-0.46731191873550415,1.0952813625335693,0.26083946228027344
1696082162865616100,12.9086162109375,-0.2993239760398865,1.1191051006317139,0.1667662113904953
1696082162875616300,12.9186162109375,-0.15760323405265808,1.0445796251296997,0.06475171446800232
1696082162885616000,12.9286162109375,-0.025656340643763542,0.9346238374710083,-0.05253441259264946
1696082162895616300,12.9386162109375,0.12461651116609573,0.8289441466331482,-0.18020524084568024
1696082162905616100,12.9486162109375,0.2987131178379059,0.720820963382721,-0.3323107063770294
1696082162915616300,12.9586162109375,0.4813618063926697,0.5894849896430969,-0.5210680365562439
1696082162925616400,12.968616455078125,0.6762278079986572,0.45692721009254456,-0.7428121566772461
1696082162935616300,12.9786162109375,0.8802568316459656,0.36713001132011414,-1.0042624473571777
1696082162945616400,12.988616455078125,1.0696250200271606,0.32620203495025635,-1.2693779468536377
1696082162955616500,12.998616455078125,1.1997393369674683,0.3481931984424591,-1.511891484260559
1696082162965616400,13.008616455078124,1.235169529914856,0.4813618063926697,-1.7049249410629272
1696082163621193700,13.66419384765625,0.28955012559890747,-0.19364428520202637,-0.40194934606552124
1696082163631193600,13.674193603515626,0.31642818450927734,-0.12278391420841217,-0.40133845806121826
1696082163641193700,13.68419384765625,0.3677408695220947,-0.054367005825042725,-0.36224308609962463
1696082163651193600,13.694193603515625,0.4495968222618103,0.018936822190880775,-0.27611109614372253
1696082163661193700,13.70419384765625,0.5406157374382019,0.08918632566928864,-0.16920967400074005
1696082163671193600,13.714193603515625,0.59803706407547,0.1319468915462494,-0.06414084881544113
1696082163681193700,13.72419384765625,0.6151412725448608,0.1111774742603302,0.015882495790719986
1696082163691193600,13.734193603515624,0.6004805564880371,0.054367005825042725,0.07819075137376785
1696082163701193700,13.74419384765625,0.5595525503158569,0.03298672288656235,0.1319468915462494
1696082163711193600,13.754193603515626,0.503963828086853,0.0708603709936142,0.1667662113904953
1696082163721193700,13.76419384765625,0.43676865100860596,0.19120082259178162,0.18325957655906677
1696082163731193600,13.774193603515625,0.35613444447517395,0.34636059403419495,0.15943582355976105
1696082163741193700,13.78419384765625,0.2730567753314972,0.48319441080093384,0.11362093687057495
1696082163751193600,13.794193603515625,0.20036379992961884,0.607200026512146,0.07269296050071716
1696082163761193700,13.80419384765625,0.11972958594560623,0.7177666425704956,0.04581489413976669
1696082163771193600,13.814193603515625,0.025656340643763542,0.788627028465271,0.036651913076639175
1696082163781193700,13.82419384765625,-0.0806342139840126,0.7971791625022888,0.05925392732024193
1696082163791193600,13.834193603515626,-0.19853121042251587,0.6780604124069214,0.09468411654233932
1696082163801193700,13.84419384765625,-0.29993483424186707,0.4703662395477295,0.14782938361167908
1696082163811193600,13.854193603515625,-0.3683517575263977,0.26083946228027344,0.22418753802776337
1696082163821193700,13.86419384765625,-0.44287729263305664,0.13927727937698364,0.3237585723400116
1696082163831193600,13.874193603515625,-0.5760459303855896,0.11423180252313614,0.4239404797554016
1696082163841193700,13.88419384765625,-0.7654141783714294,0.09162978827953339,0.4990769028663635
1696082163851193600,13.894193603515625,-0.9645562171936035,-0.007941247895359993,0.5448917746543884
1696082163861193700,13.90419384765625,-1.1142182350158691,-0.19547687470912933,0.5870414972305298
1696082163871193600,13.914193603515624,-1.187522053718567,-0.42760565876960754,0.6572909951210022
1696082163881193700,13.92419384765625,-1.1740829944610596,-0.6432411074638367,0.8020660877227783
1696082163891193600,13.934193603515626,-1.0696250200271606,-0.79840087890625,1.0427470207214355
1696082163901193700,13.94419384765625,-0.8943067193031311,-0.8698720932006836,1.302364706993103
1696082163911193600,13.954193603515625,-0.7000515460968018,-0.8698720932006836,1.5008958578109741
1696082163921193700,13.96419384765625,-0.5174028873443604,-0.8093964457511902,1.6016886234283447
1696082163931193600,13.974193603515625,-0.3500257730484009,-0.6640105247497559,1.5925257205963135
1696082163941193700,13.98419384765625,-0.21380282938480377,-0.5119050741195679,1.490511178970337
1696082163951193600,13.994193603515624,-0.12339477986097336,-0.3781255781650543,1.3274102210998535
1696082163961193700,14.00419384765625,-0.07452555745840073,-0.29993483424186707,1.1557570695877075
