time,seconds_elapsed,z,y,x
1696082150003290400,0.046290283203125,-0.037950001657009125,0.09277515858411789,0.06299547851085663
1696082150016552200,0.05955224609375,-0.037950001657009125,0.09277515858411789,0.06299547851085663
1696082150026552000,0.069552001953125,-0.037950001657009125,0.09277515858411789,0.06299547851085663
1696082150036552200,0.07955224609375,-0.037950001657009125,0.09277515858411789,0.06299547851085663
1696082150046552000,0.089552001953125,0.026801712810993195,-0.15462526679039001,-0.12026409804821014
1696082150056552200,0.09955224609375,0.03474296256899834,-0.07276932150125504,-0.0768926590681076
1696082150066552000,0.109552001953125,0.03107776865363121,0.006643159314990044,-0.026801712810993195
1696082150076552200,0.11955224609375,0.02191479131579399,0.043905939906835556,0.01840231567621231
1696082150086552000,0.129552001953125,0.015806138515472412,0.03352123126387596,0.04833471402525902
1696082150096552200,0.13955224609375,0.009697485715150833,-0.006795875728130341,0.05994115397334099
1696082150106552000,0.149552001953125,0.005421428941190243,-0.0391717329621315,0.052610769867897034
1696082150116552200,0.15955224609375,0.0011453722836449742,-0.06727153807878494,0.03672827407717705
1696082150126552000,0.169552001953125,-0.006795875728130341,-0.09414960443973541,0.020234910771250725
1696082150136552200,0.17955224609375,-0.02451096847653389,-0.11675161868333817,0.01290452852845192
1696082150146552000,0.189552001953125,-0.03856086730957031,-0.12224940955638885,0.026343563571572304
1696082150156552200,0.19955224609375,-0.04589125141501427,-0.11186470091342926,0.049556441605091095
1696082150166552000,0.209552001953125,-0.06299547851085663,-0.09170614182949066,0.0593302883207798
1696082150176552200,0.21955224609375,-0.08009970188140869,-0.08376489579677582,0.06177374720573425
1696082150186552000,0.229552001953125,-0.08620835840702057,-0.09048441797494888,0.055054228752851486
1696082150196552200,0.23955224609375,-0.08926268666982651,-0.10270171612501144,0.03978259861469269
1696082150206552000,0.249552001953125,-0.08681922405958176,-0.10881037265062332,0.02451096847653389
1696082150216552200,0.25955224609375,-0.07093672454357147,-0.12835806608200073,-0.0188604649156332
1696082150226552300,0.26955224609375,-0.06727153807878494,-0.17356209456920624,-0.0823904499411583
1696082150236552200,0.27955224609375,-0.07399105280637741,-0.23220515251159668,-0.09277515858411789
1696082150246552300,0.28955224609375,-0.10025826096534729,-0.277409166097641,-0.059177570044994354
1696082150256552200,0.29955224609375,-0.12652546167373657,-0.3262783885002136,0.00862847175449133
1696082150266552300,0.30955224609375,-0.15462526679039001,-0.4179081916809082,0.08132143318653107
1696082150276552200,0.31955224609375,-0.17417295277118683,-0.5333617329597473,0.12224940955638885
1696082150286552300,0.32955224609375,-0.17783814668655396,-0.6194937229156494,0.10636691004037857
1696082150296552200,0.33955224609375,-0.21693351864814758,-0.6927975416183472,0.07887797802686691
1696082150306552300,0.34955224609375,-0.2315942794084549,-0.910876452922821,0.07215845584869385
1696082150316552200,0.35955224609375,-0.2254856377840042,-1.2383002042770386,0.09720393270254135
1696082150326552300,0.36955224609375,-0.22426390647888184,-1.6200909614562988,0.14424055814743042
1696082150336552200,0.37955224609375,-0.23342688381671906,-2.0079903602600098,0.20349448919296265
1696082150346552300,0.38955224609375,-0.2413681298494339,-2.354351043701172,0.26946792006492615
1696082150356552200,0.39955224609375,-0.24808764457702637,-2.584036350250244,0.3226132094860077
1696082150366552300,0.40955224609375,-0.3061198592185974,-2.6964354515075684,0.34032830595970154
1696082150376552200,0.41955224609375,-0.38736492395401,-2.697657346725464,0.33910655975341797
1696082150386552300,0.42955224609375,-0.4240168333053589,-2.692159414291382,0.3415500223636627
1696082150396552200,0.43955224609375,-0.40446916222572327,-2.709263801574707,0.35987597703933716
1696082150406552300,0.44955224609375,-0.4075234830379486,-2.7501916885375977,0.36964982748031616
1696082150416552200,0.45955224609375,-0.42035165429115295,-2.9487228393554688,0.39103010296821594
1696082150426552300,0.46955224609375,-0.4539492428302765,-3.208951473236084,0.4081343412399292
1696082150436552200,0.47955224609375,-0.5132031440734863,-3.454519271850586,0.42157337069511414
1696082150446552300,0.48955224609375,-0.607276439666748,-3.68664813041687,0.41485387086868286
1696082150456552200,0.49955224609375,-0.720897376537323,-3.903505325317383,0.38980838656425476
1696082150466552300,0.50955224609375,-0.8161923289299011,-4.027511119842529,0.3433826267719269
1696082150476552200,0.51955224609375,-0.8870527148246765,-4.032397747039795,0.2810743749141693
1696082150486552300,0.52955224609375,-0.9334784746170044,-3.926107406616211,0.19677497446537018
1696082150496552200,0.53955224609375,-0.9670760631561279,-3.758730173110962,0.08620835840702057
1696082150506552300,0.54955224609375,-0.9866237044334412,-3.533320903778076,-0.0365755558013916
1696082150516552200,0.55955224609375,-0.976239025592804,-3.359835147857666,-0.14653129875659943
1696082150526552300,0.56955224609375,-0.9175959825515747,-3.3744959831237793,-0.20212003588676453
1696082150536552200,0.57955224609375,-0.7984772324562073,-3.5540902614593506,-0.21739166975021362
1696082150546552300,0.58955224609375,-0.6109415888786316,-3.7043631076812744,-0.2283872365951538
1696082150556552200,0.59955224609375,-0.35498905181884766,-3.7214674949645996,-0.2387719452381134
1696082150566552300,0.60955224609375,-0.06788240373134613,-3.6402223110198975,-0.2289981096982956
1696082150576552200,0.61955224609375,0.13675746321678162,-2.2663865089416504,0.11369729042053223
1696082150586552300,0.62955224609375,0.3951534628868103,-1.185154914855957,0.27374398708343506
1696082150596552200,0.63955224609375,0.6285039782524109,-0.9988410472869873,0.30550897121429443
1696082150606552300,0.64955224609375,0.8746826648712158,-1.4887549877166748,-0.01702786795794964
1696082150616552200,0.65955224609375,1.1410199403762817,-3.0006463527679443,-0.3255148231983185
1696082150626552300,0.66955224609375,1.2515865564346313,-4.116086483001709,-0.5387067794799805
1696082150636552200,0.67955224609375,1.3560445308685303,-5.020777702331543,-0.705473005771637
1696082150646552300,0.68955224609375,1.4629459381103516,-5.726938247680664,-0.8514698147773743
1696082150656552200,0.69955224609375,1.4415656328201294,-5.816124439239502,-0.7384597063064575
1696082150666552300,0.70955224609375,1.2442561388015747,-4.862563610076904,-0.23693935573101044
1696082150676552200,0.71955224609375,1.0805442333221436,-2.772793769836426,0.45700356364250183
1696082150686552300,0.72955224609375,1.2149345874786377,-0.6066655516624451,0.9029352068901062
1696082150696552400,0.739552490234375,1.3456597328186035,-0.04711298272013664,0.6494261026382446
1696082150706552300,0.74955224609375,1.3590987920761108,-0.24320071935653687,-0.013362676836550236
1696082150716552400,0.759552490234375,1.3462706804275513,-0.2364812046289444,-0.7457901239395142
1696082150726552300,0.76955224609375,1.380479097366333,0.035353824496269226,-1.4238505363464355
1696082150736552400,0.779552490234375,1.4959325790405273,0.2900846302509308,-1.9669097661972046
1696082150746552300,0.78955224609375,1.6822465658187866,0.5136613249778748,-2.3945155143737793
1696082150756552400,0.799552490234375,1.895438551902771,0.6394995450973511,-2.7133870124816895
1696082150766552300,0.80955224609375,2.1727712154388428,0.5588653683662415,-2.8777098655700684
1696082150776552400,0.819552490234375,2.505692958831787,0.21067215502262115,-2.8355600833892822
1696082150786552000,0.829552001953125,2.79829740524292,-0.2560288906097412,-2.4922537803649902
1696082150796552000,0.839552001953125,3.080517053604126,-0.5797874927520752,-1.9424750804901123
1696082150806552000,0.849552001953125,3.3114240169525146,-0.7569383978843689,-1.3615422248840332
1696082150816552000,0.859552001953125,3.5404984951019287,-0.9267589449882507,-0.9406561255455017
1696082150826552000,0.869552001953125,3.7219254970550537,-1.232802391052246,-0.7580074071884155
1696082150836552000,0.879552001953125,3.833714008331299,-1.8241199254989624,-0.7128033638000488
1696082150846552000,0.889552001953125,3.8856375217437744,-2.5345561504364014,-0.695088267326355
1696082150856552000,0.899552001953125,3.9338958263397217,-3.119765281677246,-0.6535494327545166
1696082150866552000,0.909552001953125,3.9803216457366943,-3.398319721221924,-0.6181192994117737
1696082150876552000,0.919552001953125,3.9803216457366943,-3.479564905166626,-0.6504951119422913
1696082150886551800,0.9295517578125,3.8361573219299316,-3.4386367797851562,-0.733572781085968
1696082150896552000,0.939552001953125,3.504457473754883,-3.3384549617767334,-0.7842746376991272
1696082150906551800,0.9495517578125,2.9894981384277344,-3.2162818908691406,-0.7506770491600037
1696082150916552000,0.959552001953125,2.26806640625,-3.002479076385498,-0.6095671653747559
1696082150926551800,0.9695517578125,1.44767427444458,-2.9230666160583496,-0.4000403881072998
1696082150936552000,0.979552001953125,0.7543421983718872,-2.8259389400482178,-0.3585015535354614
1696082150946552000,0.989552001953125,0.2803107798099518,-2.764852523803711,-0.4409683346748352
1696082150956552000,0.999552001953125,0.02557998150587082,-2.907794952392578,-0.5423719882965088
1696082150966551600,1.009551513671875,-0.08071056753396988,-3.1179325580596924,-0.6865361928939819
1696082150976551700,1.0195517578125,-0.17905987799167633,-3.1765756607055664,-0.7543421983718872
1696082150986551600,1.029551513671875,-0.45211663842201233,-3.4251978397369385,-0.7690029740333557
1696082150996551700,1.0395517578125,-0.6573673486709595,-3.6689329147338867,-0.5936846733093262
1696082151006551600,1.049551513671875,-0.7862599492073059,-3.574859857559204,-0.40370556712150574
1696082151016551400,1.059551513671875,-1.0324386358261108,-3.4954473972320557,-0.2888629138469696
1696082151026551600,1.069551513671875,-1.3268756866455078,-3.4868950843811035,-0.26015225052833557
1696082151036551400,1.079551513671875,-1.5883259773254395,-3.314631223678589,-0.329790860414505
1696082151046551600,1.089551513671875,-1.7758616209030151,-3.150919198989868,-0.45318564772605896
1696082151056551400,1.099551513671875,-1.9139171838760376,-2.952388048171997,-0.6168975234031677
1696082151066551600,1.109551513671875,-2.0079903602600098,-2.7489700317382812,-0.7567856907844543
1696082151076551400,1.119551513671875,-2.0153207778930664,-2.4814109802246094,-0.8795695900917053
1696082151086551800,1.1295517578125,-1.907808542251587,-2.190639019012451,-0.9870818853378296
1696082151096552000,1.139552001953125,-1.7355445623397827,-1.906586766242981,-1.077489972114563
1696082151106551800,1.1495517578125,-1.557782769203186,-1.5590044260025024,-1.1343003511428833
1696082151116551700,1.1595517578125,-1.3818535804748535,-1.1594985723495483,-1.1556806564331055
1696082151126551300,1.16955126953125,-1.1723268032073975,-0.7569383978843689,-1.1208614110946655
1696082151136551200,1.17955126953125,-0.9383653998374939,-0.3665955066680908,-1.0365619659423828
1696082151146551300,1.18955126953125,-0.6738607287406921,-0.012293662875890732,-0.9259953498840332
1696082151156551200,1.19955126953125,-0.406912624835968,0.32795828580856323,-0.7983245253562927
1696082151166551300,1.20955126953125,-0.1454622894525528,0.6621015667915344,-0.6541603207588196
1696082151176550400,1.21955029296875,0.12392928451299667,0.9718102216720581,-0.5179373621940613
1696082151186550300,1.22955029296875,0.4171445965766907,1.2601386308670044,-0.42264237999916077
1696082151196550400,1.23955029296875,0.7256315350532532,1.5075390338897705,-0.3701079785823822
1696082151206550300,1.24955029296875,1.0390053987503052,1.6449837684631348,-0.37743836641311646
1696082151216550400,1.25955029296875,1.3261120319366455,1.6828573942184448,-0.4165337383747101
1696082151226551000,1.269551025390625,1.5851190090179443,1.619327425956726,-0.4721224904060364
1696082151236551200,1.27955126953125,1.8264107704162598,1.5533539056777954,-0.5154939293861389
1696082151246551000,1.289551025390625,2.036548376083374,1.4886022806167603,-0.524046003818512
1696082151256551200,1.29955126953125,2.279061794281006,1.2900710105895996,-0.5380959510803223
1696082151266551600,1.309551513671875,2.536236047744751,1.1825587749481201,-0.601015031337738
1696082151276551400,1.319551513671875,2.684065580368042,1.2021064758300781,-0.6431647539138794
1696082151286551600,1.329551513671875,2.7335455417633057,1.219821572303772,-0.6431647539138794
1696082151296551400,1.339551513671875,2.698115348815918,1.306564450263977,-0.6291148662567139
1696082151306551600,1.349551513671875,2.544177293777466,1.4214071035385132,-0.6462190747261047
1696082151316551400,1.359551513671875,2.2802836894989014,1.4299591779708862,-0.6828709840774536
1696082151326551600,1.369551513671875,1.9675205945968628,1.3059535026550293,-0.7421249151229858
1696082151336551400,1.379551513671875,1.6535358428955078,1.0182360410690308,-0.8697957396507263
1696082151346551600,1.389551513671875,1.3261120319366455,0.6847035884857178,-1.0616074800491333
1696082151356551400,1.399551513671875,0.9760863184928894,0.34750595688819885,-1.2699124813079834
1696082151366551600,1.409551513671875,0.6718754172325134,0.1172097697854042,-1.484937071800232
1696082151376552000,1.419552001953125,0.5106070041656494,0.0164170041680336,-1.6510924100875854
1696082151386552000,1.429552001953125,0.4666246771812439,-0.004352414980530739,-1.6975181102752686
1696082151396552000,1.439552001953125,0.4403574764728546,0.11598803848028183,-1.6474272012710571
1696082151406552000,1.449552001953125,0.4116468131542206,0.2283872365951538,-1.5167020559310913
1696082151416552200,1.45955224609375,0.3554472029209137,0.27847820520401,-1.398805022239685
1696082151426552600,1.469552490234375,0.26137396693229675,0.35239288210868835,-1.323057770729065
1696082151445740000,1.488739990234375,-0.21693351864814758,0.491670161485672,-1.494710922241211
1696082151455740000,1.498739990234375,-0.40996694564819336,0.533819854259491,-1.7396678924560547
1696082151465740000,1.508739990234375,-0.5895613431930542,0.44890961050987244,-1.7763197422027588
1696082151475741000,1.518740966796875,-0.5229769945144653,0.4470770061016083,-1.7708219289779663
1696082151485740800,1.52874072265625,-0.4899902939796448,1.0842094421386719,-2.035937547683716
1696082151495741000,1.538740966796875,-0.7086800336837769,1.4928783178329468,-1.8050304651260376
1696082151505740800,1.54874072265625,-0.9750173091888428,1.5386931896209717,-1.295568823814392
1696082151515741000,1.558740966796875,-1.1252901554107666,1.2802971601486206,-0.9528734087944031
1696082151525740000,1.568739990234375,-1.0935251712799072,1.086042046546936,-0.8032114505767822
1696082151535740000,1.578739990234375,-0.9255372285842896,1.1520154476165771,-0.7115816473960876
1696082151545740000,1.588739990234375,-0.7618253231048584,1.0524444580078125,-0.5228242874145508
1696082151555740000,1.598739990234375,-0.5926156640052795,0.9785297513008118,-0.2937498390674591
1696082151565740000,1.608739990234375,-0.5174792408943176,1.0451140403747559,0.00557414535433054
1696082151575740000,1.618739990234375,-0.2767983078956604,1.0713813304901123,-0.09399688988924026
1696082151585740000,1.628739990234375,-0.21693351864814758,1.4513394832611084,-0.15202908217906952
1696082151595740000,1.638739990234375,-0.38980838656425476,2.055485248565674,-0.061621032655239105
1696082151605740000,1.648739990234375,-0.6097198724746704,2.4000132083892822,0.0898735523223877
1696082151615740000,1.658739990234375,-0.7031822800636292,2.374356746673584,0.16317738592624664
1696082151625739500,1.668739501953125,-0.700127899646759,2.0408244132995605,0.19921842217445374
1696082151635739600,1.67873974609375,-0.5907830595970154,1.5112042427062988,0.13446670770645142
1696082151645739500,1.688739501953125,-0.43562328815460205,0.9828058481216431,-0.007254024967551231
1696082151655739600,1.69873974609375,-0.4130212664604187,0.6162866950035095,-0.25526532530784607
1696082151665739500,1.708739501953125,-0.3061198592185974,0.6052911281585693,-0.6126214861869812
1696082151675739000,1.71873876953125,-0.044058654457330704,0.7445683479309082,-0.9192758202552795
1696082151685738800,1.72873876953125,0.38721221685409546,0.9363800883293152,-1.102535367012024
1696082151695739000,1.73873876953125,1.153237223625183,1.524032473564148,-1.2986232042312622
1696082151705738800,1.74873876953125,2.0512092113494873,2.1697170734405518,-1.3829225301742554
1696082151715739000,1.75873876953125,2.9449050426483154,2.6547439098358154,-1.3487141132354736
1696082151725738800,1.76873876953125,3.724979877471924,3.0371456146240234,-1.2314280271530151
1696082151735739000,1.77873876953125,4.348062515258789,2.380465507507324,-1.3004556894302368
1696082151745738800,1.78873876953125,4.932049751281738,1.152626395225525,-1.4226287603378296
1696082151755739000,1.79873876953125,5.421352863311768,0.21739166975021362,-1.3780356645584106
1696082151765738800,1.80873876953125,5.98579216003418,-0.4875468313694,-1.285794973373413
1696082151775737900,1.81873779296875,6.4958648681640625,-1.1802680492401123,-1.2693016529083252
1696082151785738000,1.828738037109375,6.756704330444336,-1.1197923421859741,-1.1361329555511475
1696082151795737900,1.83873779296875,6.95767879486084,-0.4722751975059509,-0.8435285687446594
1696082151805738000,1.848738037109375,7.256392002105713,-0.03978259861469269,-0.3249039649963379
1696082151815737900,1.85873779296875,6.993108749389648,0.5637522339820862,0.5797874927520752
1696082151825737700,1.86873779296875,6.090860843658447,1.779374122619629,1.6769014596939087
1696082151835737600,1.878737548828125,5.277188301086426,2.845334053039551,2.1112265586853027
1696082151845737700,1.88873779296875,3.646789073944092,1.4305700063705444,1.3818535804748535
1696082151855737600,1.898737548828125,1.987679123878479,0.2742021381855011,0.2877938747406006
1696082151865737700,1.90873779296875,0.7946593165397644,0.5686391592025757,-0.3969860374927521
1696082151875737000,1.918737060546875,0.0720057412981987,1.0640509128570557,-0.6413321495056152
1696082151885737200,1.9287373046875,-0.13385584950447083,1.105589747428894,-0.6352235078811646
1696082151895737000,1.938737060546875,-0.012293662875890732,0.601625919342041,-0.5252677798271179
1696082151905737200,1.9487373046875,0.3401755690574646,0.008475755341351032,-0.54359370470047
1696082151915737000,1.958737060546875,0.6523277163505554,-0.38919752836227417,-0.9400452375411987
1696082151925738000,1.968738037109375,0.9657015800476074,-0.3635411858558655,-1.3658183813095093
1696082151935738000,1.978738037109375,1.31511652469635,0.05429064854979515,-1.7524960041046143
1696082151945738000,1.988738037109375,1.7824283838272095,0.7543421983718872,-2.0157790184020996
1696082151955738000,1.998738037109375,2.170938730239868,1.426293969154358,-2.181934356689453
1696082151965738000,2.008738037109375,2.23996639251709,2.158721446990967,-2.0768654346466064
1696082151975738400,2.01873828125,2.302274703979492,2.759202003479004,-1.885664701461792
1696082151985738200,2.02873828125,2.4403302669525146,3.3841171264648438,-1.693242073059082
1696082151995738400,2.03873828125,2.6009879112243652,4.102494716644287,-1.6284903287887573
1696082152005738200,2.04873828125,2.6486353874206543,4.769559383392334,-1.6730835437774658
1696082152015738400,2.05873828125,2.463543176651001,4.944877624511719,-1.7115681171417236
1696082152025738200,2.06873828125,2.1739931106567383,4.503222465515137,-1.5851190090179443
1696082152035738400,2.07873828125,1.9015471935272217,3.625408887863159,-1.4824936389923096
1696082152045738200,2.08873828125,1.7353918552398682,2.2607359886169434,-1.418352723121643
1696082152055738400,2.09873828125,1.6694183349609375,0.7317401766777039,-1.1788935661315918
1696082152065738200,2.10873828125,1.6920204162597656,-0.6506478190422058,-0.8966737985610962
1696082152075739100,2.1187392578125,1.7579938173294067,-1.6353626251220703,-0.7225772142410278
1696082152085739300,2.1287392578125,1.8490127325057983,-2.041588068008423,-0.7940484881401062
1696082152095739100,2.1387392578125,1.9650771617889404,-2.106950521469116,-0.9620364308357239
1696082152105739300,2.1487392578125,2.187432050704956,-1.61337149143219,-1.1471285820007324
1696082152115739100,2.1587392578125,2.6907849311828613,-1.1918745040893555,-0.9559277296066284
1696082152125739500,2.168739501953125,3.326084852218628,-2.131385087966919,-0.16913332045078278
1696082152135739600,2.17873974609375,3.8105010986328125,-2.9475011825561523,0.47594037652015686
1696082152145739500,2.188739501953125,3.6425130367279053,-2.88213849067688,0.6011677384376526
1696082152155739600,2.19873974609375,2.396958827972412,-1.443550944328308,-0.4519639313220978
1696082152165739500,2.208739501953125,0.6914231181144714,0.17585283517837524,-1.2216541767120361
1696082152175740200,2.218740234375,-0.40080395340919495,1.3371076583862305,-1.4330135583877563
1696082152185740000,2.228739990234375,-0.8198575377464294,1.9919551610946655,-1.3560445308685303
1696082152195740200,2.238740234375,-0.8314639329910278,2.237523078918457,-1.1245265007019043
1696082152205740000,2.248739990234375,-0.653091311454773,2.2277491092681885,-0.8349764347076416
1696082152215740200,2.258740234375,-0.439288467168808,1.9907335042953491,-0.5173265337944031
1696082152225739500,2.268739501953125,-0.2670244574546814,1.5167020559310913,-0.15508341789245605
1696082152235739600,2.27873974609375,-0.13324497640132904,0.8710174560546875,0.19799669086933136
1696082152245739500,2.288739501953125,-0.04711298272013664,0.1929570585489273,0.48632508516311646
1696082152255739600,2.29873974609375,-0.026343563571572304,-0.3818671405315399,0.6659194827079773
1696082152265739500,2.308739501953125,-0.06849326193332672,-0.7789295315742493,0.7422776222229004
1696082152275739600,2.31873974609375,-0.1460731476545334,-1.044045090675354,0.7667122483253479
1696082152285739500,2.328739501953125,-0.2108248621225357,-1.2071460485458374,0.7263951301574707
1696082152295739600,2.33873974609375,-0.2364812046289444,-1.2639565467834473,0.5858961343765259
1696082152305739500,2.348739501953125,-0.20227275788784027,-1.2609021663665771,0.3635411858558655
1696082152315739600,2.35873974609375,-0.11125383526086807,-1.2175308465957642,0.12408200651407242
1696082152325739500,2.368739501953125,0.007864889688789845,-1.0892491340637207,-0.0567341111600399
1696082152335739600,2.37873974609375,0.11171197891235352,-0.8161923289299011,-0.14408783614635468
1696082152345739500,2.388739501953125,0.1679115891456604,-0.43562328815460205,-0.16607898473739624
1696082152355739600,2.39873974609375,0.16974417865276337,-0.08804095536470413,-0.15080735087394714
1696082152365739500,2.408739501953125,0.14469870924949646,0.13370312750339508,-0.14653129875659943
1696082152375739600,2.41873974609375,0.11843150109052658,0.19051359593868256,-0.16913332045078278
1696082152385739500,2.428739501953125,0.09399688988924026,0.13675746321678162,-0.1935679316520691
1696082152395739600,2.43873974609375,0.06345362961292267,0.03413209691643715,-0.19478964805603027
1696082152405739500,2.448739501953125,0.02496911771595478,-0.04528038576245308,-0.1734093725681305
1696082152415739600,2.45873974609375,-0.0037415495608001947,-0.0746019184589386,-0.13431400060653687
1696082152425739500,2.468739501953125,-0.02756529487669468,-0.055665094405412674,-0.08605564385652542
1696082152435739600,2.47873974609375,-0.055054228752851486,-0.02695442922413349,-0.04268420860171318
1696082152445739500,2.488739501953125,-0.08254316449165344,-0.025732697919011116,-0.009697485715150833
1696082152455739600,2.49873974609375,-0.10453431308269501,-0.06604980677366257,0.00862847175449133
1696082152465739500,2.508739501953125,-0.10819950699806213,-0.15340353548526764,0.013515393249690533
1696082152475739600,2.51873974609375,-0.08743008971214294,-0.25908321142196655,0.004963280167430639
1696082152485739500,2.528739501953125,-0.04528038576245308,-0.3433826267719269,-0.012751812115311623
1696082152495739600,2.53873974609375,0.004199698567390442,-0.3928627073764801,-0.018249599263072014
1696082152505739500,2.548739501953125,0.061621032655239105,-0.4093560576438904,-0.004199698567390442
1696082152515739600,2.55873974609375,0.11110111325979233,-0.4075234830379486,0.028787024319171906
1696082152525739500,2.568739501953125,0.13920091092586517,-0.38736492395401,0.061162881553173065
1696082152535739400,2.578739501953125,0.15141822397708893,-0.36903896927833557,0.08681922405958176
1696082152545739500,2.588739501953125,0.15447254478931427,-0.3672063648700714,0.09598220139741898
1696082152555739400,2.598739501953125,0.1477530300617218,-0.37087157368659973,0.07154759019613266
1696082152565739500,2.608739501953125,0.13981178402900696,-0.3727041482925415,0.022067507728934288
1696082152575739400,2.618739501953125,0.1330922693014145,-0.3720932900905609,-0.032910365611314774
1696082152585739500,2.628739501953125,0.12148582190275192,-0.3531564772129059,-0.08544477820396423
1696082152595739400,2.638739501953125,0.1025490015745163,-0.3134502172470093,-0.1172097697854042
1696082152605739500,2.648739501953125,0.08544477820396423,-0.27374398708343506,-0.11659890413284302
1696082152615739400,2.658739501953125,0.06772968173027039,-0.25480717420578003,-0.1025490015745163
1696082152625739500,2.668739501953125,0.0518471859395504,-0.2810743749141693,-0.09644035249948502
1696082152635739400,2.678739501953125,0.02802344225347042,-0.3311653137207031,-0.10865765810012817
1696082152645739500,2.688739501953125,-0.01412625890225172,-0.3928627073764801,-0.13920091092586517
1696082152655739400,2.698739501953125,-0.055054228752851486,-0.4741078019142151,-0.17218764126300812
1696082152665739500,2.708739501953125,-0.08743008971214294,-0.5272530913352966,-0.2180025279521942
1696082152675739400,2.718739501953125,-0.09170614182949066,-0.5865070223808289,-0.2839759886264801
1696082152685739500,2.728739501953125,-0.04833471402525902,-0.6591999530792236,-0.37743836641311646
1696082152695739400,2.738739501953125,0.03474296256899834,-0.6903541088104248,-0.4617377817630768
1696082152705739500,2.748739501953125,0.12026409804821014,-0.6567565202713013,-0.4421900808811188
1696082152715739600,2.75873974609375,0.18135061860084534,-0.632932722568512,-0.2894737720489502
1696082152725739500,2.768739501953125,0.19112446904182434,-0.6091089844703674,-0.06284276396036148
1696082152735739600,2.77873974609375,0.13981178402900696,-0.5425246953964233,0.14118622243404388
1696082152745739500,2.788739501953125,0.07506006956100464,-0.46555566787719727,0.2505311071872711
1696082152755739600,2.79873974609375,0.02496911771595478,-0.4087451994419098,0.24320071935653687
1696082152765739500,2.808739501953125,-0.00007635815563844517,-0.32078060507774353,0.15951219201087952
1696082152775739400,2.818739501953125,-0.009239336475729942,-0.21937698125839233,0.029397889971733093
1696082152785739500,2.828739501953125,-0.014737123623490334,-0.1656208336353302,-0.1123228445649147
1696082152795739400,2.838739501953125,-0.02451096847653389,-0.14301882684230804,-0.2442697435617447
1696082152805739500,2.848739501953125,-0.055665094405412674,-0.13141238689422607,-0.3358995318412781
1696082152815739400,2.858739501953125,-0.07765624672174454,-0.1350775808095932,-0.391488254070282
1696082152825739500,2.868739501953125,-0.07826711237430573,-0.1503492146730423,-0.429972767829895
1696082152835739400,2.878739501953125,-0.04589125141501427,-0.15951219201087952,-0.4599051773548126
1696082152845739500,2.888739501953125,-0.0019089538836851716,-0.16623170673847198,-0.4654029607772827
1696082152855739400,2.898739501953125,0.043905939906835556,-0.16623170673847198,-0.449520468711853
1696082152865739500,2.908739501953125,0.08300131559371948,-0.16867516934871674,-0.4195880591869354
1696082152875739400,2.918739501953125,0.11904236674308777,-0.18150334060192108,-0.3859904706478119
1696082152885739500,2.928739501953125,0.15691600739955902,-0.20777054131031036,-0.36216673254966736
1696082152895739400,2.938739501953125,0.1984548419713974,-0.24564418196678162,-0.3499494194984436
1696082152905739500,2.948739501953125,0.2381610870361328,-0.2963460087776184,-0.35727980732917786
1696082152915739400,2.958739501953125,0.27298039197921753,-0.3513238728046417,-0.3798818290233612
1696082152925739500,2.968739501953125,0.29619327187538147,-0.4026365578174591,-0.41225767135620117
1696082152935739100,2.9787392578125,0.31146490573883057,-0.44051021337509155,-0.44829872250556946
1696082152945739300,2.9887392578125,0.33223432302474976,-0.46555566787719727,-0.48433977365493774
1696082152955739100,2.9987392578125,0.3652210533618927,-0.500985860824585,-0.5124396085739136
1696082152965739300,3.0087392578125,0.40920335054397583,-0.5327508449554443,-0.5191590785980225
1696082152975739400,3.018739501953125,0.45868343114852905,-0.5535202622413635,-0.4861723780632019
1696082152985739300,3.0287392578125,0.48861584067344666,-0.559018075466156,-0.40370556712150574
1696082152995739400,3.038739501953125,0.4861723780632019,-0.5510768294334412,-0.27175867557525635
1696082153005739300,3.0487392578125,0.4519639313220978,-0.540081262588501,-0.12209668755531311
1696082153015739400,3.058739501953125,0.3945426046848297,-0.5480225086212158,0.0012980886967852712
1696082153025739300,3.0687392578125,0.33712124824523926,-0.5913938879966736,0.06727153807878494
1696082153035739400,3.078739501953125,0.2803107798099518,-0.6805802583694458,0.06727153807878494
1696082153045739300,3.0887392578125,0.20761781930923462,-0.7654905319213867,0.0342848114669323
1696082153055739400,3.098739501953125,0.12026409804821014,-0.7960337996482849,0.016569720581173897
1696082153065739300,3.1087392578125,0.047571130096912384,-0.7276168465614319,0.058108557015657425
1696082153075739400,3.118739501953125,0.010308351367712021,-0.5321399569511414,0.17478381097316742
1696082153085739300,3.1287392578125,-0.0037415495608001947,-0.25297456979751587,0.35437819361686707
1696082153095739400,3.138739501953125,-0.015347989276051521,0.032299499958753586,0.5828418135643005
1696082153105739300,3.1487392578125,-0.05749769136309624,0.25587618350982666,0.8186357617378235
1696082153115739400,3.158739501953125,-0.16623170673847198,0.3707188367843628,1.0257190465927124
1696082153125739300,3.1687392578125,-0.33421963453292847,0.37682750821113586,1.196150541305542
1696082153135739400,3.178739501953125,-0.5113705396652222,0.31818443536758423,1.367803692817688
1696082153145739300,3.1887392578125,-0.6482043862342834,0.2442697435617447,1.612149715423584
1696082153155739400,3.198739501953125,-0.7459428310394287,0.11843150109052658,1.9646190404891968
1696082153165739300,3.2087392578125,-0.8357400298118591,-0.12835806608200073,2.4362070560455322
1696082153175739400,3.218739501953125,-0.9230937361717224,-0.4649448096752167,2.921233892440796
1696082153185739300,3.2287392578125,-1.0006736516952515,-0.7728208899497986,3.2242231369018555
1696082153195739400,3.238739501953125,-1.0373255014419556,-0.9542478919029236,3.25110125541687
1696082153205739300,3.2487392578125,-1.0092257261276245,-1.0208321809768677,3.0427961349487305
1696082153215739400,3.258739501953125,-0.9273697733879089,-1.0489319562911987,2.71170711517334
1696082153225739300,3.2687392578125,-0.8216901421546936,-0.9719629883766174,2.3592379093170166
1696082153235739600,3.27873974609375,-0.7428885102272034,-0.8742245435714722,2.041588068008423
1696082153245739500,3.288739501953125,-0.7221190929412842,-0.8791114687919617,1.8106809854507446
1696082153255739600,3.29873974609375,-0.7593818306922913,-1.0550405979156494,1.6439146995544434
1696082153265739500,3.308739501953125,-0.8271878957748413,-1.3531428575515747,1.4844789505004883
1696082153275739600,3.31873974609375,-0.9114872813224792,-1.6139823198318481,1.3244322538375854
1696082153285739500,3.328739501953125,-1.0257190465927124,-1.669571042060852,1.1735484600067139
1696082153295739600,3.33873974609375,-1.1704941987991333,-1.4062881469726562,1.0073931217193604
1696082153305739500,3.348739501953125,-1.3140474557876587,-0.9609673619270325,0.9004917144775391
1696082153315739600,3.35873974609375,-1.4178946018218994,-0.529085636138916,0.8986591100692749
1696082153325739500,3.368739501953125,-1.4948636293411255,-0.21754439175128937,0.9127090573310852
1696082153335739600,3.37873974609375,-1.519909143447876,-0.017791450023651123,0.8943830728530884
1696082153345739500,3.388739501953125,-1.4863115549087524,0.1324813961982727,0.8956047892570496
1696082153355739600,3.39873974609375,-1.433777093887329,0.20700696110725403,0.9218720197677612
1696082153365739500,3.408739501953125,-1.3855187892913818,0.33284521102905273,0.9090438485145569
1696082153375739600,3.41873974609375,-1.3256539106369019,0.40248385071754456,0.9078221321105957
1696082153385739500,3.428739501953125,-1.2584587335586548,0.40370556712150574,0.9310349822044373
1696082153395739600,3.43873974609375,-1.205924391746521,0.5289329290390015,0.9328675866127014
1696082153405739500,3.448739501953125,-1.1350640058517456,0.724409818649292,0.9389762282371521
1696082153415739600,3.45873974609375,-1.0183887481689453,0.9131671786308289,0.965854287147522
1696082153425739500,3.468739501953125,-0.8589528799057007,1.0811551809310913,0.9817367792129517
1696082153435739600,3.47873974609375,-0.6989061832427979,1.2124911546707153,0.995175838470459
1696082153445739500,3.488739501953125,-0.539470374584198,1.1941652297973633,0.9707412123680115
1696082153455739400,3.498739501953125,-0.3867540657520294,1.0573313236236572,0.8937721848487854
1696082153465739500,3.508739501953125,-0.26946792006492615,0.8728500604629517,0.7899250984191895
1696082153475739600,3.51873974609375,-0.18333593010902405,0.7085273265838623,0.672639012336731
1696082153485739500,3.528739501953125,-0.10575604438781738,0.553367555141449,0.5351943373680115
1696082153495739600,3.53873974609375,-0.03061962127685547,0.42875105142593384,0.38431060314178467
1696082153505739500,3.548739501953125,0.055512379854917526,0.34139731526374817,0.21815524995326996
1696082153515739400,3.558739501953125,0.15874861180782318,0.26137396693229675,0.05016730725765228
1696082153525739500,3.568739501953125,0.27664560079574585,0.17951802909374237,-0.10193813592195511
1696082153535739400,3.578739501953125,0.3866013288497925,0.13187053799629211,-0.22960896790027618
1696082153545739500,3.588739501953125,0.4770093858242035,0.07811439037322998,-0.3285691440105438
1696082153555739400,3.598739501953125,0.542982816696167,0.046960264444351196,-0.4159228801727295
1696082153565739500,3.608739501953125,0.58146733045578,0.06956227868795395,-0.5032765865325928
1696082153575739400,3.618739501953125,0.5967389941215515,0.1727984994649887,-0.5863542556762695
1696082153585739500,3.628739501953125,0.5955172777175903,0.40309470891952515,-0.6657667756080627
1696082153595739400,3.638739501953125,0.5784130096435547,0.7665595412254333,-0.763505220413208
1696082153605739500,3.648739501953125,0.5417611002922058,1.1666762828826904,-0.8814021944999695
1696082153615739400,3.658739501953125,0.46845728158950806,1.4623349905014038,-0.9602038264274597
1696082153625739500,3.668739501953125,0.368886262178421,1.5429692268371582,-0.9302713871002197
1696082153635739400,3.678739501953125,0.2595413625240326,1.4812718629837036,-0.7940484881401062
1696082153645739500,3.688739501953125,0.10682506114244461,1.3627640008926392,-0.601625919342041
1696082153655739400,3.698739501953125,-0.08559749275445938,1.1569024324417114,-0.38232529163360596
1696082153665739500,3.708739501953125,-0.2975677251815796,0.7616726160049438,-0.12881620228290558
1696082153675739400,3.718739501953125,-0.4832707643508911,0.31085404753685,0.10881037265062332
1696082153685739500,3.728739501953125,-0.5712353587150574,0.13003793358802795,0.19677497446537018
1696082153695739400,3.738739501953125,-0.5645158290863037,0.2858085632324219,0.11736248433589935
1696082153705739500,3.748739501953125,-0.5034292936325073,0.48983755707740784,-0.10560332983732224
1696082153715739600,3.75873974609375,-0.36964982748031616,0.46295949816703796,-0.39820778369903564
1696082153725739500,3.768739501953125,-0.23709207773208618,-0.07399105280637741,-0.5686391592025757
1696082153735739600,3.77873974609375,-0.1405753642320633,-0.7819838523864746,-0.7158576846122742
1696082153745739500,3.788739501953125,-0.04283692687749863,-1.1246793270111084,-0.9351583123207092
1696082153755739600,3.79873974609375,0.059177570044994354,-0.9646325707435608,-0.9944122433662415
1696082153765739500,3.808739501953125,0.06345362961292267,-0.5926156640052795,-0.6217844486236572
1696082153775739400,3.818739501953125,-0.046502117067575455,-0.5272530913352966,-0.0011453722836449742
1696082153785739500,3.828739501953125,-0.0746019184589386,-0.7990881204605103,0.5345834493637085
1696082153795739400,3.838739501953125,0.06467536091804504,-0.8473464250564575,0.7599927186965942
1696082153805739500,3.848739501953125,0.26748260855674744,-0.5895613431930542,0.8088619709014893
1696082153815739400,3.858739501953125,0.4354705512523651,-0.36598464846611023,0.7410559058189392
1696082153825739500,3.868739501953125,0.5472589135169983,-0.42584943771362305,0.5382486581802368
1696082153835739400,3.878739501953125,0.6065128445625305,-0.8149706125259399,0.24381159245967865
1696082153845739500,3.888739501953125,0.6926448345184326,-1.451492190361023,-0.1074359267950058
1696082153855739400,3.898739501953125,0.792215883731842,-2.0849595069885254,-0.4696790277957916
1696082153865739500,3.908739501953125,0.8942303657531738,-2.505234718322754,-0.8032114505767822
1696082153875739400,3.918739501953125,1.0060187578201294,-2.573040723800659,-1.0842094421386719
1696082153885739500,3.928739501953125,1.0878746509552002,-2.2999839782714844,-1.3071752786636353
1696082153895739400,3.938739501953125,1.14468514919281,-1.7911332845687866,-1.5057064294815063
1696082153905739500,3.948739501953125,1.1886674165725708,-1.2053134441375732,-1.6907986402511597
1696082153915739400,3.958739501953125,1.2613604068756104,-0.568791925907135,-1.820302128791809
1696082153925739500,3.968739501953125,1.3493249416351318,0.07811439037322998,-1.933312177658081
1696082153935739400,3.978739501953125,1.4605023860931396,0.5594761967658997,-2.0206658840179443
1696082153945739500,3.988739501953125,1.5429692268371582,0.7708355784416199,-2.048154830932617
1696082153955739600,3.99873974609375,1.5148694515228271,0.7354053854942322,-1.9375882148742676
1696082153965739500,4.008739501953125,1.3755922317504883,0.5863542556762695,-1.6449837684631348
1696082153975739100,4.0187392578125,1.170952320098877,0.5497023463249207,-1.2460887432098389
1696082153985739300,4.0287392578125,0.9595929384231567,0.6352235078811646,-0.8850674033164978
1696082153995739100,4.0387392578125,0.772668182849884,0.837419867515564,-0.6431647539138794
1696082154005739300,4.0487392578125,0.6254496574401855,1.020068645477295,-0.5686391592025757
1696082154015739100,4.0587392578125,0.5148830413818359,1.0597748756408691,-0.6095671653747559
1696082154025739300,4.0687392578125,0.4348596930503845,0.9095019698143005,-0.6798166632652283
1696082154035739100,4.0787392578125,0.39759692549705505,0.5704717636108398,-0.7299076318740845
1696082154045739300,4.0887392578125,0.3866013288497925,0.21433734893798828,-0.7427358031272888
1696082154055739100,4.0987392578125,0.36155587434768677,-0.14179709553718567,-0.7604508996009827
1696082154065739300,4.1087392578125,0.3285691440105438,-0.439288467168808,-0.7995462417602539
1696082154075739100,4.1187392578125,0.3340669274330139,-0.5852852463722229,-0.8850674033164978
1696082154085739300,4.1287392578125,0.3407864570617676,-0.65248042345047,-1.0139600038528442
1696082154095739100,4.1387392578125,0.35666894912719727,-0.7343363761901855,-1.170952320098877
1696082154105739300,4.1487392578125,0.401262104511261,-0.7777078151702881,-1.2723559141159058
1696082154115739100,4.1587392578125,0.45257478952407837,-0.7606036067008972,-1.264414668083191
1696082154125739300,4.1687392578125,0.491670161485672,-0.6249914765357971,-1.1617892980575562
1696082154135739100,4.1787392578125,0.5112178325653076,-0.41118866205215454,-1.0072404146194458
1696082154145739300,4.1887392578125,0.5130504369735718,-0.18333593010902405,-0.8166504502296448
1696082154155739100,4.1987392578125,0.4873940944671631,-0.020234910771250725,-0.6162866950035095
1696082154165739300,4.2087392578125,0.4354705512523651,0.012140946462750435,-0.48250719904899597
1696082154175739000,4.21873876953125,0.3804926872253418,-0.09170614182949066,-0.4666246771812439
1696082154185738800,4.22873876953125,0.3383429944515228,-0.2560288906097412,-0.591241180896759
1696082154195739000,4.23873876953125,0.33223432302474976,-0.34460434317588806,-0.8087092041969299
1696082154205738800,4.24873876953125,0.3701079785823822,-0.28901562094688416,-1.029842495918274
1696082154215739000,4.25873876953125,0.44280093908309937,-0.1558469980955124,-1.1947760581970215
1696082154225738800,4.26873876953125,0.5606979131698608,-0.0849866271018982,-1.2589168548583984
1696082154235739000,4.27873876953125,0.7018077969551086,-0.1607339233160019,-1.162400245666504
1696082154245738800,4.28873876953125,0.8166504502296448,-0.33421963453292847,-0.8887325525283813
1696082154255739000,4.29873876953125,0.8484154939651489,-0.4997641146183014,-0.49838969111442566
1696082154265738800,4.30873876953125,0.8123744130134583,-0.5920047760009766,-0.11843150109052658
1696082154275739100,4.3187392578125,0.7696138620376587,-0.6243806481361389,0.15829046070575714
1696082154285739000,4.328739013671875,0.7451792359352112,-0.6201046109199524,0.2920699417591095
1696082154295739100,4.3387392578125,0.7073056101799011,-0.58772873878479,0.2859613001346588
1696082154305739000,4.348739013671875,0.6248387694358826,-0.5425246953964233,0.16867516934871674
1696082154315739100,4.3587392578125,0.46784642338752747,-0.48204904794692993,0.008017606101930141
1696082154325739000,4.368739013671875,0.2235003262758255,-0.36476290225982666,-0.10621419548988342
1696082154335739100,4.3787392578125,-0.08743008971214294,-0.19433151185512543,-0.059177570044994354
1696082154345739000,4.388739013671875,-0.41546472907066345,-0.03367394581437111,0.15340353548526764
1696082154355739100,4.3987392578125,-0.6854671835899353,0.04268420860171318,0.44173192977905273
1696082154365739000,4.408739013671875,-0.8699484467506409,0.07506006956100464,0.7624362111091614
1696082154375739100,4.4187392578125,-0.98540198802948,0.22533291578292847,1.137507438659668
1696082154385739000,4.428739013671875,-1.0843621492385864,0.542982816696167,1.5315154790878296
1696082154395739100,4.4387392578125,-1.2205851078033447,0.9284388422966003,1.8406133651733398
1696082154405739000,4.448739013671875,-1.4215598106384277,1.0744355916976929,1.994551420211792
1696082154415739100,4.4587392578125,-1.6365844011306763,0.9015607237815857,2.1417698860168457
1696082154425739000,4.468739013671875,-1.8290069103240967,0.5057200789451599,2.3537402153015137
1696082154435739100,4.4787392578125,-1.9731711149215698,0.04818199574947357,2.5712082386016846
1696082154445739000,4.488739013671875,-2.022040367126465,-0.19005544483661652,2.6597836017608643
1696082154455739100,4.4987392578125,-2.0513617992401123,-0.7618253231048584,2.8253281116485596
1696082154465739300,4.5087392578125,-2.003103494644165,-1.2969433069229126,2.905351400375366
1696082154475739400,4.518739501953125,-1.860771894454956,-1.6585755348205566,2.7825675010681152
1696082154485739500,4.528739501953125,-1.632919192314148,-1.7489835023880005,2.43070912361145
1696082154495739400,4.538739501953125,-1.328708291053772,-1.6182583570480347,1.975003719329834
1696082154505739500,4.548739501953125,-1.042823314666748,-1.3213778734207153,1.5235742330551147
1696082154515739400,4.558739501953125,-0.8858309388160706,-0.8613963723182678,1.1442269086837769
1696082154525739500,4.568739501953125,-0.8363508582115173,-0.577954888343811,0.995786726474762
1696082154535739400,4.578739501953125,-0.882165789604187,-0.33483052253723145,1.0214430093765259
1696082154545739500,4.588739501953125,-0.9652434587478638,-0.07215845584869385,1.136285662651062
1696082154555739400,4.598739501953125,-1.0171669721603394,0.18623754382133484,1.2639565467834473
1696082154565739500,4.608739501953125,-1.0519863367080688,0.45257478952407837,1.3519212007522583
1696082154575740000,4.618739990234375,-1.070312261581421,0.5832999348640442,1.3800209760665894
1696082154585739800,4.62873974609375,-1.0599275827407837,0.38904479146003723,1.3714687824249268
1696082154595740000,4.638739990234375,-1.0574841499328613,0.05734497308731079,1.3061062097549438
1696082154605739800,4.64873974609375,-1.0923033952713013,-0.2517528533935547,1.2028700113296509
1696082154615740000,4.658739990234375,-1.1546117067337036,-0.4594470262527466,1.1002446413040161
1696082154625739800,4.66873974609375,-1.224250316619873,-0.529696524143219,0.9939541220664978
1696082154635740000,4.678739990234375,-1.2792282104492188,-0.45211663842201233,0.9017134308815002
1696082154645739800,4.68873974609375,-1.2859476804733276,-0.22731822729110718,0.8516225218772888
1696082154655740000,4.698739990234375,-1.2273045778274536,0.0671188160777092,0.8308531045913696
1696082154665739800,4.70873974609375,-1.1124619245529175,0.3658319115638733,0.8161923289299011
1696082154675740000,4.718739990234375,-0.9627999663352966,0.6559929251670837,0.7862599492073059
1696082154685739800,4.72873974609375,-0.8009206652641296,0.9015607237815857,0.739834189414978
1696082154695740000,4.738739990234375,-0.643317461013794,1.0652726888656616,0.6763041615486145
1696082154705739800,4.74873974609375,-0.5064836740493774,1.1343003511428833,0.5803983211517334
1696082154715740000,4.758739990234375,-0.41118866205215454,1.1477394104003906,0.429514616727829
1696082154725739800,4.76873974609375,-0.33971744775772095,1.151404619216919,0.2505311071872711
1696082154735740000,4.778739990234375,-0.2627484202384949,1.1147527694702148,0.06604980677366257
1696082154745739800,4.78873974609375,-0.16378824412822723,1.0603857040405273,-0.12087496370077133
1696082154755740000,4.798739990234375,-0.04772384837269783,1.0109056234359741,-0.31696268916130066
1696082154765739800,4.80873974609375,0.06834054738283157,0.9675341844558716,-0.5252677798271179
1696082154775740000,4.818739990234375,0.19723311066627502,0.8807913064956665,-0.734794557094574
1696082154785740000,4.828739990234375,0.3548363447189331,0.7170794606208801,-0.9369909167289734
1696082154795740000,4.838739990234375,0.5332090258598328,0.544204592704773,-1.1355221271514893
1696082154805740000,4.848739990234375,0.695088267326355,0.4415792226791382,-1.334664225578308
1696082154815740000,4.858739990234375,0.7677812576293945,0.4599051773548126,-1.522810697555542
1696082154825740000,4.868739990234375,0.7189120650291443,0.6034585237503052,-1.6498706340789795
1696082154835740000,4.878739990234375,0.5686391592025757,0.8129853010177612,-1.676137924194336
1696082154845740000,4.888739990234375,0.35789066553115845,1.0548878908157349,-1.4995977878570557
1696082154855740000,4.898739990234375,0.16119205951690674,1.2460887432098389,-1.2192106246948242
1696082154865740000,4.908739990234375,0.029856039211153984,1.133689522743225,-1.0402271747589111
1696082154875739600,4.91873974609375,-0.08254316449165344,0.8716283440589905,-0.7274641394615173
1696082154885739500,4.928739501953125,-0.316504567861557,0.5118287205696106,-0.1532508134841919
1696082154895739600,4.93873974609375,-0.7025713920593262,0.3597232699394226,0.41118866205215454
1696082154905739500,4.948739501953125,-0.9371436238288879,0.3194061517715454,0.6952410340309143
1696082154915739600,4.95873974609375,-0.9017134308815002,0.3157409727573395,0.7135669589042664
1696082154925739500,4.968739501953125,-0.8088619709014893,0.3762166202068329,0.538859486579895
1696082154935739600,4.97873974609375,-0.6732498407363892,0.39759692549705505,0.2010510265827179
1696082154945739800,4.98873974609375,-0.5058727860450745,0.40798163414001465,-0.1825723499059677
1696082154955739600,4.99873974609375,-0.2822960913181305,0.43424883484840393,-0.5460371971130371
1696082154965739800,5.00873974609375,0.038408152759075165,0.21616993844509125,-0.753120481967926
1696082154975739600,5.01873974609375,0.3261256814002991,-0.3232240676879883,-0.9314931631088257
1696082154985739800,5.02873974609375,0.45318564772605896,-0.7263951301574707,-1.189278244972229
1696082154995739600,5.03873974609375,0.48433977365493774,-0.8583420515060425,-1.1703414916992188
1696082155005739800,5.04873974609375,0.4654029607772827,-0.8070293664932251,-0.8545241355895996
1696082155015739600,5.05873974609375,0.4244749844074249,-0.6787476539611816,-0.5038874745368958
1696082155025739800,5.06873974609375,0.3969860374927521,-1.1161271333694458,-0.26626089215278625
1696082155035739600,5.07873974609375,0.3597232699394226,-1.9383517503738403,-0.02557998150587082
1696082155045739800,5.08873974609375,0.33162346482276917,-2.058692216873169,0.42584943771362305
1696082155055739600,5.09873974609375,0.38293614983558655,-1.566334843635559,0.7978663444519043
1696082155065739800,5.10873974609375,0.47273334860801697,-1.0574841499328613,0.8070293664932251
1696082155075739600,5.11873974609375,0.6474407911300659,-0.8003098368644714,0.458225280046463
1696082155085739500,5.128739501953125,0.8917868733406067,-0.7538840770721436,-0.07750352472066879
1696082155095739600,5.13873974609375,1.0445032119750977,-0.7709882855415344,-0.5668066143989563
1696082155105739500,5.148739501953125,1.1275808811187744,-0.7801512479782104,-0.8985064029693604
1696082155115739600,5.15873974609375,1.2583060264587402,-0.7386124134063721,-1.0878746509552002
1696082155125739500,5.168739501953125,1.3853659629821777,-0.5602397918701172,-1.1636219024658203
1696082155135739600,5.17873974609375,1.4336243867874146,-0.2004401534795761,-1.2210432291030884
1696082155145739500,5.188739501953125,1.4311809539794922,0.3438407778739929,-1.3658183813095093
1696082155155739600,5.19873974609375,1.464167594909668,0.924162745475769,-1.645594596862793
1696082155165739500,5.208739501953125,1.541136622428894,1.2864058017730713,-2.0212767124176025
1696082155175740000,5.218739990234375,1.6022231578826904,1.3169491291046143,-2.349311351776123
1696082155185740000,5.228739990234375,1.590005874633789,1.0164034366607666,-2.5008058547973633
1696082155195740000,5.238739990234375,1.4782174825668335,0.5014439821243286,-2.405510902404785
1696082155205740000,5.248739990234375,1.2680798768997192,-0.017791450023651123,-2.0432679653167725
1696082155215740000,5.258739990234375,0.9730319976806641,-0.3317761719226837,-1.5209780931472778
1696082155225740000,5.268739990234375,0.6688210964202881,-0.43012550473213196,-1.0164034366607666
1696082155235740000,5.278739990234375,0.45379650592803955,-0.34460434317588806,-0.6260605454444885
1696082155245740000,5.288739990234375,0.3487277030944824,-0.18272507190704346,-0.3585015535354614
1696082155255740000,5.298739990234375,0.3084105849266052,-0.031230485066771507,-0.2039526402950287
1696082155265740000,5.308739990234375,0.29619327187538147,-0.13446670770645142,-0.18623754382133484
1696082155275740000,5.318739990234375,0.3505602777004242,-0.5034292936325073,-0.320627897977829
1696082155285739800,5.32873974609375,0.44890961050987244,-0.8974373936653137,-0.5649740099906921
1696082155295740000,5.338739990234375,0.5112178325653076,-1.0373255014419556,-0.8068766593933105
1696082155305739800,5.34873974609375,0.514272153377533,-0.9255372285842896,-1.0267881155014038
1696082155315740000,5.358739990234375,0.5136613249778748,-0.709901750087738,-1.1856130361557007
1696082155325739800,5.36873974609375,0.5545892715454102,-0.5119814276695251,-1.2039390802383423
1696082155335739400,5.378739501953125,0.610788881778717,-0.4386776089668274,-1.0414488315582275
1696082155345739500,5.388739501953125,0.5936846733093262,-0.5138140320777893,-0.7610617280006409
1696082155355739400,5.398739501953125,0.43302708864212036,-0.6060546636581421,-0.4470770061016083
1696082155365739500,5.408739501953125,0.23693935573101044,-0.5962808132171631,-0.21067215502262115
1696082155375739400,5.418739501953125,0.14897476136684418,-0.5248095989227295,-0.1275944709777832
1696082155385739500,5.428739501953125,0.1636355221271515,-0.44173192977905273,-0.2082286924123764
1696082155395739400,5.438739501953125,0.19234620034694672,-0.34521523118019104,-0.42936190962791443
1696082155405739500,5.448739501953125,0.23021984100341797,-0.25480717420578003,-0.7213554978370667
1696082155415739400,5.458739501953125,0.2998584806919098,-0.09720393270254135,-1.0115164518356323
1696082155425739500,5.468739501953125,0.38721221685409546,0.14592044055461884,-1.2827407121658325
1696082155435739400,5.478739501953125,0.49289190769195557,0.36827537417411804,-1.4971543550491333
1696082155445739500,5.488739501953125,0.6321691870689392,0.42875105142593384,-1.5350279808044434
1696082155455739400,5.498739501953125,0.8068766593933105,0.22533291578292847,-1.2815189361572266
1696082155465739500,5.508739501953125,0.9663124680519104,-0.18883371353149414,-0.7500661611557007
1696082155475739100,5.5187392578125,1.0237337350845337,-0.6133850812911987,-0.1324813961982727
1696082155485739000,5.528739013671875,0.9852492809295654,-0.8174140453338623,0.3513238728046417
1696082155495739100,5.5387392578125,0.9266062378883362,-0.7477754354476929,0.6042220592498779
1696082155505739000,5.548739013671875,0.8728500604629517,-0.5309182405471802,0.6420957446098328
1696082155515739100,5.5587392578125,0.8068766593933105,-0.31589367985725403,0.5052618980407715
1696082155525739000,5.568739013671875,0.6822600960731506,-0.25358542799949646,0.23220515251159668
1696082155535739100,5.5787392578125,0.4562399685382843,-0.35987597703933716,-0.029856039211153984
1696082155545739000,5.588739013671875,0.12026409804821014,-0.46616652607917786,-0.09460775554180145
1696082155555739100,5.5987392578125,-0.3122285008430481,-0.4692208766937256,0.09842566400766373
1696082155565739000,5.608739013671875,-0.7703774571418762,-0.4826599061489105,0.4478405714035034
1696082155575739100,5.6187392578125,-1.128955364227295,-0.5700136423110962,0.8931613564491272
1696082155585739000,5.628739013671875,-1.3244322538375854,-0.4673882722854614,1.453324794769287
1696082155595739100,5.6387392578125,-1.3910164833068848,0.046960264444351196,2.1527655124664307
1696082155605739000,5.648739013671875,-1.4771485328674316,0.7867180705070496,2.8503735065460205
1696082155615739100,5.6587392578125,-1.68911874294281,1.3829225301742554,3.2999703884124756
1696082155625739000,5.668739013671875,-1.9664515256881714,1.645594596862793,3.3854916095733643
1696082155635739400,5.678739501953125,-2.226069211959839,1.4733306169509888,3.1961233615875244
1696082155645739500,5.688739501953125,-2.411161422729492,1.0261772871017456,2.9334511756896973
1696082155655739400,5.698739501953125,-2.4624741077423096,0.37194058299064636,2.7966175079345703
1696082155665739500,5.708739501953125,-2.3256404399871826,-0.45211663842201233,2.8143324851989746
1696082155675739100,5.7187392578125,-2.0513617992401123,-1.2932780981063843,2.8412106037139893
1696082155685739000,5.728739013671875,-1.7428748607635498,-1.9475147724151611,2.6548967361450195
1696082155695739100,5.7387392578125,-1.4667638540267944,-2.2553908824920654,2.2639429569244385
1696082155705739000,5.748739013671875,-1.2199742794036865,-2.240730047225952,1.7593683004379272
1696082155715739100,5.7587392578125,-1.0501537322998047,-2.0495293140411377,1.2938889265060425
1696082155725739000,5.768739013671875,-1.008004069328308,-1.6378060579299927,1.0336604118347168
1696082155735739100,5.7787392578125,-1.070923089981079,-1.0843621492385864,1.053818941116333
1696082155745739000,5.788739013671875,-1.1344531774520874,-0.5193118453025818,1.2102004289627075
1696082155755739100,5.7987392578125,-1.1649963855743408,0.10193813592195511,1.292667269706726
1696082155765739000,5.808739013671875,-1.1649963855743408,0.6077345609664917,1.290834665298462
1696082155775739100,5.8187392578125,-1.1478921175003052,0.8539132475852966,1.2554044723510742
1696082155785739000,5.828739013671875,-1.1478921175003052,0.9137780666351318,1.204702615737915
1696082155795739100,5.8387392578125,-1.148503065109253,0.8594110608100891,1.1350640058517456
1696082155805739000,5.848739013671875,-1.1436160802841187,0.6535494327545166,1.062371015548706
1696082155815739100,5.8587392578125,-1.1478921175003052,0.32734742760658264,1.008004069328308
1696082155825739000,5.868739013671875,-1.157055139541626,0.0035888333804905415,0.975628137588501
1696082155835739100,5.8787392578125,-1.1515573263168335,-0.2059379518032074,0.9450848698616028
1696082155845739000,5.888739013671875,-1.0965794324874878,-0.15401439368724823,0.9053786396980286
1696082155855739100,5.8987392578125,-1.008004069328308,0.06039930135011673,0.8326857089996338
1696082155865739000,5.908739013671875,-0.9273697733879089,0.45257478952407837,0.7025713920593262
1696082155875739100,5.9187392578125,-0.8491790294647217,0.9119454622268677,0.5449681282043457
1696082155885739000,5.928739013671875,-0.7593818306922913,1.2992340326309204,0.41546472907066345
1696082155895739100,5.9387392578125,-0.6445391774177551,1.5557974576950073,0.3116176426410675
1696082155905739000,5.948739013671875,-0.5028184652328491,1.626046895980835,0.2059379518032074
1696082155915739100,5.9587392578125,-0.3336087763309479,1.5564082860946655,0.07643451541662216
1696082155925739000,5.968739013671875,-0.14851661026477814,1.4116332530975342,-0.08361218124628067
1696082155935739100,5.9787392578125,0.030466904863715172,1.2656364440917969,-0.27725645899772644
1696082155945739000,5.988739013671875,0.1929570585489273,1.163011074066162,-0.4977788031101227
1696082155955738600,5.998738525390625,0.3499494194984436,1.0500010251998901,-0.7402923107147217
1696082155965738800,6.00873876953125,0.5173265337944031,0.8612436652183533,-0.9938014149665833
1696082155975739100,6.0187392578125,0.705473005771637,0.6217844486236572,-1.2528082132339478
1696082155985739300,6.0287392578125,0.8893434405326843,0.4214206635951996,-1.513036847114563
1696082155995739100,6.0387392578125,1.0304533243179321,0.2986367344856262,-1.758604645729065
1696082156005739300,6.0487392578125,1.0542770624160767,0.29741501808166504,-1.9852356910705566
1696082156015739100,6.0587392578125,0.9327148795127869,0.43852490186691284,-2.153834581375122
1696082156025739300,6.0687392578125,0.7085273265838623,0.6828709840774536,-2.1348977088928223
1696082156035739000,6.07873876953125,0.37804922461509705,0.9321039915084839,-1.7341700792312622
1696082156045738800,6.08873876953125,0.018249599263072014,1.1294134855270386,-1.2613604068756104
1696082156055739000,6.09873876953125,-0.1650099754333496,0.9485973715782166,-1.0976485013961792
1696082156065738800,6.10873876953125,-0.2260964959859848,0.4965570867061615,-0.8325329422950745
1696082156075739000,6.11873876953125,-0.3629303276538849,0.12515102326869965,-0.32246050238609314
1696082156085738800,6.12873876953125,-0.6335436105728149,-0.023900102823972702,0.2462550550699234
1696082156095739000,6.13873876953125,-0.730060338973999,-0.26458099484443665,0.5712353587150574
1696082156105738800,6.14873876953125,-0.6756933331489563,-0.48571422696113586,0.5498550534248352
1696082156115739000,6.15873876953125,-0.5865070223808289,-0.4527274966239929,0.24747678637504578
1696082156125738800,6.16873876953125,-0.48082730174064636,-0.28901562094688416,-0.13431400060653687
1696082156135737900,6.17873779296875,-0.32994359731674194,-0.3281109929084778,-0.39759692549705505
1696082156145738000,6.188738037109375,-0.1607339233160019,-0.6842454075813293,-0.49472448229789734
1696082156155737900,6.19873779296875,0.008475755341351032,-1.1912635564804077,-0.6987534761428833
1696082156165738000,6.208738037109375,0.14958561956882477,-1.224250316619873,-0.9363800883293152
1696082156175737900,6.21873779296875,0.23083069920539856,-0.5083162188529968,-0.7323510646820068
1696082156185738000,6.228738037109375,0.19723311066627502,0.30108019709587097,-0.07444920390844345
1696082156195737900,6.23873779296875,0.32795828580856323,0.2283872365951538,0.6042220592498779
1696082156205738000,6.248738037109375,0.514272153377533,-0.2822960913181305,0.881554901599884
1696082156215737900,6.25873779296875,0.6376669406890869,-0.3916409909725189,0.9401979446411133
1696082156225738000,6.268738037109375,0.7677812576293945,-0.17661641538143158,0.8607854843139648
1696082156235738000,6.278738037109375,0.8642979860305786,-0.0019089538836851716,0.6170502305030823
1696082156245738000,6.288738037109375,0.9027824997901917,0.04818199574947357,0.22487476468086243
1696082156255738400,6.29873828125,0.9632581472396851,-0.06727153807878494,-0.21433734893798828
1696082156265738200,6.30873828125,1.020068645477295,-0.30550897121429443,-0.553367555141449
1696082156275738400,6.31873828125,1.0408380031585693,-0.6048329472541809,-0.7415140271186829
1696082156285738200,6.32873828125,1.0292315483093262,-0.9408088326454163,-0.8361981511116028
1696082156295738400,6.33873828125,1.0225120782852173,-1.2028700113296509,-1.0536662340164185
1696082156305738200,6.34873828125,1.0530552864074707,-1.2694543600082397,-1.5038738250732422
1696082156315738400,6.35873828125,1.151404619216919,-1.1313987970352173,-1.9779052734375
1696082156325738200,6.36873828125,1.2497539520263672,-0.8204683661460876,-2.2723424434661865
1696082156335739000,6.37873876953125,1.3138947486877441,-0.4576144218444824,-2.357252597808838
1696082156345738800,6.38873876953125,1.3236685991287231,-0.19738583266735077,-2.2808945178985596
1696082156355739000,6.39873876953125,1.2766319513320923,-0.055054228752851486,-2.0762546062469482
1696082156365738800,6.40873876953125,1.1752283573150635,0.012751812115311623,-1.7494417428970337
1696082156375739000,6.41873876953125,1.0322859287261963,0.0518471859395504,-1.3517683744430542
1696082156385738800,6.42873876953125,0.8740718364715576,0.12209668755531311,-0.9883036017417908
1696082156395739000,6.43873876953125,0.7500661611557007,0.24060454964637756,-0.7299076318740845
1696082156405738800,6.44873876953125,0.6633232831954956,0.3340669274330139,-0.5936846733093262
1696082156415739000,6.45873876953125,0.6083454489707947,0.37682750821113586,-0.5387067794799805
1696082156425738800,6.46873876953125,0.572304368019104,0.27664560079574585,-0.5246568918228149
1696082156435739600,6.47873974609375,0.5704717636108398,0.03107776865363121,-0.5307655334472656
1696082156445739500,6.488739501953125,0.6028476357460022,-0.25297456979751587,-0.5771912932395935
1696082156455739600,6.49873974609375,0.6223953366279602,-0.5559637546539307,-0.6993643641471863
1696082156465739800,6.50873974609375,0.6541603207588196,-0.7978663444519043,-0.8642979860305786
1696082156475739600,6.51873974609375,0.6908122301101685,-0.8675050139427185,-0.999299168586731
1696082156485739800,6.52873974609375,0.7018077969551086,-0.7551057934761047,-1.1037571430206299
1696082156495739600,6.53873974609375,0.7042512893676758,-0.5608506798744202,-1.1874456405639648
1696082156505739800,6.54873974609375,0.7299076318740845,-0.3519347310066223,-1.199052095413208
1696082156515739600,6.55873974609375,0.7745007872581482,-0.1650099754333496,-1.134911298751831
1696082156525739500,6.568739501953125,0.7873289585113525,-0.061162881553173065,-1.0084621906280518
1696082156535739400,6.578739501953125,0.7329619526863098,-0.07399105280637741,-0.8563567399978638
1696082156545739500,6.588739501953125,0.6425538659095764,-0.18883371353149414,-0.7311293482780457
1696082156555739400,6.598739501953125,0.5576435923576355,-0.34949126839637756,-0.6822600960731506
1696082156565739500,6.608739501953125,0.5222133994102478,-0.429514616727829,-0.7225772142410278
1696082156575739600,6.61873974609375,0.5264894962310791,-0.3672063648700714,-0.8355873227119446
1696082156585739500,6.628739501953125,0.553978443145752,-0.2108248621225357,-0.9785297513008118
1696082156595739600,6.63873974609375,0.5991824269294739,-0.044058654457330704,-1.087263822555542
1696082156605739500,6.648739501953125,0.6853144764900208,0.021303925663232803,-1.1184178590774536
1696082156615739600,6.65873974609375,0.8062657713890076,-0.06238461285829544,-1.0475575923919678
1696082156625739500,6.668739501953125,0.9131671786308289,-0.2364812046289444,-0.8447502851486206
1696082156635739600,6.67873974609375,0.9608146548271179,-0.3836997449398041,-0.5063309073448181
1696082156645739500,6.688739501953125,0.9467647671699524,-0.4276820421218872,-0.11171197891235352
1696082156655739600,6.69873974609375,0.9095019698143005,-0.34032830595970154,0.23342688381671906
1696082156665739500,6.708739501953125,0.8814021944999695,-0.1851685345172882,0.4398993253707886
1696082156675739600,6.71873974609375,0.8398633599281311,-0.06727153807878494,0.48021644353866577
1696082156685739500,6.728739501953125,0.7402923107147217,-0.03856086730957031,0.36964982748031616
1696082156695739600,6.73873974609375,0.534430742263794,-0.09353873878717422,0.1503492146730423
1696082156705739500,6.748739501953125,0.1929570585489273,-0.1955532431602478,-0.047571130096912384
1696082156715739000,6.75873876953125,-0.24869851768016815,-0.2658027410507202,-0.0823904499411583
1696082156725738800,6.76873876953125,-0.7233408093452454,-0.2755765914916992,0.1149190217256546
1696082156735739000,6.77873876953125,-1.1100184917449951,-0.30917418003082275,0.5028184652328491
1696082156745738800,6.78873876953125,-1.338482141494751,-0.31528282165527344,1.0422124862670898
1696082156755738600,6.798738525390625,-1.4484378099441528,-0.15157094597816467,1.6720144748687744
1696082156765738800,6.80873876953125,-1.5455654859542847,0.23693935573101044,2.2950971126556396
1696082156775739000,6.81873876953125,-1.7489835023880005,0.6920339465141296,2.7801241874694824
1696082156785739000,6.828739013671875,-2.0440313816070557,0.9705885052680969,3.0544025897979736
1696082156795739000,6.83873876953125,-2.354351043701172,0.9944122433662415,3.0825023651123047
1696082156805739000,6.848739013671875,-2.603584051132202,0.7476227283477783,2.9316186904907227
1696082156815739000,6.85873876953125,-2.7300331592559814,0.17218764126300812,2.7184267044067383
1696082156825739000,6.868739013671875,-2.698268175125122,-0.6347653269767761,2.564488649368286
1696082156835739000,6.87873876953125,-2.4337635040283203,-1.3592514991760254,2.4820218086242676
1696082156845739000,6.888739013671875,-2.0354793071746826,-1.965229868888855,2.460641622543335
1696082156855739000,6.89873876953125,-1.6579645872116089,-2.2505040168762207,2.3122012615203857
1696082156865739000,6.908739013671875,-1.3696362972259521,-2.053805351257324,1.9890536069869995
1696082156875739000,6.91873876953125,-1.1821006536483765,-1.4814245700836182,1.5492305755615234
1696082156885738800,6.92873876953125,-1.0868055820465088,-0.8082510828971863,1.1943179368972778
1696082156895739000,6.93873876953125,-1.0214430093765259,-0.48571422696113586,1.1338422298431396
1696082156905738800,6.94873876953125,-1.0269408226013184,-0.20471622049808502,1.1973721981048584
1696082156915739000,6.95873876953125,-1.0599275827407837,0.23571762442588806,1.2499066591262817
1696082156925738800,6.96873876953125,-1.060538411140442,0.5405393838882446,1.2780064344406128
1696082156935739000,6.97873876953125,-1.0257190465927124,0.4971679449081421,1.2651783227920532
1696082156945738800,6.98873876953125,-1.003727912902832,0.2949715554714203,1.2175308465957642
1696082156955739000,6.99873876953125,-1.0214430093765259,0.16546812653541565,1.1338422298431396
1696082156965738800,7.00873876953125,-1.0727556943893433,0.1630246639251709,1.034271240234375
1696082156975739000,7.01873876953125,-1.1313987970352173,0.18623754382133484,0.9695194959640503
1696082156985739000,7.028739013671875,-1.1802680492401123,0.17218764126300812,0.9298132658004761
1696082156995739000,7.03873876953125,-1.2150872945785522,0.1477530300617218,0.8693376183509827
1696082157005739000,7.048739013671875,-1.214476466178894,0.15691600739955902,0.7697665691375732
1696082157015739600,7.05873974609375,-1.157055139541626,0.3310126066207886,0.6543130278587341
1696082157025739800,7.06873974609375,-1.0446559190750122,0.6407212615013123,0.5248095989227295
1696082157035739600,7.07873974609375,-0.8992699980735779,0.9314931631088257,0.39408445358276367
1696082157045739800,7.08873974609375,-0.7599927186965942,1.1495720148086548,0.2621375620365143
1696082157055739600,7.09873974609375,-0.6304892897605896,1.2864058017730713,0.15767958760261536
1696082157065739800,7.10873974609375,-0.4991532564163208,1.391474723815918,0.0794888436794281
1696082157075739600,7.11873974609375,-0.3568216562271118,1.4409548044204712,0.017180584371089935
1696082157085739500,7.128739501953125,-0.20715968310832977,1.4018594026565552,-0.06650795042514801
1696082157095739600,7.13873974609375,-0.05871942266821861,1.3261120319366455,-0.18562667071819305
1696082157105739500,7.148739501953125,0.08972083032131195,1.2705233097076416,-0.3236822187900543
1696082157115739600,7.15873974609375,0.23266330361366272,1.2021064758300781,-0.4861723780632019
1696082157125739500,7.168739501953125,0.3792709708213806,1.0713813304901123,-0.6798166632652283
1696082157135739600,7.17873974609375,0.5399284958839417,0.8832347989082336,-0.9088911414146423
1696082157145739500,7.188739501953125,0.7189120650291443,0.6969208717346191,-1.1562916040420532
1696082157155739600,7.19873974609375,0.8875108361244202,0.5710826516151428,-1.419574499130249
1696082157165739500,7.208739501953125,0.9956340193748474,0.5234351754188538,-1.6791921854019165
1696082157175739600,7.21873974609375,0.9883036017417908,0.5710826516151428,-1.881388545036316
1696082157185739500,7.228739501953125,0.8508589267730713,0.6963100433349609,-1.9155970811843872
1696082157195739600,7.23873974609375,0.591241180896759,0.8227591514587402,-1.607720971107483
1696082157205739500,7.248739501953125,0.2289981096982956,0.905225932598114,-1.1324677467346191
1696082157215739600,7.25873974609375,-0.061162881553173065,0.7971028089523315,-0.9760863184928894
1696082157225739500,7.268739501953125,-0.2010510265827179,0.4470770061016083,-0.999299168586731
1696082157235739600,7.27873974609375,-0.2908482253551483,0.04573853686451912,-0.772057294845581
1696082157245739500,7.288739501953125,-0.42523857951164246,-0.30978503823280334,-0.28641945123672485
1696082157255739600,7.29873974609375,-0.5364160537719727,-0.48143815994262695,0.1509600728750229
1696082157265739500,7.308739501953125,-0.5663484334945679,-0.4081343412399292,0.2963460087776184
1696082157275739400,7.318739501953125,-0.548633337020874,-0.09537133574485779,0.18944458663463593
1696082157285739500,7.328739501953125,-0.4887685477733612,0.37316229939460754,-0.035964690148830414
1696082157295739400,7.338739501953125,-0.3287218511104584,0.7861071825027466,-0.29741501808166504
1696082157305739500,7.348739501953125,-0.04161519557237625,0.8850674033164978,-0.4470770061016083
1696082157315739400,7.358739501953125,0.19723311066627502,0.4904484450817108,-0.42325326800346375
1696082157325739500,7.368739501953125,0.218613401055336,0.11659890413284302,-0.4904484450817108
1696082157335740200,7.378740234375,0.12209668755531311,-0.17722727358341217,-0.5154939293861389
1696082157345740300,7.388740234375,0.013362676836550236,-0.6335436105728149,-0.38293614983558655
1696082157355740200,7.398740234375,-0.07704538106918335,-1.2578479051589966,-0.29252809286117554
1696082157365740300,7.408740234375,-0.08743008971214294,-2.3219752311706543,-0.3053562641143799
1696082157375740200,7.418740234375,-0.09598220139741898,-2.9529988765716553,-0.07017314434051514
1696082157385740000,7.428739990234375,-0.10392344743013382,-2.497293472290039,0.45700356364250183
1696082157395740200,7.438740234375,-0.00618501054123044,-2.117335319519043,0.6640868782997131
1696082157405740000,7.448739990234375,0.14469870924949646,-1.7550922632217407,0.43562328815460205
1696082157415740200,7.458740234375,0.3285691440105438,-1.2077569961547852,0.07826711237430573
1696082157425740000,7.468739990234375,0.6407212615013123,-0.729449450969696,-0.1837940812110901
1696082157435740200,7.478740234375,1.0139600038528442,-0.3482695519924164,-0.3255148231983185
1696082157445740000,7.488739990234375,1.293736219406128,0.04879286140203476,-0.4611268937587738
1696082157455740200,7.498740234375,1.4409548044204712,0.33162346482276917,-0.6034585237503052
1696082157465740000,7.508739990234375,1.4305700063705444,0.58146733045578,-0.8068766593933105
1696082157475740200,7.518740234375,1.3566553592681885,0.9406561255455017,-1.0426706075668335
1696082157485740000,7.528739990234375,1.2521973848342896,1.3358858823776245,-1.247921347618103
1696082157495740200,7.538740234375,1.199052095413208,1.6675857305526733,-1.4372895956039429
1696082157505740000,7.548739990234375,1.3548227548599243,1.5319737195968628,-1.9272035360336304
1696082157515740200,7.558740234375,1.6517032384872437,0.6486625075340271,-2.6944501399993896
1696082157525740000,7.568739990234375,1.7995326519012451,-0.5278639197349548,-3.1122820377349854
1696082157535740200,7.578740234375,1.75066339969635,-1.5889368057250977,-2.979724407196045
1696082157545740000,7.588739990234375,1.5655713081359863,-2.290210247039795,-2.437886953353882
1696082157555740200,7.598740234375,1.321835994720459,-2.3702335357666016,-1.6907986402511597
1696082157565740000,7.608739990234375,1.0554988384246826,-1.8766543865203857,-0.9724211096763611
1696082157575740200,7.618740234375,0.8392524719238281,-0.9469174742698669,-0.4373031556606293
1696082157585740300,7.628740234375,0.7451792359352112,0.0017562375869601965,-0.15508341789245605
1696082157595740200,7.638740234375,0.7060838937759399,0.7060838937759399,-0.04634939879179001
1696082157605740300,7.648740234375,0.6810383796691895,0.9809732437133789,-0.02863430790603161
1696082157615740200,7.658740234375,0.6669884920120239,0.7714464664459229,-0.10438159853219986
1696082157625740300,7.668740234375,0.6877579092979431,0.23510676622390747,-0.27786731719970703
1696082157635739400,7.678739501953125,0.7427358031272888,-0.45639270544052124,-0.5973498225212097
1696082157645739500,7.688739501953125,0.8288677930831909,-0.9988410472869873,-0.9962448477745056
1696082157655739400,7.698739501953125,0.8820130825042725,-1.2816716432571411,-1.3364968299865723
1696082157665739500,7.708739501953125,0.8679631352424622,-1.2725086212158203,-1.4635567665100098
1696082157675739600,7.71873974609375,0.8160396218299866,-1.1136837005615234,-1.351157546043396
1696082157685739500,7.728739501953125,0.7610617280006409,-0.8711702227592468,-1.0591639280319214
1696082157695739600,7.73873974609375,0.6816492676734924,-0.5938373804092407,-0.6847035884857178
1696082157705739500,7.748739501953125,0.5564218759536743,-0.33971744775772095,-0.38843393325805664
1696082157715739600,7.75873974609375,0.4513530433177948,-0.15767958760261536,-0.2943606972694397
1696082157725739800,7.76873974609375,0.3847687542438507,-0.07399105280637741,-0.40737074613571167
1696082157735739600,7.77873974609375,0.3639993369579315,-0.07399105280637741,-0.6621015667915344
1696082157745739800,7.78873974609375,0.39881864190101624,-0.055054228752851486,-0.9314931631088257
1696082157755739600,7.79873974609375,0.47884199023246765,0.08300131559371948,-1.0781008005142212
1696082157765739500,7.808739501953125,0.572304368019104,0.2241111844778061,-1.0603857040405273
1696082157775739600,7.81873974609375,0.6639341711997986,0.218613401055336,-0.875904381275177
1696082157785739500,7.828739501953125,0.7329619526863098,-0.00007635815563844517,-0.5570327639579773
1696082157795739600,7.83873974609375,0.7482335567474365,-0.36598464846611023,-0.1880701333284378
1696082157805739500,7.848739501953125,0.7201337814331055,-0.7062366008758545,0.13385584950447083
1696082157815739600,7.85873974609375,0.695088267326355,-0.8308531045913696,0.36598464846611023
1696082157825739500,7.868739501953125,0.6706537008285522,-0.681191086769104,0.49548807740211487
1696082157835739600,7.87873974609375,0.6431647539138794,-0.3965279161930084,0.510148823261261
1696082157845739500,7.888739501953125,0.6046802401542664,-0.20349448919296265,0.36964982748031616
1696082157855739600,7.89873974609375,0.5112178325653076,-0.2700788080692291,0.10942123830318451
1696082157865739500,7.908739501953125,0.29680415987968445,-0.47166433930397034,-0.06223189830780029
1696082157875739400,7.918739501953125,-0.03856086730957031,-0.500374972820282,0.052610769867897034
1696082157885739500,7.928739501953125,-0.47166433930397034,-0.3024546504020691,0.4380667507648468
1696082157895739400,7.938739501953125,-0.9017134308815002,-0.14912748336791992,0.9353110194206238
1696082157905739500,7.948739501953125,-1.2163090705871582,-0.14851661026477814,1.4478269815444946
1696082157915739400,7.958739501953125,-1.4166728258132935,-0.08315403014421463,1.9908862113952637
1696082157925739500,7.968739501953125,-1.4985288381576538,0.07628180086612701,2.2700517177581787
1696082157935739400,7.978739501953125,-1.687286138534546,0.6272822618484497,2.7868435382843018
1696082157945739500,7.988739501953125,-1.9695059061050415,1.14468514919281,3.041574478149414
1696082157955739400,7.998739501953125,-2.2999839782714844,1.3297772407531738,2.9566640853881836
1696082157965739500,8.008739501953125,-2.5968644618988037,1.1672871112823486,2.745915651321411
1696082157975739600,8.01873974609375,-2.8002827167510986,0.8600218892097473,2.5632669925689697
1696082157985739500,8.028739501953124,-2.835101842880249,0.5979607105255127,2.4349851608276367
1696082157995739600,8.03873974609375,-2.656118392944336,0.35666894912719727,2.3873376846313477
1696082158005739500,8.048739501953126,-2.318920850753784,-0.09781479835510254,2.4197134971618652
1696082158015739600,8.05873974609375,-1.9658406972885132,-0.7312820553779602,2.343355417251587
1696082158025739500,8.068739501953125,-1.6927839517593384,-1.2761738300323486,2.034257650375366
1696082158035739600,8.07873974609375,-1.4973070621490479,-1.4924201965332031,1.5620588064193726
1696082158045739500,8.088739501953125,-1.3342061042785645,-1.4673746824264526,1.2040917873382568
1696082158055739600,8.09873974609375,-1.241965413093567,-1.260291337966919,1.1552225351333618
1696082158065739500,8.108739501953124,-1.2389110326766968,-0.8424595594406128,1.318934440612793
1696082158075739600,8.11873974609375,-1.2609021663665771,-0.24930937588214874,1.4062881469726562
1696082158085739500,8.128739501953126,-1.2260829210281372,0.43363797664642334,1.3378711938858032
1696082158095739600,8.13873974609375,-1.157055139541626,0.905836820602417,1.2279155254364014
1696082158105739500,8.148739501953125,-1.069090485572815,0.8752935528755188,1.146059513092041
1696082158115739600,8.15873974609375,-0.9994518756866455,0.4757876694202423,1.0880273580551147
1696082158125739500,8.168739501953125,-0.9799042344093323,0.04207334294915199,1.0012844800949097
1696082158135739100,8.1787392578125,-1.0092257261276245,-0.23892466723918915,0.8839983940124512
1696082158145739300,8.1887392578125,-1.063592791557312,-0.3012329339981079,0.7703774571418762
1696082158155739100,8.1987392578125,-1.1246793270111084,-0.1753946840763092,0.6738607287406921
1696082158165739300,8.2087392578125,-1.1442269086837769,0.10132727026939392,0.6420957446098328
1696082158175739100,8.2187392578125,-1.1118510961532593,0.41897720098495483,0.6677520871162415
1696082158185739300,8.2287392578125,-1.0293842554092407,0.7091382145881653,0.6946301460266113
1696082158195739100,8.2387392578125,-0.9145416021347046,0.9889144897460938,0.6750824451446533
1696082158205739300,8.2487392578125,-0.804585874080658,1.200273871421814,0.5773440003395081
1696082158215739100,8.2587392578125,-0.691575825214386,1.3658183813095093,0.4429536461830139
1696082158225739300,8.2687392578125,-0.5449681282043457,1.4611133337020874,0.3220023512840271
1696082158235739100,8.2787392578125,-0.3580434024333954,1.3945289850234985,0.2059379518032074
1696082158245739300,8.2887392578125,-0.14179709553718567,1.2210432291030884,0.05383250117301941
1696082158255739100,8.2987392578125,0.07261660695075989,1.0328967571258545,-0.14592044055461884
1696082158265739000,8.308739013671875,0.2583196461200714,0.9333257079124451,-0.3701079785823822
1696082158275739100,8.3187392578125,0.429972767829895,0.8893434405326843,-0.6077345609664917
1696082158285739000,8.328739013671875,0.6285039782524109,0.8099309802055359,-0.8496372103691101
1696082158295739100,8.3387392578125,0.8520806431770325,0.7079164385795593,-1.0939832925796509
1696082158305739000,8.348739013671874,1.0591639280319214,0.6889796257019043,-1.3358858823776245
1696082158315739100,8.3587392578125,1.1752283573150635,0.792215883731842,-1.5515214204788208
1696082158325739000,8.368739013671876,1.1660653352737427,1.0310641527175903,-1.7085137367248535
1696082158335739100,8.3787392578125,1.0402271747589111,1.3908637762069702,-1.7854827642440796
1696082158345739000,8.388739013671875,0.7580074071884155,1.6901878118515015,-1.6675857305526733
1696082158355739100,8.3987392578125,0.30108019709587097,1.7836501598358154,-1.4757740497589111
1696082158365739000,8.408739013671875,-0.19982929527759552,1.2143237590789795,-1.4971543550491333
1696082158375739100,8.4187392578125,-0.6115524768829346,0.18196149170398712,-1.3578771352767944
1696082158385739000,8.428739013671875,-0.8455138802528381,-0.5956699848175049,-0.6963100433349609
1696082158395739100,8.4387392578125,-0.8876635432243347,-0.995786726474762,0.25297456979751587
1696082158405739000,8.448739013671876,-0.8039750456809998,-1.1821006536483765,0.7404450178146362
1696082158415739100,8.4587392578125,-0.7190647721290588,-0.9169850945472717,0.6591999530792236
1696082158425739000,8.468739013671875,-0.6927975416183472,-0.4276820421218872,0.26335927844047546
1696082158435739100,8.4787392578125,-0.6011677384376526,0.02802344225347042,-0.20945042371749878
1696082158445739000,8.488739013671875,-0.38736492395401,0.258930504322052,-0.4959462285041809
1696082158455739100,8.4987392578125,-0.13324497640132904,0.026190847158432007,-0.49350276589393616
1696082158465739000,8.508739013671875,0.06772968173027039,-0.36476290225982666,-0.5747478604316711
1696082158475739100,8.5187392578125,0.28092166781425476,-0.4142429828643799,-0.6181192994117737
1696082158485739000,8.528739013671874,0.46906813979148865,-0.049556441605091095,-0.26748260855674744
1696082158495739100,8.5387392578125,0.45257478952407837,0.25526532530784607,0.3030655086040497
1696082158505739000,8.548739013671875,0.3908773958683014,-0.30978503823280334,0.6695846915245056
1696082158515739100,8.5587392578125,0.4055381715297699,-1.3262648582458496,0.6750824451446533
1696082158525739000,8.568739013671875,0.5106070041656494,-1.6353626251220703,0.6475934982299805
1696082158535739100,8.5787392578125,0.6260605454444885,-1.2303589582443237,0.6237697601318359
1696082158545739000,8.588739013671875,0.6871470212936401,-0.8021424412727356,0.5217552781105042
1696082158555739100,8.5987392578125,0.7641160488128662,-0.8345182538032532,0.38736492395401
1696082158565739000,8.608739013671874,0.8740718364715576,-1.2871694564819336,0.18272507190704346
1696082158575739100,8.6187392578125,1.0292315483093262,-1.7831920385360718,-0.10071640461683273
1696082158585739000,8.628739013671876,1.1972194910049438,-2.106339693069458,-0.41286855936050415
1696082158595739100,8.6387392578125,1.331609845161438,-2.0660226345062256,-0.7005860805511475
1696082158605739000,8.648739013671875,1.381700873374939,-1.7092772722244263,-0.9803623557090759
1696082158615739100,8.6587392578125,1.3755922317504883,-1.1026880741119385,-1.235093116760254
1696082158625739000,8.668739013671875,1.3584879636764526,-0.246865913271904,-1.5283085107803345
1696082158635739100,8.6787392578125,1.4067462682724,0.7292967438697815,-1.894216775894165
1696082158645739000,8.688739013671874,1.4995977878570557,1.428126573562622,-2.3053290843963623
1696082158655739100,8.6987392578125,1.561906099319458,1.6413185596466064,-2.665128707885742
1696082158665739000,8.708739013671876,1.5496888160705566,1.3615422248840332,-2.8306732177734375
1696082158675739100,8.7187392578125,1.4666111469268799,0.7360162734985352,-2.6804003715515137
1696082158685739000,8.728739013671875,1.3212251663208008,0.11659890413284302,-2.2027037143707275
1696082158695739100,8.7387392578125,1.1159744262695312,-0.29023733735084534,-1.5185346603393555
1696082158705739000,8.748739013671875,0.87651526927948,-0.3916409909725189,-0.9027824997901917
1696082158715739100,8.7587392578125,0.6566037535667419,-0.16256651282310486,-0.5301546454429626
1696082158725739000,8.768739013671874,0.5173265337944031,0.17157678306102753,-0.41897720098495483
1696082158735739400,8.778739501953124,0.45257478952407837,0.4348596930503845,-0.4421900808811188
1696082158745739500,8.788739501953126,0.43791401386260986,0.5368741750717163,-0.4965570867061615
1696082158755739400,8.798739501953126,0.45257478952407837,0.4159228801727295,-0.5564218759536743
1696082158765739500,8.808739501953125,0.48311805725097656,0.2039526402950287,-0.5930737853050232
1696082158775739400,8.818739501953125,0.5661957263946533,-0.07643451541662216,-0.6785949468612671
1696082158785739500,8.828739501953125,0.6975317597389221,-0.29940032958984375,-0.8581892848014832
1696082158795739400,8.838739501953125,0.8038222789764404,-0.4686099886894226,-1.076268196105957
1696082158805739500,8.848739501953125,0.8386416435241699,-0.5651267170906067,-1.2894601821899414
1696082158815739400,8.858739501953124,0.8325329422950745,-0.5327508449554443,-1.4030810594558716
1696082158825739500,8.868739501953126,0.8343655467033386,-0.41607558727264404,-1.3615422248840332
1696082158835739400,8.878739501953126,0.8594110608100891,-0.32505667209625244,-1.1947760581970215
1696082158845739500,8.888739501953125,0.9009498953819275,-0.27924177050590515,-0.9516516923904419
1696082158855739400,8.898739501953125,0.9009498953819275,-0.23831380903720856,-0.7060838937759399
1696082158865739500,8.908739501953125,0.8331438302993774,-0.216322660446167,-0.5643631219863892
1696082158875739400,8.918739501953125,0.7360162734985352,-0.22487476468086243,-0.5851325392723083
1696082158885739500,8.928739501953125,0.6468299627304077,-0.25847235321998596,-0.7738898992538452
1696082158895739400,8.938739501953124,0.6077345609664917,-0.2865721583366394,-1.0414488315582275
1696082158905739500,8.948739501953124,0.6352235078811646,-0.24808764457702637,-1.2204324007034302
1696082158915739400,8.958739501953126,0.7091382145881653,-0.11552988737821579,-1.190500020980835
1696082158925739500,8.968739501953126,0.8007679581642151,-0.011071932502090931,-0.9461538791656494
1696082158935739400,8.978739501953125,0.8704066276550293,-0.0593302883207798,-0.572304368019104
1696082158945739500,8.988739501953125,0.8923977613449097,-0.20838139951229095,-0.1526399552822113
1696082158955739400,8.998739501953125,0.8752935528755188,-0.3336087763309479,0.23953554034233093
1696082158965739500,9.008739501953125,0.8429176807403564,-0.39103010296821594,0.4997641146183014
1696082158975739400,9.018739501953124,0.8093200922012329,-0.42035165429115295,0.5437464118003845
1696082158985739500,9.028739501953124,0.7573965191841125,-0.4631122052669525,0.368428111076355
1696082158995739400,9.038739501953126,0.6413321495056152,-0.4997641146183014,0.07704538106918335
1696082159005739500,9.048739501953126,0.41836634278297424,-0.500985860824585,-0.16180293262004852
1696082159015739400,9.058739501953125,0.09582948684692383,-0.4741078019142151,-0.24243713915348053
1696082159025739500,9.068739501953125,-0.28718301653862,-0.41974079608917236,-0.0970512181520462
1696082159035739400,9.078739501953125,-0.672639012336731,-0.32566753029823303,0.28473955392837524
1696082159045739500,9.088739501953125,-1.0067822933197021,-0.2658027410507202,0.7923685908317566
1696082159055739400,9.098739501953125,-1.2236394882202148,-0.30001118779182434,1.2865585088729858
1696082159065739500,9.108739501953124,-1.2743412256240845,-0.2713005244731903,1.765476942062378
1696082159075739400,9.118739501953126,-1.2169198989868164,0.12942707538604736,2.312812089920044
1696082159085739500,9.128739501953126,-1.2755630016326904,0.8551349639892578,2.86625599861145
1696082159095739400,9.138739501953125,-1.6145931482315063,1.4324026107788086,3.139312744140625
1696082159105739500,9.148739501953125,-2.1387155055999756,1.7115681171417236,2.9676597118377686
1696082159115739400,9.158739501953125,-2.6634488105773926,1.4562263488769531,2.5321128368377686
1696082159125739500,9.168739501953125,-2.994537830352783,0.886289119720459,2.1778109073638916
1696082159135739400,9.178739501953125,-3.05867862701416,0.3352886736392975,2.0831267833709717
1696082159145739500,9.188739501953124,-2.8809168338775635,-0.18761198222637177,2.2028565406799316
1696082159155739400,9.198739501953124,-2.519895553588867,-0.8681158423423767,2.4557547569274902
1696082159165739500,9.208739501953126,-2.1442134380340576,-1.7214946746826172,2.5626561641693115
1696082159175739400,9.218739501953126,-1.85955011844635,-2.2413408756256104,2.2089650630950928
1696082159185739500,9.228739501953125,-1.6268105506896973,-2.3274729251861572,1.554728388786316
1696082159195739400,9.238739501953125,-1.44294011592865,-2.0263164043426514,1.063592791557312
1696082159205739500,9.248739501953125,-1.4117859601974487,-1.260291337966919,0.98540198802948
1696082159215739400,9.258739501953125,-1.452713966369629,-0.3262783885002136,1.1197923421859741
1696082159225739500,9.268739501953124,-1.4185054302215576,0.5637522339820862,1.2108112573623657
1696082159235739400,9.278739501953124,-1.3171018362045288,1.143463373184204,1.2450196743011475
1696082159245739500,9.288739501953126,-1.1649963855743408,1.2143237590789795,1.2706760168075562
1696082159255739400,9.298739501953126,-1.0318278074264526,0.9760863184928894,1.3042736053466797
1696082159265739500,9.308739501953125,-0.9511935710906982,0.5325981378555298,1.3054953813552856
1696082159275739400,9.318739501953125,-0.9157633781433105,0.12148582190275192,1.234024167060852
1696082159285739500,9.328739501953125,-0.9298132658004761,-0.011071932502090931,1.1197923421859741
1696082159295739400,9.338739501953125,-0.975628137588501,0.035353824496269226,1.0446559190750122
1696082159305739500,9.348739501953125,-1.0397690534591675,0.10315986722707748,1.003727912902832
1696082159315739400,9.358739501953124,-1.0825295448303223,0.1178206354379654,0.9750173091888428
1696082159325739500,9.368739501953126,-1.0849729776382446,0.18501581251621246,0.9347001910209656
1696082159335739400,9.378739501953126,-1.0177778005599976,0.3499494194984436,0.8510116338729858
1696082159345739500,9.388739501953125,-0.8992699980735779,0.5765804052352905,0.7080692052841187
1696082159355739400,9.398739501953125,-0.7483862638473511,0.7983245253562927,0.5345834493637085
1696082159365739500,9.408739501953125,-0.5938373804092407,0.9889144897460938,0.37026068568229675
1696082159375739400,9.418739501953125,-0.44112107157707214,1.0964267253875732,0.23403774201869965
1696082159385739500,9.428739501953125,-0.2914590835571289,1.0793225765228271,0.12408200651407242
1696082159395739400,9.438739501953124,-0.13629931211471558,0.9718102216720581,0.0031306843739002943
1696082159405739500,9.448739501953124,0.02557998150587082,0.8624653816223145,-0.15935947000980377
1696082159415739400,9.458739501953126,0.1886810064315796,0.8313112258911133,-0.3707188367843628
1696082159425739500,9.468739501953126,0.36766451597213745,0.8423067927360535,-0.6126214861869812
1696082159435739400,9.478739501953125,0.582689106464386,0.8129853010177612,-0.8795695900917053
1696082159445739500,9.488739501953125,0.8392524719238281,0.743346631526947,-1.1562916040420532
1696082159455739400,9.498739501953125,1.115363597869873,0.7158576846122742,-1.4299591779708862
1696082159465739500,9.508739501953125,1.331609845161438,0.8154287338256836,-1.6700291633605957
1696082159475739400,9.518739501953124,1.3994159698486328,1.0487792491912842,-1.866117000579834
1696082159485739500,9.528739501953124,1.2864058017730713,1.3450489044189453,-2.0322723388671875
1696082159495739400,9.538739501953126,0.9760863184928894,1.5741233825683594,-1.9736292362213135
1696082159505739500,9.548739501953126,0.4513530433177948,1.836795449256897,-1.5930602550506592
1696082159515739400,9.558739501953125,-0.1051451787352562,1.8795560598373413,-1.359709620475769
1696082159525739500,9.568739501953125,-0.47105345129966736,1.3554335832595825,-1.3041208982467651
1696082159535739400,9.578739501953125,-0.5810092091560364,0.17463110387325287,-0.9925796389579773
1696082159545739500,9.588739501953125,-0.568791925907135,-1.1998157501220703,-0.26259568333625793
1696082159555739400,9.598739501953125,-0.6463717818260193,-2.013488292694092,0.3672063648700714
1696082159565739500,9.608739501953124,-0.6903541088104248,-1.9957730770111084,0.46616652607917786
1696082159575739400,9.618739501953126,-0.6500369906425476,-1.3989577293395996,0.2407572716474533
1696082159585739500,9.628739501953126,-0.5669593214988708,-0.6078872680664062,-0.06039930135011673
1696082159595739400,9.638739501953125,-0.3323870599269867,-0.0849866271018982,-0.26687175035476685
1696082159605739500,9.648739501953125,-0.029397889971733093,-0.22426390647888184,-0.20028744637966156
1696082159615739400,9.658739501953125,0.1526399552822113,-0.7025713920593262,-0.1227075532078743
1696082159625739500,9.668739501953125,0.23632849752902985,-0.7654905319213867,-0.06772968173027039
1696082159635739400,9.678739501953125,0.31757357716560364,-0.3727041482925415,0.27924177050590515
1696082159645739500,9.688739501953124,0.3096323311328888,-0.26885706186294556,0.5620723962783813
1696082159655739400,9.698739501953124,0.34139731526374817,-1.2480740547180176,0.3989713490009308
1696082159665739500,9.708739501953126,0.4611268937587738,-2.580981969833374,0.1912771761417389
1696082159675739400,9.718739501953126,0.44402268528938293,-2.965827226638794,0.38492146134376526
1696082159685739500,9.728739501953125,0.46784642338752747,-2.7159831523895264,0.6188828349113464
1696082159695739400,9.738739501953125,0.5448154211044312,-2.175367593765259,0.6213263273239136
1696082159705739500,9.748739501953125,0.6089562773704529,-1.5590044260025024,0.40141481161117554
1696082159715739400,9.758739501953125,0.6761514544487,-1.1032990217208862,0.09903652966022491
1696082159725739500,9.768739501953124,0.8545241355895996,-0.6653085947036743,-0.15080735087394714
1696082159735739400,9.778739501953124,1.1129201650619507,-0.13385584950447083,-0.33651039004325867
1696082159745739500,9.788739501953126,1.387198567390442,0.36705365777015686,-0.5075526833534241
1696082159755739400,9.798739501953126,1.5722907781600952,0.7818311452865601,-0.6553820371627808
1696082159765739500,9.808739501953125,1.5942819118499756,1.0884854793548584,-0.8337547183036804
1696082159775739400,9.818739501953125,1.516091227531433,1.2552517652511597,-1.2124911546707153
1696082159785739500,9.828739501953125,1.4324026107788086,1.2528082132339478,-1.7946457862854004
1696082159795739400,9.838739501953125,1.4128549098968506,1.0536662340164185,-2.3089942932128906
1696082159805739500,9.848739501953125,1.4275157451629639,0.6614906787872314,-2.5930466651916504
1696082159815739400,9.858739501953124,1.4067462682724,0.020693060010671616,-2.6437485218048096
1696082159825739500,9.868739501953126,1.3303881883621216,-0.6708064079284668,-2.4372758865356445
1696082159835739400,9.878739501953126,1.172174096107483,-1.1540007591247559,-2.0127246379852295
1696082159845739500,9.888739501953125,0.9455430507659912,-1.2645673751831055,-1.4721088409423828
1696082159855739400,9.898739501953125,0.7128033638000488,-0.9786824584007263,-0.9669232964515686
1696082159865739500,9.908739501953125,0.5374850630760193,-0.5529094338417053,-0.6333909034729004
1696082159875739400,9.918739501953125,0.4452444016933441,-0.11186470091342926,-0.4623486399650574
1696082159885739500,9.928739501953125,0.4250858426094055,0.2577087879180908,-0.37804922461509705
1696082159895739400,9.938739501953124,0.43302708864212036,0.43852490186691284,-0.3151301145553589
1696082159905739500,9.948739501953124,0.4800637364387512,0.4501313269138336,-0.2833651304244995
1696082159915739400,9.958739501953126,0.5930737853050232,0.30230194330215454,-0.3291800022125244
1696082159925739500,9.968739501953126,0.7195228934288025,0.03413209691643715,-0.46784642338752747
1696082159935739400,9.978739501953125,0.8245916962623596,-0.2016618847846985,-0.6810383796691895
1696082159945739500,9.988739501953125,0.8826239109039307,-0.4142429828643799,-0.989525318145752
1696082159955739400,9.998739501953125,0.875904381275177,-0.49121201038360596,-1.2778537273406982
1696082159965739500,10.008739501953125,0.8368090391159058,-0.46189048886299133,-1.4171310663223267
1696082159975739400,10.018739501953124,0.8313112258911133,-0.3665955066680908,-1.3700944185256958
1696082159985739500,10.028739501953124,0.8746826648712158,-0.25847235321998596,-1.1813369989395142
1696082159995739400,10.038739501953126,0.933936595916748,-0.14729487895965576,-0.9394344091415405
1696082160005739500,10.048739501953126,0.9333257079124451,-0.06177374720573425,-0.7830528616905212
1696082160015739400,10.058739501953125,0.8911760449409485,-0.05749769136309624,-0.8117635250091553
1696082160025739500,10.068739501953125,0.8539132475852966,-0.12652546167373657,-1.0255663394927979
1696082160035739400,10.078739501953125,0.8453611135482788,-0.21265746653079987,-1.2845731973648071
1696082160045739500,10.088739501953125,0.8655197024345398,-0.2309834212064743,-1.4018594026565552
1696082160055739400,10.098739501953125,0.905836820602417,-0.1198059469461441,-1.2619712352752686
1696082160065739500,10.108739501953124,0.9455430507659912,0.04329507425427437,-0.8942303657531738
1696082160075739400,10.118739501953126,0.9473756551742554,0.09766208380460739,-0.4470770061016083
1696082160085739500,10.128739501953126,0.8997281193733215,-0.006795875728130341,-0.04329507425427437
1696082160095739400,10.138739501953125,0.8190939426422119,-0.206548810005188,0.2566397488117218
1696082160105739500,10.148739501953125,0.7464009523391724,-0.42523857951164246,0.41668644547462463
1696082160115739400,10.158739501953125,0.6902013421058655,-0.5840635299682617,0.42646029591560364
1696082160125739500,10.168739501953125,0.6504951119422913,-0.6646977663040161,0.3226132094860077
1696082160135739400,10.178739501953125,0.5985715985298157,-0.68241286277771,0.17356209456920624
1696082160145739500,10.188739501953124,0.4855615198612213,-0.700127899646759,0.032452214509248734
1696082160155739400,10.198739501953124,0.2906954884529114,-0.7404450178146362,-0.05429064854979515
1696082160165739500,10.208739501953126,0.021303925663232803,-0.7331146597862244,-0.007254024967551231
1696082160175739400,10.218739501953126,-0.2865721583366394,-0.5620723962783813,0.23220515251159668
1696082160185739500,10.228739501953125,-0.6109415888786316,-0.2462550550699234,0.6201046109199524
1696082160195739400,10.238739501953125,-0.8968265652656555,-0.0019089538836851716,1.0189995765686035
1696082160205739500,10.248739501953125,-1.0849729776382446,0.07261660695075989,1.3513102531433105
1696082160215739400,10.258739501953125,-1.1796571016311646,0.17157678306102753,1.7062230110168457
1696082160225739500,10.268739501953124,-1.271286964416504,0.6052911281585693,2.172924041748047
1696082160235739400,10.278739501953124,-1.4850897789001465,1.2796863317489624,2.656118392944336
1696082160245739500,10.288739501953126,-1.8943694829940796,1.7677676677703857,2.893744945526123
1696082160255739400,10.298739501953126,-2.3946681022644043,1.8826103210449219,2.8302149772644043
1696082160265739500,10.308739501953125,-2.832047700881958,1.458669900894165,2.591977596282959
1696082160275739400,10.318739501953125,-3.083724021911621,0.7677812576293945,2.371455192565918
1696082160285739500,10.328739501953125,-3.0922763347625732,0.07811439037322998,2.315255641937256
1696082160295739400,10.338739501953125,-2.8002827167510986,-0.6017786264419556,2.3928356170654297
1696082160305739500,10.348739501953125,-2.315255641937256,-1.440496563911438,2.5119543075561523
1696082160315739400,10.358739501953124,-1.8907042741775513,-2.2089650630950928,2.3726770877838135
1696082160325739500,10.368739501953126,-1.6323082447052002,-2.3702335357666016,1.8644371032714844
1696082160335739400,10.378739501953126,-1.4942528009414673,-1.8338937759399414,1.2224177122116089
1696082160345739500,10.388739501953125,-1.3836861848831177,-1.0299952030181885,0.881554901599884
1696082160355739400,10.398739501953125,-1.3397037982940674,-0.41546472907066345,1.0171669721603394
1696082160365739500,10.408739501953125,-1.318934440612793,-0.010461067780852318,1.2657891511917114
1696082160375739400,10.418739501953125,-1.2554044723510742,0.3603341281414032,1.3641384840011597
1696082160385739500,10.428739501953125,-1.1448378562927246,0.7311293482780457,1.2920563220977783
1696082160395739400,10.438739501953124,-1.0238865613937378,0.8496372103691101,1.1540007591247559
1696082160405739500,10.448739501953124,-0.9615782499313354,0.8294786214828491,1.0287734270095825
1696082160415739400,10.458739501953126,-0.9847911596298218,0.6761514544487,0.9676868915557861
1696082160425739500,10.468739501953126,-1.063592791557312,0.5038874745368958,0.9359219074249268
1696082160435739400,10.478739501953125,-1.168050765991211,0.3762166202068329,0.882165789604187
1696082160445739500,10.488739501953125,-1.2547935247421265,0.22288945317268372,0.8192466497421265
1696082160455739400,10.498739501953125,-1.2761738300323486,0.0872773751616478,0.7795404195785522
1696082160465739500,10.508739501953125,-1.2346349954605103,0.029245173558592796,0.7477754354476929
1696082160475739400,10.518739501953124,-1.146059513092041,0.14347697794437408,0.691575825214386
1696082160485739500,10.528739501953124,-1.024497389793396,0.46845728158950806,0.6139959096908569
1696082160495739400,10.538739501953126,-0.8882744312286377,0.8307003974914551,0.5150357484817505
1696082160505739500,10.548739501953126,-0.7648796439170837,1.2143237590789795,0.39469531178474426
1696082160515739400,10.558739501953125,-0.6585890650749207,1.532584547996521,0.2706896662712097
1696082160525739500,10.568739501953125,-0.5596289038658142,1.6547576189041138,0.1650099754333496
1696082160535739400,10.578739501953125,-0.44600799679756165,1.6022231578826904,0.07338018715381622
1696082160545739500,10.588739501953125,-0.30917418003082275,1.4501177072525024,-0.035964690148830414
1696082160555739400,10.598739501953125,-0.16378824412822723,1.2912927865982056,-0.18745927512645721
1696082160565739500,10.608739501953124,-0.010461067780852318,1.2222650051116943,-0.37255144119262695
1696082160575739400,10.618739501953126,0.1624137908220291,1.2509756088256836,-0.5710826516151428
1696082160585739500,10.628739501953126,0.3554472029209137,1.3102295398712158,-0.7873289585113525
1696082160595739400,10.638739501953125,0.5710826516151428,1.2656364440917969,-1.037172794342041
1696082160605739500,10.648739501953125,0.773279070854187,1.1110875606536865,-1.3224469423294067
1696082160615739400,10.658739501953125,0.9107237458229065,0.9528734087944031,-1.6113861799240112
1696082160625739500,10.668739501953125,0.9711993932723999,0.8740718364715576,-1.8777234554290771
1696082160635739400,10.678739501953125,0.9388235211372375,0.8722392320632935,-2.06953501701355
1696082160645739500,10.688739501953124,0.7848854660987854,0.9540951251983643,-2.0402135848999023
1696082160655739400,10.698739501953124,0.48433977365493774,1.1129201650619507,-1.6211600303649902
1696082160665739500,10.708739501953126,0.12148582190275192,1.1581240892410278,-1.2014955282211304
1696082160675739400,10.718739501953126,-0.15218180418014526,0.5277112126350403,-1.0683269500732422
1696082160685739500,10.728739501953125,-0.2719113826751709,-0.568791925907135,-0.9974665641784668
1696082160695739400,10.738739501953125,-0.3366630971431732,-1.2871694564819336,-0.6004042029380798
1696082160705739500,10.748739501953125,-0.429514616727829,-1.2902237176895142,-0.02496911771595478
1696082160715739400,10.758739501953125,-0.4576144218444824,-0.8852201104164124,0.2755765914916992
1696082160725739500,10.768739501953124,-0.46677741408348083,-0.3226132094860077,0.246865913271904
1696082160735739400,10.778739501953124,-0.44661885499954224,0.2955824136734009,0.032452214509248734
1696082160745739500,10.788739501953126,-0.3061198592185974,0.695088267326355,-0.14164437353610992
1696082160755739400,10.798739501953126,-0.07765624672174454,0.6059019565582275,-0.10377073287963867
1696082160765739500,10.808739501953125,-0.03550654277205467,-0.03367394581437111,-0.08300131559371948
1696082160775739400,10.818739501953125,-0.13385584950447083,-0.559018075466156,-0.29680415987968445
1696082160785739500,10.828739501953125,-0.13202324509620667,-0.7801512479782104,-0.30779972672462463
1696082160795739400,10.838739501953125,-0.10209085047245026,-1.1118510961532593,0.08376489579677582
1696082160805739500,10.848739501953125,-0.12896892428398132,-1.5461763143539429,0.4545601010322571
1696082160815739400,10.858739501953124,-0.04833471402525902,-1.4954744577407837,0.6848562955856323
1696082161131098000,11.17409814453125,0.704862117767334,-0.27863091230392456,-1.2234867811203003
1696082161141098000,11.184097900390626,0.7280750274658203,-0.2816852331161499,-0.9357692003250122
1696082161151098000,11.19409814453125,0.7128033638000488,-0.3275001347064972,-0.6511059999465942
1696082161161098000,11.204097900390625,0.6688210964202881,-0.41546472907066345,-0.5044983625411987
1696082161171098000,11.21409814453125,0.6291148662567139,-0.4796055853366852,-0.552756667137146
1696082161181098000,11.224097900390625,0.6285039782524109,-0.4539492428302765,-0.7421249151229858
1696082161191098000,11.23409814453125,0.6718754172325134,-0.35559993982315063,-0.9779189229011536
1696082161201098000,11.244097900390624,0.7592291235923767,-0.2053270787000656,-1.1159744262695312
1696082161211098000,11.25409814453125,0.866741418838501,-0.084375761449337,-1.0689377784729004
1696082161221098200,11.26409814453125,0.9602038264274597,-0.10025826096534729,-0.847193717956543
1696082161231098000,11.27409814453125,1.0035752058029175,-0.27435484528541565,-0.5246568918228149
1696082161241098200,11.28409814453125,0.9840275645256042,-0.46677741408348083,-0.16119205951690674
1696082161251098000,11.29409814453125,0.9333257079124451,-0.5358051657676697,0.18822285532951355
1696082161261098200,11.30409814453125,0.877126157283783,-0.49060115218162537,0.42523857951164246
1696082161271098000,11.31409814453125,0.8129853010177612,-0.43012550473213196,0.4826599061489105
1696082161281098200,11.32409814453125,0.7097490429878235,-0.38980838656425476,0.35559993982315063
1696082161291098000,11.33409814453125,0.5258786082267761,-0.3672063648700714,0.1301906555891037
1696082161301098200,11.34409814453125,0.23021984100341797,-0.38064539432525635,-0.07322747260332108
1696082161311098000,11.35409814453125,-0.15157094597816467,-0.42707115411758423,-0.13920091092586517
1696082161321098800,11.3640986328125,-0.5828418135643005,-0.4136321246623993,0.014737123623490334
1696082161331099000,11.374098876953125,-0.9780716300010681,-0.34521523118019104,0.3714824318885803
1696082161341098800,11.3840986328125,-1.2401328086853027,-0.2957351505756378,0.8400160670280457
1696082161351099000,11.394098876953125,-1.3506994247436523,-0.21449005603790283,1.345812439918518
1696082161361098800,11.4040986328125,-1.38307523727417,0.009086620062589645,1.888871669769287
1696082161371099000,11.414098876953124,-1.4630986452102661,0.4953353703022003,2.4368178844451904
1696082161381098800,11.4240986328125,-1.7416532039642334,1.0726029872894287,2.829604148864746
1696082161391099000,11.434098876953126,-2.170480489730835,1.4214071035385132,2.951777219772339
1696082161401098800,11.4440986328125,-2.3922245502471924,1.4440090656280518,2.826549768447876
1696082161411099000,11.454098876953125,-2.775848150253296,1.17950439453125,2.720259189605713
1696082161421098800,11.4640986328125,-3.0171399116516113,0.6352235078811646,2.5034022331237793
1696082161431099000,11.474098876953125,-3.083724021911621,0.13553573191165924,2.37389874458313
1696082161441098800,11.4840986328125,-2.952388048171997,-0.32383492588996887,2.4038310050964355
1696082161451099000,11.494098876953124,-2.6133577823638916,-1.0153343677520752,2.527225971221924
1696082161461098800,11.5040986328125,-2.198580265045166,-1.975003719329834,2.5437192916870117
1696082161471099000,11.514098876953126,-1.8809304237365723,-2.422157049179077,2.1600959300994873
1696082161481098800,11.5240986328125,-1.6286431550979614,-2.2810471057891846,1.5791630744934082
1696082161491099000,11.534098876953125,-1.4295010566711426,-1.737987995147705,1.2663999795913696
1696082161501098800,11.5440986328125,-1.31038236618042,-1.008004069328308,1.2835042476654053
1696082161511099000,11.554098876953125,-1.2401328086853027,-0.4875468313694,1.4368313550949097
1696082161521098800,11.5640986328125,-1.1216249465942383,-0.07521278411149979,1.4569900035858154
1696082161531099000,11.574098876953125,-0.9573022127151489,0.37866008281707764,1.2853368520736694
1696082161541098800,11.5840986328125,-0.8473464250564575,0.6486625075340271,1.0800861120224
1696082161551099000,11.594098876953124,-0.8039750456809998,0.7231881022453308,0.9518043994903564
1696082161561098800,11.6040986328125,-0.8363508582115173,0.6669884920120239,0.9389762282371521
1696082161571099000,11.614098876953125,-0.9359219074249268,0.5423719882965088,1.0006736516952515
1696082161581098800,11.6240986328125,-1.0837513208389282,0.4464661478996277,1.0642036199569702
1696082161591099000,11.634098876953125,-1.1979831457138062,0.22105686366558075,1.1075750589370728
1696082161601098800,11.6440986328125,-1.2431871891021729,-0.11736248433589935,1.1032990217208862
1696082161611099000,11.654098876953125,-1.232191562652588,-0.3720932900905609,1.0550405979156494
1696082161621098500,11.664098388671874,-1.1784354448318481,-0.3568216562271118,0.9792933464050293
1696082161631098400,11.674098388671876,-1.0941359996795654,0.02863430790603161,0.8876635432243347
1696082161641098500,11.684098388671876,-0.9847911596298218,0.6749297380447388,0.7978663444519043
1696082161651098400,11.694098388671875,-0.8552877306938171,1.2375366687774658,0.7160104513168335
1696082161661098500,11.704098388671875,-0.7044039964675903,1.516091227531433,0.6390414237976074
1696082161671098400,11.714098388671875,-0.5413029789924622,1.558851718902588,0.5571854710578918
1696082161681098500,11.724098388671875,-0.36964982748031616,1.4800500869750977,0.4539492428302765
1696082161691098400,11.734098388671875,-0.19677497446537018,1.3676508665084839,0.3128393590450287
1696082161701098500,11.744098388671874,-0.03672827407717705,1.2485321760177612,0.1509600728750229
1696082161711098400,11.754098388671874,0.10987938940525055,1.123304843902588,-0.02191479131579399
1696082161721098500,11.764098388671876,0.25709789991378784,0.9773080348968506,-0.22044599056243896
1696082161731098400,11.774098388671876,0.4250858426094055,0.8484154939651489,-0.45379650592803955
1696082161741098500,11.784098388671875,0.6315582990646362,0.7103599309921265,-0.7195228934288025
1696082161751098400,11.794098388671875,0.8624653816223145,0.5955172777175903,-1.0072404146194458
1696082161761098500,11.804098388671875,1.0512226819992065,0.5234351754188538,-1.3291664123535156
1696082161771098400,11.814098388671875,1.1306352615356445,0.5735260844230652,-1.6419293880462646
1696082161781098500,11.824098388671874,1.105589747428894,0.8056548833847046,-1.8429040908813477
1696082161791098400,11.834098388671874,0.9510408043861389,1.1733957529067993,-1.8673386573791504
1696082161801098500,11.844098388671876,0.5979607105255127,1.5276975631713867,-1.607720971107483
1696082161811098400,11.854098388671876,0.13920091092586517,1.8514561653137207,-1.1666762828826904
1696082161821098500,11.864098388671875,-0.21510092914104462,1.951027274131775,-0.856967568397522
1696082161831098400,11.874098388671875,-0.4020256996154785,1.7054593563079834,-0.5741369724273682
1696082161841098500,11.884098388671875,-0.4875468313694,1.3499358892440796,-0.15080735087394714
1696082161851098400,11.894098388671875,-0.49121201038360596,1.31206214427948,0.18761198222637177
1696082161861098500,11.904098388671875,-0.4227951169013977,1.2161563634872437,0.3122285008430481
1696082161871098400,11.914098388671874,-0.34093916416168213,0.6278930902481079,0.2761874496936798
1696082161881098500,11.924098388671876,-0.33971744775772095,-0.16439910233020782,0.12163854390382767
1696082161891098400,11.934098388671876,-0.33055445551872253,-0.8253552913665771,-0.13125966489315033
1696082161901098500,11.944098388671875,-0.18333593010902405,-1.3616949319839478,-0.3255148231983185
1696082161911098400,11.954098388671875,-0.0593302883207798,-1.9328539371490479,-0.40920335054397583
1696082161921098200,11.96409814453125,-0.0342848114669323,-2.5321128368377686,-0.5374850630760193
1696082161931098400,11.974098388671875,0.013973542489111423,-2.918179750442505,-0.6608798503875732
1696082161941098200,11.98409814453125,0.16668985784053802,-2.5412757396698,-0.7005860805511475
1696082161951098400,11.994098388671874,0.3383429944515228,-1.3708579540252686,-0.6614906787872314
1696082161961098200,12.00409814453125,0.5936846733093262,-0.6463717818260193,-0.2235003262758255
1696082161971098400,12.014098388671876,0.9125562906265259,-0.8345182538032532,0.3110067546367645
1696082161981098200,12.02409814453125,1.123915672302246,-1.2761738300323486,0.5498550534248352
1696082161991098400,12.034098388671875,1.2503647804260254,-1.4924201965332031,0.6372088193893433
1696082162001098200,12.04409814453125,1.2900710105895996,-1.232802391052246,0.6219371557235718
1696082162011098400,12.054098388671875,1.2638038396835327,-0.7624362111091614,0.47655123472213745
1696082162021098200,12.06409814453125,1.2265410423278809,-0.4142429828643799,0.17295122146606445
1696082162031098400,12.074098388671874,1.1758391857147217,-0.10209085047245026,-0.23999367654323578
1696082162041098200,12.08409814453125,1.097037672996521,0.2888629138469696,-0.6468299627304077
1696082162051098400,12.094098388671876,1.0225120782852173,0.6028476357460022,-0.9730319976806641
1696082162061098200,12.10409814453125,0.9608146548271179,0.6065128445625305,-1.2729668617248535
1696082162071098400,12.114098388671875,0.915610671043396,0.349338561296463,-1.5735125541687012
1696082162081098200,12.12409814453125,0.9174432158470154,-0.011071932502090931,-1.7867045402526855
1696082162091098400,12.134098388671875,0.9522625803947449,-0.35498905181884766,-1.8771125078201294
1696082162101098200,12.14409814453125,0.9821949601173401,-0.6158285140991211,-1.864895224571228
1696082162111098400,12.154098388671875,1.01212739944458,-0.7691556811332703,-1.781206727027893
1696082162121098200,12.16409814453125,1.0328967571258545,-0.8192466497421265,-1.6724727153778076
1696082162131098400,12.174098388671876,1.0365619659423828,-0.7661013603210449,-1.5625169277191162
1696082162141098200,12.18409814453125,1.0445032119750977,-0.5632941126823425,-1.4232397079467773
1696082162151098400,12.194098388671875,1.075046420097351,-0.19005544483661652,-1.219821572303772
1696082162161098200,12.20409814453125,1.1159744262695312,0.28764116764068604,-0.9938014149665833
1696082162171098400,12.214098388671875,1.153237223625183,0.7964919209480286,-0.7971028089523315
1696082162181098200,12.22409814453125,1.1648436784744263,1.229595422744751,-0.6828709840774536
1696082162191098400,12.234098388671875,1.1116983890533447,1.4745523929595947,-0.6547712087631226
1696082162201098200,12.24409814453125,1.0328967571258545,1.5527430772781372,-0.6285039782524109
1696082162211098400,12.254098388671874,0.9577603340148926,1.4220179319381714,-0.6162866950035095
1696082162221098500,12.264098388671876,0.886289119720459,1.0438923835754395,-0.6572146415710449
1696082162231098400,12.274098388671876,0.7916049957275391,0.420809805393219,-0.763505220413208
1696082162241098500,12.284098388671875,0.7042512893676758,-0.2059379518032074,-0.8722392320632935
1696082162251098400,12.294098388671875,0.6187301278114319,-0.5932264924049377,-0.9779189229011536
1696082162261098500,12.304098388671875,0.5301546454429626,-0.8149706125259399,-1.1190288066864014
1696082162271098400,12.314098388671875,0.45868343114852905,-0.8949939608573914,-1.2601386308670044
1696082162281098500,12.324098388671874,0.4263075888156891,-0.8925504684448242,-1.3499358892440796
1696082162575616000,12.618615966796876,-2.1020636558532715,0.3811035454273224,2.190639019012451
1696082162585616100,12.6286162109375,-2.226680278778076,0.2986367344856262,2.4795784950256348
1696082162595616000,12.638615966796875,-2.365957498550415,0.02496911771595478,2.6182448863983154
1696082162605616000,12.6486162109375,-2.4960718154907227,-0.34582608938217163,2.5663211345672607
1696082162615616000,12.658615966796875,-2.5822038650512695,-0.6591999530792236,2.44964599609375
1696082162625616100,12.6686162109375,-2.5687646865844727,-0.8711702227592468,2.391613721847534
1696082162635616000,12.678615966796874,-2.421546220779419,-1.0287734270095825,2.391613721847534
1696082162645616000,12.6886162109375,-2.170480489730835,-1.1802680492401123,2.3122012615203857
1696082162655616000,12.698615966796876,-1.867491364479065,-1.1228467226028442,2.0269272327423096
1696082162665616100,12.7086162109375,-1.4936418533325195,-0.7184538841247559,1.6255887746810913
1696082162675616000,12.718615966796875,-1.1833223104476929,-0.477772980928421,1.3629167079925537
1696082162685616000,12.7286162109375,-1.0318278074264526,-0.2761874496936798,1.2627347707748413
1696082162695616000,12.738615966796875,-0.9963975548744202,-0.12408200651407242,1.290834665298462
1696082162705616100,12.7486162109375,-0.9750173091888428,0.09277515858411789,1.3030519485473633
1696082162715616300,12.7586162109375,-0.9383653998374939,0.4757876694202423,1.2389110326766968
1696082162725616000,12.7686162109375,-0.9090438485145569,0.7677812576293945,1.1723268032073975
1696082162735616300,12.7786162109375,-0.8778896927833557,0.8618544936180115,1.1613311767578125
1696082162745616100,12.7886162109375,-0.8699484467506409,0.877126157283783,1.1802680492401123
1696082162755616300,12.7986162109375,-0.8986591100692749,0.7971028089523315,1.2016483545303345
1696082162765616000,12.8086162109375,-0.9603565335273743,0.6480516791343689,1.1857657432556152
1696082162775616300,12.8186162109375,-1.059316635131836,0.5454263091087341,1.1173489093780518
1696082162785616100,12.8286162109375,-1.176602840423584,0.4507421851158142,1.0183887481689453
1696082162795616300,12.8386162109375,-1.2694543600082397,0.2650391459465027,0.9206503033638
1696082162805616000,12.8486162109375,-1.2780064344406128,0.09827294945716858,0.833296537399292
1696082162815616300,12.8586162109375,-1.1882092952728271,0.09399688988924026,0.7453319430351257
1696082162825616100,12.8686162109375,-1.0361038446426392,0.27298039197921753,0.6298784017562866
1696082162835616300,12.8786162109375,-0.852233350276947,0.592462956905365,0.49121201038360596
1696082162845616000,12.8886162109375,-0.6567565202713013,0.9162214994430542,0.36048686504364014
1696082162855616300,12.8986162109375,-0.46677741408348083,1.1037571430206299,0.2523637115955353
1696082162865616100,12.9086162109375,-0.29878947138786316,1.1275808811187744,0.15829046070575714
1696082162875616300,12.9186162109375,-0.15706872940063477,1.0530552864074707,0.05627596005797386
1696082162885616000,12.9286162109375,-0.025121834129095078,0.9430995583534241,-0.06101016700267792
1696082162895616300,12.9386162109375,0.12515102326869965,0.837419867515564,-0.1886810064315796
1696082162905616100,12.9486162109375,0.2992476224899292,0.7292967438697815,-0.3407864570617676
1696082162915616300,12.9586162109375,0.481896311044693,0.5979607105255127,-0.5295438170433044
1696082162925616400,12.968616455078125,0.6767623424530029,0.4654029607772827,-0.7512878775596619
1696082162935616300,12.9786162109375,0.8807913064956665,0.3756057620048523,-1.0127382278442383
1696082162945616400,12.988616455078125,1.0701595544815063,0.3346777856349945,-1.2778537273406982
1696082162955616500,12.998616455078125,1.200273871421814,0.35666894912719727,-1.5203672647476196
1696082162965616400,13.008616455078124,1.2357040643692017,0.48983755707740784,-1.7134006023406982
1696082163621193700,13.66419384765625,0.2900846302509308,-0.1851685345172882,-0.4104250967502594
1696082163631193600,13.674193603515626,0.31696268916130066,-0.11430815607309341,-0.4098142087459564
1696082163641193700,13.68419384765625,0.36827537417411804,-0.04589125141501427,-0.3707188367843628
1696082163651193600,13.694193603515625,0.4501313269138336,0.027412578463554382,-0.2845868468284607
1696082163661193700,13.70419384765625,0.5411502718925476,0.09766208380460739,-0.1776854246854782
1696082163671193600,13.714193603515625,0.5985715985298157,0.14042264223098755,-0.07261660695075989
