time,seconds_elapsed,z,y,x
1696082904601842000,0.008842041015625,-0.4082779884338379,-0.08015727996826172,0.012611344456672668
1696082904611841800,0.018841796875,-0.45363950729370117,-0.05330991744995117,0.025361239910125732
1696082904621842000,0.028842041015625,-0.36675071716308594,-0.025878429412841797,0.06970101594924927
1696082904631841800,0.038841796875,-0.2822294235229492,0.06769323348999023,-0.03195960819721222
1696082904641841700,0.048841552734375,-0.18060016632080078,0.11196517944335938,-0.08597469329833984
1696082904651841800,0.058841796875,-0.12128257751464844,0.051222801208496094,-0.11059768497943878
1696082904661841700,0.068841552734375,-0.14476585388183594,0.007319927215576172,-0.06200535595417023
1696082904671841800,0.078841796875,-0.13576889038085938,-0.0921182632446289,0.16925984621047974
1696082904681841700,0.088841552734375,-0.1731119155883789,-0.10370349884033203,0.14466361701488495
1696082904691841800,0.098841796875,-0.2539253234863281,-0.00679779052734375,-0.03669437766075134
1696082904701841700,0.108841552734375,-0.1602792739868164,0.07160758972167969,-0.05086450278759003
1696082904711841800,0.118841796875,0.009653091430664062,0.1507120132446289,-0.12127251923084259
1696082904721841700,0.128841552734375,0.1531047821044922,0.18217039108276367,-0.21334639191627502
1696082904731841800,0.138841796875,0.21085739135742188,0.17448711395263672,-0.23187808692455292
1696082904741841700,0.148841552734375,0.12137794494628906,0.07386016845703125,-0.12140856683254242
1696082904751841800,0.158841796875,0.035864830017089844,0.006648063659667969,-0.01777559518814087
1696082904761841700,0.168841552734375,-0.17482471466064453,0.029962539672851562,-0.0009549558162689209
1696082904771841800,0.178841796875,-0.3719453811645508,-0.0284576416015625,-0.04836946725845337
1696082904781841700,0.188841552734375,-0.47260284423828125,-0.028625011444091797,0.011621594429016113
1696082904791841800,0.198841796875,-0.4660615921020508,-0.05167388916015625,0.009821712970733643
1696082904801841700,0.208841552734375,-0.36553287506103516,-0.09107494354248047,-0.01012188196182251
1696082904811841800,0.218841796875,-0.3442554473876953,-0.10332107543945312,0.022985607385635376
1696082904821841700,0.228841552734375,-0.37769126892089844,-0.06176280975341797,-0.01278713345527649
1696082904831841800,0.238841796875,-0.407135009765625,-0.12698841094970703,-0.044435054063797
1696082904841842000,0.248842041015625,0.4457674026489258,-0.9848842620849609,0.7042890787124634
1696082904851841800,0.258841796875,-0.266510009765625,-1.0993905067443848,0.6195715665817261
1696082904861842000,0.268842041015625,-0.8074240684509277,-0.8721790313720703,0.5264818072319031
1696082904871841800,0.278841796875,-1.5372262001037598,-0.7337708473205566,0.20041045546531677
1696082904881841700,0.288841552734375,-1.9104657173156738,-0.7058529853820801,-0.3226768374443054
1696082904891841800,0.298841796875,-1.8282232284545898,-1.1614725589752197,-0.6044079065322876
1696082904901841700,0.308841552734375,-1.9953579902648926,-1.3576881885528564,-0.5584105849266052
1696082904911841800,0.318841796875,-2.07633113861084,-1.0179004669189453,-0.7358003854751587
1696082904921841700,0.328841552734375,-2.5050902366638184,-1.0070915222167969,-1.5439319610595703
1696082904931841800,0.338841796875,-2.873906135559082,-1.1140012741088867,-2.0727946758270264
1696082904941841700,0.348841552734375,-3.0259032249450684,-1.3386080265045166,-2.2492058277130127
1696082904951841800,0.358841796875,-2.9934916496276855,-1.8553400039672852,-2.244256019592285
1696082904961841700,0.368841552734375,-3.026095390319824,-2.174112319946289,-2.596031427383423
1696082904971841800,0.378841796875,-2.7143406867980957,-2.3773837089538574,-2.6628432273864746
1696082904981841700,0.388841552734375,-2.3633599281311035,-2.45289945602417,-2.4225521087646484
1696082904991841800,0.398841796875,-2.023418426513672,-2.541249990463257,-2.351761817932129
1696082905001841700,0.408841552734375,-1.6476283073425293,-2.608947515487671,-2.332519054412842
1696082905011841800,0.418841796875,-1.4396800994873047,-2.6760284900665283,-2.2228708267211914
1696082905021841700,0.428841552734375,-1.7496709823608398,-2.7877449989318848,-1.9962891340255737
1696082905031841800,0.438841796875,-2.043816089630127,-2.8051276206970215,-1.625003457069397
1696082905041841700,0.448841552734375,-2.0703392028808594,-2.6612777709960938,-1.4700305461883545
1696082905051841800,0.458841796875,-1.6225776672363281,-2.4836761951446533,-1.5261436700820923
1696082905061841700,0.468841552734375,-0.9961991310119629,-2.3549411296844482,-1.6337236166000366
1696082905071841800,0.478841796875,-0.40886449813842773,-2.243849992752075,-1.6849092245101929
1696082905081842000,0.488842041015625,-0.06035566329956055,-2.076514482498169,-1.742692470550537
1696082905091841800,0.498841796875,0.2359309196472168,-2.0109899044036865,-1.9068934917449951
1696082905101842000,0.508842041015625,0.320709228515625,-1.9406654834747314,-1.9025046825408936
1696082905111841800,0.518841796875,0.3219943046569824,-1.9330801963806152,-1.9796066284179688
1696082905121842000,0.528842041015625,-0.03983736038208008,-1.8420958518981934,-1.8712153434753418
1696082905131841800,0.538841796875,-1.3341875076293945,-1.3813223838806152,-1.7116684913635254
1696082905141841700,0.548841552734375,-0.9018492698669434,-0.5509757995605469,-1.9995498657226562
1696082905151841800,0.558841796875,-1.5890998840332031,-0.6320004463195801,-1.9160370826721191
1696082905161841700,0.568841552734375,-4.575494766235352,-0.7854304313659668,-1.679530143737793
1696082905171841800,0.578841796875,-1.8364839553833008,-2.0553174018859863,-0.5449695587158203
1696082905181841700,0.588841552734375,-1.317143440246582,-3.195626974105835,-0.8191485404968262
1696082905191841800,0.598841796875,-0.7979133129119873,-3.896131992340088,-2.268341541290283
1696082905201841700,0.608841552734375,-0.9836349487304688,-4.271790027618408,-2.2583327293395996
1696082905211841800,0.618841796875,-1.1380953788757324,-4.284336566925049,-2.4037880897521973
1696082905221841700,0.628841552734375,-1.5256834030151367,-4.225339412689209,-2.9505600929260254
1696082905231841800,0.638841796875,-1.3063678741455078,-5.118042945861816,-2.781526565551758
1696082905241842000,0.648842041015625,-0.4752950668334961,-6.9954118728637695,-1.551645278930664
1696082905251841800,0.658841796875,-0.10783076286315918,-7.821772575378418,-0.6312103271484375
1696082905261842000,0.668842041015625,-0.279559850692749,-7.84436559677124,-0.7797451019287109
1696082905271841800,0.678841796875,-0.8227365016937256,-7.6741437911987305,-1.573784351348877
1696082905281841400,0.68884130859375,-1.4886837005615234,-7.088030815124512,-2.152920722961426
1696082905291841300,0.69884130859375,-2.031550407409668,-6.360442638397217,-2.330714225769043
1696082905301841000,0.7088408203125,-2.014340400695801,-6.360074996948242,-2.0393218994140625
1696082905311841000,0.718841064453125,-1.8244435787200928,-6.505643367767334,-1.422445297241211
1696082905321841000,0.7288408203125,-1.209683895111084,-6.6024065017700195,-0.7895622253417969
1696082905331841000,0.738841064453125,-0.9379456043243408,-6.568272590637207,0.22878646850585938
1696082905341841000,0.7488408203125,-1.1131789684295654,-6.315709114074707,1.4734525680541992
1696082905351841000,0.758841064453125,-1.8987202644348145,-5.968400001525879,2.641437530517578
1696082905361841000,0.7688408203125,-2.4296751022338867,-5.36387825012207,4.016510009765625
1696082905371841000,0.778841064453125,-1.847337007522583,-4.7082133293151855,6.151135444641113
1696082905381841000,0.7888408203125,0.658332347869873,-4.4446702003479,9.450702667236328
1696082905391840800,0.7988408203125,3.8813276290893555,-4.255396842956543,13.550868034362793
1696082905401840600,0.808840576171875,6.229819297790527,-4.498673439025879,17.489498138427734
1696082905411840800,0.8188408203125,7.342987537384033,-4.556591033935547,20.617807388305664
1696082905421840600,0.828840576171875,7.081445217132568,-4.095232009887695,22.56084632873535
1696082905431840800,0.8388408203125,5.906502723693848,-2.868687152862549,23.314624786376953
1696082905441840600,0.848840576171875,5.092911720275879,-1.2534551620483398,23.070581436157227
1696082905451840800,0.8588408203125,4.95035982131958,-0.40284061431884766,21.936586380004883
1696082905461840600,0.868840576171875,4.7211527824401855,0.005665779113769531,20.263877868652344
1696082905471840800,0.8788408203125,4.602485179901123,0.9852056503295898,18.409257888793945
1696082905481840600,0.888840576171875,4.935724258422852,1.8335769176483154,16.690418243408203
1696082905491840800,0.8988408203125,5.087247371673584,1.9295785427093506,15.10641098022461
1696082905501840600,0.908840576171875,4.679422378540039,1.763683557510376,14.010265350341797
1696082905511840800,0.9188408203125,3.7225515842437744,1.4892511367797852,11.904182434082031
1696082905521840600,0.928840576171875,2.8743579387664795,1.6168208122253418,9.724630355834961
1696082905531840800,0.9388408203125,2.2142598628997803,1.9719476699829102,7.534183502197266
1696082905541840600,0.948840576171875,1.8078081607818604,2.192674398422241,5.171113967895508
1696082905551840500,0.958840576171875,1.8849083185195923,2.3812406063079834,2.2746171951293945
1696082905561840600,0.968840576171875,2.3258566856384277,2.5329134464263916,-0.6139297485351562
1696082905571840500,0.978840576171875,3.198148250579834,2.702443838119507,-3.371105670928955
1696082905581841200,0.988841064453125,4.244661331176758,3.1675658226013184,-6.414630889892578
1696082905591841000,0.998841064453125,4.6639790534973145,3.828268527984619,-9.355314254760742
1696082905601841400,1.00884130859375,5.32790994644165,4.476450443267822,-12.249507904052734
1696082905611841500,1.018841552734375,6.397606372833252,5.066688060760498,-14.747112274169922
1696082905621841400,1.02884130859375,7.345114707946777,5.521275997161865,-16.90436363220215
1696082905631841500,1.038841552734375,7.875775337219238,5.711280345916748,-18.70992660522461
1696082905641841400,1.04884130859375,7.941718101501465,5.19580602645874,-19.825210571289062
1696082905651841300,1.05884130859375,7.375301361083984,4.451883792877197,-20.31635284423828
1696082905661841200,1.068841064453125,6.1273980140686035,3.957988739013672,-19.641345977783203
1696082905671841300,1.07884130859375,4.651839733123779,3.4452357292175293,-17.688426971435547
1696082905681841200,1.088841064453125,3.7177398204803467,2.736196517944336,-15.034704208374023
1696082905691841300,1.09884130859375,2.283252477645874,2.330470561981201,-12.637776374816895
1696082905701841400,1.10884130859375,1.2144880294799805,2.490246534347534,-10.004018783569336
1696082905711841300,1.11884130859375,1.078186273574829,2.1993892192840576,-7.472800254821777
1696082905721841400,1.12884130859375,0.19926881790161133,0.8772234916687012,-5.362518787384033
1696082905731841300,1.13884130859375,-1.5230066776275635,-0.4991745948791504,-3.659791946411133
1696082905741841400,1.14884130859375,-3.8575515747070312,-0.7682685852050781,-1.7383208274841309
1696082905751841300,1.15884130859375,-5.893084526062012,-0.04936623573303223,1.2968177795410156
1696082905761841400,1.16884130859375,-6.803898811340332,0.12551140785217285,4.276040077209473
1696082905771841500,1.178841552734375,-7.284175872802734,-0.23612666130065918,6.697869300842285
1696082905781841400,1.18884130859375,-7.717528343200684,-0.6408371925354004,8.726451873779297
1696082905791841500,1.198841552734375,-7.861790657043457,-0.7514514923095703,9.7649507522583
1696082905801841400,1.20884130859375,-6.9203033447265625,0.01625847816467285,11.09984302520752
1696082905811841300,1.21884130859375,-4.843235015869141,0.45759057998657227,11.89283275604248
1696082905821841400,1.22884130859375,-3.1855356693267822,1.3916864395141602,10.668045997619629
1696082905831841300,1.23884130859375,-1.563943862915039,1.3557641506195068,10.22696590423584
1696082905841841400,1.24884130859375,0.6705520153045654,0.8020639419555664,9.690743446350098
1696082905851841500,1.258841552734375,0.7665834426879883,0.4743196964263916,8.883590698242188
1696082905861840600,1.268840576171875,2.840977907180786,1.025017261505127,7.584959030151367
1696082905871840500,1.278840576171875,4.798105716705322,1.1983428001403809,6.594594955444336
1696082905881840600,1.288840576171875,8.665843963623047,0.8695998191833496,3.6557140350341797
1696082905891840500,1.298840576171875,5.3044939041137695,2.8099942207336426,0.18747234344482422
1696082905901840600,1.308840576171875,3.827773332595825,0.8627996444702148,0.2611255645751953
1696082905911840800,1.3188408203125,5.334717750549316,-0.12664389610290527,0.6875848770141602
1696082905921840600,1.328840576171875,3.9458484649658203,0.399996280670166,0.09685993194580078
1696082905931840800,1.3388408203125,2.271825075149536,0.8289850950241089,-0.5533313751220703
1696082905941840600,1.348840576171875,1.1015784740447998,0.12507295608520508,-0.30518341064453125
1696082905951841000,1.358841064453125,1.9598057270050049,1.1145073175430298,-0.0049228668212890625
1696082905961841200,1.368841064453125,2.2646713256835938,1.2630285024642944,-1.5281462669372559
1696082905971841000,1.378841064453125,0.7820141315460205,2.2517364025115967,-3.6408305168151855
1696082905981841200,1.388841064453125,0.2346951961517334,3.718125343322754,-5.567922115325928
1696082905991841000,1.398841064453125,-0.2880467176437378,2.6140899658203125,-6.366578578948975
1696082906001841200,1.408841064453125,0.11659681797027588,3.0490787029266357,-6.533157825469971
1696082906011841000,1.418841064453125,-0.24782037734985352,2.9512124061584473,-6.339719772338867
1696082906021841200,1.428841064453125,-2.327127456665039,3.0110955238342285,-5.125883102416992
1696082906031841000,1.438841064453125,-2.332965612411499,0.830499529838562,-2.101809024810791
1696082906041841200,1.448841064453125,-2.3127474784851074,-0.11017394065856934,2.3411083221435547
1696082906051841000,1.458841064453125,-2.3164024353027344,-0.4530527591705322,4.500105857849121
1696082906061841200,1.468841064453125,-2.4297409057617188,-1.1327126026153564,3.530923843383789
1696082906071841000,1.478841064453125,-2.3391811847686768,-0.5855860710144043,-1.4740009307861328
1696082906081841200,1.488841064453125,0.3958778381347656,-0.25391483306884766,-5.146510601043701
1696082906091841000,1.498841064453125,4.056032657623291,-1.478606939315796,-7.265913963317871
1696082906101841200,1.508841064453125,3.6802728176116943,-5.860159873962402,-4.971965789794922
1696082906111841000,1.518841064453125,0.07207262516021729,-5.851475715637207,-6.641162395477295
1696082906121841400,1.52884130859375,-3.953767776489258,-5.655320167541504,-7.343382835388184
1696082906131841300,1.53884130859375,-3.9468417167663574,-8.498600959777832,-3.198136806488037
1696082906141841400,1.54884130859375,-4.635341644287109,-8.547642707824707,-0.6471438407897949
1696082906151841300,1.55884130859375,-4.176691055297852,-9.54880142211914,1.000807762145996
1696082906161842700,1.5688427734375,-2.223538875579834,-8.039793014526367,-0.04131746292114258
1696082906171842600,1.578842529296875,-3.079029083251953,-10.45473861694336,4.667231559753418
1696082906181842400,1.588842529296875,1.1364078521728516,-7.000467777252197,-0.10600042343139648
1696082906191842600,1.598842529296875,5.229846477508545,-4.479896545410156,-3.1929991245269775
1696082906201843000,1.608843017578125,8.08847713470459,-5.143813133239746,0.8949146270751953
1696082906211842600,1.618842529296875,10.072897911071777,-4.456313133239746,0.969789981842041
1696082906221842700,1.6288427734375,8.696496963500977,-3.8514904975891113,1.3098220825195312
1696082906231842600,1.638842529296875,6.279721736907959,-2.827803134918213,1.1096954345703125
1696082906241842700,1.6488427734375,3.109429359436035,-0.6933498382568359,1.084486484527588
1696082906251842600,1.658842529296875,0.6321653127670288,0.3160057067871094,1.8059296607971191
1696082906261842700,1.6688427734375,-1.778658151626587,1.020808219909668,2.048379421234131
1696082906271842600,1.678842529296875,-3.2650814056396484,2.105151653289795,1.4825048446655273
1696082906281842700,1.6888427734375,-3.5468759536743164,3.0927581787109375,0.6509442329406738
1696082906291842600,1.698842529296875,-3.0855720043182373,2.884446620941162,0.9826087951660156
1696082906301842700,1.7088427734375,-2.5244436264038086,2.959864616394043,0.5946135520935059
1696082906311842600,1.718842529296875,-1.7042126655578613,2.9246482849121094,-0.20154857635498047
1696082906321842700,1.7288427734375,-0.21449816226959229,3.266007423400879,-0.9589583873748779
1696082906331842800,1.7388427734375,0.03755998611450195,3.8879475593566895,-1.8639986515045166
1696082906341842700,1.7488427734375,0.029043912887573242,3.9066553115844727,-2.452855348587036
1696082906351842800,1.7588427734375,-0.1912224292755127,3.861990451812744,-3.1296396255493164
1696082906361842700,1.7688427734375,-0.08017492294311523,4.088874340057373,-3.2733047008514404
1696082906371842800,1.7788427734375,-0.323391854763031,4.397001266479492,-2.797786235809326
1696082906381842700,1.7888427734375,-0.30796656012535095,4.091693878173828,-2.1800761222839355
1696082906391842800,1.7988427734375,-0.1293620765209198,3.786513328552246,-1.971341609954834
1696082906401842700,1.8088427734375,0.23501865565776825,3.56124210357666,-2.0035343170166016
1696082906411842800,1.8188427734375,0.18770232796669006,3.521674156188965,-2.0688304901123047
1696082906421842400,1.828842529296875,-0.8345838785171509,3.820922374725342,-2.0378928184509277
1696082906431842600,1.838842529296875,-0.9808827042579651,3.8251004219055176,-1.6474626064300537
1696082906441842000,1.848842041015625,-1.889784336090088,4.312541961669922,-1.1047149896621704
1696082906451842000,1.858842041015625,-2.382963180541992,4.825180530548096,-0.3276937007904053
1696082906461841700,1.868841552734375,0.17961621284484863,3.388457775115967,0.6029249429702759
1696082906471841500,1.878841552734375,3.0718276500701904,-3.052591323852539,2.9242630004882812
1696082906481841700,1.888841552734375,4.055319309234619,-9.122851371765137,3.88192081451416
1696082906491841500,1.898841552734375,2.764166831970215,-13.269729614257812,3.4056100845336914
1696082906501841400,1.90884130859375,0.7412919402122498,-16.578523635864258,2.514399766921997
1696082906511841300,1.91884130859375,-0.7825397849082947,-17.727781295776367,1.805906057357788
1696082906521841200,1.928841064453125,-0.9279716610908508,-16.233612060546875,1.6478142738342285
1696082906531841300,1.93884130859375,-0.81784987449646,-12.418684005737305,1.238316297531128
1696082906541841200,1.948841064453125,-0.3005406856536865,-5.817930221557617,0.24441227316856384
1696082906551841300,1.95884130859375,0.31388357281684875,-1.2324495315551758,-0.92106032371521
1696082906561841200,1.968841064453125,0.32082900404930115,1.7691402435302734,-1.7872390747070312
1696082906571841300,1.97884130859375,0.628685474395752,3.4990901947021484,-2.3832297325134277
1696082906581841200,1.988841064453125,1.1836521625518799,4.205486297607422,-2.8979249000549316
1696082906591841300,1.99884130859375,0.8163983821868896,4.295748710632324,-2.9487485885620117
1696082906601841200,2.008841064453125,0.645416796207428,3.411360263824463,-2.428988456726074
1696082906611841300,2.01884130859375,0.6227333545684814,1.3967456817626953,-0.8590975403785706
1696082906621841200,2.028841064453125,0.4536466896533966,-0.17250728607177734,0.6089093089103699
1696082906631841300,2.03884130859375,0.32812702655792236,-1.0999336242675781,1.3693262338638306
1696082906641841200,2.048841064453125,0.2658253312110901,-1.268136978149414,1.4099825620651245
1696082906651841300,2.05884130859375,0.2945243716239929,-0.9453296661376953,1.3106682300567627
1696082906661841200,2.068841064453125,0.20315521955490112,-0.45263004302978516,1.473914384841919
1696082906671841300,2.07884130859375,0.1489773988723755,0.0877981185913086,1.8207489252090454
1696082906681841200,2.088841064453125,0.18039721250534058,0.45303916931152344,1.722624659538269
1696082906691841300,2.09884130859375,0.1852933168411255,0.6003923416137695,1.376014232635498
1696082906701841200,2.108841064453125,0.057585299015045166,0.4487113952636719,0.966367244720459
1696082906711841300,2.11884130859375,-0.06489682197570801,0.17761707305908203,0.688301146030426
1696082906721841200,2.128841064453125,-0.08702170848846436,-0.021615028381347656,0.4754104018211365
1696082906731841300,2.13884130859375,0.0187566876411438,-0.11803245544433594,0.3199518024921417
1696082906741841700,2.148841552734375,0.2126961350440979,-0.06862831115722656,0.23447832465171814
1696082906751841500,2.158841552734375,0.4106970429420471,0.08351993560791016,0.19770869612693787
1696082906761841700,2.168841552734375,0.5138150453567505,0.20438671112060547,0.1427595466375351
1696082906771841800,2.178841796875,0.5674430131912231,0.23654937744140625,0.12063391506671906
1696082906781841700,2.188841552734375,0.5688529014587402,0.19916343688964844,0.10277852416038513
1696082906791841800,2.198841796875,0.41611969470977783,0.17857933044433594,0.06489858776330948
1696082906801841700,2.208841552734375,0.25631970167160034,0.16776561737060547,0.006442606449127197
1696082906811841800,2.218841796875,0.13941341638565063,0.1524209976196289,-0.10896889865398407
1696082906821842000,2.228842041015625,0.11406916379928589,0.16597652435302734,-0.23351417481899261
1696082906831841800,2.238841796875,0.17184579372406006,0.1699962615966797,-0.27791649103164673
1696082906841842000,2.248842041015625,0.3211839199066162,0.19307994842529297,-0.2703814208507538
1696082906851841800,2.258841796875,0.4237193465232849,0.2567434310913086,-0.24649375677108765
1696082906861842000,2.268842041015625,0.4095190167427063,0.34661197662353516,-0.15518033504486084
1696082906871841800,2.278841796875,0.30915242433547974,0.3263053894042969,-0.05852583795785904
1696082906881842000,2.288842041015625,0.12209320068359375,0.20783233642578125,0.0627121850848198
1696082906891841800,2.298841796875,-0.13279616832733154,0.13968658447265625,0.1602092683315277
1696082906901842000,2.308842041015625,-0.40464890003204346,0.2630348205566406,0.22572451829910278
1696082906911841800,2.318841796875,-0.4529683589935303,0.4006328582763672,0.3594406247138977
1696082906921842000,2.328842041015625,-0.24752283096313477,0.3559074401855469,0.5855556130409241
1696082906931841800,2.338841796875,0.04443919658660889,0.04746437072753906,0.8623653650283813
1696082906941842000,2.348842041015625,0.2301008105278015,-0.3029813766479492,0.9548121094703674
1696082906951841800,2.358841796875,0.3238498568534851,-0.4539299011230469,0.9091960191726685
1696082906961842000,2.368842041015625,0.3210170865058899,-0.2047128677368164,0.768216073513031
1696082906971841800,2.378841796875,0.278620183467865,0.2155628204345703,0.5845828056335449
1696082906981842000,2.388842041015625,0.3224833011627197,0.4309711456298828,0.45973607897758484
1696082906991841800,2.398841796875,0.3995366096496582,0.3634958267211914,0.21342220902442932
1696082907001842000,2.408842041015625,0.4305015206336975,0.23440933227539062,-0.07291355729103088
1696082907011841800,2.418841796875,0.3527294397354126,0.18311786651611328,-0.3890121877193451
1696082907021842000,2.428842041015625,0.2936224341392517,0.07777023315429688,-0.7318053245544434
1696082907031841800,2.438841796875,0.43713462352752686,-0.05902385711669922,-1.0460667610168457
1696082907041841700,2.448841552734375,0.8365646600723267,-0.10250282287597656,-1.222074270248413
1696082907051841800,2.458841796875,1.129176139831543,-0.061423301696777344,-1.288088321685791
1696082907061841700,2.468841552734375,1.2455527782440186,-0.016981124877929688,-1.2596460580825806
1696082907071841800,2.478841796875,1.090112566947937,0.12599658966064453,-0.8869637250900269
1696082907081841700,2.488841552734375,0.6634892225265503,0.1617136001586914,-0.4291023313999176
1696082907091841800,2.498841796875,0.13447260856628418,0.09732246398925781,0.027255535125732422
1696082907101841700,2.508841552734375,-0.2857748866081238,-0.007435798645019531,0.4054713249206543
1696082907111841800,2.518841796875,-0.62211012840271,-0.08812808990478516,0.6673281788825989
1696082907121841700,2.528841552734375,-0.6893416047096252,-0.07572650909423828,0.8423311710357666
1696082907131841800,2.538841796875,-0.5252089500427246,0.0055980682373046875,0.9546927809715271
1696082907141841700,2.548841552734375,-0.3135145902633667,0.04325389862060547,1.0866353511810303
1696082907151841800,2.558841796875,-0.16620278358459473,0.0826873779296875,1.1919070482254028
1696082907161841700,2.568841552734375,-0.0291745662689209,0.15508079528808594,1.1360785961151123
1696082907171841800,2.578841796875,-0.030919194221496582,0.2916994094848633,0.9371325373649597
1696082907181841700,2.588841552734375,-0.1031719446182251,0.3562459945678711,0.6193718314170837
1696082907191841800,2.598841796875,-0.198577880859375,0.31760120391845703,0.29371583461761475
1696082907201841700,2.608841552734375,-0.3100588321685791,0.23810100555419922,0.011515378952026367
1696082907211841800,2.618841796875,-0.36000072956085205,0.1583251953125,-0.27072715759277344
1696082907221842000,2.628842041015625,-0.28736352920532227,0.12844371795654297,-0.4723297953605652
1696082907231841800,2.638841796875,-0.13969922065734863,0.16994857788085938,-0.5981861352920532
1696082907241842000,2.648842041015625,0.04930520057678223,0.20621490478515625,-0.6312063932418823
1696082907251841800,2.658841796875,0.2171241044998169,0.17261791229248047,-0.5187077522277832
1696082907261842000,2.668842041015625,0.3745880126953125,-0.06486034393310547,-0.3807704448699951
1696082907271841800,2.678841796875,0.479117214679718,-0.3240184783935547,-0.27809345722198486
1696082907281842000,2.688842041015625,0.5984113812446594,-0.4537830352783203,-0.22152240574359894
1696082907291841800,2.698841796875,0.767738401889801,-0.4804210662841797,-0.17801307141780853
1696082907301842000,2.708842041015625,0.9962518215179443,-0.4616432189941406,-0.06352847069501877
1696082907311841800,2.718841796875,1.1697367429733276,-0.42870521545410156,0.0768883004784584
1696082907321842000,2.728842041015625,1.2542290687561035,-0.36957454681396484,0.18053674697875977
1696082907331841800,2.738841796875,1.385258674621582,-0.3343830108642578,0.1962757408618927
1696082907341842000,2.748842041015625,1.5697848796844482,-0.3015308380126953,0.13553045690059662
1696082907351841800,2.758841796875,1.784589171409607,-0.3309822082519531,0.09414061903953552
1696082907361842000,2.768842041015625,1.9365978240966797,-0.37731075286865234,0.0037410855293273926
1696082907371841800,2.778841796875,2.083343029022217,-0.38789844512939453,-0.050842881202697754
1696082907381842000,2.788842041015625,2.26507830619812,-0.4799976348876953,-0.02354264259338379
1696082907391841800,2.798841796875,2.3405234813690186,-0.6919517517089844,0.1868288218975067
1696082907401842000,2.808842041015625,2.320854902267456,-0.9949378967285156,0.4052101671695709
1696082907411841800,2.818841796875,2.3273401260375977,-1.206787109375,0.6114053726196289
1696082907421842000,2.828842041015625,2.5179951190948486,-1.2173595428466797,0.8041120171546936
1696082907431841800,2.838841796875,2.907682418823242,-0.8566808700561523,1.021058440208435
1696082907441842000,2.848842041015625,3.357201099395752,-0.4815254211425781,1.361059546470642
1696082907451841800,2.858841796875,3.5653252601623535,-0.3931922912597656,1.8921687602996826
1696082907461842000,2.868842041015625,3.3538994789123535,-0.6676616668701172,2.466618299484253
1696082907471841800,2.878841796875,2.823185443878174,-1.258957862854004,3.0093700885772705
1696082907481842000,2.888842041015625,2.2357234954833984,-1.9082069396972656,3.535548686981201
1696082907491841800,2.898841796875,1.7388979196548462,-2.472001075744629,4.05320405960083
1696082907501842000,2.908842041015625,1.4979877471923828,-2.8859758377075195,4.557329177856445
1696082907511841800,2.918841796875,1.5429023504257202,-3.1357297897338867,5.065822124481201
1696082907521841700,2.928841552734375,1.7951370477676392,-3.202394485473633,5.579299449920654
1696082907531841800,2.938841796875,2.32665753364563,-3.0837345123291016,5.87053108215332
1696082907541841700,2.948841552734375,3.295903205871582,-2.810901641845703,5.620494842529297
1696082907551841800,2.958841796875,4.664380073547363,-2.179706573486328,4.63969612121582
1696082907561841700,2.968841552734375,6.26487398147583,-1.3854122161865234,3.354856014251709
1696082907571841800,2.978841796875,7.4600019454956055,-0.683375358581543,2.0414814949035645
1696082907581842000,2.988842041015625,7.630253791809082,-0.19229888916015625,0.6479991674423218
1696082907591841800,2.998841796875,6.503549575805664,-0.4052877426147461,-0.5218476057052612
1696082907601842000,3.008842041015625,4.553869247436523,-1.4101142883300781,-1.372866153717041
1696082907611842300,3.01884228515625,2.269714832305908,-2.2642393112182617,-2.4267919063568115
1696082907621842400,3.028842529296875,0.4556747078895569,-2.851691246032715,-3.438011646270752
1696082907631842300,3.03884228515625,-1.2557709217071533,-3.213862419128418,-3.827052116394043
1696082907641842400,3.048842529296875,-2.574204206466675,-3.6566553115844727,-3.9827754497528076
1696082907651842300,3.05884228515625,-3.617422342300415,-3.852346420288086,-3.9049625396728516
1696082907661842400,3.068842529296875,-4.422931671142578,-3.7493667602539062,-3.7196390628814697
1696082907671842300,3.07884228515625,-4.834346771240234,-3.4697961807250977,-3.0971052646636963
1696082907681842400,3.088842529296875,-4.52713680267334,-2.965317726135254,-2.3740394115448
1696082907691842300,3.09884228515625,-3.58461594581604,-2.387272834777832,-1.3457918167114258
1696082907701842400,3.108842529296875,-2.6305289268493652,-2.120586395263672,-0.1217794418334961
1696082907711842300,3.11884228515625,-1.1990082263946533,-1.9288043975830078,1.0021240711212158
1696082907721842400,3.128842529296875,-0.09198951721191406,-1.6384458541870117,1.6245403289794922
1696082907731842300,3.13884228515625,0.4916725158691406,-1.2680692672729492,1.7196975946426392
1696082907741842400,3.148842529296875,0.3745882511138916,-0.8288822174072266,1.28598952293396
1696082907751842300,3.15884228515625,-0.1992347240447998,-0.5733575820922852,0.6234511137008667
1696082907761842400,3.168842529296875,-1.1402854919433594,-0.1494922637939453,-0.3739168643951416
1696082907771842300,3.17884228515625,-1.7216743230819702,0.22098445892333984,-1.5997811555862427
1696082907781842400,3.188842529296875,-1.9859814643859863,0.5875692367553711,-2.910956382751465
1696082907791842300,3.19884228515625,-2.4098360538482666,1.0116491317749023,-3.7691965103149414
1696082907801842400,3.208842529296875,-2.93674373626709,1.5282721519470215,-4.1018877029418945
1696082907811842300,3.21884228515625,-3.348027229309082,1.9397282600402832,-4.294099807739258
1696082907821842400,3.228842529296875,-3.266141414642334,2.30861234664917,-4.605188846588135
1696082907831842600,3.238842529296875,-3.145634412765503,2.571059226989746,-4.814047813415527
1696082907841842400,3.248842529296875,-3.058650016784668,2.6960549354553223,-4.868197441101074
1696082907851842600,3.258842529296875,-3.219367265701294,2.643768310546875,-4.8117241859436035
1696082907861842400,3.268842529296875,-3.4797725677490234,2.4670777320861816,-4.600767612457275
1696082907871842300,3.27884228515625,-3.7203240394592285,2.3019495010375977,-4.157755374908447
1696082907881842400,3.288842529296875,-3.7435202598571777,2.1533470153808594,-3.4986391067504883
1696082907891842300,3.29884228515625,-3.722262382507324,2.132812023162842,-3.0179924964904785
1696082907901842400,3.308842529296875,-3.754143476486206,2.2039012908935547,-2.8347971439361572
1696082907911841800,3.318841796875,-3.9647889137268066,2.3330397605895996,-2.9497551918029785
1696082907921842000,3.328842041015625,-4.309156894683838,2.4318509101867676,-3.181542158126831
1696082907931841800,3.338841796875,-4.584600448608398,2.6277503967285156,-3.672823429107666
1696082907941842000,3.348842041015625,-4.715829372406006,2.9958810806274414,-4.169208526611328
1696082907951841800,3.358841796875,-4.606991767883301,3.3583855628967285,-4.432541847229004
1696082907961842000,3.368842041015625,-4.252753734588623,3.655496597290039,-4.404795169830322
1696082907971841800,3.378841796875,-3.671430826187134,3.965153217315674,-4.289615631103516
1696082907981842000,3.388842041015625,-2.7751107215881348,4.172023773193359,-4.0883097648620605
1696082907991841800,3.398841796875,-1.6690561771392822,4.180938243865967,-3.4790425300598145
1696082908001842000,3.408842041015625,-0.4662799835205078,3.864778995513916,-1.990869164466858
1696082908011841800,3.418841796875,0.8643031120300293,3.1897759437561035,0.31128931045532227
1696082908021842000,3.428842041015625,2.422590494155884,2.213284969329834,2.6433022022247314
1696082908031841800,3.438841796875,4.866976737976074,0.9554405212402344,4.777200222015381
1696082908041841700,3.448841552734375,6.666740894317627,-0.600337028503418,6.674073219299316
1696082908051841800,3.458841796875,7.1350507736206055,-2.139087677001953,7.3573808670043945
1696082908061841700,3.468841552734375,7.5917558670043945,-3.805487632751465,7.79260778427124
1696082908071841800,3.478841796875,8.701786041259766,-5.866002082824707,7.893294334411621
1696082908081841700,3.488841552734375,8.849957466125488,-7.818536758422852,6.956219673156738
1696082908091841800,3.498841796875,7.771967887878418,-8.554969787597656,4.772765159606934
1696082908101841700,3.508841552734375,5.686356544494629,-7.0744733810424805,1.6553521156311035
1696082908111841800,3.518841796875,3.8418307304382324,-4.534456253051758,-0.483676552772522
1696082908121841700,3.528841552734375,2.369732618331909,-2.300858497619629,-2.183934450149536
1696082908131841800,3.538841796875,0.985192060470581,-1.9462881088256836,-3.8980612754821777
1696082908141841700,3.548841552734375,0.6971850395202637,-2.210355758666992,-5.715976238250732
1696082908151841800,3.558841796875,1.7898895740509033,-2.3134164810180664,-7.588140487670898
1696082908161841700,3.568841552734375,2.3871407508850098,-2.1928367614746094,-8.864927291870117
1696082908171841800,3.578841796875,2.4057703018188477,-1.6622705459594727,-8.765029907226562
1696082908181841700,3.588841552734375,1.377500057220459,-1.2757987976074219,-7.1223039627075195
1696082908191841800,3.598841796875,-0.9641963243484497,-0.6338815689086914,-5.551578521728516
1696082908201841700,3.608841552734375,-6.24276065826416,1.3673429489135742,-5.038872718811035
1696082908211842300,3.61884228515625,-10.562971115112305,3.4784650802612305,-3.8614425659179688
1696082908221842200,3.62884228515625,-11.754015922546387,4.11176872253418,-2.5614209175109863
1696082908231842300,3.63884228515625,-10.734437942504883,3.228792190551758,-2.0594170093536377
1696082908241842200,3.64884228515625,-9.535935401916504,1.4905314445495605,-2.47939395904541
1696082908251842300,3.65884228515625,-9.164517402648926,-0.17621326446533203,-2.978175640106201
1696082908261842200,3.66884228515625,-9.12044906616211,-1.3659801483154297,-3.5535409450531006
1696082908271842300,3.67884228515625,-9.19564437866211,-2.154402732849121,-3.926236629486084
1696082908281842200,3.68884228515625,-8.772356986999512,-2.916128158569336,-3.7849206924438477
1696082908291842300,3.69884228515625,-7.346645355224609,-3.381275177001953,-3.1436588764190674
1696082908301842200,3.70884228515625,-4.800050735473633,-3.514451026916504,-2.278987407684326
1696082908311842300,3.71884228515625,-2.0880563259124756,-2.9916296005249023,-1.2650585174560547
1696082908321842200,3.72884228515625,0.10215353965759277,-1.9724407196044922,-0.26579713821411133
1696082908331842300,3.73884228515625,1.27261483669281,-0.7203121185302734,0.3860892057418823
1696082908341842200,3.74884228515625,1.7609294652938843,0.37023353576660156,0.6416128873825073
1696082908351842300,3.75884228515625,1.7325475215911865,1.035604476928711,0.6893171072006226
1696082908361842200,3.76884228515625,1.293576717376709,1.224996566772461,0.5132946968078613
1696082908371842300,3.77884228515625,0.43054890632629395,1.2042369842529297,0.07371437549591064
1696082908381842200,3.78884228515625,-0.37411659955978394,1.1704044342041016,-0.5473235845565796
1696082908391842300,3.79884228515625,-1.0707298517227173,1.138075828552246,-0.8617646098136902
1696082908401842200,3.80884228515625,-1.4466028213500977,1.1620292663574219,-0.7549481391906738
1696082908411842300,3.81884228515625,-1.6866366863250732,1.132430076599121,-0.34372594952583313
1696082908421842200,3.82884228515625,-1.696270227432251,1.1113452911376953,-0.19101935625076294
1696082908431842300,3.83884228515625,-1.3931269645690918,1.0386962890625,-0.11567801237106323
1696082908441842200,3.84884228515625,-0.9461997747421265,1.0913047790527344,-0.25449955463409424
1696082908451842300,3.85884228515625,-0.8542722463607788,1.1039848327636719,-0.3593817353248596
1696082908461842200,3.86884228515625,-1.2121509313583374,0.9117345809936523,-0.3700685501098633
1696082908471842300,3.87884228515625,-1.2206677198410034,0.7999238967895508,-0.10978095233440399
1696082908481842200,3.88884228515625,-1.0087865591049194,0.8166713714599609,0.1048855185508728
1696082908491842300,3.89884228515625,-0.15545934438705444,0.18127822875976562,0.5279436707496643
1696082908501842200,3.90884228515625,0.9950879216194153,-0.7812042236328125,1.2203819751739502
1696082908511841800,3.918841796875,2.340947151184082,-1.4178218841552734,1.6501051187515259
1696082908521841700,3.928841552734375,3.61552095413208,-1.1184577941894531,1.498749017715454
1696082908531841800,3.938841796875,3.766101837158203,-0.11792373657226562,1.5720808506011963
1696082908541841700,3.948841552734375,2.6182491779327393,0.8401393890380859,1.7848623991012573
1696082908551841800,3.958841796875,0.7357938289642334,1.4967727661132812,1.3624204397201538
1696082908561841700,3.968841552734375,-0.9756987690925598,1.683791160583496,0.3552094101905823
1696082908571841800,3.978841796875,-1.7310471534729004,1.324275016784668,-0.6747742295265198
1696082908581842000,3.988842041015625,-1.197346568107605,0.5311241149902344,-1.3934552669525146
1696082908591841800,3.998841796875,0.044243574142456055,-0.37442493438720703,-1.8447346687316895
1696082908601842000,4.008842041015625,1.587723731994629,-1.3692741394042969,-1.9159255027770996
1696082908611841800,4.018841796875,3.2155089378356934,-2.087207794189453,-1.4544570446014404
1696082908621842000,4.028842041015625,4.740863800048828,-2.4322547912597656,-0.49803394079208374
1696082908631841800,4.038841796875,5.780515670776367,-2.315117835998535,0.7043163776397705
1696082908641842000,4.048842041015625,5.8048272132873535,-1.9454193115234375,1.8885719776153564
1696082908651841800,4.058841796875,4.871167182922363,-1.5633831024169922,2.7545382976531982
1696082908661842000,4.068842041015625,3.7258129119873047,-1.3805294036865234,3.2961809635162354
1696082908671841800,4.078841796875,3.1003174781799316,-1.4488716125488281,3.7745800018310547
1696082908681841700,4.088841552734375,2.898559093475342,-1.8763036727905273,4.255223751068115
1696082908691841800,4.098841796875,2.8276326656341553,-2.5674095153808594,4.782237529754639
1696082908701841700,4.108841552734375,2.65419864654541,-3.0221261978149414,5.226994514465332
1696082908711841800,4.118841796875,2.4272890090942383,-3.161439895629883,5.710480690002441
1696082908721841700,4.128841552734375,2.3014636039733887,-3.3057680130004883,6.282440185546875
1696082908731841800,4.138841796875,2.344383955001831,-3.581507682800293,6.97166109085083
1696082908741842000,4.148842041015625,2.8080005645751953,-3.7650957107543945,7.372751712799072
1696082908751841800,4.158841796875,3.847036123275757,-3.7566776275634766,7.273804664611816
1696082908761841700,4.168841552734375,5.048999786376953,-3.6509132385253906,6.586753845214844
1696082908771841800,4.178841796875,6.026207447052002,-3.5024490356445312,5.812869071960449
1696082908781842000,4.188842041015625,5.646259307861328,-3.564663887023926,5.304405689239502
1696082908791841800,4.198841796875,4.159054756164551,-3.2990951538085938,4.140748977661133
1696082908801842000,4.208842041015625,3.4937868118286133,-2.782266616821289,2.058596611022949
1696082908811841800,4.218841796875,3.098959445953369,-2.624640464782715,0.0363924503326416
1696082908821842000,4.228842041015625,1.3906621932983398,-3.120555877685547,-1.7045083045959473
1696082908831841800,4.238841796875,0.2652736306190491,-4.082566261291504,-3.720402240753174
1696082908841842000,4.248842041015625,-0.5239682197570801,-5.389673233032227,-5.288751602172852
1696082908851841800,4.258841796875,-1.9925904273986816,-6.350802421569824,-5.895995140075684
1696082908861842000,4.268842041015625,-4.667567729949951,-6.6671552658081055,-6.560954570770264
1696082908871841800,4.278841796875,-6.366239547729492,-6.06767463684082,-7.0023579597473145
1696082908881841700,4.288841552734375,-6.976964950561523,-4.989541053771973,-7.011251449584961
1696082908891841800,4.298841796875,-6.554414749145508,-3.84307861328125,-5.8870720863342285
1696082908901841700,4.308841552734375,-3.1421613693237305,-2.6627674102783203,-4.867231369018555
1696082908911841800,4.318841796875,0.08642733097076416,-1.7988414764404297,-3.000321626663208
1696082908921841700,4.328841552734375,2.5069332122802734,-0.9779863357543945,-0.7823119163513184
1696082908931841800,4.338841796875,2.6703147888183594,-0.4914894104003906,-0.27268898487091064
1696082908941841700,4.348841552734375,0.4824206829071045,-0.06401538848876953,-0.2312842607498169
1696082908951841800,4.358841796875,-1.6180976629257202,0.43152713775634766,-0.8014338612556458
1696082908961841700,4.368841552734375,-2.6844520568847656,1.0502262115478516,-1.711445689201355
1696082908971841800,4.378841796875,-3.5570578575134277,1.6358914375305176,-2.5740103721618652
1696082908981841700,4.388841552734375,-4.274275302886963,2.2614617347717285,-3.0615274906158447
1696082908991841800,4.398841796875,-4.839886665344238,2.730715274810791,-3.161144733428955
1696082909001841700,4.408841552734375,-4.421934604644775,2.8527650833129883,-3.476017475128174
1696082909011841800,4.418841796875,-3.791107654571533,2.851409912109375,-4.056252956390381
1696082909021841700,4.428841552734375,-3.8033366203308105,2.731285572052002,-4.532370567321777
1696082909031841800,4.438841796875,-4.243561267852783,2.5624027252197266,-4.907536506652832
1696082909041841700,4.448841552734375,-4.429775714874268,2.3745861053466797,-5.08176851272583
1696082909051841800,4.458841796875,-4.413905143737793,2.1976518630981445,-5.028683662414551
1696082909061841700,4.468841552734375,-4.488659381866455,2.108628749847412,-4.838781356811523
1696082909071841800,4.478841796875,-4.6252055168151855,2.1093382835388184,-4.6260786056518555
1696082909081841700,4.488841552734375,-4.649929523468018,2.095465660095215,-4.436159133911133
1696082909091841800,4.498841796875,-4.735419273376465,2.201810836791992,-4.459944725036621
1696082909101841700,4.508841552734375,-4.86317253112793,2.481382369995117,-4.8386640548706055
1696082909111841800,4.518841796875,-5.00913143157959,2.870187759399414,-5.366135597229004
1696082909121841700,4.528841552734375,-5.1490960121154785,3.4364185333251953,-5.8132524490356445
1696082909131841800,4.538841796875,-5.300183296203613,4.064204692840576,-6.165306091308594
1696082909141841700,4.548841552734375,-5.334146976470947,4.64124870300293,-6.280449390411377
1696082909151841800,4.558841796875,-5.045699119567871,5.19970703125,-6.158108711242676
1696082909161841700,4.568841552734375,-4.501681804656982,5.6347832679748535,-5.932640075683594
1696082909171841800,4.578841796875,-3.794410228729248,5.7044243812561035,-5.460043430328369
1696082909181841700,4.588841552734375,-3.179818630218506,5.092416763305664,-3.6171436309814453
1696082909191841800,4.598841796875,-2.271730422973633,3.977421760559082,-0.6196094751358032
1696082909201841700,4.608841552734375,1.479492425918579,2.148716449737549,2.563039779663086
1696082909211841800,4.618841796875,7.486628532409668,-0.8498468399047852,6.378018856048584
1696082909221841700,4.628841552734375,9.98157024383545,-4.382786750793457,8.97192096710205
1696082909231841800,4.638841796875,10.487707138061523,-7.520454406738281,8.714021682739258
1696082909241841700,4.648841552734375,11.610796928405762,-10.29884147644043,7.307959079742432
1696082909251841800,4.658841796875,13.494436264038086,-12.693859100341797,6.798686981201172
1696082909261841700,4.668841552734375,10.061635971069336,-12.856084823608398,5.683128356933594
1696082909271841800,4.678841796875,4.745212554931641,-10.13679313659668,2.481285810470581
1696082909281841700,4.688841552734375,1.931001901626587,-5.127703666687012,-1.023173451423645
1696082909291841800,4.698841796875,1.0598015785217285,-0.0022516250610351562,-3.0146639347076416
1696082909301841700,4.708841552734375,0.5910007953643799,4.106851100921631,-3.472445011138916
1696082909311841800,4.718841796875,0.5673346519470215,7.227765083312988,-3.493716239929199
1696082909321841700,4.728841552734375,2.2677125930786133,8.456864356994629,-4.0159831047058105
1696082909331841800,4.738841796875,1.8233404159545898,5.724305152893066,-4.852082252502441
1696082909341842000,4.748842041015625,-1.3380882740020752,1.3391928672790527,-4.845733642578125
1696082909351841800,4.758841796875,-5.389942169189453,-2.146164894104004,-4.693439483642578
1696082909361842000,4.768842041015625,-8.599481582641602,-3.8280210494995117,-3.8182454109191895
1696082909371841800,4.778841796875,-9.266772270202637,-4.339642524719238,-1.591085433959961
1696082909381842000,4.788842041015625,-6.553459644317627,-4.388426780700684,0.18395376205444336
1696082909391841800,4.798841796875,-0.14168071746826172,-5.3174285888671875,0.9153189659118652
1696082909401842000,4.808842041015625,6.12336540222168,-6.662876129150391,1.1671559810638428
1696082909411841800,4.818841796875,5.388950347900391,-5.368033409118652,-0.9422718286514282
1696082909421842000,4.828842041015625,-0.5518778562545776,-2.5588226318359375,-3.702467203140259
1696082909431841800,4.838841796875,-5.308589935302734,0.38370704650878906,-6.095563888549805
1696082909441841700,4.848841552734375,-7.455280303955078,2.55526065826416,-7.559430122375488
1696082909451841800,4.858841796875,-7.983400821685791,3.0901241302490234,-8.573091506958008
1696082909461841700,4.868841552734375,-7.73039436340332,2.374823570251465,-8.397024154663086
1696082909471841800,4.878841796875,-7.970404148101807,1.3296928405761719,-6.9123005867004395
1696082909481841700,4.888841552734375,-7.6685709953308105,0.2601776123046875,-5.1183762550354
1696082909491841800,4.898841796875,-7.965778827667236,-0.5771026611328125,-4.0775675773620605
1696082909501841700,4.908841552734375,-8.181763648986816,-0.8978118896484375,-3.1571459770202637
1696082909511841800,4.918841796875,-7.626651763916016,-0.7643890380859375,-2.602647304534912
1696082909521841700,4.928841552734375,-6.625192165374756,-0.4826030731201172,-2.159921884536743
1696082909531842000,4.938842041015625,-4.728352069854736,-0.3365211486816406,-1.3813183307647705
1696082909541842200,4.94884228515625,-1.5045603513717651,-0.4630002975463867,-0.16505539417266846
1696082909551842000,4.958842041015625,2.208108901977539,-0.5370292663574219,1.2694132328033447
1696082909561842200,4.96884228515625,5.336424350738525,-0.23874664306640625,2.296128273010254
1696082909571842000,4.978842041015625,6.775877952575684,0.4545011520385742,2.4776504039764404
1696082909581842200,4.98884228515625,6.164181232452393,1.2156381607055664,1.7971596717834473
1696082909591842300,4.99884228515625,4.292418956756592,1.7813100814819336,0.7584576606750488
1696082909601842200,5.00884228515625,2.098407745361328,2.073885440826416,0.034765809774398804
1696082909611842300,5.01884228515625,-0.13651815056800842,1.973949909210205,-0.6086432933807373
1696082909621842200,5.02884228515625,-2.3522963523864746,1.6145610809326172,-1.009713053703308
1696082909631842000,5.038842041015625,-3.780766725540161,1.2141647338867188,-1.0654819011688232
1696082909641842200,5.04884228515625,-4.0763750076293945,0.8855075836181641,-1.1819827556610107
1696082909651842000,5.058842041015625,-3.917613983154297,0.5831136703491211,-1.0107113122940063
1696082909661842200,5.06884228515625,-3.4019391536712646,-0.061881065368652344,-0.21880057454109192
1696082909671842000,5.078842041015625,-2.5854978561401367,-0.6333484649658203,0.686455488204956
1696082909681842200,5.08884228515625,-0.7962141036987305,-0.9407243728637695,1.045425295829773
1696082909691842000,5.098842041015625,1.9518764019012451,-1.0639400482177734,1.3890049457550049
1696082909701842200,5.10884228515625,3.9323604106903076,-0.9083528518676758,1.9777024984359741
1696082909711842000,5.118842041015625,4.700423240661621,-0.4665822982788086,2.598595142364502
1696082909721842200,5.12884228515625,4.35459041595459,0.050034523010253906,2.7040441036224365
1696082909731842000,5.138842041015625,3.126481771469116,0.38074779510498047,2.0178303718566895
1696082909741842200,5.14884228515625,1.375964641571045,0.3237581253051758,0.5412967801094055
1696082909751842000,5.158842041015625,0.07622218132019043,-0.11642646789550781,-1.0018439292907715
1696082909761842200,5.16884228515625,-0.21056842803955078,-0.7983884811401367,-2.179265022277832
1696082909771842300,5.17884228515625,0.688968300819397,-1.4707412719726562,-2.6058363914489746
1696082909781842200,5.18884228515625,2.3075623512268066,-1.7304010391235352,-2.496673583984375
1696082909791842300,5.19884228515625,4.031577110290527,-1.541398048400879,-1.8490729331970215
1696082909801842200,5.20884228515625,5.311226844787598,-1.2524747848510742,-0.6874003410339355
1696082909811842300,5.21884228515625,5.624039649963379,-1.0180139541625977,0.7657737135887146
1696082909821842200,5.22884228515625,4.897245407104492,-0.9366273880004883,2.148251533508301
1696082909831841800,5.238841796875,3.5705409049987793,-0.8264446258544922,3.1507797241210938
1696082909841842000,5.248842041015625,2.3206286430358887,-0.6857481002807617,3.832773447036743
1696082909851841800,5.258841796875,1.565244436264038,-0.6365556716918945,4.432625770568848
1696082909861842000,5.268842041015625,1.2833588123321533,-0.9058771133422852,5.008702278137207
1696082909871841800,5.278841796875,1.1600944995880127,-1.37347412109375,5.765824794769287
1696082909881841700,5.288841552734375,1.061391830444336,-1.7791566848754883,6.592348575592041
1696082909891841800,5.298841796875,1.3552051782608032,-1.7972745895385742,7.150848865509033
1696082909901841700,5.308841552734375,2.44063663482666,-1.5493888854980469,7.193789005279541
1696082909911841800,5.318841796875,4.010507583618164,-1.4369525909423828,6.740838050842285
1696082909921841700,5.328841552734375,5.3011932373046875,-1.7213630676269531,6.009172439575195
1696082909931841800,5.338841796875,5.3839545249938965,-2.2295827865600586,5.324276924133301
1696082909941842000,5.348842041015625,4.850909233093262,-2.494558334350586,4.799020290374756
1696082909951841800,5.358841796875,4.739880561828613,-2.407999038696289,4.24139404296875
1696082909961842000,5.368842041015625,5.168732166290283,-1.9665002822875977,3.3218941688537598
1696082909971841800,5.378841796875,6.291421413421631,-1.6680259704589844,2.1889188289642334
1696082909981842000,5.388842041015625,6.164035797119141,-1.5507478713989258,1.4601390361785889
1696082909991841800,5.398841796875,4.23323917388916,-2.2671022415161133,1.452132225036621
1696082910001842000,5.408842041015625,0.5513240098953247,-3.3023080825805664,1.7890865802764893
1696082910011841800,5.418841796875,-1.3393213748931885,-4.485815048217773,0.9914554357528687
1696082910021842000,5.428842041015625,-1.8131201267242432,-5.674592018127441,-0.15269401669502258
1696082910031841800,5.438841796875,-2.3486745357513428,-7.1493330001831055,-2.5118188858032227
1696082910041841700,5.448841552734375,-3.271817445755005,-8.436256408691406,-4.719672203063965
1696082910051841800,5.458841796875,-4.751976490020752,-9.514161109924316,-6.952066898345947
1696082910061842000,5.468842041015625,-5.9159111976623535,-9.73849105834961,-7.614823341369629
1696082910071841800,5.478841796875,-6.887155532836914,-8.981446266174316,-7.061415672302246
1696082910081842000,5.488842041015625,-6.894046306610107,-6.878180503845215,-6.124739646911621
1696082910091841800,5.498841796875,-3.5967037677764893,-4.71187686920166,-5.313672065734863
1696082910101842000,5.508842041015625,0.4831085205078125,-3.028247833251953,-3.5314669609069824
1696082910111841800,5.518841796875,3.172553539276123,-1.680419921875,-1.8249636888504028
1696082910121842000,5.528842041015625,2.4220731258392334,-0.7045564651489258,-1.0249230861663818
1696082910131841800,5.538841796875,0.5112619400024414,0.13764667510986328,-1.340468168258667
1696082910141842000,5.548842041015625,-1.3482589721679688,0.9418916702270508,-2.075603485107422
1696082910151841800,5.558841796875,-2.807586193084717,1.599809169769287,-2.452688455581665
1696082910161841000,5.5688408203125,-3.5130043029785156,2.2069129943847656,-2.183478593826294
1696082910171841000,5.578841064453125,-3.646873950958252,2.753112316131592,-1.8865268230438232
1696082910181841000,5.5888408203125,-3.494112968444824,3.3617305755615234,-2.004337787628174
1696082910191841000,5.598841064453125,-3.417388916015625,3.594573497772217,-2.4721808433532715
1696082910201841000,5.6088408203125,-3.5272722244262695,3.5574655532836914,-3.1433064937591553
1696082910211841000,5.618841064453125,-3.7555365562438965,3.365264892578125,-3.8913984298706055
1696082910221841000,5.6288408203125,-3.9994068145751953,3.1300129890441895,-4.536852836608887
1696082910231841000,5.638841064453125,-4.37140417098999,2.845510482788086,-4.985682487487793
1696082910241841000,5.6488408203125,-4.895310878753662,2.6727805137634277,-5.175718307495117
1696082910251841000,5.658841064453125,-5.162642478942871,2.5617470741271973,-5.066738605499268
1696082910261841000,5.6688408203125,-5.318937301635742,2.506639003753662,-5.080665588378906
1696082910271841000,5.678841064453125,-5.417654991149902,2.5502514839172363,-5.362492561340332
1696082910281840600,5.688840576171875,-5.549772262573242,2.8148579597473145,-5.961163520812988
1696082910291840800,5.6988408203125,-5.579838752746582,3.2345833778381348,-6.532341480255127
1696082910301840600,5.708840576171875,-5.435702800750732,3.7471303939819336,-7.018100738525391
1696082910311840800,5.7188408203125,-5.1663103103637695,4.345802307128906,-7.236581325531006
1696082910321840600,5.728840576171875,-4.707390308380127,4.967041015625,-7.2528228759765625
1696082910331840800,5.7388408203125,-4.11541223526001,5.488795280456543,-7.17263650894165
1696082910341840600,5.748840576171875,-3.5391013622283936,5.740516662597656,-6.811758518218994
1696082910351840800,5.7588408203125,-3.051886558532715,5.442889213562012,-5.703086853027344
1696082910361840600,5.768840576171875,-2.469006061553955,4.7551350593566895,-3.3412036895751953
1696082910371840800,5.7788408203125,-0.9012320041656494,3.9514708518981934,-0.26074719429016113
1696082910381840600,5.788840576171875,2.953031539916992,2.3176469802856445,2.8153443336486816
1696082910391840800,5.7988408203125,7.351337432861328,-0.3358030319213867,5.81952428817749
1696082910401840600,5.808840576171875,7.118109703063965,-2.911928176879883,9.000937461853027
1696082910411840800,5.8188408203125,5.657259464263916,-4.991581916809082,9.049832344055176
1696082910421840600,5.828840576171875,6.932969093322754,-6.579158782958984,7.365692615509033
1696082910431840500,5.838840576171875,8.416808128356934,-8.033235549926758,5.553402900695801
1696082910441840600,5.848840576171875,8.053308486938477,-9.03563117980957,3.854827404022217
1696082910451840500,5.858840576171875,6.512699604034424,-8.60470199584961,2.403498888015747
1696082910461841400,5.86884130859375,4.83847713470459,-5.966256141662598,0.31533145904541016
1696082910471841500,5.878841552734375,3.5583016872406006,-2.5712080001831055,-1.039590835571289
1696082910481841400,5.88884130859375,2.694122076034546,0.6676435470581055,-1.7613866329193115
1696082910491841500,5.898841552734375,2.4571948051452637,1.957108497619629,-2.716947078704834
1696082910501562000,5.90856201171875,1.3018250465393066,0.040482521057128906,-3.4285378456115723
1696082910511562000,5.91856201171875,0.26554226875305176,-2.3783998489379883,-3.46217679977417
1696082910521561900,5.928561767578125,-1.4866801500320435,-3.8939208984375,-2.747948169708252
1696082910531562000,5.93856201171875,-4.718006134033203,-4.554315567016602,-0.7916483879089355
1696082910541561900,5.948561767578125,-4.592171669006348,-4.164220809936523,1.2544217109680176
1696082910551562000,5.95856201171875,-0.4893810749053955,-2.804868698120117,1.5543475151062012
1696082910561561900,5.968561767578125,0.9909896850585938,-1.0369091033935547,0.19150328636169434
1696082910571562000,5.97856201171875,-1.1829705238342285,0.6742086410522461,-2.355067729949951
1696082910581562400,5.988562255859375,-4.8166046142578125,2.028927803039551,-4.137490272521973
1696082910591562200,5.998562255859375,-7.051446914672852,2.1648030281066895,-5.386968612670898
1696082910601562400,6.008562255859375,-8.021221160888672,1.2731809616088867,-6.581499099731445
1696082910611562200,6.018562255859375,-8.56826114654541,0.011456489562988281,-7.797074317932129
1696082910621562400,6.028562255859375,-8.526433944702148,-0.8953056335449219,-8.530096054077148
1696082910631562200,6.038562255859375,-8.128381729125977,-1.366196632385254,-8.079727172851562
1696082910641562400,6.048562255859375,-7.588657379150391,-1.5412921905517578,-7.377344131469727
1696082910651562200,6.058562255859375,-6.401653289794922,-1.3980388641357422,-6.555269718170166
1696082910661562400,6.068562255859375,-4.862091064453125,-1.153402328491211,-5.261228561401367
1696082910671562200,6.078562255859375,-3.235865592956543,-0.7583208084106445,-3.7468791007995605
1696082910681562400,6.088562255859375,-1.7408593893051147,-0.3088665008544922,-2.464509963989258
1696082910691562200,6.098562255859375,-0.544670045375824,-0.03135395050048828,-1.580262303352356
1696082910701562400,6.108562255859375,0.1770775318145752,0.1661090850830078,-0.8186801075935364
1696082910711562200,6.118562255859375,0.48073410987854004,0.31205177307128906,-0.2527080774307251
1696082910721562400,6.128562255859375,0.4127542972564697,0.4284400939941406,0.14911580085754395
1696082910731562200,6.138562255859375,0.19449728727340698,0.47263431549072266,0.5146064758300781
1696082910741562400,6.148562255859375,0.11577165126800537,0.487091064453125,0.8296380043029785
1696082910751562200,6.158562255859375,0.21965128183364868,0.5998315811157227,0.9681823253631592
1696082910761562400,6.168562255859375,0.3153415322303772,0.8205604553222656,1.021342396736145
1696082910771562500,6.1785625,0.3221363425254822,1.1859006881713867,0.9050870537757874
1696082910781562400,6.188562255859375,0.11955513060092926,1.4332456588745117,0.6748560070991516
1696082910791562500,6.1985625,-0.17504379153251648,1.5847902297973633,0.4641208052635193
1696082910801562400,6.208562255859375,-0.8428165912628174,1.6267681121826172,0.05434015393257141
1696082910811562500,6.2185625,-0.7753477096557617,1.6290092468261719,0.13457593321800232
1696082910821562400,6.228562255859375,-1.7110300064086914,1.4170513153076172,-0.8410484790802002
1696082910831562500,6.2385625,-1.6254215240478516,1.3357229232788086,-0.504740297794342
1696082910841562400,6.248562255859375,-1.3703851699829102,0.9225826263427734,0.1488490104675293
1696082910851562500,6.2585625,-0.6324536800384521,0.28244495391845703,0.5036260485649109
1696082910861562400,6.268562255859375,1.2992501258850098,-0.40819454193115234,0.3831009268760681
1696082910871562500,6.2785625,3.2341060638427734,-0.9655418395996094,0.6347136497497559
1696082910881562400,6.288562255859375,4.0769429206848145,-0.9559736251831055,1.268569827079773
1696082910891562200,6.298562255859375,3.731828451156616,-0.30153942108154297,1.720479965209961
1696082910901562400,6.308562255859375,2.3905534744262695,0.4870796203613281,2.152550458908081
1696082910911562200,6.318562255859375,0.904008686542511,0.9082984924316406,2.245448589324951
1696082910921562400,6.328562255859375,0.10106348991394043,0.6557397842407227,1.6855967044830322
1696082910931562200,6.338562255859375,0.38308900594711304,-0.2214651107788086,0.7026265859603882
1696082910941562400,6.348562255859375,1.7048356533050537,-0.9878835678100586,-0.34680992364883423
1696082910951562200,6.358562255859375,3.475837230682373,-1.4632892608642578,-1.0443377494812012
1696082910961562400,6.368562255859375,4.845438003540039,-1.7844810485839844,-0.970151424407959
1696082910971562200,6.378562255859375,5.220123767852783,-1.9571847915649414,-0.21153861284255981
1696082910981562400,6.388562255859375,4.467074394226074,-1.8231849670410156,0.8800531029701233
1696082910991562200,6.398562255859375,3.239367961883545,-1.4162616729736328,1.9769346714019775
1696082911001562400,6.408562255859375,2.210124969482422,-0.9965066909790039,2.7898335456848145
1696082911011562200,6.418562255859375,1.578885555267334,-0.8512964248657227,3.4532971382141113
1696082911021562400,6.428562255859375,1.156099557876587,-1.091710090637207,4.44719123840332
1696082911031562200,6.438562255859375,0.640363335609436,-1.5918512344360352,5.623579978942871
1696082911041562400,6.448562255859375,0.36102330684661865,-1.9809703826904297,6.755793571472168
1696082911051562200,6.458562255859375,0.8788280487060547,-1.9937734603881836,7.668737411499023
1696082911061562400,6.468562255859375,2.549361228942871,-1.6288623809814453,8.14143180847168
1696082911071562200,6.478562255859375,4.714339733123779,-1.3353252410888672,7.754814147949219
1696082911081562400,6.488562255859375,6.319052696228027,-1.6812973022460938,6.89578104019165
1696082911091562200,6.498562255859375,6.841395854949951,-2.616164207458496,5.877631664276123
1696082911101562400,6.508562255859375,6.557576656341553,-3.518986701965332,4.679612159729004
1696082911111562200,6.518562255859375,6.194064140319824,-4.115540504455566,3.4916157722473145
1696082911121562400,6.528562255859375,6.237831115722656,-3.9172353744506836,2.161424398422241
1696082911131562200,6.538562255859375,6.117700576782227,-3.450693130493164,1.0408241748809814
1696082911141562400,6.548562255859375,3.727499485015869,-3.3172826766967773,0.884479284286499
1696082911151562200,6.558562255859375,0.5285326838493347,-3.878098487854004,1.5628564357757568
1696082911161562400,6.568562255859375,-1.3616950511932373,-4.793787002563477,1.4634625911712646
1696082911171562200,6.578562255859375,-0.8114861845970154,-5.832691192626953,0.1301456093788147
1696082911181562400,6.588562255859375,-0.732720136642456,-7.130417823791504,-1.7344028949737549
1696082911191562200,6.598562255859375,-1.9932345151901245,-8.34040641784668,-3.8384170532226562
1696082911201562400,6.608562255859375,-3.656285285949707,-8.988611221313477,-5.940378665924072
1696082911211562200,6.618562255859375,-4.8507184982299805,-9.311999320983887,-7.502732276916504
1696082911221562400,6.628562255859375,-5.904167175292969,-8.77783203125,-7.674540042877197
1696082911231562200,6.638562255859375,-6.40533447265625,-6.941862106323242,-6.959134101867676
1696082911241562400,6.648562255859375,-4.892527103424072,-4.440932273864746,-6.125423908233643
1696082911251562200,6.658562255859375,-0.8931896686553955,-2.38037109375,-4.737092971801758
1696082911261562400,6.668562255859375,1.3993271589279175,-0.9414567947387695,-2.853178024291992
1696082911271562200,6.678562255859375,2.652993679046631,0.2311258316040039,-1.4726498126983643
1696082911281562400,6.688562255859375,2.084071159362793,1.0825004577636719,-1.334113597869873
1696082911291562200,6.698562255859375,-0.04103446006774902,1.6416425704956055,-1.7924097776412964
1696082911301562400,6.708562255859375,-1.8250848054885864,2.071819305419922,-2.375068187713623
1696082911311562200,6.718562255859375,-2.678049087524414,2.44384765625,-3.1197235584259033
1696082911321562400,6.728562255859375,-4.000770092010498,2.9002513885498047,-3.1438488960266113
1696082911331562200,6.738562255859375,-4.525465965270996,3.374427318572998,-2.9024672508239746
1696082911341562400,6.748562255859375,-4.189055442810059,3.7859416007995605,-2.811821460723877
1696082911351562200,6.758562255859375,-3.6910858154296875,3.9947805404663086,-2.846994161605835
1696082911361562400,6.768562255859375,-3.6527483463287354,3.8869190216064453,-3.1672449111938477
1696082911371562500,6.7785625,-3.9701857566833496,3.5803208351135254,-3.5910401344299316
1696082911381562400,6.788562255859375,-4.387402534484863,3.142219066619873,-4.206476211547852
1696082911391562200,6.798562255859375,-4.543536186218262,2.713406562805176,-4.743377685546875
1696082911401562400,6.808562255859375,-4.566164970397949,2.340175151824951,-5.021796703338623
1696082911411562200,6.818562255859375,-4.730157852172852,2.0346837043762207,-5.081341743469238
1696082911421562400,6.828562255859375,-4.951558589935303,1.8991632461547852,-5.024565696716309
1696082911431562200,6.838562255859375,-5.075010299682617,2.001420497894287,-5.030250549316406
1696082911441562400,6.848562255859375,-5.159337520599365,2.373229503631592,-5.106741428375244
1696082911451562200,6.858562255859375,-5.206972122192383,2.8520727157592773,-5.470260143280029
1696082911461562400,6.868562255859375,-5.290081024169922,3.3927721977233887,-5.879188537597656
1696082911471562200,6.878562255859375,-5.337535381317139,3.9415502548217773,-6.160979270935059
1696082911481562400,6.888562255859375,-5.201774597167969,4.436255931854248,-6.319736480712891
1696082911491562200,6.898562255859375,-4.888017177581787,4.918422698974609,-6.465330123901367
1696082911501562400,6.908562255859375,-4.314492225646973,5.324496269226074,-6.443330764770508
1696082911511562200,6.918562255859375,-3.588602066040039,5.4857587814331055,-5.983432769775391
1696082911521562400,6.928562255859375,-2.7977685928344727,5.114953994750977,-4.58840274810791
1696082911531562200,6.938562255859375,-1.9788919687271118,4.4831223487854,-1.772852897644043
1696082911541563000,6.94856298828125,-0.2514829635620117,3.2513256072998047,1.4204223155975342
1696082911551562800,6.958562744140625,4.695224761962891,0.9072704315185547,4.482888221740723
1696082911561563100,6.968563232421875,9.889358520507812,-2.2215967178344727,7.576757431030273
1696082911571563000,6.97856298828125,9.173940658569336,-4.951044082641602,9.094008445739746
1696082911581563100,6.988563232421875,8.363539695739746,-7.197980880737305,8.90271282196045
1696082911591563000,6.99856298828125,10.262680053710938,-9.478058815002441,8.173666000366211
1696082911601563100,7.008563232421875,11.847299575805664,-10.806894302368164,8.504043579101562
1696082911611563000,7.01856298828125,9.387752532958984,-10.409863471984863,6.824974060058594
1696082911621563100,7.028563232421875,5.221673488616943,-7.782468795776367,2.1728837490081787
1696082911631563000,7.03856298828125,2.7424325942993164,-3.7384471893310547,-1.3693616390228271
1696082911641563100,7.048563232421875,1.609036922454834,0.7574539184570312,-2.3865420818328857
1696082911651563000,7.05856298828125,1.0984914302825928,4.998629093170166,-2.783092975616455
1696082911661563100,7.068563232421875,2.960405111312866,7.8105645179748535,-3.14093017578125
1696082911671563000,7.07856298828125,1.3367578983306885,7.592135429382324,-3.5902533531188965
1696082911681563100,7.088563232421875,-1.3186076879501343,4.21880578994751,-4.957634449005127
1696082911691563000,7.09856298828125,-4.56812858581543,-0.28487396240234375,-5.699854373931885
1696082911701563100,7.108563232421875,-7.785384178161621,-3.871026039123535,-5.707244396209717
1696082911711563000,7.11856298828125,-8.575900077819824,-6.792003631591797,-4.890854835510254
1696082911721563100,7.128563232421875,-5.057270050048828,-9.539984703063965,-3.3490161895751953
1696082911731563000,7.13856298828125,-0.2047891616821289,-11.301170349121094,-2.128683090209961
1696082911741563100,7.148563232421875,2.8946666717529297,-9.830770492553711,-1.8615646362304688
1696082911751563000,7.15856298828125,3.0465283393859863,-5.975790023803711,-2.18001127243042
1696082911761563100,7.168563232421875,-0.3583894968032837,-1.4947757720947266,-3.979214668273926
1696082911771563500,7.1785634765625,-4.370482444763184,2.71354341506958,-5.921093463897705
1696082911781563600,7.188563720703125,-7.617664813995361,5.496367454528809,-6.618474006652832
1696082911791563500,7.1985634765625,-8.761728286743164,5.541355609893799,-6.400218963623047
1696082911801563600,7.208563720703125,-8.429003715515137,4.230547904968262,-6.410627365112305
1696082911811563500,7.2185634765625,-7.570798873901367,2.6029820442199707,-5.965425491333008
1696082911821563600,7.228563720703125,-6.821051120758057,0.9355363845825195,-5.493839740753174
1696082911831563500,7.2385634765625,-6.403591156005859,-0.4542064666748047,-4.7721476554870605
1696082911841563100,7.248563232421875,-6.450861930847168,-1.3850793838500977,-3.6298937797546387
1696082911851563000,7.25856298828125,-6.7441205978393555,-1.728999137878418,-2.7572269439697266
1696082911861563000,7.26856298828125,-6.558208465576172,-1.6946096420288086,-2.4414303302764893
1696082911871563300,7.278563232421875,-5.011485576629639,-1.3731584548950195,-1.7422866821289062
1696082911881563400,7.2885634765625,-1.8628907203674316,-1.0778512954711914,-0.3750343918800354
1696082911891563300,7.298563232421875,1.6984258890151978,-0.6476993560791016,1.0030626058578491
1696082911901563400,7.3085634765625,4.916122913360596,-0.001857757568359375,1.8951878547668457
1696082911911563300,7.318563232421875,7.149277210235596,0.8622722625732422,2.16477108001709
1696082911921563400,7.3285634765625,7.06278133392334,1.5433778762817383,1.7211639881134033
1696082911931563300,7.338563232421875,5.258946418762207,1.7877025604248047,0.8025035262107849
1696082911941563400,7.3485634765625,2.915520429611206,1.785928726196289,-0.0669293999671936
1696082911951563300,7.358563232421875,1.0530134439468384,1.4332647323608398,-0.6809065937995911
1696082911961563400,7.3685634765625,-0.708319902420044,1.0565738677978516,-1.2327089309692383
1696082911971563300,7.378563232421875,-3.0421926975250244,0.8309392929077148,-1.5639228820800781
1696082911981563400,7.3885634765625,-4.706807613372803,0.5790243148803711,-1.5737042427062988
1696082911991563300,7.398563232421875,-4.525979042053223,0.8366470336914062,-1.40496826171875
1696082912001563400,7.4085634765625,-4.508262634277344,0.939946174621582,-0.6842446327209473
1696082912011563300,7.418563232421875,-3.613084554672241,0.7447242736816406,0.4670060873031616
1696082912021563400,7.4285634765625,-1.4816207885742188,0.09889888763427734,1.0520859956741333
1696082912031563300,7.438563232421875,1.3611531257629395,-0.5145998001098633,1.4359171390533447
1696082912041563400,7.4485634765625,3.855806589126587,-1.0248241424560547,2.0145981311798096
1696082912051563300,7.458563232421875,5.22646951675415,-1.1131811141967773,2.8793745040893555
1696082912061563400,7.4685634765625,5.225721836090088,-0.8832521438598633,3.5811374187469482
1696082912071562800,7.478562744140625,4.18080997467041,-0.5166482925415039,3.781773328781128
1696082912081562600,7.488562744140625,2.67799711227417,-0.2026996612548828,3.16036319732666
1696082912091562800,7.498562744140625,1.4552470445632935,-0.23536396026611328,1.6951349973678589
1696082912101562600,7.508562744140625,1.0241186618804932,-0.31190967559814453,0.3011361360549927
1696082912111562800,7.518562744140625,1.4741100072860718,-0.5089826583862305,-0.5498046278953552
1696082912121562600,7.528562744140625,2.6055402755737305,-0.7305021286010742,-0.8369477987289429
1696082912131562800,7.538562744140625,4.107085704803467,-0.9702930450439453,-0.8254604339599609
1696082912141562600,7.548562744140625,5.7237324714660645,-1.1946983337402344,-0.5131739377975464
1696082912151562800,7.558562744140625,6.649547576904297,-1.3380851745605469,0.08064764738082886
1696082912161562600,7.568562744140625,6.204320430755615,-1.2885427474975586,0.9890642166137695
1696082912171562200,7.578562255859375,6.279508590698242,-1.3140220642089844,1.076812744140625
1696082912181562400,7.588562255859375,2.5789356231689453,-0.8344488143920898,3.309644937515259
1696082912191562200,7.598562255859375,1.055190086364746,-0.8364534378051758,4.0632147789001465
1696082912201562400,7.608562255859375,0.28459787368774414,-0.8176975250244141,4.656836032867432
1696082912211562200,7.618562255859375,0.4366053342819214,-0.9393024444580078,5.300541877746582
1696082912221562400,7.628562255859375,1.3630406856536865,-1.2337045669555664,6.100996494293213
1696082912231562200,7.638562255859375,2.992438793182373,-1.4899988174438477,6.595859527587891
1696082912241562400,7.648562255859375,4.988898277282715,-1.7963972091674805,6.6234283447265625
1696082912251562200,7.658562255859375,6.524125576019287,-2.597601890563965,6.430023670196533
1696082912261562400,7.668562255859375,7.103628158569336,-3.591390609741211,6.257254600524902
1696082912271562200,7.678562255859375,7.106322765350342,-4.09455680847168,5.9324259757995605
1696082912281562400,7.688562255859375,6.526348114013672,-4.041994094848633,5.1730055809021
1696082912291562200,7.698562255859375,5.497077465057373,-3.5763673782348633,4.1219682693481445
1696082912301562400,7.708562255859375,4.703176498413086,-3.513925552368164,3.2285094261169434
1696082912311562200,7.718562255859375,4.501605033874512,-3.46475887298584,3.0998330116271973
1696082912321562400,7.728562255859375,0.7653384208679199,-4.296049118041992,2.273543119430542
1696082912331562200,7.738562255859375,-0.2606849670410156,-5.121009826660156,1.7427808046340942
1696082912341562400,7.748562255859375,-0.530322790145874,-6.175137519836426,0.36234050989151
1696082912351562200,7.758562255859375,-1.1616514921188354,-7.310702323913574,-1.5188909769058228
1696082912361562400,7.768562255859375,-2.923407554626465,-8.430326461791992,-4.086664199829102
1696082912371561700,7.778561767578125,-4.979127883911133,-9.141839027404785,-6.6759443283081055
1696082912381561900,7.788561767578125,-6.049259662628174,-9.084251403808594,-7.593088150024414
1696082912391561700,7.798561767578125,-6.629595756530762,-7.920655250549316,-7.469895362854004
1696082912401561900,7.808561767578125,-6.6065850257873535,-5.747448921203613,-6.132513523101807
1696082912411561700,7.818561767578125,-4.490969657897949,-3.719559669494629,-5.0073933601379395
1696082912421561900,7.828561767578125,0.12195539474487305,-2.157076835632324,-4.004362106323242
1696082912431561700,7.838561767578125,3.103330612182617,-0.9830789566040039,-2.4825515747070312
1696082912441561900,7.848561767578125,3.1390609741210938,-0.24515724182128906,-1.2132374048233032
1696082912451561700,7.858561767578125,1.2981343269348145,0.2643871307373047,-0.9532299041748047
1696082912461561900,7.868561767578125,-0.7987275123596191,0.818181037902832,-1.1700785160064697
1696082912471561700,7.878561767578125,-2.283676862716675,1.474940299987793,-1.7228060960769653
1696082912481561900,7.888561767578125,-3.3362932205200195,2.1686487197875977,-1.8073633909225464
1696082912491561700,7.898561767578125,-4.2317399978637695,2.960263729095459,-1.5928550958633423
1696082912501561900,7.908561767578125,-4.517927169799805,3.568660259246826,-1.7533155679702759
1696082912511561700,7.918561767578125,-4.24627685546875,4.022148609161377,-2.034052848815918
1696082912521561900,7.928561767578125,-3.695301055908203,4.163948059082031,-2.704744815826416
1696082912531561700,7.938561767578125,-3.5159549713134766,3.9969582557678223,-3.4534194469451904
1696082912541561900,7.948561767578125,-3.7046313285827637,3.5634522438049316,-4.040555477142334
1696082912551561700,7.958561767578125,-3.943201780319214,2.986103057861328,-4.425364971160889
1696082912561561900,7.968561767578125,-4.020747184753418,2.6067399978637695,-4.75246524810791
1696082912571561700,7.978561767578125,-4.1227216720581055,2.552729606628418,-4.832003116607666
1696082912581561900,7.988561767578125,-4.621994495391846,2.2801690101623535,-4.944684982299805
1696082912591561700,7.998561767578125,-4.931952476501465,2.321577548980713,-4.971770763397217
1696082912601561900,8.008561767578126,-5.046128273010254,2.5676779747009277,-4.980986595153809
1696082912611561700,8.018561767578126,-5.062989234924316,3.0001893043518066,-5.020895957946777
1696082912621561900,8.028561767578125,-5.1610918045043945,3.564572811126709,-5.221301078796387
1696082912631561700,8.038561767578125,-5.351385116577148,4.115632057189941,-5.585071086883545
1696082912641561900,8.048561767578125,-5.406590938568115,4.646530628204346,-5.988110542297363
1696082912651561700,8.058561767578125,-5.171093940734863,5.046661376953125,-6.225144386291504
1696082912661561900,8.068561767578124,-4.76174259185791,5.418245792388916,-6.363659858703613
1696082912671562200,8.078562255859374,-4.200710296630859,5.723634719848633,-6.352386474609375
1696082912681562400,8.088562255859374,-3.4981937408447266,5.711803436279297,-6.020363807678223
1696082912691562200,8.098562255859376,-2.3347434997558594,5.182019233703613,-4.921513557434082
1696082912701562400,8.108562255859376,-0.8807497024536133,4.358700275421143,-2.8378963470458984
1696082912711562200,8.118562255859375,0.782696008682251,2.9393515586853027,-0.3990449905395508
1696082912721562400,8.128562255859375,6.113831520080566,0.36890602111816406,2.368577241897583
1696082912731562000,8.13856201171875,13.485099792480469,-3.082390785217285,5.802960395812988
1696082912741561900,8.148561767578125,12.46275520324707,-6.603307723999023,8.474440574645996
1696082912751562000,8.15856201171875,9.702667236328125,-9.84701156616211,9.414067268371582
1696082912761561900,8.168561767578124,9.09089469909668,-11.870386123657227,9.24550724029541
1696082912771562000,8.17856201171875,9.375238418579102,-11.715591430664062,8.566418647766113
1696082912781561900,8.188561767578125,6.939912796020508,-9.526805877685547,5.8789262771606445
1696082912791562000,8.19856201171875,4.335932731628418,-5.980674743652344,1.9211616516113281
1696082912801561900,8.208561767578125,2.7502505779266357,-2.2303218841552734,-0.4907602071762085
1696082912811562000,8.21856201171875,2.428076982498169,0.6454763412475586,-1.7130752801895142
1696082912821561900,8.228561767578125,1.8741364479064941,0.35674381256103516,-3.538288116455078
1696082912831562000,8.23856201171875,1.1486806869506836,-1.9954586029052734,-5.859755516052246
1696082912841561900,8.248561767578124,1.1525614261627197,-3.9485912322998047,-6.885205268859863
1696082912851562000,8.25856201171875,-0.9940499067306519,-4.788743019104004,-4.888027191162109
1696082912861561900,8.268561767578126,-4.571564674377441,-4.896490097045898,-2.584876537322998
1696082912871562000,8.27856201171875,-4.735995292663574,-3.9859161376953125,-0.7594177722930908
1696082912881561900,8.288561767578125,-3.695397138595581,-1.6859512329101562,-1.5804791450500488
1696082912891562000,8.29856201171875,-3.5338211059570312,1.2538394927978516,-3.468520402908325
1696082912901561900,8.308561767578125,-3.797964572906494,3.9792914390563965,-4.796511650085449
1696082912911562000,8.31856201171875,-5.02858829498291,5.33908748626709,-5.295815467834473
1696082912921561900,8.328561767578124,-6.396167755126953,4.626364707946777,-6.049455165863037
1696082912931561500,8.3385615234375,-6.880741119384766,2.5086426734924316,-6.854504585266113
1696082912941561600,8.3485615234375,-7.4452056884765625,0.8360605239868164,-7.226225852966309
1696082912951561500,8.3585615234375,-7.734491348266602,-0.4142637252807617,-6.846950054168701
1696082912961561600,8.3685615234375,-7.8173112869262695,-1.5845184326171875,-6.060119152069092
1696082912971561500,8.3785615234375,-7.794336795806885,-2.233242988586426,-5.7682600021362305
1696082912981561600,8.3885615234375,-7.111151695251465,-2.1388673782348633,-4.534224510192871
1696082912991561500,8.3985615234375,-6.472750663757324,-1.755265235900879,-3.298905372619629
1696082913001561600,8.4085615234375,-5.906192779541016,-1.1208276748657227,-2.42983341217041
1696082913011561500,8.4185615234375,-4.981388092041016,-0.47802162170410156,-1.8468866348266602
1696082913021561600,8.4285615234375,-3.628810167312622,-0.04364204406738281,-1.1914862394332886
1696082913031562000,8.43856201171875,-1.5312211513519287,0.15396404266357422,-0.037495970726013184
1696082913041561900,8.448561767578125,1.3829545974731445,0.2035064697265625,1.4472126960754395
1696082913051562000,8.45856201171875,1.5716660022735596,0.2352466583251953,1.6181211471557617
1696082913061561900,8.468561767578125,4.951601505279541,0.4589042663574219,3.309694528579712
1696082913071562000,8.47856201171875,4.667452812194824,0.6282930374145508,3.216662883758545
1696082913081561900,8.488561767578124,3.5021533966064453,0.7613487243652344,2.543215274810791
1696082913091562000,8.49856201171875,1.862371563911438,0.9135818481445312,1.5774977207183838
1696082913101561900,8.508561767578126,0.32421356439590454,1.1880922317504883,0.5396847724914551
1696082913111562000,8.51856201171875,-0.7722856998443604,1.4736051559448242,-0.7040835618972778
1696082913121561900,8.528561767578125,-1.651853322982788,1.5908823013305664,-1.7883117198944092
1696082913131562000,8.53856201171875,-2.1760175228118896,1.5113592147827148,-2.298738718032837
1696082913141561900,8.548561767578125,-2.409595251083374,1.203948974609375,-2.6583049297332764
1696082913151562000,8.55856201171875,-2.4397976398468018,1.1952075958251953,-2.72646164894104
1696082913161561900,8.568561767578124,-1.9309800863265991,1.1088790893554688,-2.0446906089782715
1696082913171562000,8.57856201171875,-0.8335742950439453,0.8460721969604492,-1.661443829536438
1696082913181561900,8.588561767578126,0.8843924403190613,0.3388175964355469,-1.695131778717041
1696082913191562000,8.59856201171875,2.958247184753418,-0.37051963806152344,-1.625726342201233
1696082913201561900,8.608561767578125,4.014049530029297,-0.7672767639160156,-0.8726210594177246
1696082913211562000,8.61856201171875,3.7895760536193848,-0.6013669967651367,0.3108431100845337
1696082913221561900,8.628561767578125,2.9255685806274414,-0.05538177490234375,1.5923148393630981
1696082913231562200,8.638562255859375,1.868380069732666,0.534398078918457,2.297895669937134
1696082913241562000,8.64856201171875,0.923027753829956,0.7377958297729492,2.3343687057495117
1696082913251562200,8.658562255859374,0.4663020372390747,0.5425958633422852,1.8572555780410767
1696082913261562000,8.66856201171875,0.9628139138221741,-0.07912254333496094,1.088433861732483
1696082913271562200,8.678562255859376,2.0737500190734863,-0.7920083999633789,0.3585865795612335
1696082913281562000,8.68856201171875,3.5688323974609375,-1.422983169555664,0.21389389038085938
1696082913291562200,8.698562255859375,4.749199867248535,-1.9837799072265625,0.5837831497192383
1696082913301562000,8.70856201171875,5.117134094238281,-2.1252403259277344,1.1358181238174438
1696082913311562200,8.718562255859375,4.742462158203125,-1.921274185180664,1.7533680200576782
1696082913321562000,8.72856201171875,3.9506278038024902,-1.5803985595703125,2.40620493888855
1696082913331562200,8.738562255859375,3.2916128635406494,-1.249251365661621,2.975003719329834
1696082913341562400,8.748562255859374,2.8789801597595215,-1.0692138671875,3.605004072189331
1696082913351562200,8.758562255859376,2.4743525981903076,-1.2062911987304688,4.353177547454834
1696082913361562400,8.768562255859376,1.9815700054168701,-1.4893560409545898,5.261162757873535
1696082913371562200,8.778562255859375,1.5528900623321533,-1.6745567321777344,6.137012004852295
1696082913381562000,8.78856201171875,1.7506539821624756,-1.5968456268310547,6.811767578125
1696082913391562200,8.798562255859375,3.1428754329681396,-1.2142906188964844,7.199207305908203
1696082913401562000,8.80856201171875,5.605719089508057,-0.7906761169433594,6.752001762390137
1696082913411562200,8.818562255859375,8.168465614318848,-0.8985738754272461,5.802226543426514
1696082913421562000,8.82856201171875,9.444304466247559,-1.9161920547485352,4.874373435974121
1696082913431562200,8.838562255859374,9.528820991516113,-3.0533599853515625,3.71189022064209
1696082913441562000,8.84856201171875,9.446303367614746,-3.698305130004883,2.409374475479126
1696082913451562200,8.858562255859376,8.967611312866211,-3.5892772674560547,1.440248727798462
1696082913461562000,8.86856201171875,7.088301658630371,-2.7341108322143555,1.1188477277755737
1696082913471562200,8.878562255859375,2.4748518466949463,-1.9384174346923828,1.8635969161987305
1696082913481562000,8.88856201171875,-1.5941555500030518,-2.4318161010742188,3.7704782485961914
1696082913491562200,8.898562255859375,-3.294118642807007,-4.422158241271973,5.47207498550415
1696082913501562000,8.90856201171875,-2.940497398376465,-7.005603790283203,5.506906509399414
1696082913511562200,8.918562255859374,-3.117480993270874,-9.157020568847656,3.531184434890747
1696082913521562000,8.92856201171875,-3.8675124645233154,-10.888904571533203,-0.3078307807445526
1696082913531562200,8.938562255859376,-4.977648735046387,-12.368087768554688,-4.269508361816406
1696082913541562000,8.94856201171875,-6.3799967765808105,-12.643168449401855,-7.038564205169678
1696082913551562200,8.958562255859375,-7.100129127502441,-11.738798141479492,-8.020487785339355
1696082913561562000,8.96856201171875,-7.887157440185547,-9.120500564575195,-7.567228317260742
1696082913571562200,8.978562255859375,-5.928040981292725,-5.55235481262207,-6.439807891845703
1696082913581562400,8.988562255859375,-1.9236130714416504,-2.7409915924072266,-4.889267444610596
1696082913591562200,8.998562255859374,3.086428165435791,-0.9885921478271484,-3.1149017810821533
1696082913601562400,9.008562255859376,4.32358980178833,-0.008653640747070312,-2.867976665496826
1696082913611562200,9.018562255859376,2.394989013671875,0.4339485168457031,-2.5859174728393555
1696082913621562400,9.028562255859375,-0.3010793924331665,0.4714212417602539,-3.1011528968811035
1696082913631562200,9.038562255859375,-2.3531551361083984,0.6398229598999023,-3.6716437339782715
1696082913641562000,9.04856201171875,-3.3863685131073,1.1740102767944336,-3.9176554679870605
1696082913651562200,9.058562255859375,-3.537688732147217,2.0812387466430664,-3.63748836517334
1696082913661562000,9.06856201171875,-3.4466705322265625,3.2261314392089844,-3.458838939666748
1696082913671562200,9.078562255859374,-3.765193462371826,4.257305145263672,-3.235745429992676
1696082913681562000,9.08856201171875,-3.830451011657715,5.082523345947266,-3.0592286586761475
1696082913691562200,9.098562255859376,-3.849837064743042,5.2285943031311035,-3.260115146636963
1696082913701562000,9.10856201171875,-3.8089494705200195,5.075821876525879,-3.910543918609619
1696082913711562200,9.118562255859375,-3.984745502471924,4.959926128387451,-4.612168312072754
1696082913721562000,9.12856201171875,-4.357275485992432,4.753656387329102,-5.091565132141113
1696082913731562200,9.138562255859375,-4.622528076171875,4.374248504638672,-5.193212032318115
1696082913741562000,9.14856201171875,-4.558438301086426,3.966660976409912,-5.110446929931641
1696082913751562200,9.158562255859374,-4.458063125610352,3.645209789276123,-5.029227256774902
1696082913761562000,9.16856201171875,-4.624321460723877,3.5275192260742188,-5.038930892944336
1696082913771562200,9.178562255859376,-4.837632179260254,3.6293625831604004,-5.335938930511475
1696082913781562400,9.188562255859376,-5.073800086975098,3.962655544281006,-5.814852714538574
1696082913791562200,9.198562255859375,-5.315682888031006,4.424167633056641,-6.36598014831543
1696082913801562400,9.208562255859375,-5.366793632507324,4.913963794708252,-6.902646541595459
1696082913811562200,9.218562255859375,-5.1241350173950195,5.42582368850708,-7.23970365524292
1696082913821562400,9.228562255859375,-4.711292266845703,5.922904014587402,-7.337168216705322
1696082913831562200,9.238562255859375,-4.270326614379883,6.214868545532227,-7.079137325286865
1696082913841562400,9.248562255859374,-3.599266290664673,5.912341117858887,-6.000917434692383
1696082913851562200,9.258562255859376,-2.136077404022217,4.9917731285095215,-3.849268674850464
1696082913861562400,9.268562255859376,-0.07179999351501465,3.6158571243286133,-0.7571651935577393
1696082913871562200,9.278562255859375,0.10801124572753906,3.70654296875,-0.6163570880889893
1696082913881562400,9.288562255859375,11.624652862548828,-2.4637842178344727,6.582780361175537
1696082913891561500,9.2985615234375,12.580016136169434,-6.951043128967285,10.943313598632812
1696082913901561600,9.3085615234375,9.547277450561523,-11.26324462890625,12.830222129821777
1696082913911561500,9.3185615234375,9.130300521850586,-12.90751838684082,11.13363265991211
1696082913921561600,9.3285615234375,9.106882095336914,-11.30709457397461,9.045333862304688
1696082913931561500,9.3385615234375,7.279001235961914,-8.237587928771973,8.579119682312012
1696082913941561600,9.3485615234375,4.860021591186523,-5.0697021484375,5.77459192276001
1696082913951561500,9.3585615234375,2.7579591274261475,-1.9259252548217773,2.621519088745117
1696082913961561600,9.3685615234375,1.6188782453536987,1.305002212524414,0.3674006462097168
1696082913971561500,9.3785615234375,1.5667225122451782,4.305352687835693,-1.513094186782837
1696082913981561600,9.3885615234375,2.5132973194122314,5.425164222717285,-3.3909733295440674
1696082913991561500,9.3985615234375,0.13873755931854248,3.008913516998291,-4.280255317687988
1696082914001561600,9.4085615234375,-1.6955077648162842,-1.331862449645996,-4.906152725219727
1696082914011561500,9.4185615234375,-4.244224548339844,-5.06546688079834,-5.3336687088012695
1696082914021561600,9.4285615234375,-5.778885841369629,-7.299287796020508,-4.79268217086792
1696082914031561500,9.4385615234375,-5.041829586029053,-7.9401044845581055,-2.902554988861084
1696082914041561600,9.4485615234375,-1.4101320505142212,-7.229156494140625,-1.847386360168457
1696082914051561500,9.4585615234375,-0.9256769418716431,-6.034891128540039,-2.828094720840454
1696082914061561600,9.4685615234375,-2.3151869773864746,-3.30718994140625,-4.501092910766602
1696082914071561500,9.4785615234375,-3.8346729278564453,-0.6599369049072266,-5.693220615386963
1696082914081561600,9.4885615234375,-5.230490207672119,1.7686939239501953,-6.142937660217285
1696082914091561500,9.4985615234375,-6.634762287139893,3.5395193099975586,-6.450268268585205
1696082914101561600,9.5085615234375,-7.289058685302734,3.8244919776916504,-6.843766212463379
1696082914111561500,9.5185615234375,-7.591151237487793,2.9922213554382324,-7.16826057434082
1696082914121561600,9.5285615234375,-7.571989059448242,1.7879066467285156,-6.957714080810547
1696082914131561500,9.5385615234375,-7.642639636993408,0.576634407043457,-6.269649505615234
1696082914141561600,9.5485615234375,-7.439957141876221,-0.647313117980957,-5.6209492683410645
1696082914151561500,9.5585615234375,-7.066176414489746,-1.2265729904174805,-4.736850261688232
1696082914161561600,9.5685615234375,-6.578373908996582,-1.5432748794555664,-3.637396812438965
1696082914171561500,9.5785615234375,-5.929709434509277,-1.333944320678711,-2.6515774726867676
1696082914181561600,9.5885615234375,-4.164720058441162,-0.8372249603271484,-1.733207106590271
1696082914191562200,9.598562255859376,-3.9670097827911377,-0.8026800155639648,-1.6053802967071533
1696082914201562000,9.60856201171875,-1.5965006351470947,-0.18489646911621094,-0.7225200533866882
1696082914211562200,9.618562255859375,2.6643893718719482,0.9238014221191406,0.981407880783081
1696082914221562000,9.62856201171875,2.9067516326904297,0.9392366409301758,1.1012160778045654
1696082914231562200,9.638562255859375,4.59794807434082,1.2629060745239258,1.8227297067642212
1696082914241562000,9.64856201171875,4.538740158081055,1.415968894958496,1.7795745134353638
1696082914251562200,9.658562255859374,3.400327444076538,1.1499509811401367,1.0840094089508057
1696082914261562000,9.66856201171875,1.858950138092041,1.0533065795898438,0.2675909996032715
1696082914271562200,9.678562255859376,-0.014531850814819336,1.033308982849121,-0.5378545522689819
1696082914281562000,9.68856201171875,-0.8937340974807739,0.8646097183227539,-1.3568716049194336
1696082914291562200,9.698562255859375,-0.7709803581237793,0.666132926940918,-2.027688980102539
1696082914301562000,9.70856201171875,0.06381911039352417,0.4949817657470703,-1.7083648443222046
1696082914311562200,9.718562255859375,1.4248061180114746,0.04451274871826172,-0.8579226732254028
1696082914321562000,9.72856201171875,2.2030599117279053,-0.5797147750854492,-0.04047288000583649
1696082914331562200,9.738562255859375,2.1860194206237793,-1.2216501235961914,0.8042882084846497
1696082914341562400,9.748562255859374,1.4469108581542969,-1.3567800521850586,1.7704503536224365
1696082914351562200,9.758562255859376,0.6683754324913025,-0.7290019989013672,2.2137441635131836
1696082914361562400,9.768562255859376,0.10522687435150146,0.28356075286865234,2.1643810272216797
1696082914371562200,9.778562255859375,-0.18440604209899902,1.0950117111206055,1.851688027381897
1696082914381562000,9.78856201171875,-0.07060098648071289,1.540318489074707,1.397026777267456
1696082914391562200,9.798562255859375,0.3901861906051636,1.3001384735107422,0.8472928404808044
1696082914401562000,9.80856201171875,1.1584620475769043,0.38982677459716797,0.19848760962486267
1696082914411562200,9.818562255859375,1.8678460121154785,-0.5905542373657227,-0.27398309111595154
1696082914421562000,9.82856201171875,2.2005677223205566,-1.3008842468261719,-0.3650524616241455
1696082914431562200,9.838562255859374,2.431121349334717,-1.7647790908813477,-0.12343865633010864
1696082914441562000,9.84856201171875,3.2136332988739014,-1.889185905456543,0.3342656195163727
1696082914451562200,9.858562255859376,4.344484806060791,-1.3704957962036133,0.8566209673881531
1696082914461562000,9.86856201171875,4.981675148010254,-0.6721563339233398,1.381985068321228
1696082914471562200,9.878562255859375,4.793084621429443,-0.2583503723144531,1.9477450847625732
1696082914481562000,9.88856201171875,3.9931979179382324,-0.042327880859375,2.5891220569610596
1696082914491562200,9.898562255859375,3.0811595916748047,0.145263671875,3.172952651977539
1696082914501562000,9.90856201171875,2.4854209423065186,0.1436901092529297,3.688967227935791
1696082914511562200,9.918562255859374,2.2714290618896484,-0.04643821716308594,4.066963195800781
1696082914521562000,9.92856201171875,2.2637972831726074,-0.42910099029541016,4.333315849304199
1696082914531562200,9.938562255859376,2.200434684753418,-0.8151798248291016,4.496469497680664
1696082914541562000,9.94856201171875,2.2950148582458496,-0.9151573181152344,4.517768859863281
1696082914551562200,9.958562255859375,2.284949779510498,-0.9204978942871094,4.5643310546875
1696082914561562000,9.96856201171875,4.224650859832764,-0.3191823959350586,3.9197025299072266
1696082914571562200,9.978562255859375,5.7445149421691895,-0.14712047576904297,3.482907772064209
1696082914581562400,9.988562255859375,6.296883583068848,-1.117802619934082,3.6557016372680664
1696082914591562200,9.998562255859374,5.587493419647217,-3.118781089782715,4.235151290893555
1696082914601562400,10.008562255859376,4.941607475280762,-4.901775360107422,4.502972602844238
1696082914611562200,10.018562255859376,4.59661865234375,-5.641719818115234,4.2374701499938965
1696082914621562400,10.028562255859375,4.580595016479492,-5.270270347595215,4.098405838012695
1696082914631562200,10.038562255859375,4.196497440338135,-4.931163787841797,4.41408109664917
1696082914641562000,10.04856201171875,3.0414137840270996,-4.534332275390625,4.112206935882568
1696082914651562200,10.058562255859375,1.3992592096328735,-4.467228889465332,3.4433271884918213
1696082914661562000,10.06856201171875,0.734534740447998,-4.907778739929199,2.261080503463745
1696082914671562200,10.078562255859374,-0.0076177120208740234,-5.570165634155273,0.6784169673919678
1696082914681562000,10.08856201171875,-0.819658100605011,-6.783334732055664,-1.4382438659667969
1696082914691562200,10.098562255859376,-2.122117519378662,-7.938851356506348,-3.4086616039276123
1696082914701562000,10.10856201171875,-3.8219354152679443,-8.539083480834961,-5.198228359222412
1696082914711562200,10.118562255859375,-5.009487152099609,-8.507736206054688,-6.179057598114014
1696082914721562000,10.12856201171875,-5.541528224945068,-7.547423362731934,-6.388829708099365
1696082914731562200,10.138562255859375,-5.120413780212402,-6.014918327331543,-6.368237018585205
1696082914741562000,10.14856201171875,-3.227001905441284,-4.371774673461914,-5.632273197174072
1696082914751562200,10.158562255859374,-3.3464889526367188,-4.396140098571777,-5.780001640319824
1696082914761562000,10.16856201171875,0.26854848861694336,-2.3119993209838867,-2.8391659259796143
1696082914771562200,10.178562255859376,0.315696120262146,-1.5429496765136719,-1.744628667831421
1696082914781562000,10.18856201171875,0.038762569427490234,-0.7557888031005859,-1.5095354318618774
1696082914791562200,10.198562255859375,-0.3387753963470459,0.1724691390991211,-1.8877402544021606
1696082914801562000,10.20856201171875,-1.8010979890823364,0.9419765472412109,-2.1554598808288574
1696082914811562200,10.218562255859375,-2.953403949737549,1.8697333335876465,-1.87842857837677
1696082914821562000,10.22856201171875,-3.085517644882202,1.8252711296081543,-1.9937390089035034
1696082914831562200,10.238562255859375,-3.554655075073242,2.5526270866394043,-2.0137481689453125
1696082914841562400,10.248562255859374,-3.686302423477173,3.62846040725708,-2.215224027633667
1696082914851562200,10.258562255859376,-3.9977269172668457,4.051663875579834,-2.715972423553467
1696082914861562400,10.268562255859376,-4.103193759918213,4.121037006378174,-3.1934094429016113
1696082914871562200,10.278562255859375,-4.169355869293213,3.9135751724243164,-3.644975185394287
1696082914881562000,10.28856201171875,-4.414808750152588,3.597351551055908,-4.011284351348877
1696082914891562200,10.298562255859375,-4.440695762634277,3.350950241088867,-4.282345771789551
1696082914901562000,10.30856201171875,-4.347088813781738,3.199428081512451,-4.523181915283203
1696082914911562200,10.318562255859375,-4.360569477081299,3.1101808547973633,-4.689594268798828
1696082914921562000,10.32856201171875,-4.528717517852783,3.135018825531006,-4.735038757324219
1696082914931562200,10.338562255859374,-4.8880205154418945,3.2271904945373535,-4.845852851867676
1696082914941562000,10.34856201171875,-5.305304527282715,3.375767230987549,-5.084188461303711
1696082914951562200,10.358562255859376,-5.50309944152832,3.5819993019104004,-5.445074558258057
1696082914961562000,10.36856201171875,-5.4933671951293945,3.8827714920043945,-5.8166303634643555
1696082914971562200,10.378562255859375,-5.286836624145508,4.380016326904297,-6.046915531158447
1696082914981562000,10.38856201171875,-4.876981735229492,4.963709831237793,-6.052225112915039
1696082914991562200,10.398562255859375,-4.284563064575195,5.345046520233154,-5.948816299438477
1696082915001562000,10.40856201171875,-3.424161195755005,5.620706558227539,-5.904595375061035
1696082915011562200,10.418562255859374,-2.3374409675598145,5.485630989074707,-5.299711227416992
1696082915021562000,10.42856201171875,-1.3976566791534424,4.873345375061035,-3.914478063583374
1696082915031562200,10.438562255859376,-0.16170835494995117,4.063652992248535,-1.2859060764312744
1696082915041562000,10.44856201171875,3.0347816944122314,2.55283784866333,1.7630624771118164
1696082915051562200,10.458562255859375,8.003255844116211,-0.10419273376464844,5.568141937255859
1696082915061562000,10.46856201171875,7.278484344482422,-2.788970947265625,9.540529251098633
1696082915071562200,10.478562255859375,6.227652072906494,-5.588443756103516,10.243790626525879
1696082915081562400,10.488562255859375,8.51551628112793,-7.527247428894043,9.390597343444824
1696082915091562200,10.498562255859374,11.711562156677246,-8.72488784790039,8.498027801513672
1696082915101562400,10.508562255859376,12.150798797607422,-9.799312591552734,6.962509632110596
1696082915111562200,10.518562255859376,9.124126434326172,-9.504865646362305,3.9368174076080322
1696082915121562400,10.528562255859375,5.2717390060424805,-6.374850273132324,0.45618295669555664
1696082915131562200,10.538562255859375,2.631232976913452,-1.6403837203979492,-1.930165410041809
1696082915141562000,10.54856201171875,2.1595702171325684,2.596945285797119,-2.529280662536621
1696082915151562200,10.558562255859375,3.35947847366333,5.33219051361084,-3.5651302337646484
1696082915161562000,10.56856201171875,2.8699898719787598,4.444715976715088,-4.930692672729492
1696082915171562200,10.578562255859374,1.943730354309082,0.5422182083129883,-6.843175888061523
1696082915181562000,10.58856201171875,-0.6692979335784912,-3.98073673248291,-8.384382247924805
1696082915191562200,10.598562255859376,-6.291085243225098,-6.747345924377441,-8.351536750793457
1696082915201562000,10.60856201171875,-9.330410957336426,-8.155506134033203,-7.614449977874756
1696082915211562200,10.618562255859375,-7.139124870300293,-7.292824745178223,-5.607583999633789
1696082915221562000,10.62856201171875,-4.318985462188721,-5.119510650634766,-3.160700559616089
1696082915231562200,10.638562255859375,-2.2062017917633057,-2.814687728881836,-1.738746166229248
1696082915241562000,10.64856201171875,-1.8773027658462524,0.2744731903076172,-2.161731243133545
1696082915251562200,10.658562255859374,-3.4408369064331055,2.27421236038208,-3.040243148803711
1696082915261562000,10.66856201171875,-6.094573497772217,3.3950881958007812,-3.8535423278808594
1696082915271562200,10.678562255859376,-8.000231742858887,3.2088584899902344,-4.583296775817871
1696082915281562000,10.68856201171875,-9.06584358215332,1.94907808303833,-5.19420051574707
1696082915291562200,10.698562255859375,-9.270861625671387,0.4362678527832031,-5.583459854125977
1696082915301562000,10.70856201171875,-8.833303451538086,-1.0959243774414062,-5.689072608947754
1696082915311562200,10.718562255859375,-7.595553874969482,-2.250638008117676,-5.080410003662109
1696082915321562000,10.72856201171875,-6.825536251068115,-2.6812992095947266,-3.840569496154785
1696082915331562200,10.738562255859375,-6.132606029510498,-2.4688634872436523,-2.5394742488861084
1696082915341562400,10.748562255859374,-4.822074890136719,-1.7450923919677734,-1.4964501857757568
1696082915351562200,10.758562255859376,-3.1094422340393066,-0.7519569396972656,-0.6426606774330139
1696082915361562400,10.768562255859376,-1.3411684036254883,0.1795806884765625,0.09956097602844238
1696082915371562200,10.778562255859375,0.5973599553108215,0.9158077239990234,0.871576726436615
1696082915381562000,10.78856201171875,2.4963667392730713,1.3804445266723633,1.4507172107696533
1696082915391562200,10.798562255859375,3.9484448432922363,1.5674934387207031,1.8575167655944824
1696082915401562000,10.80856201171875,4.446623802185059,1.6038436889648438,1.9976835250854492
1696082915411562200,10.818562255859375,3.9985673427581787,1.480790138244629,1.6976993083953857
1696082915421562000,10.82856201171875,2.8192896842956543,1.3820524215698242,1.1582176685333252
1696082915431562200,10.838562255859374,1.4293370246887207,1.2855844497680664,0.30945634841918945
1696082915441562000,10.84856201171875,0.19429798424243927,1.211899757385254,-0.6925405859947205
1696082915451562200,10.858562255859376,-0.9518340826034546,1.113785743713379,-1.6658048629760742
1696082915461562000,10.86856201171875,-1.8977816104888916,1.1040363311767578,-2.1574885845184326
1696082915471562200,10.878562255859375,-2.433579206466675,1.424586296081543,-2.3212332725524902
1696082915481562000,10.88856201171875,-2.3784289360046387,1.4885644912719727,-1.983658790588379
1696082915491562200,10.898562255859375,-2.004338264465332,1.0442008972167969,-1.4820795059204102
1696082915501562000,10.90856201171875,-0.7687947750091553,0.2607707977294922,-1.1572967767715454
1696082915511562200,10.918562255859374,0.9436197280883789,-0.5322322845458984,-0.6760534048080444
1696082915521562000,10.92856201171875,2.6063404083251953,-1.0553884506225586,-0.07477335631847382
1696082915531562200,10.938562255859376,3.3660504817962646,-1.1581897735595703,0.7361941337585449
1696082915541562000,10.94856201171875,2.8534598350524902,-0.8927268981933594,1.757813572883606
1696082915551562200,10.958562255859375,1.9687285423278809,-0.4467296600341797,2.4500746726989746
1696082915561562000,10.96856201171875,1.273010492324829,-0.14681529998779297,2.672682285308838
1696082915571562200,10.978562255859375,0.9162847995758057,-0.1142721176147461,2.421851634979248
1696082915581562400,10.988562255859375,0.9155261516571045,-0.28936100006103516,1.9409581422805786
1696082915591562200,10.998562255859374,1.7280645370483398,-0.4698343276977539,1.3131835460662842
1696082915601562400,11.008562255859376,3.435314655303955,-0.7085275650024414,0.7705516815185547
1696082915611562200,11.018562255859376,5.375982761383057,-0.9484472274780273,0.7281813621520996
1696082915621562400,11.028562255859375,6.650822162628174,-1.1281328201293945,1.1330368518829346
1696082915631562200,11.038562255859375,6.544434547424316,-1.1303644180297852,1.8718767166137695
1696082915641562000,11.04856201171875,5.123654365539551,-1.0521268844604492,2.7328085899353027
1696082915651562200,11.058562255859375,3.1141834259033203,-0.8925704956054688,3.319730043411255
1696082915661562000,11.06856201171875,1.3637441396713257,-0.8387575149536133,3.658764362335205
1696082915671562200,11.078562255859374,0.34053099155426025,-1.0179319381713867,4.1017961502075195
1696082915681562000,11.08856201171875,0.1143273115158081,-1.3826408386230469,4.8170342445373535
1696082915691562200,11.098562255859376,0.560958743095398,-1.7926301956176758,5.5120625495910645
1696082915701562000,11.10856201171875,1.4527406692504883,-2.130091667175293,6.172496795654297
1696082915711562200,11.118562255859375,2.7752392292022705,-2.074594497680664,6.420600891113281
1696082915721562000,11.12856201171875,4.499276638031006,-1.6825428009033203,5.981163501739502
1696082915731562200,11.138562255859375,6.257311820983887,-1.267380714416504,5.068216800689697
1696082915741562000,11.14856201171875,7.2945966720581055,-1.345534324645996,4.381157398223877
1696082915751562200,11.158562255859374,6.8516845703125,-2.219900131225586,4.00585412979126
1696082915761562000,11.16856201171875,5.5663161277771,-2.8958139419555664,3.3774476051330566
1696082915771562200,11.178562255859376,4.535193920135498,-2.7914533615112305,2.6082730293273926
1696082915781562000,11.18856201171875,3.9923412799835205,-2.1484737396240234,2.3403279781341553
1696082915791562200,11.198562255859375,4.007030487060547,-2.020782470703125,3.079953670501709
1696082915801562000,11.20856201171875,3.1302237510681152,-2.706892967224121,3.8496017456054688
1696082915811562200,11.218562255859375,1.5132603645324707,-4.015885353088379,4.292762756347656
1696082915821562000,11.22856201171875,0.30851519107818604,-5.516705513000488,3.4653799533843994
1696082915831562200,11.238562255859375,-0.24217945337295532,-6.273486137390137,1.1834228038787842
1696082915841562400,11.248562255859374,-0.3508446514606476,-7.00779914855957,-1.5280263423919678
1696082915851562200,11.258562255859376,-0.6235121488571167,-6.985262870788574,-1.7970319986343384
1696082915861562400,11.268562255859376,-2.6971206665039062,-8.52428150177002,-5.781545162200928
1696082915871562200,11.278562255859375,-3.9790358543395996,-8.718884468078613,-7.545914173126221
1696082915881562000,11.28856201171875,-4.708986282348633,-8.448189735412598,-8.401710510253906
1696082915891562200,11.298562255859375,-5.067110538482666,-7.102020263671875,-8.394712448120117
1696082915901562000,11.30856201171875,-3.9869093894958496,-5.089646339416504,-7.829718589782715
1696082915911562200,11.318562255859375,-1.5790987014770508,-3.263495445251465,-6.9795613288879395
1696082915921562000,11.32856201171875,0.5076990127563477,-1.8352766036987305,-5.8518900871276855
1696082915931562200,11.338562255859374,1.0772379636764526,-0.8492708206176758,-4.986395835876465
1696082915941562000,11.34856201171875,-0.31098008155822754,-0.1643810272216797,-4.071166038513184
1696082915951562200,11.358562255859376,-3.543215274810791,0.3210277557373047,-3.136956214904785
1696082915961562000,11.36856201171875,-4.504519462585449,0.7543191909790039,-2.214596748352051
1696082915971562200,11.378562255859375,-3.650033473968506,1.6105809211730957,-1.5961899757385254
1696082915981562000,11.38856201171875,-2.9316484928131104,2.5554513931274414,-0.8427309989929199
1696082915991562200,11.398562255859375,-1.6894892454147339,3.429008960723877,-0.2551063299179077
1696082916001562000,11.40856201171875,-1.4885703325271606,4.075510025024414,-0.1819394826889038
1696082916011562200,11.418562255859374,-2.292897939682007,4.333486080169678,-0.5613425970077515
1696082916021562000,11.42856201171875,-3.3482532501220703,4.207515716552734,-0.6521214246749878
1696082916031562200,11.438562255859376,-4.163618564605713,3.7793374061584473,-0.7697654962539673
1696082916041562000,11.44856201171875,-4.179329872131348,3.089926242828369,-1.5951998233795166
1696082916051562200,11.458562255859375,-3.9689645767211914,2.6406311988830566,-2.942380905151367
1696082916061562000,11.46856201171875,-4.026005744934082,2.4291348457336426,-3.9738359451293945
1696082916071562200,11.478562255859375,-4.3860650062561035,2.2790136337280273,-4.547033309936523
1696082916081562000,11.48856201171875,-4.748169898986816,2.1416683197021484,-4.872173309326172
1696082916091562200,11.498562255859374,-4.757791042327881,2.1671838760375977,-5.278023719787598
1696082916101562000,11.50856201171875,-4.7115325927734375,2.4589147567749023,-5.614082336425781
1696082916111562200,11.518562255859376,-5.04317569732666,2.8825864791870117,-5.764388084411621
1696082916121562000,11.52856201171875,-5.345447540283203,3.3569493293762207,-5.79423713684082
1696082916131562200,11.538562255859375,-5.437038898468018,3.9607129096984863,-5.816000938415527
1696082916141562000,11.54856201171875,-5.158646583557129,4.61408805847168,-5.868760108947754
1696082916151562200,11.558562255859375,-4.710390090942383,5.228031158447266,-5.923213958740234
1696082916161562000,11.56856201171875,-4.146171569824219,5.695695877075195,-5.977869033813477
1696082916171562200,11.578562255859374,-3.4503040313720703,5.838291645050049,-5.767463684082031
1696082916181562000,11.58856201171875,-2.568510055541992,5.546131610870361,-5.117886543273926
1696082916191562200,11.598562255859376,-1.6111335754394531,4.754105567932129,-3.589470624923706
1696082916201562000,11.60856201171875,0.05033087730407715,3.7810354232788086,-1.1707185506820679
1696082916211562200,11.618562255859375,3.0589425563812256,2.1973824501037598,1.5344266891479492
1696082916221562000,11.62856201171875,7.804892063140869,-0.3049945831298828,4.58931303024292
1696082916231562200,11.638562255859375,10.394895553588867,-3.4873485565185547,8.057289123535156
1696082916241562000,11.64856201171875,9.770532608032227,-6.894712448120117,10.448020935058594
1696082916251562200,11.658562255859374,9.074350357055664,-9.474167823791504,11.377915382385254
1696082916261562000,11.66856201171875,8.200939178466797,-9.9065523147583,9.833172798156738
1696082916271562200,11.678562255859376,8.290852546691895,-9.89361572265625,9.79394245147705
1696082916281562000,11.68856201171875,4.77419376373291,-7.167949676513672,5.019131660461426
1696082916291562200,11.698562255859375,3.4774787425994873,-4.514925003051758,2.164344310760498
1696082916301562000,11.70856201171875,2.378451108932495,-1.1356496810913086,0.25721025466918945
1696082916311562200,11.718562255859375,1.834099292755127,2.498197555541992,-1.0681957006454468
1696082916321562000,11.72856201171875,1.5912096500396729,5.620896339416504,-2.228264331817627
1696082916331562200,11.738562255859375,1.618561029434204,7.153170585632324,-3.3606371879577637
1696082916341562000,11.74856201171875,0.2092742919921875,5.282926082611084,-4.364901542663574
1696082916351562200,11.758562255859376,-1.8109503984451294,1.1874628067016602,-5.264439582824707
1696082916361562000,11.76856201171875,-1.789085030555725,1.1969757080078125,-5.246013641357422
1696082916371562200,11.778562255859375,-7.085324764251709,-7.051638603210449,-5.4934587478637695
1696082916381562000,11.78856201171875,-6.909096717834473,-10.016217231750488,-4.282873153686523
1696082916391562200,11.798562255859375,-1.7900748252868652,-11.674520492553711,-2.409935235977173
1696082916401562000,11.80856201171875,4.049666404724121,-11.262551307678223,-1.6245272159576416
1696082916411562200,11.818562255859375,4.27400016784668,-6.209250450134277,-3.029365062713623
1696082916421562000,11.82856201171875,0.2756977081298828,-0.8213882446289062,-5.251090049743652
1696082916431562200,11.838562255859374,-3.4100470542907715,3.015322208404541,-6.769183158874512
1696082916441562000,11.84856201171875,-6.403687953948975,5.6571044921875,-8.076971054077148
1696082916451562200,11.858562255859376,-8.61571216583252,5.856423377990723,-8.90943717956543
1696082916461562000,11.86856201171875,-9.221275329589844,4.568883895874023,-8.912822723388672
1696082916471562200,11.878562255859375,-8.922739028930664,2.66451358795166,-7.478619575500488
1696082916481562000,11.88856201171875,-8.80915641784668,0.5393810272216797,-6.755560874938965
1696082916491562200,11.898562255859375,-8.791258811950684,-1.2515182495117188,-6.981853008270264
1696082916501562000,11.90856201171875,-8.237215995788574,-2.2424468994140625,-5.659846782684326
1696082916511562200,11.918562255859374,-7.306661605834961,-2.623493194580078,-4.552356719970703
1696082916521562000,11.92856201171875,-6.374872207641602,-2.2539281845092773,-3.6079201698303223
1696082916531562200,11.938562255859376,-5.172083854675293,-1.3547401428222656,-2.870291233062744
1696082916541562000,11.94856201171875,-3.1518235206604004,-0.6474170684814453,-1.9495015144348145
1696082916551562200,11.958562255859375,-0.5313427448272705,-0.26320838928222656,-0.6085445284843445
1696082916561562000,11.96856201171875,2.522933006286621,-0.06108856201171875,0.7580736875534058
1696082916571562200,11.978562255859375,5.38059663772583,0.15167522430419922,2.0663671493530273
1696082916581562000,11.98856201171875,6.837037086486816,0.420745849609375,2.849915027618408
1696082916591562200,11.998562255859374,6.379223346710205,0.8847284317016602,3.0620994567871094
1696082916601562000,12.00856201171875,4.798354148864746,1.3109655380249023,2.777691602706909
1696082916611562200,12.018562255859376,2.6583807468414307,1.6089763641357422,2.2731807231903076
1696082916621562000,12.02856201171875,0.36153295636177063,1.8790411949157715,1.6209977865219116
1696082916631562200,12.038562255859375,-1.601945161819458,2.0646424293518066,0.8108022809028625
1696082916641562000,12.04856201171875,-2.797731876373291,2.003192901611328,0.0894392877817154
1696082916651562200,12.058562255859375,-3.768993616104126,1.6827983856201172,-0.44719621539115906
1696082916661562400,12.068562255859375,-4.1273322105407715,1.1824331283569336,-0.5180369019508362
1696082916671562200,12.078562255859374,-2.975821018218994,0.6693201065063477,-0.507597029209137
1696082916681562400,12.088562255859374,-1.3948686122894287,-0.33840084075927734,-0.41063788533210754
1696082916691562200,12.098562255859376,0.650300145149231,-1.5757150650024414,-0.24252471327781677
1696082916701562400,12.108562255859376,2.621652126312256,-2.2199745178222656,-0.10636194795370102
1696082916711562200,12.118562255859375,3.849966287612915,-1.9414386749267578,0.5107829570770264
1696082916721562400,12.128562255859375,4.008471965789795,-1.9557971954345703,0.5772473812103271
1696082916731562200,12.138562255859375,2.8785500526428223,0.11165809631347656,2.4470529556274414
1696082916741562400,12.148562255859375,1.5915191173553467,1.050241470336914,2.5905990600585938
1696082916751562200,12.158562255859374,0.47414278984069824,1.2536735534667969,1.948340654373169
1696082916761562400,12.168562255859374,-0.12198472023010254,0.7192068099975586,0.9164309501647949
1696082916771562200,12.178562255859376,-0.04269218444824219,-0.12154388427734375,0.08528530597686768
1696082916781562400,12.188562255859376,0.5129469633102417,-1.0069751739501953,-0.4564090371131897
1696082916791562200,12.198562255859375,1.4822516441345215,-1.7177314758300781,-0.8287377953529358
1696082916801562400,12.208562255859375,2.7602436542510986,-1.9502439498901367,-0.9559810161590576
1696082916811562200,12.218562255859375,4.346593379974365,-1.8005132675170898,-0.6737198829650879
1696082916821562400,12.228562255859375,4.45759391784668,-1.824021339416504,-0.6245657205581665
1696082916831562200,12.238562255859375,6.579690456390381,-0.48520374298095703,0.7749592661857605
1696082916841562400,12.248562255859374,5.917198181152344,0.21459674835205078,1.6757642030715942
1696082916851562200,12.258562255859376,4.247406005859375,0.39364051818847656,2.4002935886383057
1696082916861562400,12.268562255859376,2.359485149383545,0.02540874481201172,3.032855987548828
1696082916871562200,12.278562255859375,0.9357212781906128,-0.7508726119995117,3.689716100692749
1696082916881562400,12.288562255859375,0.16339147090911865,-1.503617286682129,4.413442134857178
1696082916891562200,12.298562255859375,-0.2911813259124756,-1.9340095520019531,5.325075626373291
1696082916901562400,12.308562255859375,-0.18914198875427246,-1.953474998474121,6.118265151977539
1696082916911562200,12.318562255859375,0.7795789241790771,-1.589818000793457,6.614965438842773
1696082916921562400,12.328562255859374,2.678976058959961,-0.9554843902587891,6.424622535705566
1696082916931562200,12.338562255859374,4.527122497558594,-0.8169536590576172,6.044557571411133
1696082916941562400,12.348562255859376,5.3913068771362305,-1.7803668975830078,5.828254699707031
1696082916951562200,12.358562255859376,5.12996768951416,-3.188666343688965,5.290221214294434
1696082916961562000,12.36856201171875,4.425790786743164,-4.4820966720581055,4.404852390289307
1696082916971562200,12.378562255859375,4.039953231811523,-5.212772369384766,3.3797197341918945
1696082916981562000,12.38856201171875,4.204980850219727,-5.249283790588379,2.5238990783691406
1696082916991562200,12.398562255859375,4.252739906311035,-4.605237007141113,1.862180233001709
1696082917001562000,12.40856201171875,4.087610244750977,-3.6205787658691406,1.0635396242141724
1696082917011562200,12.418562255859374,3.9926724433898926,-2.944859504699707,0.181199312210083
1696082917021562000,12.42856201171875,3.5572476387023926,-3.1444568634033203,-0.7736417055130005
1696082917031562200,12.438562255859376,2.638322591781616,-3.826798439025879,-1.903169870376587
1696082917041562000,12.44856201171875,0.32914212346076965,-4.801475524902344,-3.206721305847168
1696082917051562200,12.458562255859375,-2.322625160217285,-5.7763214111328125,-4.9681243896484375
1696082917061562000,12.46856201171875,-4.152873516082764,-6.589090347290039,-6.3933610916137695
1696082917071562200,12.478562255859375,-5.273678302764893,-6.548060417175293,-7.7724761962890625
1696082917081562000,12.48856201171875,-5.498929500579834,-5.879024505615234,-8.407960891723633
1696082917091562200,12.498562255859374,-4.467563629150391,-4.800201416015625,-7.673131465911865
1696082917101562000,12.50856201171875,-2.862534999847412,-3.828433036804199,-6.2722015380859375
1696082917111562200,12.518562255859376,-1.3885446786880493,-2.94704532623291,-4.245287895202637
1696082917121562000,12.52856201171875,0.8640480041503906,-2.056539535522461,-3.0401864051818848
1696082917131562200,12.538562255859375,1.527544617652893,-1.387192726135254,-1.9590814113616943
1696082917141562000,12.54856201171875,0.6568454504013062,-0.8698272705078125,-1.3334977626800537
1696082917151562200,12.558562255859375,-0.8717712759971619,-0.3937664031982422,-1.3875012397766113
1696082917161562000,12.56856201171875,-2.0423426628112793,0.050652503967285156,-1.7545427083969116
1696082917171562200,12.578562255859374,-2.9436094760894775,0.4652433395385742,-2.0618698596954346
1696082917181562000,12.58856201171875,-3.432279109954834,0.9428386688232422,-2.2486841678619385
1696082917191562200,12.598562255859376,-3.532663345336914,1.4030747413635254,-2.4164233207702637
1696082917201562000,12.60856201171875,-4.220164775848389,1.857862949371338,-2.358227252960205
1696082917211562200,12.618562255859375,-4.579372882843018,2.292353630065918,-2.5634632110595703
1696082917221562000,12.62856201171875,-4.310331344604492,2.4811344146728516,-3.0655746459960938
1696082917231562200,12.638562255859375,-3.7427287101745605,2.5030360221862793,-3.5541157722473145
1696082917241562000,12.64856201171875,-3.353783130645752,2.597534656524658,-4.110551357269287
