time,seconds_elapsed,z,y,x
1696083226909930000,0.315929931640625,6.991368293762207,3.0526070594787598,0.36152446269989014
1696083226919930000,0.32593017578125,6.668150901794434,2.6791117191314697,0.6416460275650024
1696083226929930000,0.335929931640625,8.423100471496582,2.5474305152893066,-1.0869675874710083
1696083226939930000,0.34593017578125,8.748712539672852,3.4356794357299805,-1.3982137441635132
1696083226949930000,0.355929931640625,9.22755241394043,3.3877954483032227,-2.209848165512085
1696083226959930000,0.36593017578125,9.830891609191895,3.3231520652770996,-3.0334534645080566
1696083226969930000,0.375929931640625,8.619425773620605,3.1483752727508545,-2.9975404739379883
1696083226979930000,0.38593017578125,7.601889610290527,4.1156325340271,-2.10210919380188
1696083226989930000,0.395929931640625,6.605901718139648,4.532223701477051,-0.1388636976480484
1696083226999930000,0.40593017578125,5.514145851135254,4.580107688903809,0.6847416758537292
1696083227009930000,0.415929931640625,4.216189384460449,4.663905143737793,0.12928688526153564
1696083227019930000,0.42593017578125,5.241206645965576,4.201824188232422,-0.689530074596405
1696083227029930000,0.435929931640625,6.601113319396973,3.60566782951355,-0.8595184087753296
1696083227039930000,0.44593017578125,7.142202854156494,2.9735984802246094,-0.16759411990642548
1696083227049930000,0.455929931640625,7.1781158447265625,2.363077163696289,0.6751648783683777
1696083227059930000,0.46593017578125,7.091924667358398,1.8579005002975464,1.45806884765625
1696083227069930000,0.475929931640625,7.14699125289917,1.4867992401123047,1.7334020137786865
1696083227079930000,0.48593017578125,7.0033392906188965,1.8698714971542358,1.7118542194366455
1696083227089930000,0.495929931640625,6.986579895019531,2.715024709701538,1.5849615335464478
1696083227099930000,0.50593017578125,6.969820499420166,3.5194764137268066,1.9249382019042969
1696083227109930000,0.515929931640625,6.864475727081299,4.046200752258301,2.4660277366638184
1696083227119930000,0.52593017578125,6.481403350830078,4.180276393890381,3.2561142444610596
1696083227129930000,0.535929931640625,5.710470199584961,4.19224739074707,4.6734819412231445
1696083227139930000,0.54593017578125,-6.028899192810059,3.581725835800171,6.933907508850098
1696083227149930000,0.555929931640625,5.2771196365356445,2.5665841102600098,7.252336025238037
1696083227159930000,0.56593017578125,3.8522706031799316,1.5490485429763794,6.845322132110596
1696083227169930000,0.575929931640625,2.274491548538208,0.8403648138046265,5.514145851135254
1696083227179929600,0.5859296875,1.381454348564148,0.569819986820221,4.412513732910156
1696083227189929700,0.5959296875,0.5315127968788147,0.15801730751991272,3.0597896575927734
1696083227199929600,0.6059296875,0.0454898327589035,-2.0039467811584473,2.9520506858825684
1696083227209929700,0.6159296875,-0.6057330369949341,-3.383007049560547,2.9328970909118652
1696083227219929600,0.6259296875,-0.811634361743927,-3.6080620288848877,2.6815059185028076
1696083227229929700,0.6359296875,-0.272938996553421,-3.6511576175689697,2.585737943649292
1696083227239929600,0.6459296875,1.1037269830703735,-4.4939165115356445,3.093308687210083
1696083227249929700,0.6559296875,2.8634653091430664,-5.724835395812988,3.950432777404785
1696083227259929600,0.6659296875,4.314351558685303,-6.651391506195068,4.611232280731201
1696083227269929700,0.6759296875,4.745307922363281,-7.1134724617004395,4.697423934936523
1696083227279928800,0.6859287109375,4.714183330535889,-6.88602352142334,4.8602294921875
1696083227289928700,0.6959287109375,3.6583402156829834,-6.8070149421691895,4.97545051574707
1696083227299928800,0.7059287109375,3.2609026432037354,-5.9427080154418945,5.811026573181152
1696083227309928700,0.7159287109375,3.667917013168335,-5.210082054138184,7.439084053039551
1696083227319928800,0.7259287109375,4.55616569519043,-5.468656063079834,10.043975830078125
1696083227329928700,0.7359287109375,4.922778129577637,-6.534075736999512,13.264176368713379
1696083227339928800,0.7459287109375,5.38246488571167,-6.816591739654541,16.580446243286133
1696083227349929000,0.755928955078125,6.440701961517334,-6.423942565917969,20.45186996459961
1696083227359928800,0.7659287109375,7.989750385284424,-5.755959987640381,24.318504333496094
1696083227369929000,0.775928955078125,9.28261947631836,-5.406406879425049,27.100866317749023
1696083227379928600,0.785928466796875,9.646537780761719,-5.454290866851807,28.22374725341797
1696083227389928400,0.795928466796875,8.945036888122559,-5.116708278656006,28.087278366088867
1696083227399928300,0.80592822265625,8.145373344421387,-4.082113742828369,28.017847061157227
1696083227409928400,0.815928466796875,8.023268699645996,-3.1914708614349365,28.003480911254883
1696083227419928300,0.82592822265625,8.691251754760742,-2.3056161403656006,29.044958114624023
1696083227429928400,0.835928466796875,9.28261947631836,-1.9536685943603516,29.94038963317871
1696083227439928300,0.84592822265625,8.930671691894531,-1.900996208190918,28.621185302734375
1696083227449928400,0.855928466796875,8.262689590454102,-1.889025092124939,26.377817153930664
1696083227459928300,0.86592822265625,8.787019729614258,-2.674323320388794,23.023242950439453
1696083227469928400,0.875928466796875,8.07115364074707,-1.824381709098816,19.953874588012695
1696083227479928300,0.88592822265625,6.5388641357421875,0.15322890877723694,19.678543090820312
1696083227489928400,0.895928466796875,6.344933986663818,-1.843535304069519,16.92760467529297
1696083227499928300,0.90592822265625,6.423942565917969,-1.237802267074585,15.608399391174316
1696083227509928400,0.915928466796875,-0.7469909191131592,0.9840168952941895,15.823877334594727
1696083227519928300,0.92592822265625,-3.2082302570343018,-0.021547814831137657,10.642525672912598
1696083227529930200,0.93593017578125,-2.782062292098999,-1.0654197931289673,7.412747859954834
1696083227539930400,0.945930419921875,-2.185906171798706,-1.400607943534851,5.851728439331055
1696083227549930200,0.95593017578125,-2.0901381969451904,-0.9169792532920837,3.914519786834717
1696083227559930400,0.965930419921875,-2.408566951751709,0.014365210197865963,1.7094600200653076
1696083227569930200,0.97593017578125,-2.4396915435791016,0.6847416758537292,-0.22026655077934265
1696083227579930600,0.9859306640625,-2.0183119773864746,1.2617442607879639,-2.0039467811584473
1696083227589930800,0.9959306640625,-1.4700398445129395,1.6663644313812256,-3.9815573692321777
1696083227599930600,1.0059306640625,-0.7158663272857666,1.623268723487854,-5.600337028503418
1696083227609930800,1.0159306640625,-0.090979665517807,1.434126853942871,-6.165368556976318
1696083227619930600,1.0259306640625,0.3232172429561615,1.400607943534851,-5.4351372718811035
1696083227629930200,1.03593017578125,-0.2849099934101105,0.6751648783683777,-5.152621269226074
1696083227639930400,1.045930419921875,-0.5051765441894531,1.0749965906143188,-3.49314022064209
1696083227649930200,1.05593017578125,-1.0654197931289673,1.6400281190872192,-1.558625340461731
1696083227659930400,1.065930419921875,-1.745373010635376,1.5322890281677246,0.014365210197865963
1696083227669930200,1.07593017578125,-2.7461493015289307,1.213860273361206,1.8124107122421265
1696083227679930600,1.0859306640625,-4.113238334655762,1.381454348564148,3.359065055847168
1696083227689930800,1.0959306640625,-5.504569053649902,1.9823989868164062,4.443638324737549
1696083227699930600,1.1059306640625,-6.462249755859375,2.607285737991333,6.289866924285889
1696083227709930800,1.1159306640625,-6.292261123657227,2.4875755310058594,8.16452693939209
1696083227719930600,1.1259306640625,-5.380070686340332,1.6041151285171509,9.900322914123535
1696083227729930800,1.1359306640625,-4.876988887786865,0.8738836050033569,12.256217956542969
1696083227739930600,1.1459306640625,-5.365705490112305,0.507570743560791,14.4133939743042
1696083227749930800,1.1559306640625,-6.6920928955078125,0.43095630407333374,15.306730270385742
1696083227759931000,1.165930908203125,-7.415142059326172,0.5434837937355042,15.076886177062988
1696083227769930800,1.1759306640625,-7.223605632781982,0.33758243918418884,14.288894653320312
1696083227779931100,1.18593115234375,-3.5889084339141846,-1.4221558570861816,15.452775955200195
1696083227789930800,1.1959306640625,3.287238836288452,-3.5242648124694824,20.028095245361328
1696083227799931000,1.205930908203125,4.072536945343018,-3.88818359375,22.537220001220703
1696083227809930800,1.2159306640625,3.3207578659057617,-3.4955344200134277,21.816564559936523
1696083227819931000,1.225930908203125,2.427720546722412,-2.612074136734009,18.555662155151367
1696083227829929000,1.235928955078125,2.82515811920166,-3.287238836288452,15.905280113220215
1696083227839928800,1.2459287109375,3.428496837615967,-4.141968727111816,12.833220481872559
1696083227849929000,1.255928955078125,0.3495534360408783,-5.399224281311035,10.527604103088379
1696083227859928800,1.2659287109375,-0.8547300100326538,-6.620266914367676,8.7391357421875
1696083227869929000,1.275928955078125,-3.4620156288146973,-7.190086841583252,6.107907772064209
1696083227879929300,1.285929443359375,-4.49870491027832,-7.395988464355469,4.479551315307617
1696083227889931500,1.295931640625,-2.360682964324951,-6.105513572692871,4.017470359802246
1696083227899931600,1.305931640625,-1.3215993642807007,-4.608838081359863,3.9671921730041504
1696083227909931500,1.315931640625,0.5506663918495178,-3.028665065765381,3.9815573692321777
1696083227919931600,1.325931640625,2.470816135406494,-1.721431016921997,3.866635799407959
1696083227929932000,1.33593212890625,1.6160861253738403,-0.7110779285430908,5.981015205383301
1696083227939932000,1.345931884765625,-1.2641384601593018,-0.9624691009521484,8.044816970825195
1696083227949932000,1.35593212890625,-3.4189200401306152,-1.1444283723831177,8.839692115783691
1696083227959932000,1.365931884765625,-4.956296920776367,0.31124621629714966,6.507739543914795
1696083227969932000,1.37593212890625,-0.8810662031173706,6.467038154602051,-7.5109100341796875
1696083227979932000,1.385931884765625,-1.5131354331970215,5.976226806640625,-4.189853191375732
1696083227989932000,1.39593212890625,-5.011363506317139,0.019153613597154617,16.187795639038086
1696083227999932000,1.405931884765625,-7.079953670501709,-3.1651346683502197,31.14946174621582
1696083228009931800,1.415931884765625,-13.503597259521484,-0.06464344263076782,21.17731285095215
1696083228019932000,1.425931884765625,-12.308890342712402,2.1092917919158936,15.064915657043457
1696083228029931800,1.435931884765625,-8.212410926818848,3.4141316413879395,13.795689582824707
1696083228039932000,1.445931884765625,-5.7415947914123535,3.469198226928711,15.646706581115723
1696083228049932000,1.45593212890625,-2.454056739807129,2.2697031497955322,19.269134521484375
1696083228059932000,1.465931884765625,-1.4963760375976562,1.0989385843276978,21.840505599975586
1696083228069932000,1.47593212890625,-0.8978256583213806,0.11971008777618408,22.15654182434082
1696083228079932000,1.485931884765625,0.31364041566848755,-0.3711012601852417,20.27230453491211
1696083228089932500,1.4959326171875,1.137245774269104,-0.5578489899635315,16.56129264831543
1696083228099932400,1.505932373046875,1.4772224426269531,-0.4141969084739685,9.830891609191895
1696083228109932500,1.5159326171875,2.346317768096924,-0.4405331015586853,3.354276657104492
1696083228119932400,1.525932373046875,0.42616790533065796,-1.8962076902389526,-1.9512743949890137
1696083228133623800,1.539623779296875,-5.5452704429626465,-1.7693150043487549,-8.877999305725098
1696083228143624000,1.5496240234375,-3.6296098232269287,-3.0142998695373535,-6.397606372833252
1696083228153623800,1.559623779296875,-0.24181437492370605,-5.791872978210449,-8.298602104187012
1696083228163624200,1.569624267578125,3.7924153804779053,-6.143820762634277,-8.43507194519043
1696083228173624300,1.579624267578125,7.759906768798828,-6.464643955230713,-4.833893299102783
1696083228183624200,1.589624267578125,7.091924667358398,-7.884405612945557,-2.188300371170044
1696083228193622000,1.5996220703125,6.1174845695495605,-9.198822021484375,0.6775590777397156
1696083228203622000,1.609621826171875,7.106289863586426,-9.900322914123535,4.252102375030518
1696083228213622000,1.6196220703125,4.0078935623168945,-8.186075210571289,3.9432501792907715
1696083228223622000,1.629621826171875,-0.0454898327589035,-6.8932061195373535,5.739200592041016
1696083228233622000,1.6396220703125,-4.048594951629639,-8.19565200805664,5.559635639190674
1696083228243622400,1.649622314453125,-5.559635639190674,-8.710405349731445,4.07014274597168
1696083228253622300,1.659622314453125,-6.215646743774414,-7.671321392059326,0.31364041566848755
1696083228263622400,1.669622314453125,-5.8349690437316895,-6.771101474761963,1.0749965906143188
1696083228273622300,1.679622314453125,-3.4404678344726562,-6.435913562774658,3.1435868740081787
1696083228283622400,1.689622314453125,-4.017470359802246,-6.747159481048584,4.036623954772949
1696083228293622300,1.699622314453125,-2.456450939178467,-9.366415977478027,6.708852291107178
1696083228303622400,1.709622314453125,-1.556231141090393,-13.486837387084961,14.08538818359375
1696083228313622300,1.719622314453125,5.952284812927246,-17.351377487182617,22.187665939331055
1696083228323622400,1.729622314453125,14.023138999938965,-14.885350227355957,16.38172721862793
1696083228333622300,1.739622314453125,13.81484317779541,-14.87098503112793,12.737452507019043
1696083228343622100,1.7496220703125,7.609072208404541,-11.346421241760254,10.118195533752441
1696083228353622300,1.759622314453125,2.557007312774658,-8.5811185836792,8.315361976623535
1696083228363622100,1.7696220703125,-0.06224924325942993,-7.76948356628418,5.94749641418457
1696083228373622300,1.779622314453125,-1.2617442607879639,-6.941090106964111,4.031835556030273
1696083228383622100,1.7896220703125,-1.6903064250946045,-5.940313816070557,2.7916390895843506
1696083228393622300,1.799622314453125,-2.2218191623687744,-5.195716857910156,1.8794482946395874
1696083228403622100,1.8096220703125,-1.9776105880737305,-4.599261283874512,1.4532804489135742
1696083228413622000,1.8196220703125,-1.501164436340332,-4.302380561828613,1.139639973640442
1696083228423622100,1.8296220703125,-0.7852981686592102,-4.4939165115356445,1.2114660739898682
1696083228433622000,1.8396220703125,-0.5171475410461426,-4.6255974769592285,1.290474772453308
1696083228443622100,1.8496220703125,-0.5578489899635315,-4.714183330535889,1.4987702369689941
1696083228453622000,1.8596220703125,-0.16998831927776337,-4.908412933349609,2.2457611560821533
1696083228463621600,1.86962158203125,0.3471592366695404,-7.194875240325928,2.964021682739258
1696083228473621800,1.879621826171875,1.1468225717544556,-12.931382179260254,4.920383930206299
1696083228483622000,1.889621826171875,2.8850131034851074,-17.90683364868164,4.886565685272217
1696083228493621800,1.899621826171875,-0.5171475410461426,-23.91149139404297,3.2106244564056396
1696083228503622000,1.909621826171875,-3.2752678394317627,-27.591678619384766,0.9840168952941895
1696083228513621800,1.919621826171875,-6.447884559631348,-29.293954849243164,-0.7134721279144287
1696083228523622000,1.929621826171875,-8.324938774108887,-26.985944747924805,-1.9800047874450684
1696083228533621800,1.939621826171875,-7.616254806518555,-22.64256477355957,-2.717418909072876
1696083228543621400,1.949621337890625,-10.055946350097656,-16.412851333618164,-2.319981336593628
1696083228553621500,1.95962158203125,-6.519710540771484,-11.085453033447266,-1.8531121015548706
1696083228563621400,1.969621337890625,-1.9297266006469727,-8.99052619934082,-2.0901381969451904
1696083228573621500,1.97962158203125,2.382230758666992,-7.606678009033203,-2.9472622871398926
1696083228583621400,1.989621337890625,6.866869926452637,-6.723217487335205,-4.321534156799316
1696083228593621500,1.99962158203125,10.953771591186523,-6.306626319885254,-5.633855819702148
1696083228603621400,2.009621337890625,10.8412446975708,-6.979397296905518,-5.765536785125732
1696083228613621200,2.019621337890625,7.824550628662109,-8.262689590454102,-4.37420654296875
1696083228623621400,2.029621337890625,3.529053211212158,-9.423876762390137,-2.6839001178741455
1696083228633621200,2.039621337890625,-0.3926490843296051,-10.204386711120605,-1.53707754611969
1696083228643621400,2.049621337890625,-3.095702886581421,-10.486903190612793,-1.0965443849563599
1696083228653621200,2.059621337890625,-4.529829502105713,-10.364798545837402,-0.7589619159698486
1696083228663621400,2.069621337890625,-4.434061527252197,-10.249876976013184,-0.19393034279346466
1696083228673621200,2.079621337890625,-3.4979286193847656,-10.154109001159668,-0.15562310814857483
1696083228683621400,2.089621337890625,-2.7461493015289307,-9.96017837524414,-0.24660277366638184
1696083228693621200,2.099621337890625,-1.9776105880737305,-9.696816444396973,-0.31124621629714966
1696083228703621400,2.109621337890625,-1.599326729774475,-9.438241958618164,-0.17717093229293823
1696083228713621200,2.119621337890625,-1.4197616577148438,-9.25867748260498,0.011971008032560349
1696083228723621400,2.129621337890625,-1.3623007535934448,-9.138967514038086,0.26575639843940735
1696083228733621200,2.139621337890625,-1.2952631711959839,-9.06714153289795,0.6512228846549988
1696083228743621400,2.149621337890625,-0.9840168952941895,-9.263465881347656,1.139639973640442
1696083228753621200,2.159621337890625,-0.5793967843055725,-9.624990463256836,1.3551181554794312
1696083228763621400,2.169621337890625,-0.40462008118629456,-9.957783699035645,1.50355863571167
1696083228773621200,2.179621337890625,-0.5003881454467773,-9.988908767700195,1.434126853942871
1696083228783621400,2.189621337890625,-0.790086567401886,-9.80216121673584,1.2761094570159912
1696083228793621200,2.199621337890625,-1.0797849893569946,-9.543587684631348,1.173158884048462
1696083228803621600,2.20962158203125,-1.2641384601593018,-9.366415977478027,1.0223240852355957
1696083228813621500,2.21962158203125,-1.2186486721038818,-9.366415977478027,0.7613561153411865
1696083228823621600,2.22962158203125,-0.8858546018600464,-9.569923400878906,0.5410895943641663
1696083228833621500,2.23962158203125,-0.5315127968788147,-9.818920135498047,0.37828385829925537
1696083228843621600,2.24962158203125,-0.23702596127986908,-9.998485565185547,0.23702596127986908
1696083228853621500,2.25962158203125,-0.08619125932455063,-9.976937294006348,0.17717093229293823
1696083228863621600,2.26962158203125,-0.16998831927776337,-9.725546836853027,0.15083470940589905
1696083228873621500,2.27962158203125,-0.4405331015586853,-9.505280494689941,0.15801730751991272
1696083228883621600,2.28962158203125,-0.8020575642585754,-9.495702743530273,0.15322890877723694
1696083228893621500,2.29962158203125,-1.173158884048462,-9.488520622253418,0.22026655077934265
1696083228903621600,2.30962158203125,-1.4437036514282227,-9.569923400878906,0.22505496442317963
1696083228913621800,2.319621826171875,-1.5682021379470825,-9.58668327331543,0.13168109953403473
1696083228923621600,2.32962158203125,-1.4963760375976562,-9.567529678344727,0.07900865375995636
1696083228933621800,2.339621826171875,-1.3096283674240112,-9.560346603393555,0.12689268589019775
1696083228943621600,2.34962158203125,-1.0654197931289673,-9.56274127960205,0.2513911724090576
1696083228953621800,2.359621826171875,-0.9050082564353943,-9.617807388305664,0.45010992884635925
1696083228963621600,2.36962158203125,-0.8571242094039917,-9.692028045654297,0.646434485912323
1696083228973621800,2.379621826171875,-0.9672574996948242,-9.773430824279785,0.8667010068893433
1696083228983621600,2.38962158203125,-1.194706678390503,-9.823708534240723,1.0654197931289673
1696083228993621800,2.399621826171875,-1.4197616577148438,-9.85962200164795,1.256955862045288
1696083229003621600,2.40962158203125,-1.647210717201233,-9.98412036895752,1.460463047027588
1696083229013621800,2.419621826171875,-1.7405846118927002,-9.996091842651367,1.5610195398330688
1696083229023621600,2.42962158203125,-1.678335428237915,-9.854833602905273,1.455674648284912
1696083229033621800,2.439621826171875,-1.5298948287963867,-9.687239646911621,1.3431471586227417
1696083229043621600,2.44962158203125,-1.455674648284912,-9.711181640625,1.338358759880066
1696083229053621800,2.459621826171875,-1.3479355573654175,-9.89553451538086,1.3215993642807007
1696083229063621600,2.46962158203125,-1.1516109704971313,-9.931447982788086,1.0534487962722778
1696083229073621800,2.479621826171875,-0.9528923034667969,-9.840468406677246,0.6488286852836609
1696083229083621600,2.48962158203125,-0.7086837291717529,-9.684844970703125,0.07661445438861847
1696083229093621800,2.499621826171875,-0.47405192255973816,-9.5316162109375,-0.5410895943641663
1696083229103621400,2.509621337890625,-0.33997663855552673,-9.522039413452148,-1.1300631761550903
1696083229113621500,2.51962158203125,-0.3902548849582672,-9.627384185791016,-1.6280571222305298
1696083229123621400,2.529621337890625,-0.6703764796257019,-9.584288597106934,-2.0374655723571777
1696083229133621500,2.53962158203125,-1.0438719987869263,-9.431059837341309,-2.233790159225464
1696083229143621400,2.549621337890625,-1.1779472827911377,-9.277831077575684,-2.233790159225464
1696083229153621800,2.559621826171875,-1.1563993692398071,-9.253889083862305,-2.075772762298584
1696083229163622000,2.569621826171875,-1.2761094570159912,-9.340080261230469,-1.8339585065841675
1696083229173621800,2.579621826171875,-1.3192051649093628,-9.507674217224121,-1.3239935636520386
1696083229183622000,2.589621826171875,-1.2952631711959839,-9.675268173217773,-0.5961562395095825
1696083229193621800,2.599621826171875,-1.0606313943862915,-9.725546836853027,0.13407529890537262
1696083229203622000,2.609621826171875,-0.6057330369949341,-9.627384185791016,0.871489405632019
1696083229213621800,2.619621826171875,-0.07900865375995636,-9.411906242370605,1.4963760375976562
1696083229223621600,2.62962158203125,-0.004788403399288654,-9.462183952331543,2.0638017654418945
1696083229233621800,2.639621826171875,0.15083470940589905,-9.818920135498047,2.7293899059295654
1696083229243621600,2.64962158203125,0.12689268589019775,-10.003273963928223,3.1531636714935303
1696083229253621800,2.659621826171875,0.011971008032560349,-9.888352394104004,3.184288263320923
1696083229263621600,2.66962158203125,-0.22505496442317963,-9.462183952331543,2.5115175247192383
1696083229273621800,2.679621826171875,-0.35434186458587646,-9.172486305236816,1.6400281190872192
1696083229283622000,2.689621826171875,-0.49320554733276367,-9.155726432800293,0.9193734526634216
1696083229293621800,2.699621826171875,-0.6655880808830261,-9.246706008911133,0.272938996553421
1696083229303622000,2.709621826171875,-0.8547300100326538,-9.359233856201172,-0.31842881441116333
1696083229313621800,2.719621826171875,-0.9265560507774353,-9.471760749816895,-0.849941611289978
1696083229323622000,2.729621826171875,-0.8690952062606812,-9.737517356872559,-1.1827356815338135
1696083229333621800,2.739621826171875,-0.7326257228851318,-10.16368579864502,-1.3910311460494995
1696083229343622000,2.749621826171875,-0.47165772318840027,-10.62816047668457,-1.5155296325683594
1696083229353621200,2.759621337890625,-0.10055647045373917,-11.092636108398438,-1.5131354331970215
1696083229363621400,2.769621337890625,0.4908113479614258,-11.62414836883545,-1.4700398445129395
1696083229373621200,2.779621337890625,1.256955862045288,-12.280159950256348,-1.216254472732544
1696083229383621400,2.789621337890625,1.98958158493042,-12.792518615722656,-0.7661445140838623
1696083229393621200,2.799621337890625,2.456450939178467,-13.063063621520996,-0.20111294090747833
1696083229403621400,2.809621337890625,2.5115175247192383,-13.051093101501465,0.569819986820221
1696083229413621200,2.819621337890625,2.207453966140747,-12.952930450439453,1.3096283674240112
1696083229423621400,2.829621337890625,1.6974890232086182,-12.9026517868042,1.889025092124939
1696083229433621200,2.839621337890625,1.1180921792984009,-12.890681266784668,2.3942017555236816
1696083229443621400,2.849621337890625,0.6153098344802856,-12.859556198120117,2.8634653091430664
1696083229453621000,2.85962109375,0.42377370595932007,-12.888286590576172,3.3207578659057617
1696083229463620900,2.869620849609375,0.768538773059845,-13.225869178771973,3.622427225112915
1696083229473621000,2.87962109375,1.7310078144073486,-13.699921607971191,3.93367338180542
1696083229483620900,2.889620849609375,3.0358476638793945,-13.810054779052734,4.086902141571045
1696083229493621000,2.89962109375,4.244919776916504,-13.38628101348877,3.9456443786621094
1696083229503620900,2.909620849609375,4.778826713562012,-12.794913291931152,3.7038300037384033
1696083229513621000,2.91962109375,4.568136692047119,-12.280159950256348,3.536235809326172
1696083229523620900,2.929620849609375,3.909731388092041,-11.849203109741211,3.339911460876465
1696083229533621000,2.93962109375,3.3255462646484375,-11.32966136932373,3.026270866394043
1696083229543620900,2.949620849609375,3.1004912853240967,-10.654497146606445,2.612074136734009
1696083229553621000,2.95962109375,2.940079689025879,-10.029610633850098,2.1164743900299072
1696083229563620900,2.969620849609375,2.7317841053009033,-9.703998565673828,1.6424223184585571
1696083229573621000,2.97962109375,3.0190882682800293,-9.850045204162598,0.7972691655158997
1696083229583620900,2.989620849609375,1.9512743949890137,-10.374375343322754,-0.10295066982507706
1696083229593621000,2.99962109375,0.5530605912208557,-11.458948135375977,-0.9217676520347595
1696083229603620900,3.009620849609375,-1.338358759880066,-12.347197532653809,-1.4628572463989258
1696083229613621000,3.01962109375,-2.3247697353363037,-12.694356918334961,-1.9776105880737305
1696083229623620900,3.029620849609375,-3.780444383621216,-12.545916557312012,-2.233790159225464
1696083229633621000,3.03962109375,-5.166986465454102,-12.122142791748047,-2.2170307636260986
1696083229643620900,3.049620849609375,-5.425560474395752,-11.482891082763672,-2.343923568725586
1696083229653621200,3.059621337890625,-4.532223701477051,-10.953771591186523,-2.3989901542663574
1696083229663621400,3.069621337890625,-3.552995204925537,-10.721534729003906,-1.7908629179000854
1696083229673621500,3.07962158203125,-2.9975404739379883,-10.599430084228516,-1.0342950820922852
1696083229683621400,3.089621337890625,-2.626439332962036,-10.62576675415039,-0.5363011956214905
1696083229693621500,3.09962158203125,-1.6927006244659424,-10.83166790008545,0.3902548849582672
1696083229703621400,3.109621337890625,0.2585737705230713,-11.001656532287598,1.2401964664459229
1696083229713621500,3.11962158203125,2.169146776199341,-11.027992248535156,1.9297266006469727
1696083229723621400,3.129621337890625,2.2912509441375732,-10.972926139831543,1.8986018896102905
1696083229733621500,3.13962158203125,0.9576807022094727,-11.066299438476562,1.6950948238372803
1696083229743621400,3.149621337890625,-0.6607996821403503,-10.980108261108398,1.0678139925003052
1696083229753621500,3.15962158203125,-1.0989385843276978,-10.913070678710938,0.22505496442317963
1696083229763621400,3.169621337890625,-1.2545616626739502,-10.755053520202637,-0.5937620401382446
1696083229773621500,3.17962158203125,-1.3335703611373901,-10.405499458312988,-1.2186486721038818
1696083229783621400,3.189621337890625,-1.0989385843276978,-9.775824546813965,-1.9273324012756348
1696083229793621500,3.19962158203125,-0.9361328482627869,-9.129390716552734,-2.3965959548950195
1696083229803621400,3.209621337890625,-0.9265560507774353,-8.52365779876709,-2.6408045291900635
1696083229813621500,3.21962158203125,-0.9888052940368652,-7.977779388427734,-2.7485435009002686
1696083229823621400,3.229621337890625,-0.8906430602073669,-7.458237648010254,-2.853888511657715
1696083229833621500,3.23962158203125,-0.8834604024887085,-7.1134724617004395,-2.691082715988159
1696083229843621400,3.249621337890625,-0.9002198576927185,-6.78546667098999,-2.3343467712402344
1696083229853621500,3.25962158203125,-0.9050082564353943,-6.577171325683594,-1.9321208000183105
1696083229863621400,3.269621337890625,-0.9840168952941895,-6.246771335601807,-1.7046716213226318
1696083229873621500,3.27962158203125,-1.1563993692398071,-5.894824028015137,-1.656787633895874
1696083229883621400,3.289621337890625,-1.2258312702178955,-5.530905246734619,-1.6041151285171509
1696083229893621500,3.29962158203125,-1.2761094570159912,-5.164592266082764,-1.6974890232086182
1696083229903621400,3.309621337890625,-1.357512354850769,-4.752490520477295,-1.824381709098816
1696083229913621500,3.31962158203125,-1.335964560508728,-4.309563159942627,-1.9752163887023926
1696083229923621400,3.329621337890625,-1.1420341730117798,-3.801992416381836,-2.248155355453491
1696083229933621500,3.33962158203125,-0.7445967197418213,-3.2992098331451416,-2.6886885166168213
1696083229943621400,3.349621337890625,-0.19632454216480255,-2.889801502227783,-2.913743495941162
1696083229953621500,3.35962158203125,0.2513911724090576,-2.7054479122161865,-2.911349296569824
1696083229963621400,3.369621337890625,0.8044517636299133,-3.1028854846954346,-2.118868589401245
1696083229973621500,3.37962158203125,1.9177556037902832,-3.8953661918640137,-0.6129156351089478
1696083229983621400,3.389621337890625,3.890577793121338,-5.131073474884033,0.9217676520347595
1696083229993621500,3.39962158203125,5.667374610900879,-6.979397296905518,2.293645143508911
1696083230003621400,3.409621337890625,8.3800048828125,-9.483732223510742,4.228160381317139
1696083230013621500,3.41962158203125,11.186009407043457,-12.44775390625,6.69448709487915
1696083230023621400,3.429621337890625,13.63288402557373,-15.505448341369629,8.607454299926758
1696083230033621500,3.43962158203125,15.153501510620117,-18.309059143066406,9.828496932983398
1696083230043621400,3.449621337890625,13.8746976852417,-20.109498977661133,9.229947090148926
1696083230053621200,3.459621337890625,10.338461875915527,-19.84134864807129,6.742371082305908
1696083230063621400,3.469621337890625,6.8716583251953125,-16.75522232055664,3.713406801223755
1696083230073621200,3.479621337890625,4.477157115936279,-12.883498191833496,2.0039467811584473
1696083230083621400,3.489621337890625,2.557007312774658,-9.380781173706055,1.2497732639312744
1696083230093621500,3.49962158203125,2.145204782485962,-7.879617214202881,0.8020575642585754
1696083230103621400,3.509621337890625,2.956839084625244,-8.365639686584473,0.2322375625371933
1696083230113621500,3.51962158203125,3.44765043258667,-9.591471672058105,-1.3623007535934448
1696083230123621400,3.529621337890625,2.4444799423217773,-12.031163215637207,-3.294421434402466
1696083230133621500,3.53962158203125,0.9672574996948242,-15.419257164001465,-4.721365928649902
1696083230143621400,3.549621337890625,-0.05267243832349777,-17.779939651489258,-4.901230335235596
1696083230153621500,3.55962158203125,2.1787235736846924,-18.074426651000977,-4.721365928649902
1696083230163621400,3.569621337890625,1.6065093278884888,-15.464747428894043,-2.829946517944336
1696083230173621500,3.57962158203125,-1.4628572463989258,-11.882721900939941,-1.6855180263519287
1696083230183621400,3.589621337890625,-2.9712042808532715,-9.115025520324707,-1.659181833267212
1696083230193621500,3.59962158203125,-4.264073371887207,-7.077559471130371,-1.9369091987609863
1696083230203621400,3.609621337890625,-5.870882034301758,-5.509357452392578,-2.094926595687866
1696083230213621200,3.619621337890625,-6.665756702423096,-4.292803764343262,-1.9847931861877441
1696083230223621400,3.629621337890625,-6.682516098022461,-3.8977603912353516,-2.3367409706115723
1696083230233621200,3.639621337890625,-5.454290866851807,-4.4077253341674805,-2.252943754196167
1696083230243621400,3.649621337890625,-4.831499099731445,-5.703287601470947,-1.5298948287963867
1696083230253621200,3.659621337890625,-4.271255970001221,-7.429507255554199,-1.436521053314209
1696083230263621400,3.669621337890625,-3.5410242080688477,-9.01207447052002,-1.625662922859192
1696083230273621500,3.67962158203125,-2.846705913543701,-10.221146583557129,-1.3982137441635132
1696083230283621400,3.689621337890625,-2.319981336593628,-11.0208101272583,-0.7110779285430908
1696083230293621500,3.69962158203125,-1.9033904075622559,-11.449371337890625,0.1388636976480484
1696083230303621400,3.709621337890625,-1.1228805780410767,-11.430217742919922,1.0558429956436157
1696083230313621500,3.71962158203125,0.1364694982767105,-11.255441665649414,2.0638017654418945
1696083230323621400,3.729621337890625,1.4269442558288574,-10.95616626739502,2.9161376953125
1696083230333621500,3.73962158203125,2.2649147510528564,-10.539575576782227,3.3446998596191406
1696083230343621400,3.749621337890625,2.5282769203186035,-10.067917823791504,3.3446998596191406
1696083230353621500,3.75962158203125,2.609679937362671,-9.636960983276367,2.956839084625244
1696083230363621600,3.76962158203125,2.2864625453948975,-9.308955192565918,2.1739351749420166
1696083230373621500,3.77962158203125,1.800439715385437,-9.10305404663086,1.3862427473068237
1696083230383621600,3.78962158203125,1.1755530834197998,-9.153332710266113,0.7230489253997803
1696083230393621500,3.79962158203125,0.6488286852836609,-9.395146369934082,0.26575639843940735
1696083230403621400,3.809621337890625,0.31842881441116333,-9.778219223022461,-0.09816227108240128
1696083230413621500,3.81962158203125,0.3016694188117981,-9.83568000793457,-0.5363011956214905
1696083230423621400,3.829621337890625,0.2777273952960968,-9.696816444396973,-0.8307880163192749
1696083230433621500,3.83962158203125,0.4884171485900879,-9.354445457458496,-1.256955862045288
1696083230443621400,3.849621337890625,0.1843535304069519,-9.112630844116211,-1.2306196689605713
1696083230453621500,3.85962158203125,-0.47405192255973816,-9.07911205291748,-0.7613561153411865
1696083230463621400,3.869621337890625,-0.9983820915222168,-9.095871925354004,-0.12928688526153564
1696083230473621500,3.87962158203125,-1.1516109704971313,-9.06714153289795,0.6057330369949341
1696083230483621400,3.889621337890625,-1.1755530834197998,-9.04319953918457,1.2018892765045166
1696083230493621500,3.89962158203125,-1.139639973640442,-8.95700740814209,1.2856862545013428
1696083230503621400,3.909621337890625,-1.05105459690094,-8.810961723327637,1.1348515748977661
1696083230513621500,3.91962158203125,-0.7829039692878723,-8.52365779876709,1.070208191871643
1696083230523621400,3.929621337890625,-0.40701428055763245,-8.32254409790039,0.9983820915222168
1696083230533621500,3.93962158203125,-0.023942016065120697,-8.516474723815918,0.849941611289978
1696083230543621400,3.949621337890625,0.16519992053508759,-9.126996040344238,0.6248866319656372
1696083230553621500,3.95962158203125,0.06464344263076782,-9.708786964416504,0.24899697303771973
1696083230563621400,3.969621337890625,-0.11013327538967133,-10.216358184814453,-0.021547814831137657
1696083230573621500,3.97962158203125,0.07900865375995636,-10.604218482971191,-0.07900865375995636
1696083230583621400,3.989621337890625,0.7110779285430908,-10.992079734802246,-0.06703764945268631
1696083230593621500,3.99962158203125,1.647210717201233,-11.284172058105469,-0.15562310814857483
1696083230603621400,4.009621337890625,2.6001031398773193,-11.32726764678955,-0.3734954595565796
1696083230613621500,4.01962158203125,3.134010076522827,-11.20516300201416,-0.47884035110473633
1696083230623621400,4.029621337890625,3.0550012588500977,-11.123760223388672,-0.22505496442317963
1696083230633621500,4.03962158203125,2.559401512145996,-11.174038887023926,0.4118026793003082
1696083230643621400,4.049621337890625,1.702277421951294,-11.4972562789917,1.3455413579940796
1696083230653621200,4.059621337890625,0.6416460275650024,-12.033556938171387,2.3702597618103027
1696083230663621400,4.069621337890625,-0.3447650372982025,-12.442965507507324,3.3734302520751953
1696083230673621500,4.07962158203125,-0.9720458984375,-12.770971298217773,4.323928356170654
1696083230683621400,4.089621337890625,-1.2114660739898682,-13.103765487670898,5.329792022705078
1696083230693621500,4.09962158203125,-0.9911994934082031,-13.664008140563965,6.328174591064453
1696083230703621400,4.109621337890625,-0.24660277366638184,-14.097358703613281,6.991368293762207
1696083230713621500,4.11962158203125,0.7182605266571045,-14.324808120727539,7.182904243469238
1696083230723621400,4.129621337890625,1.479616641998291,-14.578593254089355,6.716034889221191
1696083230733621500,4.13962158203125,2.1332337856292725,-14.739304542541504,5.806238174438477
1696083230743621400,4.149621337890625,2.7700912952423096,-14.255375862121582,4.28322696685791
1696083230753621500,4.15962158203125,3.7493197917938232,-13.268964767456055,2.188300371170044
1696083230763621400,4.169621337890625,5.0592474937438965,-12.270583152770996,0.026336219161748886
1696083230773621500,4.17962158203125,6.44549036026001,-11.87075138092041,-1.8171991109848022
1696083230783621400,4.189621337890625,6.531681537628174,-12.035951614379883,-3.179499864578247
1696083230793621500,4.19962158203125,5.301061630249023,-12.440570831298828,-4.134786128997803
1696083230803621400,4.209621337890625,2.5019407272338867,-12.651261329650879,-5.195716857910156
1696083230813621500,4.21962158203125,-0.019153613597154617,-12.847585678100586,-6.330568790435791
1696083230823621400,4.229621337890625,-2.0446481704711914,-13.400646209716797,-6.96503210067749
1696083230833621500,4.23962158203125,-5.025728702545166,-13.604153633117676,-6.75194787979126
1696083230843621400,4.249621337890625,-6.768707275390625,-13.407828330993652,-6.376058578491211
1696083230853621500,4.25962158203125,-6.4957685470581055,-12.802095413208008,-5.499780654907227
1696083230863621400,4.269621337890625,-5.353734493255615,-12.191574096679688,-4.357447147369385
1696083230873621500,4.27962158203125,-3.84269380569458,-11.528380393981934,-2.8419175148010254
1696083230883621400,4.289621337890625,-1.7118542194366455,-10.970531463623047,-1.2521674633026123
1696083230893621500,4.29962158203125,1.4891934394836426,-10.855609893798828,0.45010992884635925
1696083230903621400,4.309621337890625,3.4189200401306152,-11.281777381896973,2.231395959854126
1696083230913621500,4.31962158203125,2.63362193107605,-11.41824722290039,3.0166940689086914
1696083230923621400,4.329621337890625,0.6033388376235962,-11.310507774353027,2.7269957065582275
1696083230933621500,4.33962158203125,-1.1420341730117798,-10.829273223876953,2.142810583114624
1696083230943621400,4.349621337890625,-1.5849615335464478,-10.096648216247559,1.400607943534851
1696083230953621500,4.35962158203125,-1.6160861253738403,-9.356839179992676,0.6560112833976746
1696083230963621400,4.369621337890625,-1.5322890281677246,-8.638579368591309,-0.14604631066322327
1696083230973621500,4.37962158203125,-1.6089035272598267,-8.087912559509277,-1.0007762908935547
1696083230983621400,4.389621337890625,-1.7142484188079834,-7.704840183258057,-1.7190368175506592
1696083230993621500,4.39962158203125,-1.6615760326385498,-7.455843448638916,-2.276885747909546
1696083231003621400,4.409621337890625,-1.6424223184585571,-7.257124423980713,-2.5665841102600098
1696083231013621500,4.41962158203125,-1.7812861204147339,-7.111078262329102,-2.456450939178467
1696083231023621400,4.429621337890625,-1.9129672050476074,-6.933907508850098,-2.2361843585968018
1696083231033621500,4.43962158203125,-1.8411411046981812,-6.6920928955078125,-1.9800047874450684
1696083231043621400,4.449621337890625,-1.678335428237915,-6.447884559631348,-1.723825216293335
1696083231053621200,4.459621337890625,-1.599326729774475,-6.261136531829834,-1.5682021379470825
1696083231063621400,4.469621337890625,-1.6519991159439087,-6.079177379608154,-1.5394717454910278
1696083231073621200,4.479621337890625,-1.6112977266311646,-5.885247230529785,-1.7334020137786865
1696083231083621400,4.489621337890625,-1.7357962131500244,-5.6554036140441895,-2.276885747909546
1696083231093621500,4.49962158203125,-1.9369091987609863,-5.286696434020996,-2.8610711097717285
1696083231103621400,4.509621337890625,-2.0829553604125977,-4.680664539337158,-3.471592426300049
1696083231113621500,4.51962158203125,-1.9512743949890137,-4.003105163574219,-3.84269380569458
1696083231123621400,4.529621337890625,-1.5538369417190552,-3.3303346633911133,-4.151545524597168
1696083231133621500,4.53962158203125,-1.01753568649292,-2.75812029838562,-4.2975921630859375
1696083231143621400,4.549621337890625,-0.5650315880775452,-2.655169725418091,-4.098873138427734
1696083231153621000,4.55962109375,-0.090979665517807,-3.2968156337738037,-3.021482467651367
1696083231163620900,4.569620849609375,0.4836287498474121,-4.431667327880859,-0.8571242094039917
1696083231173621000,4.57962109375,3.469198226928711,-6.2491655349731445,1.6759412288665771
1696083231183620900,4.589620849609375,7.75751256942749,-8.798990249633789,3.998316764831543
1696083231193621000,4.59962109375,11.097424507141113,-11.6552734375,6.514922142028809
1696083231203620900,4.609620849609375,11.032780647277832,-14.202703475952148,9.462183952331543
1696083231213621000,4.61962109375,11.370363235473633,-16.542137145996094,10.790966033935547
1696083231223620900,4.629620849609375,14.51634407043457,-18.924367904663086,10.915464401245117
1696083231233621000,4.63962109375,13.084611892700195,-19.98021125793457,9.47654914855957
1696083231243620900,4.649620849609375,9.277831077575684,-18.471864700317383,6.043264389038086
1696083231253621000,4.65962109375,6.31141471862793,-15.103222846984863,2.832340717315674
1696083231263620900,4.669620849609375,4.546588897705078,-10.944194793701172,1.7070658206939697
1696083231273621000,4.67962109375,3.380612850189209,-6.7351884841918945,1.37906014919281
1696083231283620900,4.689620849609375,2.8778305053710938,-4.230554580688477,0.6703764796257019
1696083231293621000,4.69962109375,3.0885202884674072,-5.372888088226318,-0.2825157940387726
1696083231303620900,4.709620849609375,3.0119056701660156,-8.075942039489746,-1.0103530883789062
1696083231313621000,4.71962109375,2.2026655673980713,-11.236288070678711,-2.145204782485962
1696083231323621000,4.72962109375,0.1173158809542656,-15.543755531311035,-3.0119056701660156
1696083231333621000,4.73962109375,-2.669534921646118,-18.253992080688477,-3.2345664501190186
1696083231343621000,4.74962109375,-3.3901896476745605,-20.0352783203125,-4.668693542480469
1696083231353621000,4.75962109375,-0.9289502501487732,-21.12703514099121,-5.849334239959717
1696083231363621000,4.76962109375,-2.631227731704712,-17.504606246948242,-3.4141316413879395
1696083231373621000,4.77962109375,-2.5737667083740234,-12.749423027038574,-1.9847931861877441
1696083231383621000,4.78962109375,-2.736572504043579,-9.74470043182373,-2.212242364883423
1696083231393621000,4.79962109375,-3.5410242080688477,-6.991368293762207,-2.2170307636260986
1696083231403621000,4.80962109375,-4.338293552398682,-4.7620673179626465,-2.276885747909546
1696083231413621000,4.81962109375,-4.326322555541992,-3.1914708614349365,-2.38462495803833
1696083231423621000,4.82962109375,-4.108449935913086,-2.3247697353363037,-2.121262788772583
1696083231433621000,4.83962109375,-4.94193172454834,-2.298433542251587,-1.6041151285171509
1696083231443621000,4.84962109375,-5.494992256164551,-4.2975921630859375,-0.6129156351089478
1696083231453621500,4.85962158203125,-4.867412090301514,-6.459855556488037,-0.43335050344467163
1696083231463621400,4.869621337890625,-3.885789394378662,-8.360851287841797,0.002394201699644327
1696083231473621500,4.87962158203125,-3.2609026432037354,-10.082283020019531,0.48602294921875
1696083231483621400,4.889621337890625,-3.0789434909820557,-11.545140266418457,0.9768342971801758
1696083231493621500,4.89962158203125,-2.964021682739258,-12.62971305847168,1.599326729774475
1696083231503621400,4.909621337890625,-1.113303780555725,-13.185168266296387,3.0166940689086914
1696083231513621500,4.91962158203125,2.6791117191314697,-13.312060356140137,4.733336925506592
1696083231523621400,4.929621337890625,6.404788970947266,-12.687173843383789,5.607519626617432
1696083231533621500,4.93962158203125,8.265083312988281,-11.286565780639648,5.068824291229248
1696083231543621400,4.949621337890625,8.147768020629883,-9.83568000793457,3.5936968326568604
1696083231553621500,4.95962158203125,6.680121898651123,-8.700828552246094,1.9105730056762695
1696083231563621400,4.969621337890625,4.141968727111816,-7.9538373947143555,0.29209262132644653
1696083231573621500,4.97962158203125,1.4844050407409668,-7.819762229919434,-1.0893617868423462
1696083231583621400,4.989621337890625,-0.40222588181495667,-8.312967300415039,-1.5203180313110352
1696083231593621500,4.99962158203125,-1.6927006244659424,-8.95700740814209,-1.3335703611373901
1696083231603621400,5.009621337890625,-2.808398485183716,-9.375992774963379,-1.37906014919281
1696083231613621500,5.01962158203125,-3.861847400665283,-9.380781173706055,-1.4891934394836426
1696083231623621400,5.029621337890625,-4.81473970413208,-9.28261947631836,-1.4460978507995605
1696083231633621500,5.03962158203125,-4.958691120147705,-9.285013198852539,-0.8786720037460327
1696083231643621400,5.049621337890625,-3.9025487899780273,-9.337685585021973,-0.42856210470199585
1696083231653621200,5.059621337890625,-2.365471363067627,-9.237129211425781,-0.17238251864910126
1696083231663621400,5.069621337890625,-0.9145850539207458,-8.851662635803223,-0.6943184733390808
1696083231673621200,5.079621337890625,0.22026655077934265,-8.506897926330566,-1.400607943534851
1696083231683621400,5.089621337890625,0.7924807667732239,-8.423100471496582,-1.647210717201233
1696083231693621200,5.099621337890625,0.9409212470054626,-8.660126686096191,-1.625662922859192
1696083231703621400,5.109621337890625,0.5626373887062073,-9.198822021484375,-1.3766659498214722
1696083231713621200,5.119621337890625,-0.1412578970193863,-9.87159252166748,-1.1013327836990356
1696083231723621400,5.129621337890625,-0.5817909836769104,-10.59464168548584,-0.9145850539207458
1696083231733621200,5.139621337890625,-0.3711012601852417,-11.315296173095703,-0.7972691655158997
1696083231743621400,5.149621337890625,0.48602294921875,-11.755829811096191,-0.7661445140838623
1696083231753621500,5.15962158203125,1.886630892753601,-11.636119842529297,-0.6775590777397156
1696083231763621400,5.169621337890625,3.4117374420166016,-11.233893394470215,-0.4812345504760742
1696083231773621200,5.179621337890625,4.608838081359863,-11.01123332977295,-0.13168109953403473
1696083231783621400,5.189621337890625,4.876988887786865,-11.016021728515625,0.33279404044151306
1696083231793621200,5.199621337890625,4.079719543457031,-11.092636108398438,0.9265560507774353
1696083231803621400,5.209621337890625,2.497152328491211,-11.176432609558105,1.647210717201233
1696083231813621200,5.219621337890625,0.608127236366272,-11.492467880249023,2.542642116546631
1696083231823621400,5.229621337890625,-0.9959878921508789,-11.925817489624023,3.555389642715454
1696083231833621200,5.239621337890625,-2.094926595687866,-12.29931354522705,4.812345504760742
1696083231843621400,5.249621337890625,-2.4157495498657227,-12.423811912536621,6.285078525543213
1696083231853621500,5.25962158203125,-1.4460978507995605,-12.184391975402832,7.561188220977783
1696083231863621400,5.269621337890625,0.5482721924781799,-11.770195007324219,8.190863609313965
1696083231873621500,5.27962158203125,3.0310592651367188,-11.516409873962402,7.826944828033447
1696083231883621400,5.289621337890625,4.958691120147705,-11.707945823669434,6.728005886077881
1696083231893621500,5.29962158203125,5.286696434020996,-12.330437660217285,5.4782328605651855
1696083231903621400,5.309621337890625,4.613626480102539,-12.782941818237305,4.122815132141113
1696083231913621500,5.31962158203125,4.0294413566589355,-12.938565254211426,2.7222073078155518
1696083231923621400,5.329621337890625,4.1395745277404785,-12.713510513305664,1.2737152576446533
1696083231933621500,5.33962158203125,4.558559894561768,-12.186785697937012,0.07661445438861847
1696083231943621400,5.349621337890625,4.177882194519043,-11.971307754516602,-0.40462008118629456
1696083231953621800,5.359621826171875,2.6599581241607666,-12.548310279846191,0.1867477297782898
1696083231963621600,5.36962158203125,0.7829039692878723,-13.221080780029297,0.5889736413955688
1696083231973621500,5.37962158203125,-0.9624691009521484,-13.800477981567383,0.35434186458587646
1696083231983621600,5.38962158203125,-2.073378562927246,-14.506767272949219,-0.2777273952960968
1696083231993621500,5.39962158203125,-2.5498247146606445,-15.646706581115723,-1.8986018896102905
1696083232003621600,5.40962158203125,-3.1076738834381104,-17.22927474975586,-3.914519786834717
1696083232013621500,5.41962158203125,-4.113238334655762,-17.937957763671875,-5.557241439819336
1696083232023621600,5.42962158203125,-5.152621269226074,-17.904438018798828,-6.862081527709961
1696083232033621500,5.43962158203125,-5.540482044219971,-16.530166625976562,-7.120655059814453
1696083232043621600,5.44962158203125,-5.341763496398926,-14.391845703125,-5.8780646324157715
1696083232053621500,5.45962158203125,-2.52109432220459,-12.519579887390137,-4.831499099731445
1696083232063621600,5.46962158203125,2.233790159225464,-11.449371337890625,-3.3255462646484375
1696083232073621500,5.47962158203125,4.347870349884033,-10.826879501342773,-1.4269442558288574
1696083232083621600,5.48962158203125,3.3016040325164795,-10.441412925720215,-0.395043283700943
1696083232093621500,5.49962158203125,0.6751648783683777,-10.118195533752441,0.0933738648891449
1696083232103621600,5.50962158203125,-1.4173674583435059,-9.593865394592285,0.5123591423034668
1696083232113621800,5.519621826171875,-2.190694570541382,-8.925883293151855,0.7613561153411865
1696083232123621600,5.52962158203125,-2.070984363555908,-8.188468933105469,0.8930372595787048
1696083232133621800,5.539621826171875,-1.4867992401123047,-7.4007768630981445,0.8379706144332886
1696083232143621600,5.54962158203125,-1.3263877630233765,-6.682516098022461,0.7805097699165344
1696083232153621200,5.559621337890625,-1.316810965538025,-6.067206382751465,0.4118026793003082
1696083232163621400,5.569621337890625,-1.158793568611145,-5.5021748542785645,-0.2585737705230713
1696083232173621200,5.579621337890625,-1.0654197931289673,-5.497386455535889,-0.727837324142456
1696083232183621400,5.589621337890625,-1.0606313943862915,-5.770325183868408,-1.2401964664459229
1696083232193621200,5.599621337890625,-1.2617442607879639,-6.055235385894775,-1.7142484188079834
1696083232203621400,5.609621337890625,-1.3718775510787964,-6.328174591064453,-2.1140801906585693
1696083232213621200,5.619621337890625,-1.5275006294250488,-6.459855556488037,-2.3487119674682617
1696083232223621400,5.629621337890625,-1.6615760326385498,-6.534075736999512,-2.341529369354248
1696083232233621200,5.639621337890625,-1.7525556087493896,-6.483797550201416,-2.183511972427368
1696083232243621400,5.649621337890625,-1.7980455160140991,-6.277895927429199,-1.987187385559082
1696083232253621000,5.65962109375,-1.9057846069335938,-5.911583423614502,-1.9991583824157715
1696083232263621000,5.66962109375,-2.126051187515259,-5.50696325302124,-2.1308395862579346
1696083232273621000,5.67962109375,-2.4133553504943848,-5.076006889343262,-2.427720546722412
1696083232283621000,5.68962109375,-2.494758129119873,-4.721365928649902,-2.7557260990142822
1696083232293621000,5.69962109375,-2.252943754196167,-4.240131378173828,-3.2537200450897217
1696083232303621000,5.70962109375,-1.723825216293335,-3.8115692138671875,-3.845088005065918
1696083232313621000,5.71962109375,-0.9481038451194763,-3.507505416870117,-4.122815132141113
1696083232323621000,5.72962109375,-0.30885201692581177,-3.4787750244140625,-3.9600095748901367
1696083232333621000,5.73962109375,0.0933738648891449,-4.065354347229004,-2.935291290283203
1696083232343621000,5.74962109375,0.9002198576927185,-5.049670696258545,-1.2234370708465576
1696083232353621200,5.759621337890625,2.628833532333374,-6.3880295753479,0.8068459630012512
1696083232363621000,5.76962109375,5.332186222076416,-8.358457565307617,2.801215887069702
1696083232373621200,5.779621337890625,9.991303443908691,-10.982502937316895,4.9706621170043945
1696083232383621000,5.78962109375,13.896245956420898,-14.073416709899902,7.767089366912842
1696083232393621200,5.799621337890625,14.379874229431152,-17.463905334472656,11.468525886535645
1696083232403621000,5.80962109375,12.984055519104004,-20.392013549804688,13.381492614746094
1696083232413621000,5.81962109375,11.430217742919922,-21.625028610229492,12.859556198120117
1696083232423621000,5.82962109375,8.023268699645996,-20.128652572631836,10.822091102600098
1696083232433621000,5.83962109375,6.411971569061279,-16.001049041748047,7.005733489990234
1696083232443621000,5.84962109375,4.558559894561768,-11.219528198242188,4.335899353027344
1696083232453621500,5.85962158203125,2.808398485183716,-7.376834869384766,2.6647465229034424
1696083232463621400,5.869621337890625,1.8339585065841675,-4.9491143226623535,1.3024457693099976
1696083232473621500,5.87962158203125,2.0829553604125977,-5.595548629760742,0.33997663855552673
1696083232483621400,5.889621337890625,1.580173134803772,-8.004115104675293,-0.21308395266532898
1696083232493621500,5.89962158203125,0.629675030708313,-12.088624000549316,-1.0797849893569946
1696083232503621400,5.909621337890625,0.016759412363171577,-17.090410232543945,-1.699883222579956
1696083232513621000,5.91962109375,-0.1173158809542656,-20.248361587524414,-2.786850690841675
1696083232523621000,5.92962109375,4.350264549255371,-21.68488311767578,-5.164592266082764
1696083232533621200,5.939621337890625,-0.26575639843940735,-17.746421813964844,-4.913201332092285
1696083232543621000,5.94962109375,-3.0310592651367188,-13.053486824035645,-3.6822822093963623
1696083232553621200,5.959621337890625,-4.168305397033691,-9.845256805419922,-2.4181437492370605
1696083232563621000,5.96962109375,-4.752490520477295,-8.116642951965332,-2.920926094055176
1696083232573621000,5.97962109375,-5.286696434020996,-6.443096160888672,-3.138798475265503
1696083232583621000,5.98962109375,-5.827786445617676,-4.606443881988525,-2.9688100814819336
1696083232593621200,5.999621337890625,-5.0807952880859375,-3.7708675861358643,-2.7533318996429443
1696083232603621000,6.00962109375,-4.256890773773193,-3.643975019454956,-2.75812029838562
1696083232613621000,6.01962109375,-4.577713489532471,-4.2951979637146,-1.8986018896102905
1696083232623621000,6.02962109375,-4.596867084503174,-5.55245304107666,-1.5969325304031372
1696083232633621000,6.03962109375,-3.181894063949585,-7.577947616577148,-1.7980455160140991
1696083232643621000,6.04962109375,-1.8052281141281128,-9.237129211425781,-1.4772224426269531
1696083232653621000,6.05962109375,-1.05105459690094,-10.44859504699707,-0.9289502501487732
1696083232663621000,6.06962109375,-0.9528923034667969,-11.35120964050293,-0.26575639843940735
1696083232673621000,6.07962109375,-0.8331822156906128,-11.77977180480957,0.5674257874488831
1696083232683621000,6.08962109375,0.33518823981285095,-12.122142791748047,1.987187385559082
1696083232693621000,6.09962109375,2.650381326675415,-12.14129638671875,3.6750996112823486
1696083232703621000,6.10962109375,5.119102478027344,-11.892298698425293,4.829104900360107
1696083232713621000,6.11962109375,6.562806129455566,-11.140520095825195,4.778826713562012
1696083232723621000,6.12962109375,6.632237911224365,-9.948206901550293,3.7181951999664307
1696083232733621000,6.13962109375,5.389647483825684,-9.000102996826172,2.126051187515259
1696083232743621000,6.14962109375,3.2106244564056396,-8.34648609161377,0.7781155705451965
1696083232753621000,6.15962109375,0.5410895943641663,-8.260294914245605,0.1628057211637497
1696083232763621000,6.16962109375,-1.3072341680526733,-8.600272178649902,0.1867477297782898
1696083232773621000,6.17962109375,-1.7741034030914307,-8.971372604370117,0.272938996553421
1696083232783621000,6.18962109375,-2.6192567348480225,-8.99052619934082,-0.17477671802043915
1696083232793621000,6.19962109375,-3.8283286094665527,-9.117419242858887,-0.14604631066322327
1696083232803621000,6.20962109375,-4.606443881988525,-9.177274703979492,-0.12689268589019775
1696083232813621200,6.219621337890625,-4.378994941711426,-9.186851501464844,-0.06464344263076782
1696083232823621400,6.229621337890625,-3.134010076522827,-9.182063102722168,0.19153612852096558
1696083232833621200,6.239621337890625,-1.53707754611969,-9.1940336227417,0.33518823981285095
1696083232843621400,6.249621337890625,0.1388636976480484,-9.122207641601562,0.090979665517807
1696083232853621200,6.259621337890625,1.4963760375976562,-9.115025520324707,-0.19632454216480255
1696083232863621400,6.269621337890625,2.255337953567505,-9.064746856689453,-0.24660277366638184
1696083232873621200,6.279621337890625,2.2026655673980713,-9.131784439086914,-0.15322890877723694
1696083232883621400,6.289621337890625,1.2976573705673218,-9.304166793823242,-0.14365209639072418
1696083232893621200,6.299621337890625,0.2082955539226532,-9.517251014709473,-0.31364041566848755
1696083232903621400,6.309621337890625,-0.6200982332229614,-9.742305755615234,-0.5315127968788147
1696083232913621200,6.319621337890625,-0.8762778043746948,-10.036792755126953,-0.6440402865409851
1696083232923621400,6.329621337890625,-0.507570743560791,-10.453383445739746,-0.6392518281936646
1696083232933621200,6.339621337890625,0.38546648621559143,-10.879551887512207,-0.545877993106842
1696083232943621400,6.349621337890625,1.7357962131500244,-11.102212905883789,-0.3519476354122162
1696083232953621000,6.35962109375,3.07415509223938,-11.123760223388672,0.009576806798577309
1696083232963620900,6.369620849609375,3.778050184249878,-10.910676002502441,0.5554547905921936
1696083232973621000,6.37962109375,3.4141316413879395,-10.458171844482422,1.1492167711257935
1696083232983620900,6.389620849609375,2.2146365642547607,-10.168474197387695,1.7693150043487549
1696083232993621000,6.39962109375,0.5027823448181152,-10.223540306091309,2.5067291259765625
1696083233003620900,6.409620849609375,-1.2401964664459229,-10.580276489257812,3.3446998596191406
1696083233013621000,6.41962109375,-2.518700122833252,-10.975319862365723,4.242525577545166
1696083233023620900,6.429620849609375,-2.868253707885742,-11.288960456848145,5.229235649108887
1696083233033621000,6.43962109375,-1.7860745191574097,-11.403882026672363,6.0312933921813965
1696083233043620900,6.449620849609375,0.17238251864910126,-11.944971084594727,6.426336765289307
1696083233053621000,6.45962109375,2.1356279850006104,-13.003209114074707,6.462249755859375
1696083233063620900,6.469620849609375,3.49314022064209,-13.735834121704102,5.875670433044434
1696083233073621000,6.47962109375,4.1874589920043945,-13.8746976852417,4.7620673179626465
1696083233083620900,6.489620849609375,4.110844135284424,-13.812448501586914,3.6559460163116455
1696083233093621000,6.49962109375,3.7205893993377686,-13.546692848205566,2.7461493015289307
1696083233103620900,6.509620849609375,3.047818660736084,-13.32882022857666,2.166752576828003
1696083233113621000,6.51962109375,2.6671407222747803,-13.192350387573242,1.3766659498214722
1696083233123621000,6.52962109375,2.4013843536376953,-13.134889602661133,0.42377370595932007
1696083233133621000,6.53962109375,2.0159177780151367,-13.436559677124023,-0.5386953949928284
1696083233143620900,6.549620849609375,1.1563993692398071,-14.049474716186523,-1.2617442607879639
1696083233153620200,6.5596201171875,-0.033518824726343155,-14.583381652832031,-1.9967641830444336
1696083233163620400,6.569620361328125,-1.1899182796478271,-15.558120727539062,-3.5889084339141846
1696083233173620200,6.5796201171875,-1.9560627937316895,-16.14230728149414,-4.692635536193848
1696083233183620400,6.589620361328125,-2.8586769104003906,-16.484676361083984,-5.593154430389404
1696083233193620200,6.5996201171875,-3.77565598487854,-16.120758056640625,-6.455067157745361
1696083233203620400,6.609620361328125,-3.866635799407959,-14.74409294128418,-6.153397560119629
1696083233213620200,6.6196201171875,-3.177105665206909,-13.197138786315918,-5.267542839050293
1696083233223620000,6.6296201171875,-2.0422539710998535,-11.976096153259277,-3.885789394378662
1696083233233620200,6.6396201171875,-0.751779317855835,-11.049540519714355,-2.626439332962036
1696083233243620000,6.6496201171875,1.1300631761550903,-10.47253704071045,-1.3766659498214722
1696083233253620500,6.659620361328125,1.3048399686813354,-10.23072338104248,-0.45010992884635925
1696083233263620600,6.66962060546875,0.524330198764801,-9.998485565185547,0.33518823981285095
1696083233273620700,6.679620849609375,-0.2346317619085312,-9.62259578704834,0.8786720037460327
1696083233283620600,6.68962060546875,-0.8595184087753296,-9.126996040344238,1.2401964664459229
1696083233293620700,6.699620849609375,-1.290474772453308,-8.688857078552246,1.4891934394836426
1696083233303620600,6.70962060546875,-1.5969325304031372,-8.236352920532227,1.436521053314209
1696083233313620700,6.719620849609375,-1.482010841369629,-7.8221564292907715,1.280897855758667
1696083233323620600,6.72962060546875,-1.745373010635376,-7.395988464355469,0.9313444495201111
1696083233333620700,6.739620849609375,-1.7190368175506592,-6.967426300048828,0.5051765441894531
1696083233343620600,6.74962060546875,-1.6759412288665771,-6.701669692993164,-0.002394201699644327
1696083233353620700,6.759620849609375,-1.6328455209732056,-6.8070149421691895,-0.5602431893348694
1696083233363620600,6.76962060546875,-1.5873557329177856,-6.9817914962768555,-1.1851298809051514
1696083233373620700,6.779620849609375,-1.6496049165725708,-7.087136268615723,-1.580173134803772
1696083233383620600,6.78962060546875,-1.6089035272598267,-7.0895304679870605,-1.8794482946395874
1696083233393620700,6.799620849609375,-1.601720929145813,-6.972214698791504,-2.0877439975738525
1696083233403620600,6.80962060546875,-1.656787633895874,-6.787860870361328,-2.0614075660705566
1696083233413620700,6.819620849609375,-1.9512743949890137,-6.632237911224365,-2.0638017654418945
1696083233423620600,6.82962060546875,-2.1475989818573,-6.361693382263184,-2.0829553604125977
1696083233433620700,6.839620849609375,-2.183511972427368,-6.028899192810059,-2.1811177730560303
1696083233443620600,6.84962060546875,-2.097320795059204,-5.619490623474121,-2.3558945655822754
1696083233453621500,6.85962158203125,-2.0231003761291504,-5.186140060424805,-2.7222073078155518
1696083233463621400,6.869621337890625,-1.886630892753601,-4.742913722991943,-3.1866824626922607
1696083233473621500,6.87962158203125,-1.5610195398330688,-4.309563159942627,-3.7612907886505127
1696083233483621400,6.889621337890625,-1.113303780555725,-3.8355112075805664,-4.220977783203125
1696083233493621000,6.89962109375,-0.608127236366272,-3.4811692237854004,-4.331110954284668
1696083233503621000,6.90962109375,-0.035913024097681046,-3.4979286193847656,-3.9480385780334473
1696083233513621000,6.91962109375,0.7086837291717529,-4.0078935623168945,-2.806004285812378
1696083233523621000,6.92962109375,1.7286136150360107,-4.9275665283203125,-1.1300631761550903
1696083233533621000,6.93962109375,3.3063924312591553,-6.325780391693115,0.7110779285430908
1696083233543621000,6.94962109375,6.1845221519470215,-8.485349655151367,2.513911724090576
1696083233553622300,6.959622314453125,10.405499458312988,-11.312902450561523,4.697423934936523
1696083233563623200,6.969623046875,11.758223533630371,-13.740622520446777,6.93151330947876
1696083233573623000,6.979623046875,11.099818229675293,-15.653889656066895,9.380781173706055
1696083233583623200,6.989623046875,11.78216552734375,-17.48305892944336,11.116578102111816
1696083233593623000,6.999623046875,12.14129638671875,-18.780715942382812,11.257835388183594
1696083233603623200,7.009623046875,10.319308280944824,-18.368913650512695,9.337685585021973
1696083233613623000,7.019623046875,7.874828815460205,-15.780781745910645,6.335357189178467
1696083233623623200,7.029623046875,5.5021748542785645,-12.186785697937012,3.8786067962646484
1696083233633623000,7.039623046875,4.034229755401611,-8.633790969848633,2.7293899059295654
1696083233643623000,7.049622802734375,3.090914487838745,-6.953061103820801,1.6352397203445435
1696083233653623000,7.059623046875,2.6192567348480225,-8.176498413085938,1.0558429956436157
1696083233663623000,7.069622802734375,2.027888774871826,-10.235511779785156,0.586579442024231
1696083233673623000,7.079623046875,1.7381904125213623,-13.106159210205078,-0.043095629662275314
1696083233683623000,7.089622802734375,0.9241618514060974,-16.362573623657227,-0.7829039692878723
1696083233693623000,7.099623046875,-0.22505496442317963,-18.45271110534668,-1.8842366933822632
1696083233703623000,7.109622802734375,1.8962076902389526,-19.508554458618164,-4.072536945343018
1696083233713623000,7.119623046875,-1.5753847360610962,-15.747262954711914,-4.106055736541748
1696083233723623000,7.129622802734375,-3.1052796840667725,-11.499650001525879,-2.9233202934265137
1696083233733623000,7.139623046875,-3.5458126068115234,-8.925883293151855,-1.98958158493042
1696083233743623000,7.149622802734375,-4.728548526763916,-7.384017467498779,-1.886630892753601
1696083233753623000,7.159623046875,-6.143820762634277,-6.189310550689697,-2.410961151123047
1696083233763623000,7.169622802734375,-6.816591739654541,-5.049670696258545,-2.8874073028564453
1696083233773623000,7.179623046875,-5.973832607269287,-4.838681697845459,-2.365471363067627
1696083233783623000,7.189622802734375,-4.8051629066467285,-5.4159836769104,-1.525106430053711
1696083233793623300,7.199623291015625,-4.879383087158203,-5.985803604125977,-0.706289529800415
1696083233803623400,7.20962353515625,-5.119102478027344,-6.708852291107178,-0.871489405632019
1696083233813623300,7.219623291015625,-4.381389141082764,-7.850886821746826,-1.3000515699386597
1696083233823623000,7.229622802734375,-3.31118106842041,-9.162909507751465,-1.213860273361206
1696083233833623000,7.239623046875,-2.5258827209472656,-10.26663589477539,-0.7182605266571045
1696083233843623200,7.249623046875,-1.802833914756775,-11.11178970336914,0.15322890877723694
1696083233853621800,7.259621826171875,-0.45489832758903503,-11.50683307647705,1.4221558570861816
1696083233863620900,7.269620849609375,1.4700398445129395,-11.571475982666016,2.655169725418091
1696083233873621000,7.27962109375,3.313575267791748,-11.26023006439209,3.3255462646484375
1696083233883620900,7.289620849609375,4.479551315307617,-10.553940773010254,3.268085241317749
1696083233893621000,7.29962109375,4.489128112792969,-9.574711799621582,2.5306711196899414
1696083233903620900,7.309620849609375,3.4356794357299805,-8.70561695098877,1.4987702369689941
1696083233913621000,7.31962109375,1.8986018896102905,-8.229170799255371,0.3926490843296051
1696083233923620900,7.329620849609375,0.3280056416988373,-8.052000045776367,-0.4884171485900879
1696083233933621000,7.33962109375,-0.9002198576927185,-8.152556419372559,-1.3527239561080933
1696083233943620900,7.349620849609375,-1.8483237028121948,-8.655338287353516,-1.8938134908676147
1696083233953621000,7.35962109375,-2.346317768096924,-9.249100685119629,-1.8962076902389526
1696083233963620900,7.369620849609375,-2.209848165512085,-9.917082786560059,-1.6160861253738403
1696083233973621000,7.37962109375,-2.580949544906616,-9.974543571472168,-1.580173134803772
1696083233983620900,7.389620849609375,-3.201047658920288,-9.857227325439453,-1.292868971824646
1696083233993621000,7.39962109375,-2.715024709701538,-9.699210166931152,-0.8259995579719543
1696083234003620900,7.409620849609375,-1.256955862045288,-9.507674217224121,-0.28969839215278625
1696083234013621000,7.41962109375,0.2992752194404602,-9.361627578735352,0.33997663855552673
1696083234023620900,7.429620849609375,1.7094600200653076,-9.22515869140625,0.8834604024887085
1696083234033621000,7.43962109375,2.5067291259765625,-9.126996040344238,1.5059528350830078
1696083234043620900,7.449620849609375,2.698265314102173,-8.976161003112793,1.9800047874450684
1696083234053621000,7.45962109375,2.0614075660705566,-8.928277015686035,2.229001760482788
1696083234063620900,7.469620849609375,1.036689281463623,-9.021651268005371,2.233790159225464
1696083234073621000,7.47962109375,-0.07661445438861847,-9.31853199005127,1.8555063009262085
1696083234083620900,7.489620849609375,-0.6105214357376099,-9.852438926696777,1.0534487962722778
1696083234093621000,7.49962109375,-0.019153613597154617,-10.575488090515137,0.2801215946674347
1696083234103620900,7.509620849609375,1.3503297567367554,-11.176432609558105,-0.3064578175544739
1696083234113621000,7.51962109375,2.734178304672241,-11.50922679901123,-0.8236053586006165
1696083234123621400,7.529621337890625,3.383007049560547,-11.650485038757324,-1.1420341730117798
1696083234133621200,7.539621337890625,3.3303346633911133,-11.499650001525879,-1.139639973640442
1696083234143621400,7.549621337890625,2.695871114730835,-10.944194793701172,-0.5339069962501526
1696083234153621200,7.559621337890625,1.8387469053268433,-10.549152374267578,0.4165911078453064
1696083234163621400,7.569621337890625,0.6416460275650024,-10.6832275390625,1.8315643072128296
1696083234173621200,7.579621337890625,-0.11252748221158981,-11.097424507141113,2.9759926795959473
1696083234183621400,7.589621337890625,-0.7254431247711182,-11.719916343688965,4.4723687171936035
1696083234193621200,7.599621337890625,-0.646434485912323,-12.165238380432129,5.660192012786865
1696083234203621400,7.609621337890625,0.40222588181495667,-12.553098678588867,6.986579895019531
1696083234213622000,7.6196220703125,2.0638017654418945,-12.404658317565918,7.386411666870117
1696083234223588900,7.6295888671875,4.256890773773193,-12.29931354522705,7.249941825866699
1696083234233555500,7.639555419921875,5.969044208526611,-12.840402603149414,6.957849502563477
1696083234243522000,7.64952197265625,6.409577369689941,-13.482048988342285,6.486191749572754
1696083234253488600,7.659488525390625,5.626673221588135,-13.733440399169922,5.5668182373046875
1696083234263455500,7.66945556640625,4.1180267333984375,-13.707103729248047,4.383783340454102
1696083234273422000,7.679422119140625,3.069366693496704,-13.56824016571045,3.6774938106536865
1696083234283388700,7.689388671875,1.3934253454208374,-13.556269645690918,3.4763808250427246
1696083234293355500,7.69935546875,-0.40462008118629456,-13.81723690032959,2.7269957065582275
1696083234303322000,7.709322021484375,-1.3407529592514038,-14.466066360473633,1.623268723487854
1696083234313288700,7.719288818359375,-1.9129672050476074,-15.392921447753906,0.871489405632019
1696083234323255300,7.72925537109375,-2.248155355453491,-16.503829956054688,-0.5147533416748047
1696083234333222100,7.73922216796875,-2.6024973392486572,-17.894861221313477,-2.7892448902130127
1696083234343188700,7.749188720703125,-2.698265314102173,-19.144636154174805,-5.2340240478515625
1696083234353155300,7.7591552734375,-3.5194764137268066,-19.747974395751953,-6.73997688293457
1696083234363122200,7.7691220703125,-4.8051629066467285,-18.447921752929688,-7.161356449127197
1696083234373088800,7.7790888671875,-4.414907932281494,-15.560515403747559,-7.118260860443115
1696083234383055400,7.789055419921875,-2.252943754196167,-13.041516304016113,-5.945102214813232
1696083234393022000,7.79902197265625,0.23942017555236816,-11.736676216125488,-3.9432501792907715
1696083234402988800,7.80898876953125,3.555389642715454,-10.89870548248291,-2.2673089504241943
1696083234412955400,7.818955322265625,3.5386300086975098,-10.637737274169922,-1.3670891523361206
1696083234422922000,7.828921875,1.3623007535934448,-10.427047729492188,-0.8738836050033569
1696083234432888800,7.838888916015625,-0.569819986820221,-10.029610633850098,-0.14604631066322327
1696083234442855400,7.84885546875,-1.5969325304031372,-9.28261947631836,0.38067805767059326
1696083234452822000,7.858822021484375,-1.50355863571167,-8.28663158416748,0.8068459630012512
1696083234462788900,7.868788818359375,-1.4867992401123047,-7.295432090759277,0.7565677165985107
1696083234472755500,7.87875537109375,-1.6543933153152466,-6.462249755859375,0.6512228846549988
1696083234482722000,7.88872216796875,-2.52109432220459,-5.801449775695801,0.7110779285430908
1696083234492688600,7.898688720703125,-2.492363929748535,-5.181351661682129,0.5770025849342346
1696083234502655500,7.908655517578125,-1.4987702369689941,-5.0161519050598145,0.038307227194309235
1696083234512621300,7.918621337890625,-0.7326257228851318,-5.286696434020996,-0.6919242739677429
1696083234522621200,7.92862109375,-0.8140285611152649,-5.662586212158203,-1.3862427473068237
1696083234532621300,7.938621337890625,-1.2258312702178955,-5.976226806640625,-1.86508309841156
1696083234542621200,7.94862109375,-1.601720929145813,-6.301837921142578,-1.9943699836730957
1696083234552621300,7.958621337890625,-1.745373010635376,-6.469432353973389,-1.9297266006469727
1696083234562621200,7.96862109375,-1.8962076902389526,-6.4742207527160645,-1.8076223134994507
1696083234572621300,7.978621337890625,-1.9536685943603516,-6.316203594207764,-1.6663644313812256
1696083234582621200,7.98862109375,-2.0685901641845703,-6.012139797210693,-1.6735470294952393
1696083234592621300,7.998621337890625,-2.1954829692840576,-5.617096424102783,-1.8914192914962769
1696083234602621200,8.00862109375,-2.513911724090576,-5.15740966796875,-2.3271639347076416
1696083234612621300,8.018621337890625,-2.7461493015289307,-4.73573112487793,-2.9448680877685547
1696083234622621200,8.02862109375,-2.7317841053009033,-4.422090530395508,-3.5865142345428467
1696083234632621300,8.038621337890625,-2.3511061668395996,-4.055777549743652,-4.206612586975098
1696083234642621200,8.04862109375,-1.8339585065841675,-3.555389642715454,-4.750096321105957
1696083234652621300,8.058621337890624,-1.4437036514282227,-3.24414324760437,-4.891354084014893
1696083234662621200,8.06862109375,-0.7709329724311829,-3.576937437057495,-4.039018154144287
1696083234672621300,8.078621337890626,0.7086837291717529,-4.522646903991699,-1.7046716213226318
1696083234682621200,8.08862109375,2.432508945465088,-5.712864398956299,0.4908113479614258
1696083234692621300,8.098621337890625,4.831499099731445,-7.733570575714111,2.473210334777832
1696083234702621200,8.10862109375,8.736741065979004,-10.77660083770752,4.513070106506348
1696083234712621300,8.118621337890625,10.999261856079102,-13.989620208740234,6.864475727081299
1696083234722621200,8.12862109375,10.695198059082031,-16.74325180053711,9.988908767700195
1696083234732621300,8.138621337890624,11.130943298339844,-18.87887954711914,12.668020248413086
1696083234742621200,8.14862109375,12.340014457702637,-19.376873016357422,13.101370811462402
1696083234752621300,8.158621337890626,10.80772590637207,-18.004995346069336,11.183615684509277
1696083234762621200,8.16862109375,9.062353134155273,-15.194202423095703,7.72399377822876
1696083234772621300,8.178621337890625,6.8932061195373535,-13.324031829833984,4.654327869415283
1696083234782621200,8.18862109375,5.384859085083008,-13.063063621520996,2.5665841102600098
1696083234792621300,8.198621337890625,4.32871675491333,-13.913004875183105,1.3527239561080933
1696083234802621200,8.20862109375,3.1962592601776123,-15.057732582092285,0.090979665517807
1696083234812621300,8.218621337890625,1.9919757843017578,-15.984289169311523,-0.751779317855835
1696083234822621200,8.22862109375,2.097320795059204,-16.75282859802246,-1.7621324062347412
1696083234832621300,8.238621337890624,4.596867084503174,-17.408838272094727,-3.2561142444610596
1696083234842621200,8.24862109375,3.2417490482330322,-16.51340675354004,-4.800374507904053
1696083234852621300,8.258621337890625,-2.2888567447662354,-13.953706741333008,-4.982633113861084
1696083234862621200,8.26862109375,-5.152621269226074,-10.664073944091797,-4.587290287017822
1696083234872621300,8.278621337890625,-5.59794282913208,-7.791031837463379,-3.689464807510376
1696083234882621200,8.28862109375,-6.122272968292236,-5.727229595184326,-2.9041666984558105
1696083234892621300,8.298621337890625,-6.91954231262207,-3.9695863723754883,-2.9328970909118652
1696083234902621200,8.30862109375,-6.979397296905518,-2.9472622871398926,-2.760514497756958
1696083234912621300,8.318621337890624,-6.493374347686768,-2.918531894683838,-1.6543933153152466
1696083234922621200,8.32862109375,-6.347328186035156,-3.3207578659057617,-0.7038952708244324
1696083234932621300,8.338621337890626,-5.995380401611328,-4.067748546600342,-0.45250412821769714
1696083234942621000,8.348620849609375,-4.917989730834961,-5.535693645477295,-0.45010992884635925
1696083234952620800,8.358620849609375,-3.7924153804779053,-7.455843448638916,-0.4812345504760742
1696083234962621000,8.368620849609375,-3.00711727142334,-9.44303035736084,-0.33758243918418884
1696083234972620800,8.378620849609375,-2.786850690841675,-11.265018463134766,-0.07661445438861847
1696083234982621000,8.388620849609374,-2.8443117141723633,-12.378321647644043,0.16759411990642548
1696083234992620800,8.398620849609374,-3.406949043273926,-13.019968032836914,0.6177040338516235
1696083235002621000,8.408620849609376,-1.9632453918457031,-13.103765487670898,2.1499931812286377
1696083235012620800,8.418620849609376,0.8044517636299133,-12.50282096862793,3.687070608139038
1696083235022621000,8.428620849609375,3.5410242080688477,-11.339238166809082,4.20421838760376
1696083235032620800,8.438620849609375,5.404012680053711,-9.87159252166748,3.423708438873291
1696083235042621000,8.448620849609375,6.488585948944092,-8.65054988861084,2.0374655723571777
1696083235052620800,8.458620849609375,6.562806129455566,-7.8221564292907715,0.1628057211637497
1696083235062621000,8.468620849609374,5.1909284591674805,-7.84609842300415,-1.1468225717544556
1696083235072620800,8.478620849609374,3.0406360626220703,-8.341697692871094,-1.6519991159439087
1696083235082621000,8.488620849609376,0.3495534360408783,-9.371204376220703,-1.9560627937316895
1696083235092620800,8.498620849609376,-1.5322890281677246,-10.082283020019531,-2.123656988143921
1696083235102621000,8.508620849609375,-2.477998733520508,-10.127772331237793,-1.7597382068634033
1696083235112620800,8.518620849609375,-3.095702886581421,-9.998485565185547,-1.2880805730819702
1696083235122621000,8.528620849609375,-3.380612850189209,-9.917082786560059,-0.6129156351089478
1696083235132620800,8.538620849609375,-2.432508945465088,-9.577106475830078,-0.043095629662275314
1696083235142621000,8.548620849609375,-0.7661445140838623,-8.99052619934082,0.181959331035614
1696083235152620800,8.558620849609374,0.6200982332229614,-8.561964988708496,0.24660277366638184
1696083235162621000,8.568620849609376,1.6280571222305298,-8.600272178649902,0.4884171485900879
1696083235172620800,8.578620849609376,2.011129379272461,-8.854057312011719,0.7158663272857666
1696083235182621000,8.588620849609375,1.4891934394836426,-9.299378395080566,0.9289502501487732
1696083235192620800,8.598620849609375,0.40222588181495667,-9.605836868286133,1.0199298858642578
1696083235202621000,8.608620849609375,-0.9074024558067322,-9.83807373046875,1.0869675874710083
1696083235212620800,8.618620849609375,-1.7166426181793213,-10.07509994506836,1.0127472877502441
1696083235222621000,8.628620849609375,-1.8267759084701538,-10.340856552124023,0.9624691009521484
1696083235232620800,8.638620849609374,-1.1180921792984009,-10.544363975524902,0.8954314589500427
1696083235242621400,8.648621337890624,0.24420857429504395,-10.656890869140625,0.9026140570640564
1696083235252621300,8.658621337890626,2.0183119773864746,-10.77420711517334,1.0630255937576294
1696083235262621200,8.66862109375,3.8067808151245117,-10.86758041381836,1.359906554222107
1696083235272621300,8.678621337890625,4.867412090301514,-10.944194793701172,1.6304513216018677
1696083235282621200,8.68862109375,4.5825018882751465,-10.884340286254883,1.8339585065841675
1696083235292621300,8.698621337890625,3.3877954483032227,-10.824484825134277,2.183511972427368
1696083235302621200,8.70862109375,1.742978811264038,-10.941801071166992,2.7988216876983643
1696083235312621300,8.718621337890625,0.12449848651885986,-11.174038887023926,3.665522813796997
1696083235322621200,8.72862109375,-0.9050082564353943,-11.382333755493164,4.800374507904053
1696083235332621300,8.738621337890624,-1.094150185585022,-11.456554412841797,6.014533996582031
1696083235342621200,8.74862109375,-0.272938996553421,-11.224316596984863,6.991368293762207
1696083235352621300,8.758621337890625,1.4939818382263184,-10.86518669128418,7.54203462600708
1696083235362621200,8.76862109375,3.7660791873931885,-10.95616626739502,7.415142059326172
1696083235372621300,8.778621337890625,5.341763496398926,-11.53316879272461,6.550835132598877
1696083235382621200,8.78862109375,5.384859085083008,-12.215516090393066,5.305850028991699
1696083235392621300,8.798621337890625,4.639962673187256,-12.550704956054688,4.084507942199707
1696083235402621400,8.808621337890624,4.163516521453857,-12.732664108276367,2.9688100814819336
1696083235412621300,8.818621337890624,3.866635799407959,-12.957718849182129,2.0685901641845703
1696083235422621400,8.828621337890626,3.0142998695373535,-13.32882022857666,1.5203180313110352
1696083235432621300,8.838621337890626,1.0869675874710083,-13.93934154510498,1.7286136150360107
1696083235442621400,8.848621337890625,-1.1635819673538208,-14.734516143798828,1.7405846118927002
1696083235452621300,8.858621337890625,-2.6001031398773193,-15.649101257324219,0.8595184087753296
1696083235462621400,8.868621337890625,-2.851494312286377,-16.896480560302734,-0.751779317855835
1696083235472621300,8.878621337890625,-2.0685901641845703,-18.483835220336914,-2.765302896499634
1696083235482621400,8.888621337890624,-1.7693150043487549,-19.989788055419922,-5.071218490600586
1696083235492621300,8.898621337890624,-2.6168625354766846,-20.789451599121094,-7.048829078674316
1696083235502621200,8.90862109375,-3.864241600036621,-19.956270217895508,-8.123826026916504
1696083235512621300,8.918621337890626,-4.125209331512451,-17.396867752075195,-8.662521362304688
1696083235522621200,8.92862109375,-1.9943699836730957,-14.164396286010742,-7.9083476066589355
1696083235532621300,8.938621337890625,1.3215993642807007,-11.851597785949707,-6.469432353973389
1696083235542621200,8.94862109375,3.2321722507476807,-10.424653053283691,-4.759673118591309
1696083235552621300,8.958621337890625,3.071760892868042,-9.694421768188477,-3.1220390796661377
1696083235562621200,8.96862109375,0.8547300100326538,-9.605836868286133,-1.8770540952682495
1696083235572621300,8.978621337890624,-2.6216509342193604,-9.56513500213623,-1.3287819623947144
1696083235582621200,8.98862109375,-4.082113742828369,-9.19163990020752,0.11013327538967133
1696083235592621300,8.998621337890626,-2.693476915359497,-8.521263122558594,1.0127472877502441
1696083235602621200,9.00862109375,-0.4908113479614258,-7.594707012176514,1.501164436340332
1696083235612621300,9.018621337890625,0.3998316824436188,-6.816591739654541,1.6974890232086182
1696083235622621200,9.02862109375,-0.31603461503982544,-6.115090370178223,1.723825216293335
1696083235632621300,9.038621337890625,-0.8619126081466675,-5.538087844848633,1.7118542194366455
1696083235642621200,9.04862109375,-0.6224924325942993,-5.171774864196777,1.5131354331970215
1696083235652621300,9.058621337890624,-0.33997663855552673,-5.394435882568359,1.039083480834961
1696083235662621200,9.06862109375,-0.3926490843296051,-5.880458831787109,0.3998316824436188
1696083235672621300,9.078621337890626,-0.727837324142456,-6.29944372177124,-0.22505496442317963
1696083235682621200,9.08862109375,-0.9361328482627869,-6.613084316253662,-0.8954314589500427
1696083235692621300,9.098621337890625,-1.0989385843276978,-6.6274495124816895,-1.4772224426269531
1696083235702621200,9.10862109375,-1.2761094570159912,-6.529287338256836,-1.8818424940109253
1696083235712621300,9.118621337890625,-1.7405846118927002,-6.268319129943848,-2.099714994430542
1696083235722621200,9.12862109375,-2.1571757793426514,-5.875670433044434,-2.363077163696289
1696083235732621300,9.138621337890624,-2.434903144836426,-5.353734493255615,-2.628833532333374
1696083235742621200,9.14862109375,-2.5043349266052246,-4.857835292816162,-2.8658595085144043
1696083235752621300,9.158621337890626,-2.5450363159179688,-4.4077253341674805,-2.999934673309326
1696083235762621200,9.16862109375,-2.5091233253479004,-3.976768970489502,-3.251325845718384
1696083235772622300,9.178622314453126,-2.1930887699127197,-3.5960910320281982,-3.6966474056243896
1696083235782622500,9.18862255859375,-1.6663644313812256,-3.2178070545196533,-4.158728122711182
1696083235792622300,9.198622314453125,-1.0103530883789062,-2.9520506858825684,-4.434061527252197
1696083235802622500,9.20862255859375,-0.3734954595565796,-3.0166940689086914,-4.14915132522583
1696083235812622300,9.218622314453125,0.3495534360408783,-3.778050184249878,-2.760514497756958
1696083235822622500,9.22862255859375,1.580173134803772,-4.982633113861084,-0.6775590777397156
1696083235832622300,9.238622314453124,3.622427225112915,-6.651391506195068,1.9728221893310547
1696083235842622500,9.24862255859375,6.88602352142334,-9.208398818969727,4.692635536193848
1696083235852622000,9.2586220703125,11.097424507141113,-12.577040672302246,7.568370819091797
1696083235862622200,9.268622314453125,12.50521469116211,-16.065692901611328,10.735899925231934
1696083235872622000,9.2786220703125,10.788572311401367,-18.531719207763672,13.42219352722168
1696083235882622200,9.288622314453125,10.546757698059082,-19.273921966552734,13.69273853302002
1696083235892622300,9.298622314453125,11.344026565551758,-18.304269790649414,13.012785911560059
1696083235902622200,9.308622314453125,9.265859603881836,-15.787964820861816,11.770195007324219
1696083235912622300,9.318622314453124,7.28346061706543,-12.919411659240723,7.84609842300415
1696083235922622200,9.328622314453124,5.24838924407959,-10.005668640136719,4.829104900360107
1696083235932622300,9.338622314453126,3.28963303565979,-7.245153427124023,2.8634653091430664
1696083235942622200,9.348622314453126,1.922544002532959,-5.870882034301758,0.9145850539207458
1696083235952622300,9.358622314453125,1.7334020137786865,-7.441478252410889,-0.19632454216480255
1696083235962622200,9.368622314453125,1.4844050407409668,-10.350433349609375,-1.2210428714752197
1696083235972622300,9.378622314453125,0.9169792532920837,-13.733440399169922,-2.2002713680267334
1696083235982622200,9.388622314453125,0.5386953949928284,-16.819866180419922,-2.8419175148010254
1696083235992622300,9.398622314453124,-0.15083470940589905,-19.211673736572266,-3.646369218826294
1696083236002622200,9.408622314453124,4.288015365600586,-21.0695743560791,-4.9275665283203125
1696083236012622300,9.418622314453126,0.6607996821403503,-17.569250106811523,-4.0533833503723145
1696083236022622200,9.428622314453126,-2.5761611461639404,-14.075811386108398,-3.5889084339141846
1696083236032622300,9.438622314453125,-3.9456443786621094,-12.26579475402832,-2.5498247146606445
1696083236042622200,9.448622314453125,-5.341763496398926,-10.553940773010254,-2.3535003662109375
1696083236052622300,9.458622314453125,-6.421548366546631,-8.370428085327148,-2.9017724990844727
1696083236062622200,9.468622314453125,-7.249941825866699,-6.1629743576049805,-2.9879636764526367
1696083236072621000,9.47862109375,-6.35451078414917,-4.884171485900879,-2.9305028915405273
1696083236082621200,9.48862109375,-5.758354187011719,-4.177882194519043,-3.07415509223938
1696083236092621000,9.49862109375,-6.414365768432617,-4.19224739074707,-1.9177556037902832
1696083236102621200,9.50862109375,-5.904400825500488,-4.699818134307861,-0.7924807667732239
1696083236112621000,9.51862109375,-4.714183330535889,-5.660192012786865,-0.031124621629714966
1696083236122621200,9.52862109375,-3.203441858291626,-7.190086841583252,0.2537853717803955
1696083236132621000,9.53862109375,-2.3558945655822754,-8.700828552246094,0.26815059781074524
1696083236142621200,9.54862109375,-1.9512743949890137,-10.034399032592773,0.21787235140800476
1696083236152621600,9.55862158203125,-1.7310078144073486,-11.22671127319336,0.2537853717803955
1696083236162621400,9.568621337890624,-0.5410895943641663,-12.44775390625,1.0558429956436157
1696083236172621600,9.57862158203125,2.4827871322631836,-13.106159210205078,2.671929121017456
1696083236182621400,9.588621337890626,6.057629585266113,-13.043910026550293,3.931279182434082
1696083236192621300,9.598621337890625,8.569147109985352,-11.9928560256958,3.9624037742614746
1696083236202621200,9.60862109375,8.930671691894531,-10.56112289428711,2.9903578758239746
1696083236212621300,9.618621337890625,7.233182430267334,-9.122207641601562,1.5418659448623657
1696083236222621200,9.62862109375,4.58968448638916,-8.056788444519043,-0.004788403399288654
1696083236232621300,9.638621337890624,1.4269442558288574,-7.582736015319824,-1.0103530883789062
1696083236242621200,9.64862109375,-1.3192051649093628,-7.889194011688232,-1.4652514457702637
1696083236252621300,9.658621337890626,-3.1699230670928955,-8.308178901672363,-1.3407529592514038
1696083236262621200,9.66862109375,-4.2951979637146,-8.88757610321045,-1.1420341730117798
1696083236272621300,9.678621337890625,-5.2340240478515625,-9.325715065002441,-0.8810662031173706
1696083236282621200,9.68862109375,-5.8996124267578125,-9.550769805908203,-0.4668693244457245
1696083236292621300,9.698621337890625,-5.746383190155029,-9.292196273803711,0.014365210197865963
1696083236302621200,9.70862109375,-4.285621166229248,-8.959402084350586,0.950498104095459
1696083236312621300,9.718621337890625,-2.612074136734009,-8.794201850891113,1.580173134803772
1696083236322621200,9.72862109375,-1.113303780555725,-8.849268913269043,1.800439715385437
1696083236332621300,9.738621337890624,0.35434186458587646,-8.983344078063965,1.941697597503662
1696083236342621200,9.74862109375,1.702277421951294,-9.004891395568848,2.0231003761291504
1696083236352621300,9.758621337890625,2.3798365592956543,-9.10066032409668,1.9991583824157715
1696083236362621200,9.76862109375,2.1954829692840576,-9.263465881347656,1.6974890232086182
1696083236372621300,9.778621337890625,1.4077905416488647,-9.495702743530273,0.9576807022094727
1696083236382621200,9.78862109375,0.6775590777397156,-10.055946350097656,0.2849099934101105
1696083236392621300,9.798621337890625,0.5578489899635315,-10.6616792678833,-0.2537853717803955
1696083236402621200,9.80862109375,1.192312479019165,-11.032780647277832,-0.6488286852836609
1696083236412621300,9.818621337890624,2.315192937850952,-10.913070678710938,-0.9624691009521484
1696083236422621200,9.82862109375,3.28963303565979,-10.680832862854004,-0.8379706144332886
1696083236432621300,9.838621337890626,3.4093432426452637,-10.692804336547852,-0.3471592366695404
1696083236442621200,9.84862109375,2.652775526046753,-10.798149108886719,0.5602431893348694
1696083236452621300,9.858621337890625,1.4987702369689941,-10.731111526489258,1.4532804489135742
1696083236462621200,9.86862109375,0.48602294921875,-10.506056785583496,2.1068975925445557
1696083236472621300,9.878621337890625,-0.2059013396501541,-10.474931716918945,2.75812029838562
1696083236482621200,9.88862109375,-0.7852981686592102,-10.666467666625977,3.56017804145813
1696083236492621300,9.898621337890624,-1.2425906658172607,-10.944194793701172,4.491522312164307
1696083236502621200,9.90862109375,-1.4484920501708984,-11.037569046020508,5.3920416831970215
1696083236512621300,9.918621337890626,-0.9600749015808105,-10.812514305114746,5.9211602210998535
1696083236522621200,9.92862109375,0.5602431893348694,-10.506056785583496,5.933131217956543
1696083236532621300,9.938621337890625,2.6886885166168213,-10.443806648254395,5.193322658538818
1696083236542621200,9.94862109375,4.431667327880859,-11.04475212097168,4.28322696685791
1696083236552621300,9.958621337890625,5.4782328605651855,-12.550704956054688,3.584120035171509
1696083236562621200,9.96862109375,6.069600582122803,-13.958495140075684,2.8778305053710938
1696083236572621300,9.978621337890624,6.258742332458496,-14.631265640258789,1.965639591217041
1696083236582621200,9.98862109375,6.663362503051758,-14.595353126525879,0.9193734526634216
1696083236592621300,9.998621337890626,6.416759967803955,-14.324808120727539,0.5650315880775452
1696083236602621200,10.00862109375,3.8379054069519043,-14.274529457092285,1.436521053314209
1696083236612621300,10.018621337890625,0.2561795711517334,-14.185944557189941,2.2194249629974365
1696083236622621200,10.02862109375,-2.3726539611816406,-14.042292594909668,2.1140801906585693
1696083236632621300,10.038621337890625,-3.5194764137268066,-14.461277961730957,0.9696516990661621
1696083236642621200,10.04862109375,-3.5673606395721436,-15.50305461883545,-0.7924807667732239
1696083236652621300,10.058621337890624,-2.87064790725708,-17.080833435058594,-2.1715409755706787
1696083236662621200,10.06862109375,-3.0789434909820557,-18.50777816772461,-3.552995204925537
1696083236672621300,10.078621337890626,-4.065354347229004,-19.18773078918457,-4.788403511047363
1696083236682621200,10.08862109375,-4.613626480102539,-18.084003448486328,-5.171774864196777
1696083236976481800,10.382481689453124,0.11252748221158981,-3.3494882583618164,-2.762908697128296
1696083236986481700,10.392481689453126,0.811634361743927,-4.252102375030518,-0.7038952708244324
1696083236996481800,10.402481689453126,2.4851813316345215,-5.387253284454346,1.5179238319396973
1696083237006482000,10.41248193359375,4.881777286529541,-7.40556526184082,3.670311212539673
1696083237016481800,10.422481689453125,7.472602844238281,-10.053552627563477,5.653009414672852
1696083237026481700,10.432481689453125,9.5531644821167,-12.864344596862793,8.075942039489746
1696083237036481800,10.442481689453125,10.012850761413574,-15.771204948425293,10.848426818847656
1696083237046482000,10.45248193359375,10.479720115661621,-18.222867965698242,13.922582626342773
1696083237056481800,10.462481689453124,12.39029312133789,-19.43433380126953,15.093646049499512
1696083237066481700,10.472481689453126,12.864344596862793,-19.223644256591797,14.712967872619629
1696083237076481800,10.482481689453126,10.812514305114746,-17.305889129638672,11.039963722229004
1696083237086482000,10.49248193359375,8.300996780395508,-14.559439659118652,6.165368556976318
1696083237096481800,10.502481689453125,5.389647483825684,-11.38472843170166,3.1076738834381104
1696083237106481700,10.512481689453125,3.2537200450897217,-8.961795806884766,1.1827356815338135
1696083237116481800,10.522481689453125,3.4189200401306152,-8.734347343444824,-0.1364694982767105
1696083237126482000,10.53248193359375,3.7158010005950928,-10.491691589355469,-1.259350061416626
1696083237136481800,10.542481689453124,2.5785553455352783,-13.529932975769043,-1.8267759084701538
1696083237146481700,10.552481689453124,1.2713210582733154,-16.671424865722656,-2.4612393379211426
1696083237156481800,10.562481689453126,-0.7206547260284424,-18.852542877197266,-3.88818359375
1696083237166482000,10.57248193359375,-1.0031704902648926,-19.393632888793945,-6.519710540771484
1696083237176481800,10.582481689453125,-3.31118106842041,-15.720927238464355,-7.513304233551025
1696083237186481700,10.592481689453125,-5.99298620223999,-12.311284065246582,-6.347328186035156
1696083237196481800,10.602481689453125,-6.467038154602051,-9.727940559387207,-5.0784010887146
1696083237206482000,10.61248193359375,-6.943484306335449,-7.984961986541748,-4.331110954284668
1696083237216481800,10.622481689453124,-7.594707012176514,-5.653009414672852,-3.794809579849243
1696083237226482000,10.63248193359375,-6.924330711364746,-4.261679172515869,-3.6391866207122803
1696083237236481800,10.642481689453126,-5.222053050994873,-3.584120035171509,-2.9688100814819336
1696083237246482000,10.65248193359375,-5.289090633392334,-3.4308910369873047,-2.1164743900299072
1696083237256481800,10.662481689453125,-5.310638427734375,-3.8953661918640137,-1.6855180263519287
1696083237266482000,10.67248193359375,-4.14915132522583,-5.406406879425049,-0.7038952708244324
1696083237276481800,10.682481689453125,-2.698265314102173,-7.721599578857422,-0.06703764945268631
1696083237286482000,10.69248193359375,-1.778891921043396,-9.574711799621582,0.13407529890537262
1696083237296481800,10.702481689453125,-1.460463047027588,-11.049540519714355,0.16998831927776337
1696083237306482000,10.71248193359375,-1.2976573705673218,-12.088624000549316,0.35673606395721436
1696083237316481800,10.722481689453126,-0.8403648138046265,-12.636896133422852,1.1420341730117798
1696083237326482000,10.73248193359375,0.5626373887062073,-12.87631607055664,2.5905263423919678
1696083237336481800,10.742481689453125,3.098097085952759,-12.735057830810547,4.2760443687438965
1696083237346482000,10.75248193359375,5.849334239959717,-11.952154159545898,5.087977886199951
1696083237356481800,10.762481689453125,7.791031837463379,-10.81011962890625,4.623203277587891
1696083237366482000,10.77248193359375,8.16213321685791,-9.785401344299316,3.2824504375457764
1696083237376481800,10.782481689453125,6.725611686706543,-9.138967514038086,1.867477297782898
1696083237386482000,10.79248193359375,4.170699596405029,-8.813355445861816,0.507570743560791
1696083237396481800,10.802481689453124,1.889025092124939,-8.779836654663086,-0.5386953949928284
1696083237406482000,10.81248193359375,-0.08379705995321274,-9.007286071777344,-0.7996633648872375
1696083237416481800,10.822481689453125,-1.7501614093780518,-9.081506729125977,-0.8738836050033569
1696083237426482000,10.83248193359375,-3.141192674636841,-9.050381660461426,-0.828393816947937
1696083237436481800,10.842481689453125,-4.022258758544922,-9.052776336669922,-0.4620809257030487
1696083237446482000,10.85248193359375,-5.2364182472229,-8.966584205627441,-0.090979665517807
1696083237456481800,10.862481689453125,-5.540482044219971,-8.789413452148438,0.22266076505184174
1696083237466482000,10.87248193359375,-4.632780075073242,-8.664915084838867,0.5219359993934631
1696083237476481800,10.882481689453124,-3.160346269607544,-8.719982147216797,0.8475474119186401
1696083237486482000,10.89248193359375,-1.8626888990402222,-8.803778648376465,0.9169792532920837
1696083237496481800,10.902481689453126,-0.6392518281936646,-8.854057312011719,0.8044517636299133
1696083237506482000,10.91248193359375,0.5817909836769104,-8.940248489379883,0.507570743560791
1696083237516481800,10.922481689453125,1.335964560508728,-9.177274703979492,0.181959331035614
1696083237526482000,10.93248193359375,1.3503297567367554,-9.507674217224121,-0.1628057211637497
1696083237536481800,10.942481689453125,0.7948749661445618,-9.771036148071289,-0.45489832758903503
1696083237546482000,10.95248193359375,0.2082955539226532,-10.020033836364746,-0.689530074596405
1696083237556481800,10.962481689453124,-0.026336219161748886,-10.283395767211914,-1.0414776802062988
1696083237566482000,10.97248193359375,0.24899697303771973,-10.604218482971191,-1.3000515699386597
1696083237576481800,10.982481689453126,1.1635819673538208,-10.999261856079102,-1.53707754611969
1696083237586482000,10.99248193359375,2.7246015071868896,-11.197980880737305,-1.6663644313812256
1696083237596481800,11.002481689453125,4.266467571258545,-11.190797805786133,-1.3982137441635132
1696083237606482000,11.01248193359375,4.862623691558838,-11.207557678222656,-0.6344634294509888
1696083237616481800,11.022481689453125,4.2329487800598145,-11.166855812072754,0.5626373887062073
1696083237626482000,11.03248193359375,2.7461493015289307,-11.030386924743652,1.742978811264038
1696083237636481800,11.042481689453124,0.7422025203704834,-11.013627052307129,2.7509377002716064
1696083237646482000,11.05248193359375,-1.3072341680526733,-11.197980880737305,3.7421371936798096
1696083237656481800,11.062481689453126,-3.0789434909820557,-11.545140266418457,5.03291130065918
1696083237666482000,11.07248193359375,-4.240131378173828,-11.901875495910645,6.577171325683594
1696083237676481800,11.082481689453125,-3.6774938106536865,-11.997644424438477,7.977779388427734
1696083237686482000,11.09248193359375,-1.4293384552001953,-11.44218921661377,8.46859073638916
1696083237696481800,11.102481689453125,1.5298948287963867,-10.750265121459961,7.896376609802246
1696083237706482000,11.11248193359375,4.1180267333984375,-10.702381134033203,6.943484306335449
1696083237716481800,11.122481689453124,5.2771196365356445,-11.547533988952637,5.794267177581787
1696083237726482000,11.13248193359375,4.400542736053467,-12.636896133422852,4.458003520965576
1696083237736481800,11.142481689453126,2.8658595085144043,-13.371915817260742,3.2537200450897217
1696083237746482000,11.15248193359375,1.9704279899597168,-13.69273853302002,2.1523873805999756
1696083237756481800,11.162481689453125,2.5737667083740234,-13.312060356140137,1.01753568649292
1696083237766482000,11.17248193359375,3.5889084339141846,-12.957718849182129,0.24660277366638184
1696083237776481800,11.182481689453125,4.314351558685303,-12.857162475585938,-0.5410895943641663
1696083237786482000,11.19248193359375,4.261679172515869,-13.051093101501465,-1.2665326595306396
1696083237796481800,11.202481689453125,2.983175277709961,-13.699921607971191,-1.4437036514282227
1696083237806482000,11.21248193359375,1.05105459690094,-14.353538513183594,-1.9560627937316895
1696083237816481800,11.222481689453126,-0.15322890877723694,-15.301941871643066,-2.655169725418091
1696083237826482000,11.23248193359375,-1.479616641998291,-16.154277801513672,-3.7852327823638916
1696083237836481800,11.242481689453125,-2.3056161403656006,-16.81268310546875,-4.692635536193848
1696083237846482000,11.25248193359375,-3.3925838470458984,-17.31067657470703,-5.748777389526367
1696083237856481800,11.262481689453125,-4.6471452713012695,-16.56608009338379,-6.024110794067383
1696083237866482000,11.27248193359375,-4.182670593261719,-15.175048828125,-5.629067420959473
1696083237876481800,11.282481689453125,-2.5905263423919678,-13.845967292785645,-4.73573112487793
1696083237886482000,11.29248193359375,-1.403002142906189,-13.201927185058594,-3.203441858291626
1696083237896481800,11.302481689453124,-0.11013327538967133,-12.409446716308594,-1.9560627937316895
1696083237906482000,11.31248193359375,0.9481038451194763,-11.765406608581543,-0.8164227604866028
1696083237916481800,11.322481689453125,0.47884035110473633,-11.308114051818848,-0.07661445438861847
1696083237926482000,11.33248193359375,-0.6703764796257019,-10.817302703857422,0.3663128614425659
1696083237936481800,11.342481689453125,-1.8076223134994507,-10.261847496032715,0.9169792532920837
1696083237946482000,11.35248193359375,-1.721431016921997,-9.337685585021973,1.1300631761550903
1696083237956481800,11.362481689453125,-1.0079588890075684,-8.52365779876709,1.0869675874710083
1696083237966482000,11.37248193359375,-0.9050082564353943,-7.764695167541504,1.194706678390503
1696083237976481800,11.382481689453124,-1.4484920501708984,-7.257124423980713,1.2234370708465576
1696083237986482000,11.39248193359375,-1.7525556087493896,-6.718429088592529,1.2210428714752197
1696083237996481800,11.402481689453126,-1.577778935432434,-6.198887348175049,0.8355764150619507
1696083238006482000,11.41248193359375,-0.9648633003234863,-5.873276233673096,0.21547815203666687
1696083238016481800,11.422481689453125,-0.8595184087753296,-5.858911037445068,-0.4165911078453064
1696083238026482000,11.43248193359375,-1.1994950771331787,-5.976226806640625,-0.8786720037460327
1696083238036481800,11.442481689453125,-1.6376339197158813,-6.107907772064209,-1.2210428714752197
1696083238046482000,11.45248193359375,-1.6950948238372803,-6.167762756347656,-1.4700398445129395
1696083238056481800,11.462481689453124,-1.656787633895874,-6.165368556976318,-1.6496049165725708
1696083238066482000,11.47248193359375,-1.7525556087493896,-6.098330974578857,-1.7046716213226318
1696083238076481800,11.482481689453126,-1.8267759084701538,-5.911583423614502,-1.8148049116134644
1696083238086482000,11.49248193359375,-1.9345149993896484,-5.684134006500244,-2.094926595687866
1696083238096481800,11.502481689453125,-2.183511972427368,-5.377676486968994,-2.5019407272338867
1696083238106482000,11.51248193359375,-2.3774423599243164,-4.94193172454834,-2.8778305053710938
1696083238116481800,11.522481689453125,-2.2697031497955322,-4.431667327880859,-3.2130186557769775
1696083238126482000,11.53248193359375,-2.0877439975738525,-3.8810009956359863,-3.4763808250427246
1696083238136481800,11.542481689453124,-1.7286136150360107,-3.3734302520751953,-3.6990416049957275
1696083238146482000,11.55248193359375,-1.2856862545013428,-3.021482467651367,-3.866635799407959
1696083238156481800,11.562481689453126,-0.5195417404174805,-3.1196448802948,-3.7158010005950928
1696083238166482000,11.57248193359375,0.181959331035614,-3.646369218826294,-3.047818660736084
1696083238176481800,11.582481689453125,1.1994950771331787,-4.477157115936279,-1.8722656965255737
1696083238186482000,11.59248193359375,2.9496564865112305,-5.710470199584961,-0.21547815203666687
1696083238196481800,11.602481689453125,5.772719383239746,-7.6641387939453125,1.6663644313812256
1696083238206482000,11.61248193359375,10.228328704833984,-10.41507625579834,3.7684733867645264
1696083238216481800,11.622481689453124,12.919411659240723,-13.522750854492188,6.641814708709717
1696083238226482000,11.63248193359375,12.68478012084961,-16.714521408081055,10.0487642288208
1696083238236481800,11.642481689453126,11.166855812072754,-19.05126190185547,12.651261329650879
1696083238246482000,11.65248193359375,10.869975090026855,-19.56122589111328,12.577040672302246
1696083238256481800,11.662481689453125,9.414299964904785,-17.507001876831055,10.597036361694336
1696083238266482000,11.67248193359375,7.726387977600098,-13.750199317932129,7.570765018463135
1696083238276481800,11.682481689453125,6.024110794067383,-10.182839393615723,5.2771196365356445
1696083238286482000,11.69248193359375,4.326322555541992,-7.027281284332275,3.758896589279175
1696083238296481800,11.702481689453125,2.736572504043579,-5.131073474884033,2.38462495803833
1696083238306482000,11.71248193359375,2.2385785579681396,-7.034463882446289,1.4197616577148438
1696083238316481800,11.722481689453126,1.455674648284912,-10.6832275390625,0.37828385829925537
1696083238326482000,11.73248193359375,0.24899697303771973,-14.844649314880371,-0.26096799969673157
1696083238336481800,11.742481689453125,-1.525106430053711,-18.038515090942383,-1.1276689767837524
1696083238346482000,11.75248193359375,-2.913743495941162,-20.88761329650879,-2.6168625354766846
1696083238356481800,11.762481689453125,2.832340717315674,-24.363994598388672,-4.697423934936523
1696083238366482000,11.77248193359375,-1.4053963422775269,-20.080768585205078,-3.9839515686035156
1696083238376481800,11.782481689453125,-3.272873640060425,-14.626477241516113,-3.1723172664642334
1696083238386482000,11.79248193359375,-3.7038300037384033,-10.84363842010498,-2.9688100814819336
1696083238396481800,11.802481689453124,-5.487809658050537,-8.111854553222656,-3.88818359375
1696083238406482000,11.81248193359375,-6.699275493621826,-5.629067420959473,-4.479551315307617
1696083238416481800,11.822481689453125,-6.024110794067383,-3.869029998779297,-3.6727054119110107
1696083238426482000,11.83248193359375,-5.06643009185791,-3.066972494125366,-3.44765043258667
1696083238436481800,11.842481689453125,-5.176563262939453,-2.8419175148010254,-3.0789434909820557
1696083238446482000,11.85248193359375,-5.023334503173828,-3.248931646347046,-2.2194249629974365
1696083238456481800,11.862481689453125,-4.311957359313965,-4.201824188232422,-1.1061211824417114
1696083238466482000,11.87248193359375,-3.512293815612793,-6.036081790924072,-0.8451532125473022
1696083238476481800,11.882481689453124,-2.4660277366638184,-8.07354736328125,-0.7709329724311829
1696083238486482000,11.89248193359375,-2.03507137298584,-10.008062362670898,-0.8212111592292786
1696083238496481800,11.902481689453126,-1.8962076902389526,-11.703157424926758,-0.667982280254364
1696083238506482000,11.91248193359375,-1.4053963422775269,-12.885892868041992,-0.014365210197865963
1696083238516481800,11.922481689453125,0.6009446382522583,-13.431771278381348,1.4772224426269531
1696083238526482000,11.93248193359375,3.8714241981506348,-13.357550621032715,3.248931646347046
1696083238536481800,11.942481689453125,6.878840923309326,-12.6057710647583,4.393360137939453
1696083238546482000,11.95248193359375,8.41112995147705,-11.157279014587402,4.197035789489746
1696083238556481800,11.962481689453124,7.704840183258057,-9.524434089660645,3.1220390796661377
1696083238566482000,11.97248193359375,5.4135894775390625,-8.356062889099121,1.6903064250946045
1696083238576481800,11.982481689453126,2.2409727573394775,-7.94904899597168,0.42377370595932007
1696083238586482000,11.99248193359375,-0.4572925269603729,-8.054393768310547,-0.2753331959247589
1696083238596481800,12.002481689453125,-2.410961151123047,-8.511686325073242,-0.7134721279144287
1696083238606482000,12.01248193359375,-3.7876269817352295,-8.964190483093262,-1.161187767982483
1696083238616481800,12.022481689453125,-4.546588897705078,-9.330503463745117,-1.3742717504501343
1696083238626482000,12.03248193359375,-5.035305500030518,-9.450213432312012,-1.623268723487854
1696083238636481800,12.042481689453124,-5.128679275512695,-9.464578628540039,-1.522712230682373
1696083238646482000,12.05248193359375,-4.02465295791626,-9.601048469543457,-0.9002198576927185
1696083238656481800,12.062481689453126,-2.1571757793426514,-9.58668327331543,-0.21787235140800476
1696083238666482000,12.07248193359375,-0.2801215946674347,-9.38317584991455,0.026336219161748886
1696083238676481800,12.082481689453125,1.3215993642807007,-9.466972351074219,0.0933738648891449
1696083238686482000,12.09248193359375,2.2816741466522217,-9.720758438110352,0.4213795065879822
1696083238696481800,12.102481689453125,2.298433542251587,-10.003273963928223,0.9193734526634216
1696083238706482000,12.11248193359375,1.4484920501708984,-10.261847496032715,1.3192051649093628
1696083238716481800,12.122481689453124,0.4213795065879822,-10.383952140808105,1.3096283674240112
1696083239018333700,12.424333740234376,-3.7900211811065674,-19.142240524291992,-4.668693542480469
1696083239028333800,12.434333740234376,-4.496310710906982,-18.172590255737305,-5.133467674255371
1696083239038333700,12.444333740234375,-4.477157115936279,-16.230892181396484,-4.668693542480469
1696083239048333800,12.454333740234375,-3.3446998596191406,-14.329596519470215,-3.9432501792907715
1696083239058333700,12.464333740234375,-1.4652514457702637,-13.027151107788086,-2.8586769104003906
1696083239068333800,12.474333740234375,0.395043283700943,-12.253823280334473,-1.3862427473068237
1696083239078333700,12.484333740234375,2.056619167327881,-11.588235855102539,-0.24660277366638184
1696083239088333800,12.494333740234374,2.8443117141723633,-11.166855812072754,-0.047884032130241394
1696083239098333700,12.504333740234374,1.0319008827209473,-10.817302703857422,0.17477671802043915
1696083239108333800,12.514333740234376,-1.6376339197158813,-10.386345863342285,0.2322375625371933
1696083239118333700,12.524333740234376,-2.7485435009002686,-9.715970039367676,0.5889736413955688
1696083239128333800,12.534333740234375,-2.1475989818573,-8.978555679321289,0.5267243981361389
1696083239138333700,12.544333740234375,-1.3048399686813354,-8.16452693939209,0.40940847992897034
1696083239148333800,12.554333740234375,-0.9313444495201111,-7.419930458068848,0.1412578970193863
1696083239158333700,12.564333740234375,-1.0031704902648926,-6.730400085449219,-0.17477671802043915
1696083239168333800,12.574333740234374,-1.0869675874710083,-6.239588737487793,-0.6368576288223267
1696083239178333700,12.584333740234374,-1.0773907899856567,-5.9427080154418945,-1.1875240802764893
1696083239188333800,12.594333740234376,-0.8427590131759644,-5.751171588897705,-2.0374655723571777
1696083239198333700,12.604333740234376,-0.5219359993934631,-5.803843975067139,-2.6360161304473877
1696083239208333800,12.614333740234375,-0.6655880808830261,-5.933131217956543,-2.9257144927978516
1696083239218333700,12.624333740234375,-1.290474772453308,-6.134243965148926,-2.873042106628418
1696083239228333800,12.634333740234375,-1.7501614093780518,-6.2276177406311035,-2.715024709701538
1696083239238333700,12.644333740234375,-1.7741034030914307,-6.239588737487793,-2.5115175247192383
1696083239248333800,12.654333740234375,-1.644816517829895,-6.151003360748291,-2.3798365592956543
1696083239258333700,12.664333740234374,-1.5682021379470825,-6.071994781494141,-2.2218191623687744
1696083239268333800,12.674333740234376,-1.5753847360610962,-5.90200662612915,-2.209848165512085
1696083239278333700,12.684333740234376,-1.556231141090393,-5.55245304107666,-2.559401512145996
1696083239288333800,12.694333740234375,-1.5658079385757446,-5.03291130065918,-3.0166940689086914
1696083239298333700,12.704333740234375,-1.3958195447921753,-4.446032524108887,-3.490746021270752
1696083239308333800,12.714333740234375,-1.0606313943862915,-3.950432777404785,-3.8738183975219727
1696083239318333700,12.724333740234375,-0.751779317855835,-3.8355112075805664,-3.8091750144958496
1696083239328333800,12.734333740234375,-0.43335050344467163,-4.134786128997803,-3.1004912853240967
1696083239338333700,12.744333740234374,0.26815059781074524,-4.9491143226623535,-1.843535304069519
1696083239348333800,12.754333740234374,1.7094600200653076,-6.198887348175049,0.07661445438861847
1696083239358333700,12.764333740234376,3.4308910369873047,-7.740753173828125,2.212242364883423
1696083239368333800,12.774333740234376,5.772719383239746,-9.658509254455566,4.113238334655762
1696083239378333700,12.784333740234375,7.740753173828125,-11.60020637512207,5.940313816070557
1696083239388333800,12.794333740234375,7.793426036834717,-13.039121627807617,7.491756439208984
1696083239398333700,12.804333740234375,7.000945091247559,-13.589788436889648,8.77504825592041
1696083239408333800,12.814333740234375,6.75194787979126,-13.4413480758667,9.818920135498047
1696083239418334000,12.824333984375,7.613860607147217,-13.228263854980469,10.642525672912598
1696083239428333800,12.834333740234374,7.580341815948486,-13.043910026550293,10.190021514892578
1696083239438334000,12.844333984375,6.804620742797852,-12.727875709533691,8.13100814819336
1696083239448333800,12.854333740234376,5.851728439331055,-12.2897367477417,5.4566850662231445
1696083239458334000,12.864333984375,4.874594688415527,-11.74864673614502,3.251325845718384
1696083239468333800,12.874333740234375,3.1675288677215576,-10.281001091003418,1.7166426181793213
1696083239478334000,12.884333984375,2.161964178085327,-8.277054786682129,0.5506663918495178
1696083239488333800,12.894333740234375,1.522712230682373,-7.343316078186035,-0.3064578175544739
1696083239498334000,12.904333984375,1.5610195398330688,-8.535628318786621,-0.4620809257030487
1696083239508333800,12.914333740234374,1.9584569931030273,-10.62816047668457,-0.5913678407669067
1696083239518334000,12.924333984375,2.252943754196167,-13.20671558380127,-1.357512354850769
1696083239528333800,12.934333740234376,2.5546131134033203,-15.99865436553955,-1.843535304069519
1696083239538334000,12.944333984375,2.6216509342193604,-18.39285659790039,-1.8938134908676147
1696083239548333800,12.954333740234375,5.061641693115234,-20.605098724365234,-2.5067291259765625
1696083239558334000,12.964333984375,4.996998310089111,-19.97542381286621,-2.851494312286377
1696083239568333800,12.974333740234375,0.5985504388809204,-16.302717208862305,-1.9991583824157715
1696083239578334000,12.984333984375,-0.9265560507774353,-12.732664108276367,-0.8547300100326538
1696083239588333800,12.994333740234374,-1.8363527059555054,-9.613018989562988,-0.4118026793003082
1696083239598334000,13.004333984375,-3.205836057662964,-6.969820499420166,-1.0055646896362305
1696083239608333800,13.014333740234376,-4.122815132141113,-5.1454386711120605,-1.2713210582733154
1696083239618334000,13.024333984375,-4.939537525177002,-3.732560396194458,-1.2641384601593018
1696083239628333800,13.034333740234375,-5.320215225219727,-2.801215887069702,-2.0446481704711914
1696083239638334000,13.044333984375,-4.745307922363281,-2.8993782997131348,-2.0661959648132324
1696083239648333800,13.054333740234375,-4.290409564971924,-4.079719543457031,-1.2856862545013428
1696083239658334000,13.064333984375,-4.185064792633057,-5.940313816070557,-0.8188169598579407
1696083239668333800,13.074333740234374,-3.6128504276275635,-8.10706615447998,-0.7254431247711182
1696083239678334000,13.084333984375,-3.112462282180786,-10.333673477172852,-0.8547300100326538
1696083239688333800,13.094333740234376,-2.784456491470337,-12.213122367858887,-0.8738836050033569
1696083239698334000,13.104333984375,-2.2457611560821533,-13.300089836120605,-0.4429273009300232
1696083239998363100,13.404363037109375,0.2801215946674347,-9.522039413452148,-0.15322890877723694
1696083240008363300,13.41436328125,1.091755986213684,-9.775824546813965,-0.2059013396501541
1696083240018363100,13.424363037109375,2.051830768585205,-10.032004356384277,-0.002394201699644327
1696083240028363300,13.43436328125,3.0190882682800293,-10.084676742553711,0.27054479718208313
1696083240038363100,13.444363037109374,3.689464807510376,-9.89314079284668,0.5722141861915588
1696083240048363300,13.45436328125,3.6846764087677,-9.675268173217773,0.9648633003234863
1696083240058363100,13.464363037109376,2.935291290283203,-9.646537780761719,1.3192051649093628
1696083240068363300,13.47436328125,1.7525556087493896,-9.790189743041992,1.3838485479354858
1696083240078363100,13.484363037109375,0.5195417404174805,-9.8691987991333,1.1037269830703735
1696083240088363300,13.49436328125,-0.5410895943641663,-9.658509254455566,0.7086837291717529
1696083240098363100,13.504363037109375,-1.1803414821624756,-9.268254280090332,0.5746083855628967
1696083240108363300,13.51436328125,-1.522712230682373,-8.88757610321045,0.6560112833976746
1696083240118363400,13.52436328125,-1.6089035272598267,-8.782231330871582,0.9169792532920837
1696083240128363300,13.53436328125,-1.5203180313110352,-9.028834342956543,1.3934253454208374
1696083240138363400,13.54436328125,-1.4652514457702637,-9.632172584533691,1.9847931861877441
1696083240148363300,13.55436328125,-1.3120225667953491,-10.587459564208984,2.360682964324951
1696083240158363400,13.56436328125,-0.9026140570640564,-11.236288070678711,2.315192937850952
1696083240168363300,13.57436328125,-0.23942017555236816,-11.29374885559082,2.231395959854126
1696083240178363400,13.58436328125,0.35913026332855225,-11.233893394470215,2.5091233253479004
1696083240188363300,13.59436328125,0.5889736413955688,-11.502044677734375,3.098097085952759
1696083240198363400,13.60436328125,0.5219359993934631,-12.05031681060791,3.6966474056243896
1696083240208363300,13.61436328125,0.5434837937355042,-12.486061096191406,3.7900211811065674
1696083240218363400,13.62436328125,1.0319008827209473,-12.519579887390137,3.155557870864868
1696083240228363300,13.63436328125,2.0638017654418945,-12.294525146484375,1.9823989868164062
1696083240238363400,13.64436328125,3.047818660736084,-12.17720890045166,0.7398083209991455
1696083240248363300,13.65436328125,3.6128504276275635,-12.227487564086914,-0.4668693244457245
1696083240258363400,13.66436328125,3.778050184249878,-12.23466968536377,-1.6711528301239014
1696083240268363300,13.67436328125,3.339911460876465,-12.287342071533203,-3.0837318897247314
1696083240278363400,13.68436328125,2.4444799423217773,-12.407052040100098,-4.285621166229248
1696083240288363300,13.69436328125,1.2641384601593018,-12.155661582946777,-5.121496677398682
1696083240298363400,13.70436328125,-0.4572925269603729,-11.6337251663208,-5.487809658050537
1696083240308363300,13.71436328125,-1.9488801956176758,-10.872368812561035,-5.468656063079834
1696083240318363400,13.72436328125,-2.8131868839263916,-10.19720458984375,-5.210082054138184
1696083240328363300,13.73436328125,-2.9735984802246094,-9.682451248168945,-4.786009311676025
1696083240338363400,13.74436328125,-2.4133553504943848,-9.500492095947266,-3.995922565460205
1696083240348363300,13.75436328125,-1.7980455160140991,-9.629778861999512,-3.313575267791748
1696083240358363400,13.76436328125,-1.278503656387329,-10.020033836364746,-2.5282769203186035
1696083240368363300,13.77436328125,-0.9026140570640564,-10.529998779296875,-1.5753847360610962
1696083240378363400,13.78436328125,-0.5578489899635315,-10.858003616333008,-0.5722141861915588
1696083240388363300,13.79436328125,-0.31124621629714966,-10.941801071166992,0.2849099934101105
1696083240398363400,13.80436328125,-0.36152446269989014,-10.704774856567383,0.9026140570640564
1696083240408363300,13.81436328125,-0.7374141216278076,-10.467748641967773,1.316810965538025
1696083240418363400,13.82436328125,-0.8427590131759644,-10.16368579864502,1.381454348564148
1696083240428363300,13.83436328125,-0.7015010714530945,-9.826103210449219,1.2497732639312744
