time,seconds_elapsed,z,y,x
1696083226649930000,0.055929931640625,-0.7665977478027344,1.2884385585784912,-0.30191636085510254
1696083226659930000,0.06593017578125,-0.9443635940551758,1.3401625156402588,-0.318352073431015
1696083226669930000,0.075929931640625,-1.008845329284668,1.378417730331421,-0.3051350712776184
1696083226679930000,0.08593017578125,-0.9407901763916016,1.3695921897888184,-0.23133552074432373
1696083226689930000,0.095929931640625,-0.8102512359619141,1.3312630653381348,-0.2834622859954834
1696083226699930000,0.10593017578125,-0.6128664016723633,1.264495849609375,-0.3740880489349365
1696083226709930000,0.115929931640625,-0.4684610366821289,1.2390649318695068,-0.4052499234676361
1696083226719930000,0.12593017578125,-0.3385782241821289,1.1830718517303467,-0.41041749715805054
1696083226729930000,0.135929931640625,-0.24955368041992188,1.1110641956329346,-0.3694847822189331
1696083226739930000,0.14593017578125,-0.18695354461669922,1.0205793380737305,-0.31701236963272095
1696083226749930000,0.155929931640625,-0.1578083038330078,0.9256312847137451,-0.22234423458576202
1696083226759930000,0.16593017578125,-0.20975971221923828,0.8065600395202637,-0.14631107449531555
1696083226769930000,0.175929931640625,-0.3472318649291992,0.6961405277252197,-0.13826513290405273
1696083226779930000,0.18593017578125,-0.5148715972900391,0.6536421775817871,-0.1416337490081787
1696083226789930000,0.195929931640625,-0.6961421966552734,0.6461691856384277,-0.13947656750679016
1696083226799930000,0.20593017578125,-0.8936920166015625,0.6619603633880615,-0.14088848233222961
1696083226809930000,0.215929931640625,-1.050417423248291,0.6346926689147949,-0.10116451978683472
1696083226819930000,0.22593017578125,-1.2104473114013672,0.6264932155609131,-0.07819867134094238
1696083226829930000,0.235929931640625,-1.263801097869873,0.6422092914581299,-0.15125730633735657
1696083226839930000,0.24593017578125,-1.3305044174194336,0.6487753391265869,-0.2200070023536682
1696083226849930000,0.255929931640625,-1.3645539283752441,0.6212031841278076,-0.24080973863601685
1696083226859930000,0.26593017578125,-1.4144878387451172,0.4888885021209717,-0.30931875109672546
1696083226869930000,0.275929931640625,-1.4659361839294434,0.3812248706817627,-0.36661913990974426
1696083226879930000,0.28593017578125,-1.552276611328125,0.20716309547424316,-0.33334317803382874
1696083226889930000,0.295929931640625,-1.701887607574463,-0.029079198837280273,-0.21861335635185242
1696083226899930000,0.30593017578125,-1.9671645164489746,-0.3949565887451172,-0.21821328997612
1696083226909930000,0.315929931640625,-2.2018446922302246,-0.5868926048278809,-0.035419851541519165
1696083226919930000,0.32593017578125,-2.5285086631774902,-0.9519102573394775,0.24366265535354614
1696083226929930000,0.335929931640625,-0.7753391265869141,-1.079446792602539,-1.483569860458374
1696083226939930000,0.34593017578125,-0.44559478759765625,-0.19290661811828613,-1.8561493158340454
1696083226949930000,0.355929931640625,0.04184722900390625,-0.24824237823486328,-2.7539756298065186
1696083226959930000,0.36593017578125,0.6657238006591797,-0.3365743160247803,-3.717135190963745
1696083226969930000,0.375929931640625,-0.5073490142822266,-0.5551612377166748,-3.888850450515747
1696083226979930000,0.38593017578125,-1.4629340171813965,0.34900355339050293,-3.2747714519500732
1696083226989930000,0.395929931640625,-2.3771157264709473,0.6921207904815674,-1.6238179206848145
1696083226999930000,0.40593017578125,-3.378653049468994,0.6730608940124512,-1.1072882413864136
1696083227009930000,0.415929931640625,-4.586634635925293,0.7113175392150879,-1.959712266921997
1696083227019930000,0.42593017578125,-3.4704084396362305,0.22387313842773438,-3.073355197906494
1696083227029930000,0.435929931640625,-2.0278725624084473,-0.36167168617248535,-3.5303378105163574
1696083227039930000,0.44593017578125,-1.396428108215332,-0.949286699295044,-3.162203550338745
1696083227049930000,0.455929931640625,-1.2417826652526855,-1.4974544048309326,-2.6991159915924072
1696083227059930000,0.46593017578125,-1.173210620880127,-1.9328892230987549,-2.3374195098876953
1696083227069930000,0.475929931640625,-0.9233293533325195,-2.2325992584228516,-2.510772705078125
1696083227079930000,0.48593017578125,-0.826634407043457,-1.7790520191192627,-3.0026111602783203
1696083227089930200,0.49593017578125,-0.5503101348876953,-0.8641033172607422,-3.619704008102417
1696083227099930000,0.50593017578125,-0.22417402267456055,0.012311458587646484,-3.7750048637390137
1696083227109930200,0.51593017578125,0.06094074249267578,0.6211118698120117,-3.7269091606140137
1696083227119930000,0.52593017578125,0.11946725845336914,0.84964919090271,-3.4238715171813965
1696083227129930200,0.53593017578125,-0.15197372436523438,0.9658181667327881,-2.4830803871154785
1696083227139930000,0.54593017578125,-11.335895538330078,0.46529293060302734,-0.6761012077331543
1696083227149930000,0.555929931640625,0.5713486671447754,-0.44071483612060547,-0.771852970123291
1696083227159930000,0.56593017578125,-0.35918354988098145,-1.3794695138931274,-1.4669694900512695
1696083227169930000,0.575929931640625,-1.5561637878417969,-2.0611302852630615,-2.9819064140319824
1696083227179929600,0.5859296875,-2.1271021366119385,-2.3138532638549805,-4.221201419830322
1696083227189929700,0.5959296875,-2.778815746307373,-2.6968600749969482,-5.657707214355469
1696083227199929600,0.6059296875,-3.2147839069366455,-4.817546844482422,-5.797059059143066
1696083227209929700,0.6159296875,-3.9237635135650635,-6.134552001953125,-5.815896034240723
1696083227219929600,0.6259296875,-4.194777488708496,-6.272430896759033,-6.071372985839844
1696083227229929700,0.6359296875,-3.7129580974578857,-6.200838088989258,-6.181260108947754
1696083227239929600,0.6459296875,-2.403101682662964,-6.894710540771484,-5.691896438598633
1696083227249929700,0.6559296875,-0.7372791767120361,-7.940649509429932,-4.848927974700928
1696083227259929600,0.6659296875,0.590998649597168,-8.651021957397461,-4.19333028793335
1696083227269929700,0.6759296875,0.8742728233337402,-8.878047943115234,-4.098887920379639
1696083227279928800,0.6859287109375,0.6721651554107666,-8.407447814941406,-3.9100794792175293
1696083227289928700,0.6959287109375,-0.5565953254699707,-8.073277473449707,-3.76033353805542
1696083227299928800,0.7059287109375,-1.0941717624664307,-6.935532569885254,-2.89707088470459
1696083227309928700,0.7159287109375,-0.7884650230407715,-5.882480621337891,-1.2539477348327637
1696083227319928800,0.7259287109375,0.03261089324951172,-5.7592010498046875,1.3588027954101562
1696083227329928700,0.7359287109375,0.36765623092651367,-6.38936710357666,4.585967063903809
1696083227339928800,0.7459287109375,0.8381514549255371,-6.199702739715576,7.911937713623047
1696083227349929000,0.755928955078125,1.9425029754638672,-5.31859827041626,11.802623748779297
1696083227359928800,0.7659287109375,3.5651321411132812,-4.158805847167969,15.703243255615234
1696083227369929000,0.775928955078125,4.980465888977051,-3.3246731758117676,18.522994995117188
1696083227379928600,0.785928466796875,5.5536088943481445,-2.910473585128784,19.66582489013672
1696083227389928400,0.795928466796875,5.156775951385498,-2.15191388130188,19.52456283569336
1696083227399928600,0.805928466796875,4.729425430297852,-0.7513389587402344,19.435007095336914
1696083227409928400,0.815928466796875,5.0010528564453125,0.4502384662628174,19.402206420898438
1696083227419928600,0.825928466796875,6.060791015625,1.5971617698669434,20.432859420776367
1696083227429928400,0.835928466796875,7.039060115814209,2.1661624908447266,21.323701858520508
1696083227439928600,0.845928466796875,7.075136184692383,2.393767833709717,20.001911163330078
1696083227449928400,0.855928466796875,6.791926860809326,2.5242676734924316,17.749164581298828
1696083227459928600,0.865928466796875,7.690713405609131,1.7981796264648438,14.375006675720215
1696083227469928400,0.875928466796875,7.325684070587158,2.6547176837921143,11.277641296386719
1696083227479928600,0.885928466796875,6.169471740722656,4.599065780639648,10.96794605255127
1696083227489928400,0.895928466796875,6.4043474197387695,2.5566461086273193,8.19392204284668
1696083227499928600,0.905928466796875,6.914448261260986,3.0972695350646973,6.863568305969238
1696083227509928400,0.915928466796875,0.217962384223938,5.25429630279541,7.094948768615723
1696083227519928600,0.925928466796875,-1.844434380531311,4.211004257202148,1.9550485610961914
1696083227529930200,0.93593017578125,-0.9328250885009766,3.0651230812072754,-1.225271224975586
1696083227539930400,0.945930419921875,0.13754630088806152,2.599564552307129,-2.724130153656006
1696083227549930200,0.95593017578125,0.6603250503540039,2.941758871078491,-4.591469764709473
1696083227559930400,0.965930419921875,0.6968576908111572,3.718134880065918,-6.735803127288818
1696083227569930200,0.97593017578125,0.9424052238464355,4.218856334686279,-8.62552547454834
1696083227579931000,0.985930908203125,1.5621213912963867,4.619129180908203,-10.394150733947754
1696083227589930800,0.9959306640625,2.2507405281066895,4.845817565917969,-12.375434875488281
1696083227599931000,1.005930908203125,3.1122689247131348,4.632326126098633,-14.004739761352539
1696083227609930800,1.0159306640625,3.8247005939483643,4.2952704429626465,-14.577743530273438
1696083227619931000,1.025930908203125,4.317998886108398,4.152532577514648,-13.844125747680664
1696083227629930500,1.035930419921875,3.7900424003601074,3.367513656616211,-13.540512084960938
1696083227639930400,1.045930419921875,3.650775671005249,3.7565760612487793,-11.843515396118164
1696083227649930200,1.05593017578125,3.172312021255493,4.356386184692383,-9.856037139892578
1696083227659930400,1.065930419921875,2.538332939147949,4.321967124938965,-8.235555648803711
1696083227669930200,1.07593017578125,1.5370869636535645,4.103694915771484,-6.404790878295898
1696083227679930600,1.0859306640625,0.11864376068115234,4.388552665710449,-4.845143795013428
1696083227689930800,1.0959306640625,-1.36295747756958,5.110313415527344,-3.764491081237793
1696083227699930600,1.1059306640625,-2.4276204109191895,5.84938907623291,-1.9303812980651855
1696083227709930800,1.1159306640625,-2.3677477836608887,5.83360481262207,-0.07042312622070312
1696083227719931000,1.125930908203125,-1.565610408782959,5.040290832519531,1.647963523864746
1696083227729930800,1.1359306640625,-1.1684012413024902,4.3878397941589355,3.985898971557617
1696083227739931000,1.145930908203125,-1.752882719039917,4.091125965118408,6.128068923950195
1696083227749930800,1.1559306640625,-3.1623802185058594,4.070529460906982,7.008009910583496
1696083227759931000,1.165930908203125,-3.956096887588501,4.213775157928467,6.760555267333984
1696083227769930800,1.1759306640625,-3.8237740993499756,4.005983352661133,5.94660758972168
1696083227779931100,1.18593115234375,-0.23422908782958984,2.2124948501586914,7.077480316162109
1696083227789930800,1.1959306640625,6.608141899108887,0.052553415298461914,11.615017890930176
1696083227799931000,1.205930908203125,7.36213493347168,-0.3874530792236328,14.080765724182129
1696083227809930800,1.2159306640625,6.546940803527832,-0.10332369804382324,13.29259204864502
1696083227819931000,1.225930908203125,5.536943435668945,0.6257648468017578,9.929669380187988
1696083227829929000,1.235928955078125,5.799777984619141,-0.24653053283691406,7.162116050720215
1696083227839928800,1.2459287109375,6.2982683181762695,-1.3199636936187744,3.984163284301758
1696083227849929000,1.255928955078125,3.1858103275299072,-2.8027701377868652,1.6017894744873047
1696083227859928800,1.2659287109375,2.012939929962158,-4.246814727783203,-0.23509979248046875
1696083227869929000,1.275928955078125,-0.5543291568756104,-5.039039611816406,-2.9058828353881836
1696083227879929300,1.285929443359375,-1.5792453289031982,-5.466658115386963,-4.577417850494385
1696083227889931500,1.295931640625,0.5360856056213379,-4.396383762359619,-5.088315486907959
1696083227899931600,1.305931640625,1.535475254058838,-3.1047568321228027,-5.185087203979492
1696083227909931500,1.315931640625,3.368772506713867,-1.6945494413375854,-5.207468032836914
1696083227919931600,1.325931640625,5.262372970581055,-0.5064870119094849,-5.34584903717041
1696083227929932000,1.33593212890625,4.413969039916992,0.44148850440979004,-3.2367396354675293
1696083227939932000,1.345931884765625,1.5710397958755493,0.18008828163146973,-1.1621894836425781
1696083227949932000,1.35593212890625,-0.5489184856414795,0.02212357521057129,-0.35335540771484375
1696083227959932000,1.365931884765625,-2.0817108154296875,1.5172650814056396,-2.6792068481445312
1696083227969932000,1.37593212890625,1.971374750137329,7.722442626953125,-16.699012756347656
1696083227979932000,1.385931884765625,1.3063548803329468,7.304340362548828,-13.379234313964844
1696083227989932000,1.39593212890625,-2.211604118347168,1.5465871095657349,7.020678520202637
1696083227999932000,1.405931884765625,-4.291837215423584,-1.3536765575408936,22.02685546875
1696083228009932000,1.41593212890625,-10.807639122009277,1.9483733177185059,12.065457344055176
1696083228019932000,1.425931884765625,-9.827661514282227,4.162031173706055,5.8978118896484375
1696083228029932000,1.43593212890625,-5.955574989318848,5.427822113037109,4.559755325317383
1696083228039932200,1.44593212890625,-3.6440415382385254,5.444049835205078,6.36336612701416
1696083228049932000,1.45593212890625,-0.44666385650634766,4.232876300811768,9.962366104125977
1696083228059932200,1.46593212890625,0.4404667615890503,3.069300651550293,12.519296646118164
1696083228069932000,1.47593212890625,0.950821042060852,2.0826690196990967,12.814787864685059
1696083228079932200,1.48593212890625,2.050018310546875,1.539278268814087,10.89733600616455
1696083228089932500,1.4959326171875,2.7477786540985107,1.2491998672485352,7.143075942993164
1696083228099932400,1.505932373046875,2.9810147285461426,1.2483456134796143,0.36885929107666016
1696083228109932500,1.5159326171875,3.782221794128418,1.0625786781311035,-6.14387845993042
1696083228119932400,1.525932373046875,1.835595965385437,-0.5304849147796631,-11.472813606262207
1696083228133623800,1.539623779296875,-4.146370887756348,-0.49434661865234375,-18.41274642944336
1696083228143624000,1.5496240234375,-2.3291757106781006,-1.768906831741333,-15.951160430908203
1696083228153623800,1.559623779296875,0.7888311147689819,-4.505239486694336,-17.88373374938965
1696083228163624200,1.569624267578125,4.388345718383789,-4.770790100097656,-18.052112579345703
1696083228173624300,1.579624267578125,7.8495869636535645,-4.928900718688965,-14.45352840423584
1696083228183624200,1.589624267578125,6.725870132446289,-6.1020636558532715,-11.76844596862793
1696083228193622000,1.5996220703125,5.387077331542969,-7.092554092407227,-8.825157165527344
1696083228203622000,1.609621826171875,6.234464645385742,-7.405712127685547,-5.151307106018066
1696083228213622000,1.6196220703125,3.213514804840088,-5.273184776306152,-5.350457191467285
1696083228223622000,1.629621826171875,-0.6037425994873047,-3.5774760246276855,-3.437836170196533
1696083228233622000,1.6396220703125,-4.359889984130859,-4.494132995605469,-3.4822912216186523
1696083228243622400,1.649622314453125,-5.650703430175781,-4.631523132324219,-4.815188884735107
1696083228253622300,1.659622314453125,-6.100795269012451,-3.2138304710388184,-8.390425682067871
1696083228263622400,1.669622314453125,-5.604433536529541,-1.917586326599121,-7.417110443115234
1696083228273622300,1.679622314453125,-3.2008020877838135,-1.120771884918213,-5.075478553771973
1696083228283622400,1.689622314453125,-3.8680858612060547,-0.9009227752685547,-3.8279428482055664
1696083228293622300,1.699622314453125,-2.4843356609344482,-2.9402623176574707,-0.7070837020874023
1696083228303622400,1.709622314453125,-1.8045837879180908,-6.4465203285217285,7.233917236328125
1696083228313622300,1.719622314453125,5.566446781158447,-9.722820281982422,15.983739852905273
1696083228323622400,1.729622314453125,13.711358070373535,-6.801913261413574,10.764007568359375
1696083228333622300,1.739622314453125,13.870985984802246,-6.50806999206543,7.53400993347168
1696083228343622100,1.7496220703125,8.077047348022461,-2.771635055541992,5.295498847961426
1696083228353622300,1.759622314453125,3.3439693450927734,0.19222259521484375,3.9074273109436035
1696083228363622100,1.7696220703125,0.9366468787193298,1.2033467292785645,2.0021719932556152
1696083228373622300,1.779622314453125,-0.14336633682250977,2.220029830932617,0.5706539154052734
1696083228383622100,1.7896220703125,-0.4931364059448242,3.3881702423095703,-0.17373323440551758
1696083228393622300,1.799622314453125,-0.953350305557251,4.272764682769775,-0.585108757019043
1696083228403622100,1.8096220703125,-0.6270009279251099,4.9767584800720215,-0.5184011459350586
1696083228413622000,1.8196220703125,-0.04099631309509277,5.346256732940674,-0.35781562328338623
1696083228423622100,1.8296220703125,0.8180198073387146,5.1926398277282715,0.15869605541229248
1696083228433622000,1.8396220703125,1.2603881359100342,5.067226409912109,0.6466349363327026
1696083228443622100,1.8496220703125,1.4086511135101318,4.959662914276123,1.223616600036621
1696083228453622000,1.8596220703125,1.9874629974365234,4.728204250335693,2.2960550785064697
1696083228463621600,1.86962158203125,2.685854196548462,2.3925695419311523,3.2963640689849854
1696083228473621800,1.879621826171875,3.637547254562378,-3.3941783905029297,5.48651123046875
1696083228483622000,1.889621826171875,5.47703742980957,-8.408832550048828,5.623420715332031
1696083228493621800,1.899621826171875,2.0915346145629883,-14.423781394958496,4.020275115966797
1696083228503622000,1.909621826171875,-0.7846598625183105,-18.068740844726562,1.7749674320220947
1696083228513621800,1.919621826171875,-4.1876678466796875,-19.704601287841797,0.0066533684730529785
1696083228523622000,1.929621826171875,-6.361254692077637,-17.32093048095703,-1.347569465637207
1696083228533621800,1.939621826171875,-5.945282936096191,-12.912782669067383,-2.1803297996520996
1696083228543621400,1.949621337890625,-8.615015983581543,-6.638525009155273,-1.8788976669311523
1696083228553621500,1.95962158203125,-5.226309776306152,-1.2850990295410156,-1.5054972171783447
1696083228563621400,1.969621337890625,-0.5872459411621094,0.8047275543212891,-1.8441373109817505
1696083228573621500,1.97962158203125,3.949732780456543,2.1527600288391113,-2.8207828998565674
1696083228583621400,1.989621337890625,8.738825798034668,2.977123260498047,-4.326661586761475
1696083228593621500,1.99962158203125,13.13393783569336,3.3215718269348145,-5.779796123504639
1696083228603621400,2.009621337890625,13.263126373291016,2.582369804382324,-6.048856258392334
1696083228613621200,2.019621337890625,10.366948127746582,1.2607812881469727,-4.766206741333008
1696083228623621400,2.029621337890625,6.064736366271973,0.09869194030761719,-3.1290817260742188
1696083228633621200,2.039621337890625,2.041837215423584,-0.6534414291381836,-1.9783248901367188
1696083228643621400,2.049621337890625,-0.8068547248840332,-0.8954248428344727,-1.4996113777160645
1696083228653621200,2.059621337890625,-2.3829853534698486,-0.7356472015380859,-1.1114087104797363
1696083228663621400,2.069621337890625,-2.3933188915252686,-0.5935459136962891,-0.4914131164550781
1696083228673621200,2.079621337890625,-1.5159022808074951,-0.48260021209716797,-0.3995510935783386
1696083228683621400,2.089621337890625,-0.7822535037994385,-0.2832307815551758,-0.44485533237457275
1696083228693621200,2.099621337890625,-0.008260488510131836,-0.020071029663085938,-0.472484827041626
1696083228703621400,2.109621337890625,0.38321590423583984,0.23631954193115234,-0.3077373504638672
1696083228713621200,2.119621337890625,0.5734127759933472,0.41407299041748047,-0.09157499670982361
1696083228723621400,2.129621337890625,0.6356806755065918,0.5331048965454102,0.18557927012443542
1696083228733621200,2.139621337890625,0.6995329856872559,0.6060581207275391,0.5979784727096558
1696083228743621400,2.149621337890625,1.0122829675674438,0.4097118377685547,1.1117221117019653
1696083228753621200,2.159621337890625,1.428720235824585,0.04577064514160156,1.3487358093261719
1696083228763621400,2.169621337890625,1.6231718063354492,-0.29134368896484375,1.5131456851959229
1696083228773621200,2.179621337890625,1.5464962720870972,-0.3267631530761719,1.452675700187683
1696083228783621400,2.189621337890625,1.2698335647583008,-0.1430063247680664,1.296079397201538
1696083228793621200,2.199621337890625,0.9859092235565186,0.1142129898071289,1.1893292665481567
1696083228803621600,2.20962158203125,0.8024550676345825,0.29114627838134766,1.0318950414657593
1696083228813621500,2.21962158203125,0.8498092889785767,0.2906455993652344,0.7633093595504761
1696083228823621600,2.22962158203125,1.1905772686004639,0.0852193832397461,0.5353004932403564
1696083228833621500,2.23962158203125,1.5597758293151855,-0.16729068756103516,0.36472442746162415
1696083228843621600,2.24962158203125,1.8723350763320923,-0.3511772155761719,0.215511754155159
1696083228853621500,2.25962158203125,2.0403366088867188,-0.33379650115966797,0.14777588844299316
1696083228863621600,2.26962158203125,1.9706926345825195,-0.08587455749511719,0.11350947618484497
1696083228873621500,2.27962158203125,1.7107794284820557,0.13174819946289062,0.11265986412763596
1696083228883621600,2.28962158203125,1.356480360031128,0.1394786834716797,0.10045768320560455
1696083228893621500,2.29962158203125,0.9892832040786743,0.1456308364868164,0.16180531680583954
1696083228903621600,2.30962158203125,0.7203360795974731,0.06379032135009766,0.1630783975124359
1696083228913621800,2.319621826171875,0.5967726707458496,0.046782493591308594,0.0678027868270874
1696083228923621600,2.32962158203125,0.6707121133804321,0.0654153823852539,0.01452857255935669
1696083228933621800,2.339621826171875,0.8617768287658691,0.07159709930419922,0.06412935256958008
1696083228943621600,2.34962158203125,1.1118342876434326,0.06784439086914062,0.19318653643131256
1696083228953621800,2.359621826171875,1.2776037454605103,0.011568069458007812,0.39971479773521423
1696083228963621600,2.36962158203125,1.3285095691680908,-0.06324481964111328,0.6068617701530457
1696083228973621800,2.379621826171875,1.2183359861373901,-0.1444835662841797,0.8401508331298828
1696083228983621600,2.38962158203125,0.9883123636245728,-0.19398212432861328,1.053665280342102
1696083228993621800,2.399621826171875,0.7586466073989868,-0.22864151000976562,1.2609537839889526
1696083229003621600,2.40962158203125,0.5266865491867065,-0.35192298889160156,1.4798338413238525
1696083229013621800,2.419621826171875,0.43104827404022217,-0.36326122283935547,1.5940954685211182
1696083229023621600,2.42962158203125,0.4938913583755493,-0.22211647033691406,1.4979753494262695
1696083229033621800,2.439621826171875,0.6450746059417725,-0.05518150329589844,1.388635516166687
1696083229043621600,2.44962158203125,0.7227264642715454,-0.0799570083618164,1.3819109201431274
1696083229053621800,2.459621826171875,0.834538459777832,-0.2653226852416992,1.3597080707550049
1696083229063621600,2.46962158203125,1.0368107557296753,-0.3027524948120117,1.0815879106521606
1696083229073621800,2.479621826171875,1.24427330493927,-0.21399688720703125,0.662294864654541
1696083229083621600,2.48962158203125,1.500334620475769,-0.061430931091308594,0.07210399210453033
1696083229093621800,2.499621826171875,1.7501071691513062,0.08786296844482422,-0.5644453167915344
1696083229103621400,2.509621337890625,1.9009308815002441,0.09307861328125,-1.169830322265625
1696083229113621500,2.51962158203125,1.8780319690704346,-0.019278526306152344,-1.6757322549819946
1696083229123621400,2.529621337890625,1.6234025955200195,0.017279624938964844,-2.088136911392212
1696083229133621500,2.53962158203125,1.2721004486083984,0.16483497619628906,-2.2820820808410645
1696083229143621400,2.549621337890625,1.1483687162399292,0.3155202865600586,-2.269886016845703
1696083229153621800,2.559621826171875,1.1811884641647339,0.3367328643798828,-2.093949794769287
1696083229163622000,2.569621826171875,1.192944884300232,0.3338470458984375,-2.0707826614379883
1696083229173621800,2.579621826171875,1.042738914489746,0.07693672180175781,-1.2898595333099365
1696083229183622000,2.589621826171875,1.0820858478546143,-0.094635009765625,-0.5258309245109558
1696083229193621800,2.599621826171875,1.337111473083496,-0.15041351318359375,0.24748657643795013
1696083229203622000,2.609621826171875,1.8266222476959229,-0.061837196350097656,1.02627694606781
1696083229213621800,2.619621826171875,2.3921449184417725,0.1425619125366211,1.694533348083496
1696083229223621600,2.62962158203125,2.505811929702759,0.0806436538696289,2.3053324222564697
1696083229233621800,2.639621826171875,2.698897123336792,-0.2875642776489258,3.0142157077789307
1696083229243621600,2.64962158203125,2.710726737976074,-0.4831266403198242,3.477724552154541
1696083229253621800,2.659621826171875,2.629728317260742,-0.37898826599121094,3.5415987968444824
1696083229263621600,2.66962158203125,2.417245864868164,0.039498329162597656,2.883178234100342
1696083229273621800,2.679621826171875,2.3153836727142334,0.3209562301635742,2.014214515686035
1696083229283622000,2.689621826171875,2.2097010612487793,0.3277902603149414,1.2904577255249023
1696083229293621800,2.699621826171875,2.082911729812622,0.22280216217041016,0.6469070315361023
1696083229303622000,2.709621826171875,1.9419834613800049,0.0951080322265625,0.060113102197647095
1696083229313621800,2.719621826171875,1.9201816320419312,-0.03353691101074219,-0.46373340487480164
1696083229323622000,2.729621826171875,2.0294888019561768,-0.31645679473876953,-0.784407377243042
1696083229333621800,2.739621826171875,2.219672679901123,-0.7609272003173828,-0.975050687789917
1696083229343622000,2.749621826171875,2.526308536529541,-1.2414979934692383,-1.0787708759307861
1696083229353621200,2.759621337890625,2.9414901733398438,-1.7220487594604492,-1.050112009048462
1696083229363621400,2.769621337890625,3.57885479927063,-2.270838737487793,-0.9758353233337402
1696083229373621200,2.779621337890625,4.3945207595825195,-2.945889472961426,-0.6878118515014648
1696083229383621400,2.789621337890625,5.18317174911499,-3.480217933654785,-0.20083850622177124
1696083229393621200,2.799621337890625,5.704479217529297,-3.7729854583740234,0.40633291006088257
1696083229403621400,2.809621337890625,5.807007789611816,-3.7818565368652344,1.2302498817443848
1696083229413621200,2.819621337890625,5.537879943847656,-3.701613426208496,2.0403850078582764
1696083229423621400,2.829621337890625,5.0463032722473145,-3.6651039123535156,2.7086527347564697
1696083229433621200,2.839621337890625,4.467282295227051,-3.6622352600097656,3.317011594772339
1696083229443621400,2.849621337890625,3.9489943981170654,-3.6358957290649414,3.894968032836914
1696083229453621000,2.85962109375,3.732574224472046,-3.666563034057617,4.455833435058594
1696083229463620900,2.869620849609375,4.052285671234131,-4.005642890930176,4.847936153411865
1696083229473621000,2.87962109375,4.9972825050354,-4.482842445373535,5.234064102172852
1696083229483620900,2.889620849609375,6.2931976318359375,-4.597874641418457,5.447059631347656
1696083229493621000,2.89962109375,7.494228839874268,-4.177483558654785,5.350386619567871
1696083229503620900,2.909620849609375,8.008691787719727,-3.5833740234375,5.138991832733154
1696083229513621000,2.91962109375,7.755274295806885,-3.0559654235839844,4.991713047027588
1696083229523620900,2.929620849609375,7.0247650146484375,-2.6009302139282227,4.80796480178833
1696083229533621000,2.93962109375,6.340449810028076,-2.046590805053711,4.495997428894043
1696083229543620900,2.949620849609375,5.992712020874023,-1.3279781341552734,4.067268371582031
1696083229553621000,2.95962109375,5.693133354187012,-0.6534843444824219,3.5375561714172363
1696083229563620900,2.969620849609375,5.33088493347168,-0.2736377716064453,3.0097544193267822
1696083229573621000,2.97962109375,5.447253704071045,-0.36176490783691406,2.0942294597625732
1696083229583620900,2.989620849609375,4.186091423034668,-0.824920654296875,1.1108559370040894
1696083229593621000,2.99962109375,2.5624985694885254,-1.8454904556274414,0.20344185829162598
1696083229603620900,3.009620849609375,0.4141470193862915,-2.669844627380371,-0.42750656604766846
1696083229613621000,3.01962109375,-0.8553472757339478,-2.9567394256591797,-1.0331461429595947
1696083229623620900,3.029620849609375,-2.610260248184204,-2.7551746368408203,-1.3821086883544922
1696083229633621000,3.03962109375,-4.2988505363464355,-2.288187026977539,-1.460662841796875
1696083229643620900,3.049620849609375,-4.8393354415893555,-1.617349624633789,-1.6882007122039795
1696083229653621200,3.059621337890625,-4.189418792724609,-1.0674371719360352,-1.849942922592163
1696083229663621400,3.069621337890625,-3.4121792316436768,-0.8227386474609375,-1.3488291501998901
1696083229673621500,3.07962158203125,-3.028266191482544,-0.6938791275024414,-0.6966495513916016
1696083229683621400,3.089621337890625,-2.810025215148926,-0.7174787521362305,-0.3037114441394806
1696083229693621500,3.09962158203125,-2.017808437347412,-0.9239168167114258,0.5159600973129272
1696083229703621400,3.109621337890625,-0.19930332899093628,-1.0973758697509766,1.2570792436599731
1696083229713621500,3.11962158203125,1.5810620784759521,-1.130141258239746,1.8344569206237793
1696083229723621400,3.129621337890625,1.5641896724700928,-1.0852088928222656,1.6855921745300293
1696083229733621500,3.13962158203125,0.07584279775619507,-1.1935434341430664,1.3588478565216064
1696083229743621400,3.149621337890625,-1.7067759037017822,-1.1273746490478516,0.6051338315010071
1696083229753621500,3.15962158203125,-2.3037047386169434,-1.0843629837036133,-0.3657546639442444
1696083229763621400,3.169621337890625,-2.6033334732055664,-0.9528369903564453,-1.3123984336853027
1696083229773621500,3.17962158203125,-2.810441017150879,-0.6315069198608398,-2.065446376800537
1696083229783621400,3.189621337890625,-2.691666603088379,-0.03186988830566406,-2.90397310256958
1696083229793621500,3.19962158203125,-2.637662887573242,0.5823554992675781,-3.5036678314208984
1696083229803621400,3.209621337890625,-2.7340447902679443,1.1534643173217773,-3.876770496368408
1696083229813621500,3.21962158203125,-2.899031639099121,1.6628823280334473,-4.1092634201049805
1696083229823621400,3.229621337890625,-2.899218797683716,2.145214557647705,-4.331718444824219
1696083229833621500,3.23962158203125,-2.990222692489624,2.4530792236328125,-4.269557952880859
1696083229843621400,3.249621337890625,-3.1054162979125977,2.7460060119628906,-3.991194725036621
1696083229853621500,3.25962158203125,-3.2054147720336914,2.9228854179382324,-3.6427080631256104
1696083229863621400,3.269621337890625,-3.3755335807800293,3.2255477905273438,-3.4481124877929688
1696083229873621500,3.27962158203125,-3.6329612731933594,3.553895950317383,-3.414407253265381
1696083229883621400,3.289621337890625,-3.779982566833496,3.898569107055664,-3.3592636585235596
1696083229893621500,3.29962158203125,-3.897258996963501,4.250579833984375,-3.4358506202697754
1696083229903621400,3.309621337890625,-4.030950546264648,4.653736591339111,-3.5362491607666016
1696083229913621500,3.31962158203125,-4.045013427734375,5.093204498291016,-3.6540794372558594
1696083229923621400,3.329621337890625,-3.868586778640747,5.602938652038574,-3.8895211219787598
1696083229933621500,3.33962158203125,-3.470958709716797,6.113042831420898,-4.290234565734863
1696083229943621400,3.349621337890625,-2.904209852218628,6.535358428955078,-4.471494674682617
1696083229953621500,3.35962158203125,-2.41793155670166,6.739100456237793,-4.4177446365356445
1696083229963621400,3.369621337890625,-1.8027348518371582,6.368281841278076,-3.5649361610412598
1696083229973621500,3.37962158203125,-0.5989382266998291,5.610288619995117,-1.9887738227844238
1696083229983621400,3.389621337890625,1.4935877323150635,4.415668487548828,-0.3764221668243408
1696083229993621500,3.39962158203125,3.4118430614471436,2.6115474700927734,1.0772897005081177
1696083230003621400,3.409621337890625,6.2735090255737305,0.1505908966064453,3.0985474586486816
1696083230013621500,3.41962158203125,9.22365951538086,-2.7736244201660156,5.657136917114258
1696083230023621400,3.429621337890625,11.796243667602539,-5.798336029052734,7.658928394317627
1696083230033621500,3.43962158203125,13.420748710632324,-8.576936721801758,8.950185775756836
1696083230043621400,3.449621337890625,12.223893165588379,-10.361050605773926,8.3839111328125
1696083230053621200,3.459621337890625,8.746112823486328,-10.086350440979004,5.87143611907959
1696083230063621400,3.469621337890625,5.311731338500977,-7.003411293029785,2.7644031047821045
1696083230073621200,3.479621337890625,2.930239677429199,-3.1407737731933594,0.9564555883407593
1696083230083621400,3.489621337890625,1.0163922309875488,0.35227203369140625,0.11518752574920654
1696083230093621500,3.49962158203125,0.6184709072113037,1.8477749824523926,-0.3920508623123169
1696083230103621400,3.509621337890625,1.4671179056167603,1.3631019592285156,-0.9910572171211243
1696083230113621500,3.51962158203125,2.0209603309631348,0.14407730102539062,-2.598818302154541
1696083230123621400,3.529621337890625,1.1002912521362305,-2.2863168716430664,-4.540872573852539
1696083230133621500,3.53962158203125,-0.28185027837753296,-5.6634416580200195,-5.970853805541992
1696083230143621400,3.549621337890625,-1.2032735347747803,-8.012092590332031,-6.141409397125244
1696083230153621500,3.55962158203125,1.1120704412460327,-8.295567512512207,-5.942577362060547
1696083230163621400,3.569621337890625,0.5859197974205017,-5.677975654602051,-4.023838996887207
1696083230173621500,3.57962158203125,-2.4867818355560303,-2.0910587310791016,-2.8393075466156006
1696083230183621400,3.589621337890625,-4.010417938232422,0.6821012496948242,-2.757828712463379
1696083230193621500,3.59962158203125,-5.306665420532227,2.727295398712158,-2.967306613922119
1696083230203621400,3.609621337890625,-6.900972843170166,4.30492639541626,-3.0503478050231934
1696083230213621200,3.619621337890625,-7.661618709564209,5.532200336456299,-2.8656697273254395
1696083230223621400,3.629621337890625,-7.613918304443359,5.939718246459961,-3.14365553855896
1696083230233621200,3.639621337890625,-6.291250705718994,5.443605899810791,-2.9834065437316895
1696083230243621400,3.649621337890625,-5.555629730224609,4.162282943725586,-2.1733553409576416
1696083230253621200,3.659621337890625,-4.877674579620361,2.44865083694458,-1.989160180091858
1696083230263621400,3.669621337890625,-4.030173301696777,0.8759937286376953,-2.0949268341064453
1696083230273621500,3.67962158203125,-3.2194652557373047,-0.32566356658935547,-1.7911832332611084
1696083230283621400,3.689621337890625,-2.579953670501709,-1.119882583618164,-1.026449203491211
1696083230293621500,3.69962158203125,-2.0573134422302246,-1.5446977615356445,-0.09219679236412048
1696083230303621400,3.709621337890625,-1.1747030019760132,-1.523512840270996,0.9149031639099121
1696083230313621500,3.71962158203125,-1.0668666362762451,-1.5234251022338867,1.0090012550354004
1696083230323621400,3.729621337890625,1.6055785417556763,-1.0518484115600586,2.963599443435669
1696083230333621500,3.73962158203125,2.5829434394836426,-0.6409177780151367,3.4811506271362305
1696083230343621400,3.749621337890625,2.9956066608428955,-0.1781749725341797,3.559617280960083
1696083230353621500,3.75962158203125,3.2226548194885254,0.2415332794189453,3.235679864883423
1696083230363621600,3.76962158203125,3.0284857749938965,0.5576496124267578,2.499979257583618
1696083230373621500,3.77962158203125,2.643676280975342,0.753178596496582,1.7378402948379517
1696083230383621600,3.78962158203125,2.102057933807373,0.6933813095092773,1.1006953716278076
1696083230393621500,3.79962158203125,1.6406959295272827,0.4434032440185547,0.6677737236022949
1696083230403621400,3.809621337890625,1.3654859066009521,0.05288219451904297,0.3288492262363434
1696083230413621500,3.81962158203125,1.4001439809799194,-0.011928558349609375,-0.08436229825019836
1696083230423621400,3.829621337890625,1.4194518327713013,0.12058734893798828,-0.3599555790424347
1696083230433621500,3.83962158203125,1.674119234085083,0.4561491012573242,-0.7646307945251465
1696083230443621400,3.849621337890625,1.4136253595352173,0.690765380859375,-0.7120363712310791
1696083230453621500,3.85962158203125,0.7983007431030273,0.7163352966308594,-0.2055310308933258
1696083230463621400,3.869621337890625,0.3190908432006836,0.6902484893798828,0.47730886936187744
1696083230473621500,3.87962158203125,0.2151123285293579,0.7079086303710938,1.2733372449874878
1696083230483621400,3.889621337890625,0.24994158744812012,0.7181167602539062,1.9377281665802002
1696083230493621500,3.89962158203125,0.3445453643798828,0.7898664474487305,2.0877633094787598
1696083230503621400,3.909621337890625,0.49159038066864014,0.9210243225097656,1.9986751079559326
1696083230513621500,3.91962158203125,0.817943274974823,1.1933746337890625,1.988543152809143
1696083230523621400,3.929621337890625,1.2578976154327393,1.3778390884399414,1.9701615571975708
1696083230533621500,3.93962158203125,1.7114133834838867,1.165369987487793,1.8740320205688477
1696083230543621400,3.949621337890625,1.9756038188934326,0.5348653793334961,1.6979258060455322
1696083230553621500,3.95962158203125,1.9531594514846802,-0.06773567199707031,1.3647065162658691
1696083230563621400,3.969621337890625,1.859269618988037,-0.5971107482910156,1.1322609186172485
1696083230573621500,3.97962158203125,1.9481027126312256,-0.6219882965087891,1.1733100414276123
1696083230583621400,3.989621337890625,2.8623440265655518,-1.424835205078125,1.1701362133026123
1696083230593621500,3.99962158203125,3.8933277130126953,-1.7453031539916992,1.1209375858306885
1696083230603621400,4.009621337890625,4.950533390045166,-1.821131706237793,0.9471375346183777
1696083230613621500,4.01962158203125,5.59971809387207,-1.737508773803711,0.8947441577911377
1696083230623621400,4.029621337890625,5.627859592437744,-1.694986343383789,1.2076740264892578
1696083230633621500,4.03962158203125,5.2209930419921875,-1.7817306518554688,1.9128108024597168
1696083230643621400,4.049621337890625,4.427214622497559,-2.136773109436035,2.9255242347717285
1696083230653621200,4.059621337890625,3.404313802719116,-2.699692726135254,4.039114952087402
1696083230663621400,4.069621337890625,2.42950439453125,-3.129241943359375,5.135127067565918
1696083230673621500,4.07962158203125,1.7938309907913208,-3.4714622497558594,6.175483226776123
1696083230683621400,4.089621337890625,1.538239598274231,-3.815373420715332,7.263462543487549
1696083230693621500,4.09962158203125,1.747679591178894,-4.38681697845459,8.33280086517334
1696083230703621400,4.109621337890625,2.4949355125427246,-4.832487106323242,9.049919128417969
1696083230713621500,4.11962158203125,3.474149703979492,-5.070320129394531,9.268331527709961
1696083230723621400,4.129621337890625,4.251252174377441,-5.327187538146973,8.792749404907227
1696083230733621500,4.13962158203125,4.907142162322998,-5.478253364562988,7.836325645446777
1696083230743621400,4.149621337890625,5.518556118011475,-4.969273567199707,6.230169296264648
1696083230753621500,4.15962158203125,6.4373579025268555,-3.9414796829223633,4.02032995223999
1696083230763621400,4.169621337890625,7.65473747253418,-2.8897476196289062,1.7181670665740967
1696083230773621500,4.17962158203125,8.922342300415039,-2.4296255111694336,-0.2843132019042969
1696083230783621400,4.189621337890625,8.865944862365723,-2.5302915573120117,-1.8235576152801514
1696083230793621500,4.19962158203125,7.460311412811279,-2.866069793701172,-2.9753222465515137
1696083230803621400,4.209621337890625,4.443243980407715,-3.00482177734375,-4.247989654541016
1696083230813621500,4.21962158203125,1.6571745872497559,-3.1300487518310547,-5.5987653732299805
1696083230823621400,4.229621337890625,-0.6692855358123779,-3.6194076538085938,-6.438316822052002
1696083230833621500,4.23962158203125,-3.965078353881836,-3.7720766067504883,-6.408797740936279
1696083230843621400,4.249621337890625,-6.015621185302734,-3.539626121520996,-6.196785926818848
1696083230853621500,4.25962158203125,-6.018927097320557,-2.9121456146240234,-5.471664905548096
1696083230863621400,4.269621337890625,-5.113358497619629,-2.29122257232666,-4.4657745361328125
1696083230873621500,4.27962158203125,-3.805999755859375,-1.6251087188720703,-3.0660834312438965
1696083230883621400,4.289621337890625,-1.8507505655288696,-1.068812370300293,-1.56609046459198
1696083230893621500,4.29962158203125,1.198926329612732,-0.9579477310180664,0.06928303837776184
1696083230903621400,4.309621337890625,2.994270086288452,-1.3896312713623047,1.7992644309997559
1696083230913621500,4.31962158203125,2.0763044357299805,-1.5334062576293945,2.537602186203003
1696083230923621400,4.329621337890625,-0.10087063908576965,-1.436478614807129,2.1900951862335205
1696083230933621500,4.33962158203125,-2.0073964595794678,-0.9709959030151367,1.529518485069275
1696083230943621400,4.349621337890625,-2.6133902072906494,-0.2590065002441406,0.6930113434791565
1696083230953621500,4.35962158203125,-2.796928882598877,0.4563474655151367,-0.15977787971496582
1696083230963621400,4.369621337890625,-2.850614070892334,1.1472053527832031,-1.080540657043457
1696083230973621500,4.37962158203125,-3.051042318344116,1.667858600616455,-2.062331199645996
1696083230983621400,4.389621337890625,-3.2685484886169434,2.0184011459350586,-2.914151668548584
1696083230993621500,4.39962158203125,-3.318787097930908,2.2326316833496094,-3.6084234714508057
1696083231003621400,4.409621337890625,-3.398252010345459,2.3947620391845703,-4.030625820159912
1696083231013621500,4.41962158203125,-3.6356608867645264,2.5029854774475098,-4.042999267578125
1696083231023621400,4.429621337890625,-3.866741180419922,2.6425375938415527,-3.928525924682617
1696083231033621500,4.43962158203125,-3.8932290077209473,2.847473621368408,-3.763564109802246
1696083231043621400,4.449621337890625,-3.82171630859375,3.057528018951416,-3.5826971530914307
1696083231053621200,4.459621337890625,-3.8267717361450195,3.2136993408203125,-3.4856250286102295
1696083231063621400,4.469621337890625,-3.9558725357055664,3.368891716003418,-3.500561475753784
1696083231073621200,4.479621337890625,-3.9821720123291016,3.540289878845215,-3.7252111434936523
1696083231083621400,4.489621337890625,-4.162043571472168,3.7522506713867188,-4.28867244720459
1696083231093621500,4.49962158203125,-4.4061126708984375,4.108072757720947,-4.882747650146484
1696083231103621400,4.509621337890625,-4.582592964172363,4.706828594207764,-5.491528511047363
1696083231113621500,4.51962158203125,-4.467644691467285,5.383650302886963,-5.846976280212402
1696083231123621400,4.529621337890625,-4.070825099945068,6.063406944274902,-6.1237101554870605
1696083231133621500,4.53962158203125,-3.51680850982666,6.650884628295898,-6.220401763916016
1696083231143621400,4.549621337890625,-3.024251937866211,6.777759075164795,-5.956029891967773
1696083231153621000,4.55962109375,-2.484251022338867,6.168792724609375,-4.796976089477539
1696083231163620900,4.569620849609375,-1.8143285512924194,5.075082302093506,-2.535191059112549
1696083231173621000,4.57962109375,1.2978541851043701,3.3054776191711426,0.1073993444442749
1696083231183620900,4.589620849609375,5.739566802978516,0.8066129684448242,2.54506778717041
1696083231193621000,4.59962109375,9.234737396240234,-2.0026283264160156,5.176141738891602
1696083231203620900,4.609620849609375,9.292413711547852,-4.513564109802246,8.230508804321289
1696083231213621000,4.61962109375,9.704527854919434,-6.828605651855469,9.652450561523438
1696083231223620900,4.629620849609375,12.910179138183594,-9.19384765625,9.839509010314941
1696083231233621000,4.63962109375,11.550917625427246,-10.236690521240234,8.419479370117188
1696083231243620900,4.649620849609375,7.81522274017334,-8.722604751586914,4.950547695159912
1696083231253621000,4.65962109375,4.902510643005371,-5.356943130493164,1.6585214138031006
1696083231263620900,4.669620849609375,3.177359104156494,-1.2059440612792969,0.43581318855285645
1696083231273621000,4.67962109375,2.050564765930176,2.995055675506592,0.018612027168273926
1696083231283620900,4.689620849609375,1.5967299938201904,5.4949140548706055,-0.759986162185669
1696083231293621000,4.69962109375,1.8729428052902222,4.35329008102417,-1.7557880878448486
1696083231303620900,4.709620849609375,1.8760942220687866,1.657876968383789,-2.489305257797241
1696083231313621000,4.71962109375,1.1535077095031738,-1.4889488220214844,-3.5931339263916016
1696083231323621000,4.72962109375,-0.8454872965812683,-5.7799530029296875,-4.403649806976318
1696083231333621000,4.73962109375,-3.5686306953430176,-8.473994255065918,-4.55212926864624
1696083231343621000,4.74962109375,-4.270594120025635,-10.24258804321289,-5.906002998352051
1696083231353621000,4.75962109375,-4.295130252838135,-10.234711647033691,-5.832014083862305
1696083231363621000,4.76962109375,-3.5783002376556396,-7.698821067810059,-4.508084297180176
1696083231373621000,4.77962109375,-3.5441598892211914,-2.9368810653686523,-3.0041351318359375
1696083231383621000,4.78962109375,-3.6735260486602783,0.0791616439819336,-3.1534247398376465
1696083231393621000,4.79962109375,-4.409066677093506,2.8456482887268066,-3.081301689147949
1696083231403621000,4.80962109375,-5.126683712005615,5.087623596191406,-3.065384864807129
1696083231413621000,4.81962109375,-5.0344743728637695,6.669588088989258,-3.098020076751709
1696083231423621000,4.82962109375,-4.7358317375183105,7.546977996826172,-2.75246000289917
1696083231433621000,4.83962109375,-5.493051052093506,7.583500862121582,-2.1363773345947266
1696083231443621000,4.84962109375,-5.976068496704102,5.5936455726623535,-1.0279242992401123
1696083231453621500,4.85962158203125,-5.2680768966674805,3.439459800720215,-0.7205104827880859
1696083231463621400,4.869621337890625,-4.18606424331665,1.5444154739379883,-0.16224989295005798
1696083231473621500,4.87962158203125,-3.4577672481536865,-0.17368412017822266,0.4375900328159332
1696083231483621400,4.889621337890625,-3.184414863586426,-1.635629653930664,1.038261890411377
1696083231493621500,4.89962158203125,-2.9917469024658203,-2.721151351928711,1.7623302936553955
1696083231503621400,4.909621337890625,-1.0574684143066406,-3.2791690826416016,3.2733030319213867
1696083231513621500,4.91962158203125,2.8701579570770264,-3.411818504333496,5.0816497802734375
1696083231523621400,4.929621337890625,6.801508903503418,-2.798752784729004,6.040355205535889
1696083231533621500,4.93962158203125,8.904162406921387,-1.4170875549316406,5.567626953125
1696083231543621400,4.949621337890625,9.012650489807129,0.0110931396484375,4.137026309967041
1696083231553621500,4.95962158203125,7.715358257293701,1.1255674362182617,2.48007869720459
1696083231563621400,4.969621337890625,5.277932167053223,1.8593621253967285,0.870895504951477
1696083231573621500,4.97962158203125,2.6595864295959473,1.9885969161987305,-0.5180980563163757
1696083231583621400,4.989621337890625,0.7741820216178894,1.496138572692871,-0.967690646648407
1696083231593621500,4.99962158203125,-0.5274406671524048,0.8544683456420898,-0.7987415790557861
1696083231603621400,5.009621337890625,-1.6532355546951294,0.43737220764160156,-0.8559922575950623
1696083231613621500,5.01962158203125,-2.7081823348999023,0.43309688568115234,-0.9728429317474365
1696083231623621400,5.029621337890625,-3.645325183868408,0.5290641784667969,-0.9288790822029114
1696083231633621500,5.03962158203125,-3.7441444396972656,0.5198173522949219,-0.3465709090232849
1696083231643621400,5.049621337890625,-2.6107120513916016,0.4544057846069336,0.13716670870780945
1696083231653621200,5.059621337890625,-0.9718296527862549,0.5367240905761719,0.44307664036750793
1696083231663621400,5.069621337890625,0.5905988216400146,0.9006309509277344,-0.02410745620727539
1696083231673621200,5.079621337890625,1.8371872901916504,1.2225866317749023,-0.6821768879890442
1696083231683621400,5.089621337890625,2.518315553665161,1.2829303741455078,-0.8865450620651245
1696083231693621200,5.099621337890625,2.7727458477020264,1.0214910507202148,-0.8213489651679993
1696083231703621400,5.109621337890625,2.496399164199829,0.4574403762817383,-0.523932158946991
1696083231713621200,5.119621337890625,1.8841946125030518,-0.24027538299560547,-0.1942773461341858
1696083231723621400,5.129621337890625,1.5256047248840332,-0.9876518249511719,0.05132406949996948
1696083231733621200,5.139621337890625,1.818812370300293,-1.7342166900634766,0.2308167815208435
1696083231743621400,5.149621337890625,2.7605977058410645,-2.202631950378418,0.32603639364242554
1696083231753621500,5.15962158203125,4.253390312194824,-2.114215850830078,0.480016827583313
1696083231763621400,5.169621337890625,5.880393981933594,-1.7478218078613281,0.7447600364685059
1696083231773621200,5.179621337890625,7.185055732727051,-1.5651416778564453,1.1684372425079346
1696083231783621400,5.189621337890625,7.553348541259766,-1.6107263565063477,1.7146265506744385
1696083231793621200,5.199621337890625,6.831509590148926,-1.7235374450683594,2.3978943824768066
1696083231803621400,5.209621337890625,5.286215782165527,-1.834385871887207,3.2170019149780273
1696083231813621200,5.219621337890625,3.3917269706726074,-2.1666383743286133,4.219735622406006
1696083231823621400,5.229621337890625,1.7459708452224731,-2.607004165649414,5.344551086425781
1696083231833621200,5.239621337890625,0.5843062400817871,-2.982630729675293,6.714003562927246
1696083231843621400,5.249621337890625,0.19772815704345703,-3.10965633392334,8.296749114990234
1696083231853621500,5.25962158203125,1.117272973060608,-2.877696990966797,9.676406860351562
1696083231863621400,5.269621337890625,3.0930590629577637,-2.4778995513916016,10.39385986328125
1696083231873621500,5.27962158203125,5.5915398597717285,-2.2425050735473633,10.088685035705566
1696083231883621400,5.289621337890625,7.553420066833496,-2.449143409729004,9.01004409790039
1696083231893621500,5.29962158203125,7.905733108520508,-3.074525833129883,7.742196083068848
1696083231903621400,5.309621337890625,7.217927932739258,-3.510777473449707,6.336615562438965
1696083231913621500,5.31962158203125,6.571333885192871,-3.63034725189209,4.858839511871338
1696083231923621400,5.329621337890625,6.579113960266113,-3.354532241821289,3.311127185821533
1696083231933621500,5.33962158203125,6.868293762207031,-2.769364356994629,2.000502586364746
1696083231943621400,5.349621337890625,6.335351943969727,-2.492176055908203,1.3987046480178833
1696083231953621800,5.359621826171875,4.638772964477539,-3.004667282104492,1.8621774911880493
1696083231963621600,5.36962158203125,2.550793170928955,-3.609349250793457,2.1199066638946533
1696083231973621500,5.37962158203125,0.5622191429138184,-4.118412971496582,1.7121553421020508
1696083231983621600,5.38962158203125,-0.814728856086731,-4.757236480712891,0.8754318356513977
1696083231993621500,5.39962158203125,-1.5677543878555298,-5.838163375854492,-0.9772136807441711
1696083232003621600,5.40962158203125,-2.4022841453552246,-7.374014854431152,-3.2476325035095215
1696083232013621500,5.41962158203125,-3.679392099380493,-8.0505952835083,-5.154763221740723
1696083232023621600,5.42962158203125,-4.986441612243652,-7.999935150146484,-6.71319580078125
1696083232033621500,5.43962158203125,-5.630048751831055,-6.621990203857422,-7.1997199058532715
1696083232043621600,5.44962158203125,-5.655777454376221,-4.490175247192383,-6.153228759765625
1696083232053621500,5.45962158203125,-3.009167432785034,-2.6299381256103516,-5.272702217102051
1696083232063621600,5.46962158203125,1.6267688274383545,-1.5731353759765625,-3.9068996906280518
1696083232073621500,5.47962158203125,3.6521835327148438,-0.9637680053710938,-2.1237151622772217
1696083232083621600,5.48962158203125,2.5067687034606934,-0.5928974151611328,-1.1917674541473389
1696083232093621500,5.49962158203125,-0.2505142092704773,-0.288360595703125,-0.7983735799789429
1696083232103621600,5.50962158203125,-2.498736619949341,0.21265792846679688,-0.47025179862976074
1696083232113621800,5.519621826171875,-3.431305408477783,0.8542776107788086,-0.30556440353393555
1696083232123621600,5.52962158203125,-3.4583873748779297,1.563960075378418,-0.25460803508758545
1696083232133621800,5.539621826171875,-3.0024609565734863,2.3233981132507324,-0.3918876051902771
1696083232143621600,5.54962158203125,-2.952767848968506,3.0123562812805176,-0.5403212308883667
1696083232153621200,5.559621337890625,-3.040947914123535,3.595959186553955,-1.014797329902649
1696083232163621400,5.569621337890625,-2.972926139831543,4.125761985778809,-1.806344985961914
1696083232173621200,5.579621337890625,-2.9721879959106445,4.091136932373047,-2.4030256271362305
1696083232183621400,5.589621337890625,-3.069326877593994,3.775178909301758,-3.0376343727111816
1696083232193621200,5.599621337890625,-3.37709379196167,3.445281982421875,-3.624938726425171
1696083232203621400,5.609621337890625,-3.590535879135132,3.127657890319824,-4.127467155456543
1696083232213621200,5.619621337890625,-3.8412842750549316,2.9540538787841797,-4.450596809387207
1696083232223621400,5.629621337890625,-4.060410976409912,2.8425326347351074,-4.514803409576416
1696083232233621200,5.639621337890625,-4.2274489402771,2.861246109008789,-4.408430099487305
1696083232243621400,5.649621337890625,-4.342737674713135,3.041553020477295,-4.242646217346191
1696083232253621000,5.65962109375,-4.515552043914795,3.387956142425537,-4.265207767486572
1696083232263621000,5.66962109375,-4.792998313903809,3.778451919555664,-4.391392707824707
1696083232273621000,5.67962109375,-5.125329494476318,4.201554775238037,-4.66995096206665
1696083232283621000,5.68962109375,-5.235507965087891,4.5552978515625,-4.969245910644531
1696083232293621000,5.69962109375,-5.001615524291992,5.043552398681641,-5.429886817932129
1696083232303621000,5.70962109375,-4.456265449523926,5.487781524658203,-5.975654602050781
1696083232313621000,5.71962109375,-3.6383938789367676,5.816723346710205,-6.198020935058594
1696083232323621000,5.72962109375,-2.9293417930603027,5.879955768585205,-5.967667579650879
1696083232333621000,5.73962109375,-2.4291226863861084,5.336927890777588,-4.861800193786621
1696083232343621000,5.74962109375,-1.4945099353790283,4.404012680053711,-3.056431293487549
1696083232353621200,5.759621337890625,0.3929452896118164,3.1223034858703613,-0.9262787103652954
1696083232363621000,5.76962109375,3.2815961837768555,1.2096662521362305,1.167026400566101
1696083232373621200,5.779621337890625,8.13979721069336,-1.3605976104736328,3.4264941215515137
1696083232383621000,5.78962109375,12.235529899597168,-4.407018661499023,6.296292781829834
1696083232393621200,5.799621337890625,12.870487213134766,-7.7667646408081055,10.047565460205078
1696083232403621000,5.80962109375,11.579830169677734,-10.677382469177246,11.980449676513672
1696083232413621000,5.81962109375,10.111075401306152,-11.901551246643066,11.445823669433594
1696083232423621000,5.82962109375,6.772261619567871,-10.403422355651855,9.36799430847168
1696083232433621000,5.83962109375,5.196990013122559,-6.280937194824219,5.494916915893555
1696083232443621000,5.84962109375,3.3486223220825195,-1.5088930130004883,2.765517473220825
1696083232453621500,5.85962158203125,1.5839941501617432,2.323124885559082,1.0424576997756958
1696083232463621400,5.869621337890625,0.5982875823974609,4.742012977600098,-0.363561749458313
1696083232473621500,5.87962158203125,0.857946515083313,4.091472148895264,-1.3533008098602295
1696083232483621400,5.889621337890625,0.39414167404174805,1.6870698928833008,-1.9073288440704346
1696083232493621500,5.89962158203125,-0.48587244749069214,-2.3866357803344727,-2.755580425262451
1696083232503621400,5.909621337890625,-0.9891793727874756,-7.372128486633301,-3.343604803085327
1696083232513621000,5.91962109375,-0.9935493469238281,-10.51185417175293,-4.388486862182617
1696083232523621000,5.92962109375,3.5772624015808105,-11.934552192687988,-6.728471755981445
1696083232533621200,5.939621337890625,-0.9940148591995239,-7.988574028015137,-6.448997974395752
1696083232543621000,5.94962109375,-3.7744760513305664,-3.2912378311157227,-5.186079025268555
1696083232553621200,5.959621337890625,-4.927089214324951,-0.07495784759521484,-3.865948438644409
1696083232563621000,5.96962109375,-5.516183853149414,1.6652774810791016,-4.291080951690674
1696083232573621000,5.97962109375,-6.049720764160156,3.350830554962158,-4.426732063293457
1696083232583621000,5.98962109375,-6.572742938995361,5.200104713439941,-4.172679901123047
1696083232593621200,5.999621337890625,-5.773242473602295,6.050130844116211,-3.868411064147949
1696083232603621000,6.00962109375,-4.862980365753174,6.193193435668945,-3.7741622924804688
1696083232613621000,6.01962109375,-5.0778117179870605,5.558362007141113,-2.8029563426971436
1696083232623621000,6.02962109375,-4.982738971710205,4.3163161277771,-2.3776676654815674
1696083232633621000,6.03962109375,-3.436433792114258,2.3031258583068848,-2.4576799869537354
1696083232643621000,6.04962109375,-1.9055665731430054,0.6520776748657227,-2.0288944244384766
1696083232653621000,6.05962109375,-1.0005714893341064,-0.5553436279296875,-1.382232666015625
1696083232663621000,6.06962109375,-0.7782176733016968,-1.456502914428711,-0.6246844530105591
1696083232673621000,6.07962109375,-0.5645639896392822,-1.8848581314086914,0.3003787398338318
1696083232683621000,6.08962109375,0.6886088848114014,-2.2283401489257812,1.8119951486587524
1696083232693621000,6.09962109375,3.1139888763427734,-2.251662254333496,3.5956711769104004
1696083232703621000,6.10962109375,5.734776496887207,-2.012178421020508,4.844579696655273
1696083232713621000,6.11962109375,7.3557586669921875,-1.2755508422851562,4.8752121925354
1696083232723621000,6.12962109375,7.5926513671875,-0.10098552703857422,3.873029947280884
1696083232733621000,6.13962109375,6.478889465332031,0.8313226699829102,2.3177552223205566
1696083232743621000,6.14962109375,4.378696441650391,1.4743471145629883,0.9937864542007446
1696083232753621000,6.15962109375,1.7415090799331665,1.5557785034179688,0.40036076307296753
1696083232763621000,6.16962109375,-0.10414862632751465,1.2149744033813477,0.44999799132347107
1696083232773621000,6.17962109375,-0.5746142864227295,0.8437938690185547,0.5648455023765564
1696083232783621000,6.18962109375,-1.418205976486206,0.8237094879150391,0.14772506058216095
1696083232793621000,6.19962109375,-2.6192679405212402,0.6948232650756836,0.20894262194633484
1696083232803621000,6.20962109375,-3.3799445629119873,0.6313686370849609,0.26686733961105347
1696083232813621200,6.219621337890625,-3.116100311279297,0.6149911880493164,0.3746436834335327
1696083232823621400,6.229621337890625,-1.8058793544769287,0.6079692840576172,0.6845672726631165
1696083232833621200,6.239621337890625,-0.11591756343841553,0.5785932540893555,0.8900309801101685
1696083232843621400,6.249621337890625,1.6720221042633057,0.6283931732177734,0.7076850533485413
1696083232853621200,6.259621337890625,3.1499743461608887,0.6106071472167969,0.476510226726532
1696083232863621400,6.269621337890625,4.026975154876709,0.6346321105957031,0.48007047176361084
1696083232873621200,6.279621337890625,4.08193826675415,0.5415048599243164,0.6301129460334778
1696083232883621400,6.289621337890625,3.2681055068969727,0.3447151184082031,0.7007963061332703
1696083232893621200,6.299621337890625,2.2525932788848877,0.10959243774414062,0.5953230261802673
1696083232903621400,6.309621337890625,1.486215591430664,-0.13602256774902344,0.4446897804737091
1696083232913621200,6.319621337890625,1.287792444229126,-0.4514617919921875,0.40452146530151367
1696083232923621400,6.329621337890625,1.7182698249816895,-0.8915863037109375,0.4873186945915222
1696083232933621200,6.339621337890625,2.6840319633483887,-1.3457231521606445,0.662696361541748
1696083232943621400,6.349621337890625,4.110724925994873,-1.598435401916504,0.936771035194397
1696083232953621000,6.35962109375,5.547374725341797,-1.6585731506347656,1.3859320878982544
1696083232963620900,6.369620849609375,6.350040435791016,-1.4868955612182617,2.023888111114502
1696083232973621000,6.37962109375,6.069845199584961,-1.0743999481201172,2.715975761413574
1696083232983620900,6.389620849609375,4.924772262573242,-0.8190679550170898,3.4429574012756348
1696083232993621000,6.39962109375,3.2294178009033203,-0.9000654220581055,4.296595096588135
1696083233003620900,6.409620849609375,1.4649337530136108,-1.273733139038086,5.257269859313965
1696083233013621000,6.41962109375,0.13706159591674805,-1.678980827331543,6.278063774108887
1696083233023620900,6.429620849609375,-0.2694723606109619,-2.000896453857422,7.380850791931152
1696083233033621000,6.43962109375,0.7726178169250488,-2.127427101135254,8.28449535369873
1696083233043620900,6.449620849609375,2.7253239154815674,-2.685410499572754,8.7565336227417
1696083233053621000,6.45962109375,4.712754249572754,-3.761233329772949,8.834428787231445
1696083233063620900,6.469620849609375,6.10178279876709,-4.503693580627441,8.249425888061523
1696083233073621000,6.47962109375,6.808417320251465,-4.637093544006348,7.098991870880127
1696083233083620900,6.489620849609375,6.707550048828125,-4.551548004150391,5.927065372467041
1696083233093621000,6.49962109375,6.248781681060791,-4.245789527893066,4.932727813720703
1696083233103620900,6.509620849609375,5.463650226593018,-3.9739131927490234,4.25386905670166
1696083233113621000,6.51962109375,4.933372497558594,-3.7732114791870117,3.3484885692596436
1696083233123621000,6.52962109375,4.492955684661865,-3.645604133605957,2.258100748062134
1696083233133621000,6.53962109375,3.9158935546875,-3.874502182006836,1.1304740905761719
1696083233143620900,6.549620849609375,2.849721670150757,-4.414593696594238,0.21242797374725342
1696083233153620200,6.5596201171875,1.4370882511138916,-4.878813743591309,-0.7427234649658203
1696083233163620400,6.569620361328125,0.04348552227020264,-5.790693283081055,-2.5726985931396484
1696083233173620200,6.5796201171875,-0.9693957567214966,-6.322454452514648,-3.9210989475250244
1696083233183620400,6.589620361328125,-2.124239683151245,-6.624905586242676,-5.058640003204346
1696083233193620200,6.5996201171875,-3.2936506271362305,-6.233819007873535,-6.141218185424805
1696083233203620400,6.609620361328125,-3.6253912448883057,-4.8417463302612305,-6.03620719909668
1696083233213620200,6.6196201171875,-3.1495120525360107,-3.2898359298706055,-5.316177845001221
1696083233223620000,6.6296201171875,-2.193089485168457,-2.070077896118164,-4.0714335441589355
1696083233233620200,6.6396201171875,-1.0496584177017212,-1.1484861373901367,-2.925210952758789
1696083233243620000,6.6496201171875,0.7053409814834595,-0.5785865783691406,-1.7731006145477295
1696083233253620500,6.659620361328125,0.7571901679039001,-0.34572505950927734,-0.9338160157203674
1696083233263620600,6.66962060546875,-0.15262532234191895,-0.12483501434326172,-0.2312772274017334
1696083233273620700,6.679620849609375,-1.047102451324463,0.2369241714477539,0.230485200881958
1696083233283620600,6.68962060546875,-1.811540126800537,0.7153520584106445,0.5085625648498535
1696083233293620700,6.699620849609375,-2.38210391998291,1.1332674026489258,0.6711804270744324
1696083233303620600,6.70962060546875,-2.823465347290039,1.5627193450927734,0.5268279314041138
1696083233313620700,6.719620849609375,-2.835855722427368,1.9512372016906738,0.27255141735076904
1696083233323620600,6.72962060546875,-3.2108044624328613,2.350428581237793,-0.18140757083892822
1696083233333620700,6.739620849609375,-3.2827444076538086,2.750113010406494,-0.7221087217330933
1696083233343620600,6.74962060546875,-3.3332746028900146,2.9836678504943848,-1.3550381660461426
1696083233353620700,6.759620849609375,-3.3837099075317383,2.8427042961120605,-2.04286789894104
1696083233363620600,6.76962060546875,-3.4337077140808105,2.62971830368042,-2.7943291664123535
1696083233373620700,6.779620849609375,-3.590331554412842,2.4851527214050293,-3.307692050933838
1696083233383620600,6.78962060546875,-3.6413164138793945,2.444077491760254,-3.7126340866088867
1696083233393620700,6.799620849609375,-3.723568916320801,2.5244908332824707,-4.009913444519043
1696083233403620600,6.80962060546875,-3.865807056427002,2.6747632026672363,-4.053835868835449
1696083233413620700,6.819620849609375,-4.24385929107666,2.7998886108398438,-4.108077526092529
1696083233423620600,6.82962060546875,-4.518360137939453,3.0440454483032227,-4.162075996398926
1696083233433620700,6.839620849609375,-4.62239408493042,3.3556017875671387,-4.280176162719727
1696083233443620600,6.84962060546875,-4.5900726318359375,3.7498326301574707,-4.4620513916015625
1696083233453621500,6.85962158203125,-4.551610469818115,4.174665927886963,-4.825706958770752
1696083233463621400,6.869621337890625,-4.429969787597656,4.616319179534912,-5.280585289001465
1696083233473621500,6.87962158203125,-4.095894813537598,5.055600166320801,-5.839167594909668
1696083233483621400,6.889621337890625,-3.615105628967285,5.5438079833984375,-6.274351596832275
1696083233493621000,6.89962109375,-3.05118989944458,5.921282768249512,-6.347613334655762
1696083233503621000,6.90962109375,-2.3927104473114014,5.9370198249816895,-5.912391185760498
1696083233513621000,6.91962109375,-1.5326917171478271,5.468306064605713,-4.702322006225586
1696083233523621000,6.92962109375,-0.36806440353393555,4.596587657928467,-2.9465508460998535
1696083233533621000,6.93962109375,1.3788224458694458,3.248279094696045,-1.020240068435669
1696083233543621000,6.94962109375,4.4396843910217285,1.137049674987793,0.867018461227417
1696083233553622300,6.959622314453125,8.837056159973145,-1.6482839584350586,3.13092303276062
1696083233563623200,6.969623046875,10.329105377197266,-4.044170379638672,5.436901092529297
1696083233573623000,6.979623046875,9.755793571472168,-5.937137603759766,7.943782806396484
1696083233583623200,6.989623046875,10.500205993652344,-7.75303840637207,9.716192245483398
1696083233593623000,6.999623046875,10.931245803833008,-9.040642738342285,9.869272232055664
1696083233603623200,7.009623046875,9.189544677734375,-8.6222505569458,7.936215400695801
1696083233613623000,7.019623046875,6.808923244476318,-6.032661437988281,4.902520179748535
1696083233623623200,7.029623046875,4.470644474029541,-2.442080497741699,2.4039032459259033
1696083233633623000,7.039623046875,3.0258283615112305,1.106095314025879,1.212272047996521
1696083233643623000,7.049622802734375,2.1145811080932617,2.7838797569274902,0.08358955383300781
1696083233653623000,7.059623046875,1.6951649188995361,1.5619544982910156,-0.5126934051513672
1696083233663623000,7.069622802734375,1.1781222820281982,-0.4898033142089844,-0.9731332659721375
1696083233673623000,7.079623046875,0.9848154783248901,-3.348416328430176,-1.570479393005371
1696083233683623000,7.089622802734375,0.2794037461280823,-6.589991569519043,-2.257880687713623
1696083233693623000,7.099623046875,-0.7893543243408203,-8.666736602783203,-3.2986207008361816
1696083233703623000,7.109622802734375,1.35040283203125,-9.713981628417969,-5.435297012329102
1696083233713623000,7.119623046875,-2.156858444213867,-5.948678016662598,-5.431005477905273
1696083233723623000,7.129622802734375,-3.7369894981384277,-1.698023796081543,-4.209981918334961
1696083233733623000,7.139623046875,-4.192846775054932,0.8827314376831055,-3.2198963165283203
1696083233743623000,7.149622802734375,-5.3677849769592285,2.4345755577087402,-3.0439400672912598
1696083233753623000,7.159623046875,-6.773110866546631,3.6390981674194336,-3.4927351474761963
1696083233763623000,7.169622802734375,-7.431874752044678,4.787619590759277,-3.898409366607666
1696083233773623000,7.179623046875,-6.549189567565918,5.008397102355957,-3.3031067848205566
1696083233783623000,7.189622802734375,-5.306928634643555,4.442375659942627,-2.3801136016845703
1696083233793623300,7.199623291015625,-5.2854533195495605,3.883462429046631,-1.475417137145996
1696083233803623400,7.20962353515625,-5.4228692054748535,3.1693458557128906,-1.5594806671142578
1696083233813623300,7.219623291015625,-4.579041481018066,2.0337653160095215,-1.9177711009979248
1696083233823623000,7.229622802734375,-3.401110887527466,0.7261734008789062,-1.7667045593261719
1696083233833623000,7.239623046875,-2.5140724182128906,-0.37460803985595703,-1.2055445909500122
1696083233843623200,7.249623046875,-1.697393774986267,-1.218003273010254,-0.26652246713638306
1696083233853621800,7.259621826171875,-0.24593964219093323,-1.612748146057129,1.0752984285354614
1696083233863620900,7.269620849609375,1.815751552581787,-1.680166244506836,2.386423110961914
1696083233873621000,7.27962109375,3.8273322582244873,-1.3763484954833984,3.1316280364990234
1696083233883620900,7.289620849609375,5.175078392028809,-0.6823911666870117,3.1361746788024902
1696083233893621000,7.29962109375,5.355479717254639,0.2815666198730469,2.44401216506958
1696083233903620900,7.309620849609375,4.439749717712402,1.135920524597168,1.4431644678115845
1696083233913621000,7.31962109375,3.0005526542663574,1.6006402969360352,0.35905879735946655
1696083233923620900,7.329620849609375,1.4969830513000488,1.7692041397094727,-0.5038127303123474
1696083233933621000,7.33962109375,0.32232093811035156,1.661447525024414,-1.3498835563659668
1696083233943620900,7.349620849609375,-0.5730423927307129,1.1512527465820312,-1.868919014930725
1696083233953621000,7.35962109375,-0.5145580768585205,1.1426572799682617,-1.8367056846618652
1696083233963620900,7.369620849609375,-0.8096281290054321,-0.1294269561767578,-1.5133951902389526
1696083233973621000,7.37962109375,-1.1088769435882568,-0.19888591766357422,-1.4225670099258423
1696083233983620900,7.389620849609375,-1.6552095413208008,-0.09487628936767578,-1.0739002227783203
1696083233993621000,7.39962109375,-1.090325117111206,0.04772186279296875,-0.5344071388244629
1696083234003620900,7.409620849609375,0.4659767150878906,0.21865558624267578,0.08127427101135254
1696083234013621000,7.41962109375,2.138169527053833,0.3385467529296875,0.7963718175888062
1696083234023620900,7.429620849609375,3.67641544342041,0.4437446594238281,1.429099678993225
1696083234033621000,7.43962109375,4.599733352661133,0.5082740783691406,2.1445443630218506
1696083234043620900,7.449620849609375,4.906467437744141,0.6252126693725586,2.714716911315918
1696083234053621000,7.45962109375,4.367815017700195,0.6410980224609375,3.0602962970733643
1696083234063620900,7.469620849609375,3.4207963943481445,0.5193805694580078,3.158374309539795
1696083234073621000,7.47962109375,2.362562417984009,0.1997509002685547,2.8633041381835938
1696083234083620900,7.489620849609375,1.877978801727295,-0.3555116653442383,2.1362271308898926
1696083234093621000,7.49962109375,2.5222058296203613,-1.100600242614746,1.4271453619003296
1696083234103620900,7.509620849609375,3.959496021270752,-1.728128433227539,0.8993580341339111
1696083234113621000,7.51962109375,5.427600860595703,-2.0933313369750977,0.4400688409805298
1696083234123621400,7.529621337890625,6.167497634887695,-2.2707509994506836,0.18237078189849854
1696083234133621200,7.539621337890625,6.196828842163086,-2.1556997299194336,0.2536811828613281
1696083234143621400,7.549621337890625,5.620606899261475,-1.6317615509033203,0.9433709383010864
1696083234153621200,7.559621337890625,4.788926124572754,-1.261484146118164,1.996941089630127
1696083234163621400,7.569621337890625,3.582888603210449,-1.412714958190918,3.5303330421447754
1696083234173621200,7.579621337890625,2.793952226638794,-1.8380327224731445,4.79882287979126
1696083234183621400,7.589621337890625,2.1299991607666016,-2.467526435852051,6.416138648986816
1696083234193621200,7.599621337890625,2.1547658443450928,-2.9190597534179688,7.7174787521362305
1696083234203621400,7.609621337890625,3.1571149826049805,-3.316305160522461,9.152464866638184
1696083234213622000,7.6196220703125,4.7962775230407715,-3.1810951232910156,9.639448165893555
1696083234223588900,7.6295888671875,6.97784423828125,-3.0906238555908203,9.579100608825684
1696083234233555500,7.639555419921875,8.689125061035156,-3.643453598022461,9.335049629211426
1696083234243522000,7.64952197265625,9.112403869628906,-4.283080101013184,8.876815795898438
1696083234253488600,7.659488525390625,8.268427848815918,-4.509049415588379,7.931485176086426
1696083234263455500,7.66945556640625,6.642498016357422,-4.431759834289551,6.683388710021973
1696083234273422000,7.679422119140625,5.424313545227051,-4.222870826721191,5.881748199462891
1696083234283388700,7.689388671875,3.5370092391967773,-4.1306915283203125,5.564924716949463
1696083234293355500,7.69935546875,1.4932138919830322,-4.306532859802246,4.6785430908203125
1696083234303322000,7.709322021484375,0.2929733991622925,-4.869504928588867,3.4025068283081055
1696083234313288700,7.719288818359375,-0.5390701293945312,-5.715412139892578,2.434511661529541
1696083234323255300,7.72925537109375,-1.1171517372131348,-6.754733085632324,0.7903288006782532
1696083234333222100,7.73922216796875,-1.6998931169509888,-8.08572769165039,-1.777435064315796
1696083234343188700,7.749188720703125,-2.021503210067749,-9.288963317871094,-4.534395217895508
1696083234353155300,7.7591552734375,-3.0791423320770264,-9.86077880859375,-6.343908309936523
1696083234363122200,7.7691220703125,-4.615487098693848,-8.544035911560059,-7.0361433029174805
1696083234373088800,7.7790888671875,-4.467430114746094,-5.653108596801758,-7.2257981300354
1696083234383055400,7.789055419921875,-2.503542184829712,-3.1402320861816406,-6.254628658294678
1696083234393022000,7.79902197265625,-0.15057095885276794,-1.8462190628051758,-4.423614025115967
1696083234402988800,7.80898876953125,3.0702173709869385,-1.0205097198486328,-2.8928470611572266
1696083234412955400,7.818955322265625,2.969712734222412,-0.7729892730712891,-2.121467351913452
1696083234422922000,7.828921875,0.683448314666748,-0.578343391418457,-1.7443759441375732
1696083234432888800,7.838888916015625,-1.3839614391326904,-0.199951171875,-1.1199041604995728
1696083234442855400,7.84885546875,-2.5560145378112793,0.5255804061889648,-0.6846140623092651
1696083234452822000,7.858822021484375,-2.60335111618042,1.4984054565429688,-0.3424128293991089
1696083234462788900,7.868788818359375,-2.7176058292388916,2.465047836303711,-0.4740840196609497
1696083234472755500,7.87875537109375,-3.006505250930786,3.2715516090393066,-0.6664551496505737
1696083234482722000,7.88872216796875,-3.9833033084869385,3.9031195640563965,-0.7045953869819641
1696083234492688600,7.898688720703125,-4.051624774932861,4.491278171539307,-0.9504825472831726
1696083234502655500,7.908655517578125,-3.147432804107666,4.621273040771484,-1.612290382385254
1696083234512621300,7.918621337890625,-2.475170373916626,4.311992168426514,-2.4667916297912598
1696083234522621200,7.92862109375,-2.660360336303711,3.893897533416748,-3.280402898788452
1696083234532621300,7.938621337890625,-3.181147575378418,3.535857677459717,-3.8711109161376953
1696083234542621200,7.94862109375,-3.667264938354492,3.1658987998962402,-4.098964691162109
1696083234552621300,7.958621337890625,-3.918318748474121,2.956789016723633,-4.113266468048096
1696083234562621200,7.96862109375,-4.171830654144287,2.9150543212890625,-4.047853946685791
1696083234572621300,7.978621337890625,-4.325021266937256,3.0413336753845215,-3.943058967590332
1696083234582621200,7.98862109375,-4.526304721832275,3.3192195892333984,-3.969529151916504
1696083234592621300,7.998621337890625,-4.729280471801758,3.6934165954589844,-4.192867279052734
1696083234602621200,8.00862109375,-5.111420631408691,4.137879848480225,-4.622600555419922
1696083234612621300,8.018621337890625,-5.391909122467041,4.550656318664551,-5.224318027496338
1696083234622621200,8.02862109375,-5.406733512878418,4.863035678863525,-5.839492321014404
1696083234632621300,8.038621337890625,-5.032288551330566,5.2372965812683105,-6.421194076538086
1696083234642621200,8.04862109375,-4.494926929473877,5.755834102630615,-6.913613796234131
1696083234652621300,8.058621337890624,-4.05265998840332,6.096230506896973,-6.991978645324707
1696083234662621200,8.06862109375,-3.2909538745880127,5.803898811340332,-6.06532096862793
1696083234672621300,8.078621337890626,-1.6833288669586182,4.909371852874756,-3.6437530517578125
1696083234682621200,8.08862109375,0.20113444328308105,3.7774085998535156,-1.348437786102295
1696083234692621300,8.098621337890625,2.7788918018341064,1.815572738647461,0.7393779754638672
1696083234702621200,8.10862109375,6.86744499206543,-1.1725759506225586,2.88519024848938
1696083234712621300,8.118621337890625,9.301872253417969,-4.338461875915527,5.337160110473633
1696083234722621200,8.12862109375,9.138067245483398,-7.056321144104004,8.547122955322266
1696083234732621300,8.138621337890624,9.689290046691895,-9.166121482849121,11.287392616271973
1696083234742621200,8.14862109375,11.018766403198242,-9.64450454711914,11.74792194366455
1696083234752621300,8.158621337890626,9.613019943237305,-8.2595853805542,9.819281578063965
1696083234762621200,8.16862109375,7.96966552734375,-5.444742202758789,6.316537380218506
1696083234772621300,8.178621337890625,5.86025857925415,-3.5768165588378906,3.196059226989746
1696083234782621200,8.18862109375,4.380091667175293,-3.3204336166381836,1.0641926527023315
1696083234792621300,8.198621337890625,3.349313735961914,-4.1739702224731445,-0.1848686933517456
1696083234802621200,8.20862109375,2.2586803436279297,-5.319746971130371,-1.4737919569015503
1696083234812621300,8.218621337890625,1.116477608680725,-6.245020866394043,-2.337803602218628
1696083234822621200,8.22862109375,1.2989463806152344,-7.009315490722656,-3.355783224105835
1696083234832621300,8.238621337890624,3.8665103912353516,-7.659112930297852,-4.8392720222473145
1696083234842621200,8.24862109375,3.8929052352905273,-7.653332710266113,-4.814682960510254
1696083234852621300,8.258621337890625,-3.029186725616455,-4.194502830505371,-6.5061492919921875
1696083234862621200,8.26862109375,-5.970674991607666,-0.9016141891479492,-6.059447288513184
1696083234872621300,8.278621337890625,-6.487941741943359,1.977579116821289,-5.088499069213867
1696083234882621200,8.28862109375,-7.062816619873047,4.051189422607422,-4.2095417976379395
1696083234892621300,8.298621337890625,-7.897439479827881,5.820159435272217,-4.13297700881958
1696083234902621200,8.30862109375,-7.977049827575684,6.8541154861450195,-3.855027914047241
1696083234912621300,8.318621337890624,-7.477606773376465,6.896385192871094,-2.6417765617370605
1696083234922621200,8.32862109375,-7.280763626098633,6.5099382400512695,-1.5807240009307861
1696083234932621300,8.338621337890626,-6.846543312072754,5.779151916503906,-1.223020315170288
1696083234942621000,8.348620849609375,-5.659897804260254,4.326313018798828,-1.1261370182037354
1696083234952620800,8.358620849609375,-4.408365726470947,2.4191904067993164,-1.073818564414978
1696083234962621000,8.368620849609375,-3.497901678085327,0.4422435760498047,-0.85345458984375
1696083234972620800,8.378620849609375,-3.168998956680298,-1.3721961975097656,-0.5177220702171326
1696083234982621000,8.388620849609374,-3.142854690551758,-2.480074882507324,-0.19790464639663696
1696083234992620800,8.398620849609374,-3.6430115699768066,-3.1176767349243164,0.330536812543869
1696083235002621000,8.408620849609376,-2.1364216804504395,-3.198288917541504,1.9468703269958496
1696083235012620800,8.418620849609376,0.7683578133583069,-2.5954627990722656,3.585343837738037
1696083235022621000,8.428620849609375,3.7230169773101807,-1.435257911682129,4.209661483764648
1696083235032620800,8.438620849609375,5.841723442077637,0.020849227905273438,3.523350715637207
1696083235042621000,8.448620849609375,7.177797317504883,1.2233562469482422,2.2109532356262207
1696083235052620800,8.458620849609375,7.470410346984863,2.030045986175537,0.3911224603652954
1696083235062621000,8.468620849609374,6.263586044311523,1.9862608909606934,-0.8806841373443604
1696083235072620800,8.478620849609374,4.216750144958496,1.4766225814819336,-1.3581284284591675
1696083235082621000,8.488620849609376,1.577554702758789,0.43939876556396484,-1.6391417980194092
1696083235092620800,8.498620849609376,-0.27936089038848877,-0.2757434844970703,-1.7864938974380493
1696083235102621000,8.508620849609375,-1.1994061470031738,-0.32561683654785156,-1.3988451957702637
1696083235112620800,8.518620849609375,-1.7790179252624512,-0.20306682586669922,-0.8922978639602661
1696083235122621000,8.528620849609375,-2.010617256164551,-0.13149166107177734,-0.16976884007453918
1696083235132620800,8.538620849609375,-0.9895685911178589,0.1942272186279297,0.4634159803390503
1696083235142621000,8.548620849609375,0.770430862903595,0.7612266540527344,0.7664469480514526
1696083235152620800,8.558620849609374,2.259798526763916,1.1664228439331055,0.9165513515472412
1696083235162621000,8.568620849609376,3.367910385131836,1.1034049987792969,1.2439731359481812
1696083235172620800,8.578620849609376,3.843557357788086,0.8248195648193359,1.554077386856079
1696083235182621000,8.588620849609375,3.4033188819885254,0.3555889129638672,1.8471639156341553
1696083235192620800,8.598620849609375,2.3836116790771484,0.027037620544433594,2.0181541442871094
1696083235202621000,8.608620849609375,1.123508334159851,-0.22428035736083984,2.1638407707214355
1696083235212620800,8.618620849609375,0.36166608333587646,-0.48133087158203125,2.1724891662597656
1696083235222621000,8.628620849609375,0.30124974250793457,-0.7685995101928711,2.204576253890991
1696083235232620800,8.638620849609374,1.069929838180542,-0.9968900680541992,2.217682361602783
1696083235242621400,8.648621337890624,2.5074267387390137,-1.1387271881103516,2.301459312438965
1696083235252621300,8.658621337890626,4.374995708465576,-1.2912912368774414,2.537135362625122
1696083235262621200,8.66862109375,6.272284030914307,-1.4262504577636719,2.911881446838379
1696083235272621300,8.678621337890625,7.443281650543213,-1.5476741790771484,3.2641162872314453
1696083235282621200,8.68862109375,7.248866081237793,-1.5289764404296875,3.5501461029052734
1696083235292621300,8.698621337890625,6.106110095977783,-1.4997596740722656,3.980567455291748
1696083235302621200,8.70862109375,4.467562198638916,-1.6344966888427734,4.6769280433654785
1696083235312621300,8.718621337890625,2.8147389888763428,-1.8726673126220703,5.626434326171875
1696083235322621200,8.72862109375,1.72463858127594,-2.0802345275878906,6.846008777618408
1696083235332621300,8.738621337890624,1.466914415359497,-2.152599334716797,8.145139694213867
1696083235342621200,8.74862109375,2.2293894290924072,-1.9213438034057617,9.201375961303711
1696083235352621300,8.758621337890625,3.960671901702881,-1.5670127868652344,9.815674781799316
1696083235362621200,8.76862109375,6.220726013183594,-1.6631183624267578,9.724295616149902
1696083235372621300,8.778621337890625,7.792284965515137,-2.2383108139038086,8.857270240783691
1696083235382621200,8.78862109375,7.812561988830566,-2.903883934020996,7.569046974182129
1696083235392621300,8.798621337890625,7.0060577392578125,-3.204056739807129,6.269955158233643
1696083235402621400,8.808621337890624,6.42404842376709,-3.33510684967041,5.050695896148682
1696083235412621300,8.818621337890624,5.981814384460449,-3.49837589263916,4.028134822845459
1696083235422621400,8.828621337890626,4.950132846832275,-3.801661491394043,3.3428478240966797
1696083235432621300,8.838621337890626,2.8140921592712402,-4.341340065002441,3.3960800170898438
1696083235442621400,8.848621337890625,0.3301677703857422,-5.0645952224731445,3.225151538848877
1696083235452621300,8.858621337890625,-1.3529727458953857,-5.911269187927246,2.126559257507324
1696083235462621400,8.868621337890625,-1.8510005474090576,-7.098973274230957,0.2663600444793701
1696083235472621300,8.878621337890625,-1.304671049118042,-8.638958930969238,-2.0188612937927246
1696083235482621400,8.888621337890624,-1.2280728816986084,-10.111599922180176,-4.606422424316406
1696083235492621300,8.898621337890624,-2.29599666595459,-10.891368865966797,-6.861292362213135
1696083235502621200,8.90862109375,-3.7697339057922363,-10.050625801086426,-8.192466735839844
1696083235512621300,8.918621337890626,-4.2503132820129395,-7.494585037231445,-8.961706161499023
1696083235522621200,8.92862109375,-2.307065725326538,-4.273977279663086,-8.417885780334473
1696083235532621300,8.938621337890625,0.8624430894851685,-1.9780864715576172,-7.168416976928711
1696083235542621200,8.94862109375,2.6464333534240723,-0.5701045989990234,-5.618075847625732
1696083235552621300,8.958621337890625,2.353424549102783,0.1397848129272461,-4.110684871673584
1696083235562621200,8.96862109375,-0.012923479080200195,0.20571136474609375,-2.9751534461975098
1696083235572621300,8.978621337890624,-3.6459007263183594,0.2211446762084961,-2.5240206718444824
1696083235582621200,8.98862109375,-5.248627662658691,0.5682954788208008,-1.1752288341522217
1696083235592621300,8.998621337890626,-3.971705913543701,1.2142047882080078,-0.35464048385620117
1696083235602621200,9.00862109375,-1.8535816669464111,2.1178159713745117,0.05239260196685791
1696083235612621300,9.018621337890625,-1.0363149642944336,2.8718132972717285,0.1602107286453247
1696083235622621200,9.02862109375,-1.8276728391647339,3.544951915740967,0.08401715755462646
1696083235632621300,9.038621337890625,-2.453218460083008,4.088348865509033,-0.045073866844177246
1696083235642621200,9.04862109375,-2.2954211235046387,4.4169697761535645,-0.3683968782424927
1696083235652621300,9.058621337890624,-2.0991344451904297,4.153843879699707,-0.9647732973098755
1696083235662621200,9.06862109375,-2.192476749420166,4.1117963790893555,-1.0773905515670776
1696083235672621300,9.078621337890626,-2.67141056060791,3.16481876373291,-2.445530652999878
1696083235682621200,9.08862109375,-2.964366912841797,2.810976982116699,-3.209439277648926
1696083235692621300,9.098621337890625,-3.209761142730713,2.7593345642089844,-3.8683156967163086
1696083235702621200,9.10862109375,-3.470836639404297,2.824256420135498,-4.328683853149414
1696083235712621300,9.118621337890625,-4.01966667175293,3.0568346977233887,-4.580143928527832
1696083235722621200,9.12862109375,-4.516794681549072,3.426629066467285,-4.8572282791137695
1696083235732621300,9.138621337890624,-4.86635684967041,3.931623935699463,-5.120546340942383
1696083235742621200,9.14862109375,-4.996289253234863,4.416736602783203,-5.341396331787109
1696083235752621300,9.158621337890626,-5.083829879760742,4.862452030181885,-5.447573661804199
1696083235762621200,9.16862109375,-5.076974391937256,5.2956037521362305,-5.662999153137207
1696083235772622300,9.178622314453126,-4.76616096496582,5.685811996459961,-6.0677924156188965
1696083235782622500,9.18862255859375,-4.217274188995361,6.081964492797852,-6.484345436096191
1696083235792622300,9.198622314453125,-3.5088071823120117,6.375090599060059,-6.706231117248535
1696083235802622500,9.20862255859375,-2.7874739170074463,6.348062992095947,-6.3557329177856445
1696083235812622300,9.218622314453125,-1.9473340511322021,5.634119987487793,-4.886457443237305
1696083235822622500,9.22862255859375,-0.5671403408050537,4.484947204589844,-2.7093019485473633
1696083235832622300,9.238622314453124,1.6536855697631836,2.87429141998291,0.04120349884033203
1696083235842622500,9.24862255859375,5.114224433898926,0.37343311309814453,2.8579955101013184
1696083235852622000,9.2586220703125,9.521889686584473,-2.946809768676758,5.818723678588867
1696083235862622200,9.268622314453125,11.095842361450195,-6.399853706359863,9.050527572631836
1696083235872622000,9.2786220703125,9.491645812988281,-8.84471607208252,11.774760246276855
1696083235882622200,9.288622314453125,9.327727317810059,-9.575621604919434,12.057770729064941
1696083235892622300,9.298622314453125,10.20195484161377,-8.598614692687988,11.372344970703125
1696083235902622200,9.308622314453125,8.194104194641113,-6.0779008865356445,10.114923477172852
1696083235912622300,9.318622314453124,6.2499895095825195,-3.208989143371582,6.172865867614746
1696083235922622200,9.328622314453124,4.226999282836914,-0.2978544235229492,3.1358160972595215
1696083235932622300,9.338622314453126,2.268631935119629,2.459921360015869,1.154907464981079
1696083235942622200,9.348622314453126,0.9088691473007202,3.8333044052124023,-0.8022897243499756
1696083235952622300,9.358622314453125,0.753415048122406,2.2663450241088867,-1.9098213911056519
1696083235962622200,9.368622314453125,0.5696431994438171,-0.6336259841918945,-2.9155945777893066
1696083235972622300,9.378622314453125,0.09248745441436768,-4.004881858825684,-3.8679771423339844
1696083235982622200,9.388622314453125,-0.1735614836215973,-7.0782270431518555,-4.477510929107666
1696083235992622300,9.398622314453124,-0.7516061067581177,-9.457592964172363,-5.245014667510986
1696083236002622200,9.408622314453124,3.7583253383636475,-11.305272102355957,-6.484599590301514
1696083236012622300,9.418622314453126,0.15425479412078857,-7.796873092651367,-5.567748069763184
1696083236022622200,9.428622314453126,-3.1018753051757812,-4.297484397888184,-5.062196254730225
1696083236032622300,9.438622314453125,-4.47945499420166,-2.479806900024414,-3.972445487976074
1696083236042622200,9.448622314453125,-5.866789817810059,-0.756739616394043,-3.7043142318725586
1696083236052622300,9.458622314453125,-6.936799049377441,1.4389801025390625,-4.169942378997803
1696083236062622200,9.468622314453125,-7.753158092498779,3.658198833465576,-4.172068119049072
1696083236072621000,9.47862109375,-6.823003768920898,4.9496235847473145,-4.023632526397705
1696083236082621200,9.48862109375,-6.157137870788574,5.669826507568359,-4.064367771148682
1696083236092621000,9.49862109375,-6.717729091644287,5.669704437255859,-2.7904748916625977
1696083236102621200,9.50862109375,-6.093381881713867,5.175303936004639,-1.5335395336151123
1696083236112621000,9.51862109375,-4.771356582641602,4.224700927734375,-0.6425282955169678
1696083236122621200,9.52862109375,-3.1216070652008057,2.6998672485351562,-0.2459399402141571
1696083236132621000,9.53862109375,-2.1415023803710938,1.1898632049560547,-0.14672890305519104
1696083236142621200,9.54862109375,-1.6210520267486572,-0.14582061767578125,-0.13818755745887756
1696083236152621600,9.55862158203125,-1.3024969100952148,-1.3416919708251953,-0.06294512748718262
1696083236162621400,9.568621337890624,-0.02304089069366455,-2.567267417907715,0.7670779824256897
1696083236172621600,9.57862158203125,3.123217821121216,-3.233567237854004,2.4145150184631348
1696083236182621400,9.588621337890626,6.884570598602295,-3.186605453491211,3.7184109687805176
1696083236192621300,9.598621337890625,9.61423110961914,-2.1583127975463867,3.7987165451049805
1696083236202621200,9.60862109375,10.175712585449219,-0.7519674301147461,2.874755859375
1696083236212621300,9.618621337890625,8.623507499694824,0.6658573150634766,1.4698055982589722
1696083236222621200,9.62862109375,6.05844783782959,1.719024658203125,-0.04304243624210358
1696083236232621300,9.638621337890624,2.913682460784912,2.1903176307678223,-1.025327205657959
1696083236242621200,9.64862109375,0.14470410346984863,1.8878421783447266,-1.4606289863586426
1696083236252621300,9.658621337890626,-1.744297742843628,1.4752693176269531,-1.314343810081482
1696083236262621200,9.66862109375,-2.90366268157959,0.9014415740966797,-1.0887128114700317
1696083236272621300,9.678621337890625,-3.861283779144287,0.46628856658935547,-0.7940806150436401
1696083236282621200,9.68862109375,-4.526570796966553,0.2410593032836914,-0.33665743470191956
1696083236292621300,9.698621337890625,-4.344884872436523,0.4946718215942383,0.20138269662857056
1696083236302621200,9.70862109375,-2.818385124206543,0.8156757354736328,1.2104740142822266
1696083236312621300,9.718621337890625,-1.0463588237762451,0.9619989395141602,1.9252792596817017
1696083236322621200,9.72862109375,0.5696196556091309,0.8827276229858398,2.2314555644989014
1696083236332621300,9.738621337890624,2.1635799407958984,0.7205362319946289,2.4542009830474854
1696083236342621200,9.74862109375,3.6419034004211426,0.6676549911499023,2.6145293712615967
1696083236352621300,9.758621337890625,4.445788860321045,0.5391206741333008,2.6673731803894043
1696083236362621200,9.76862109375,4.374699592590332,0.3446216583251953,2.4383678436279297
1696083236372621300,9.778621337890625,3.6836440563201904,0.0835113525390625,1.7632266283035278
1696083236382621200,9.78862109375,3.0367276668548584,-0.5028343200683594,1.1464002132415771
1696083236392621300,9.798621337890625,2.991105556488037,-1.1324701309204102,0.6544212102890015
1696083236402621200,9.80862109375,3.7097010612487793,-1.5314998626708984,0.3094000816345215
1696083236412621300,9.818621337890624,4.925745010375977,-1.4437789916992188,0.04889678955078125
1696083236422621200,9.82862109375,5.990914344787598,-1.2443304061889648,0.2284145951271057
1696083236432621300,9.838621337890626,6.2039875984191895,-1.2927465438842773,0.7873514890670776
1696083236442621200,9.84862109375,5.5191426277160645,-1.4303874969482422,1.7740942239761353
1696083236452621300,9.858621337890625,4.406011581420898,-1.3882331848144531,2.7571444511413574
1696083236462621200,9.86862109375,3.404784917831421,-1.1804723739624023,3.5085530281066895
1696083236472621300,9.878621337890625,2.701606273651123,-1.1609458923339844,4.262658596038818
1696083236482621200,9.88862109375,2.6746654510498047,-1.1690139770507812,4.368131160736084
1696083236492621300,9.898621337890624,1.6019738912582397,-1.6445083618164062,6.206010818481445
1696083236502621200,9.90862109375,1.5653148889541626,-1.6509284973144531,6.305613040924072
1696083236512621300,9.918621337890626,1.8200894594192505,-1.527618408203125,7.824207305908203
1696083236522621200,9.92862109375,3.3304407596588135,-1.2325658798217773,7.908120155334473
1696083236532621300,9.938621337890625,5.46649169921875,-1.1826372146606445,7.215590953826904
1696083236542621200,9.94862109375,7.218997001647949,-1.7905187606811523,6.323692798614502
1696083236552621300,9.958621337890625,8.253067970275879,-3.290578842163086,5.615734100341797
1696083236562621200,9.96862109375,8.793882369995117,-4.67509651184082,4.874655246734619
1696083236572621300,9.978621337890624,8.889303207397461,-5.306951522827148,3.903031349182129
1696083236582621200,9.98862109375,9.15973949432373,-5.216494560241699,2.7790253162384033
1696083236592621300,9.998621337890626,8.742728233337402,-4.8826141357421875,2.3355910778045654
1696083236602621200,10.00862109375,5.951755523681641,-4.761836051940918,3.109586715698242
1696083236612621300,10.018621337890625,2.1130402088165283,-4.596426010131836,3.7758045196533203
1696083236622621200,10.02862109375,-0.7984564304351807,-4.375517845153809,3.520019292831421
1696083236632621300,10.038621337890625,-2.2270803451538086,-4.724068641662598,2.186971426010132
1696083236642621200,10.04862109375,-1.8435851335525513,-7.284272193908691,-1.1765673160552979
1696083236652621300,10.058621337890624,-2.0910556316375732,-7.237870216369629,-1.4185854196548462
1696083236662621200,10.06862109375,-2.5406339168548584,-8.631157875061035,-3.045506000518799
1696083236672621300,10.078621337890626,-3.778087854385376,-9.289353370666504,-4.519833087921143
1696083236682621200,10.08862109375,-4.584827899932861,-8.17594051361084,-5.123857498168945
1696083236976481800,10.382481689453124,-2.265040874481201,6.065797805786133,-4.793243885040283
1696083236986481700,10.392481689453126,-1.448063611984253,5.214578151702881,-2.6256284713745117
1696083236996481800,10.402481689453126,0.36896467208862305,4.134995937347412,-0.2862938642501831
1696083237006482000,10.41248193359375,2.926332473754883,2.1717371940612793,1.984190821647644
1696083237016481800,10.422481689453125,5.678011417388916,-0.4266347885131836,4.079482078552246
1696083237026481700,10.432481689453125,7.901077747344971,-3.196782112121582,6.603970050811768
1696083237036481800,10.442481689453125,8.475765228271484,-6.072768211364746,9.461718559265137
1696083237046482000,10.45248193359375,9.048759460449219,-8.500215530395508,12.5986328125
1696083237056481800,10.462481689453124,11.08247184753418,-9.691142082214355,13.803265571594238
1696083237066481700,10.472481689453126,11.681927680969238,-9.46597957611084,13.423574447631836
1696083237076481800,10.482481689453126,9.70959758758545,-7.545022010803223,9.715408325195312
1696083237086482000,10.49248193359375,7.208788871765137,-4.8073577880859375,4.774625778198242
1696083237096481800,10.502481689453125,4.267692565917969,-1.6469383239746094,1.6445744037628174
1696083237106481700,10.512481689453125,2.0965681076049805,0.7614011764526367,-0.3472651243209839
1696083237116481800,10.522481689453125,2.239861488342285,0.9791984558105469,-1.7095870971679688
1696083237126482000,10.53248193359375,2.54518461227417,-0.7793245315551758,-2.8446261882781982
1696083237136481800,10.542481689453124,1.4468010663986206,-3.8116073608398438,-3.4011247158050537
1696083237146481700,10.552481689453124,0.2042301893234253,-6.942629814147949,-4.011981010437012
1696083237156481800,10.562481689453126,-1.710557460784912,-9.112735748291016,-5.41566801071167
1696083237166482000,10.57248193359375,-1.9371615648269653,-9.64728832244873,-8.036574363708496
1696083237176481800,10.582481689453125,-4.229565143585205,-5.973746299743652,-9.032703399658203
1696083237186481700,10.592481689453125,-6.929755210876465,-2.56573486328125,-7.8675665855407715
1696083237196481800,10.602481689453125,-7.423803329467773,0.0203857421875,-6.571606159210205
1696083237206482000,10.61248193359375,-7.900997161865234,1.7726659774780273,-5.765697479248047
1696083237216481800,10.622481689453124,-8.543705940246582,4.117747783660889,-5.1479878425598145
1696083237226482000,10.63248193359375,-7.851374626159668,5.524983882904053,-4.893778324127197
1696083237236481800,10.642481689453126,-6.09390115737915,6.221678256988525,-4.1109089851379395
1696083237246482000,10.65248193359375,-6.071832180023193,6.396442890167236,-3.1305975914001465
1696083237256481800,10.662481689453125,-5.982582092285156,5.9533891677856445,-2.5593762397766113
1696083237266482000,10.67248193359375,-4.690237522125244,4.4616217613220215,-1.4332892894744873
1696083237276481800,10.682481689453125,-3.0904171466827393,2.1621737480163574,-0.6533485651016235
1696083237286482000,10.69248193359375,-2.0141141414642334,0.3198223114013672,-0.3217659294605255
1696083237296481800,10.702481689453125,-1.544121265411377,-1.149190902709961,-0.1728251576423645
1696083237306482000,10.71248193359375,-1.2491341829299927,-2.186269760131836,0.11067527532577515
1696083237316481800,10.722481689453126,-0.6813732981681824,-2.7348337173461914,0.9812186360359192
1696083237326482000,10.73248193359375,0.8253908157348633,-2.97635555267334,2.5106518268585205
1696083237336481800,10.742481689453125,3.487018585205078,-2.84011173248291,4.280154228210449
1696083237346482000,10.75248193359375,6.406067371368408,-2.0674381256103516,5.176661014556885
1696083237356481800,10.762481689453125,8.542984008789062,-0.9416570663452148,4.78544807434082
1696083237366482000,10.77248193359375,9.101977348327637,0.06339359283447266,3.502218008041382
1696083237376481800,10.782481689453125,7.813688278198242,0.6915311813354492,2.129793882369995
1696083237386482000,10.79248193359375,5.350130081176758,1.004568099975586,0.7986042499542236
1696083237396481800,10.802481689453124,3.103980302810669,1.032846450805664,-0.2319275438785553
1696083237406482000,10.81248193359375,1.1280688047409058,0.8056440353393555,-0.48545801639556885
1696083237416481800,10.822481689453125,-0.5611280202865601,0.7344121932983398,-0.5520697832107544
1696083237426482000,10.83248193359375,-1.978765845298767,0.7688426971435547,-0.494972825050354
1696083237436481800,10.842481689453125,-2.8792009353637695,0.7685174942016602,-0.1099611222743988
1696083237446482000,10.85248193359375,-4.100740909576416,0.8548002243041992,0.2902193069458008
1696083237456481800,10.862481689453125,-4.3966498374938965,1.0295534133911133,0.644250750541687
1696083237466482000,10.87248193359375,-3.4527478218078613,1.147200584411621,0.9963244199752808
1696083237476481800,10.882481689453124,-1.9117053747177124,1.0797176361083984,1.3863210678100586
1696083237486482000,10.89248193359375,-0.5213891267776489,0.9786624908447266,1.5246055126190186
1696083237496481800,10.902481689453126,0.8091657757759094,0.9076175689697266,1.47670316696167
1696083237506482000,10.91248193359375,2.14762282371521,0.7976560592651367,1.2373595237731934
1696083237516481800,10.922481689453125,3.0248687267303467,0.5343465805053711,0.9639006853103638
1696083237526482000,10.93248193359375,3.159067153930664,0.17655181884765625,0.6691915392875671
1696083237536481800,10.942481689453125,2.713167905807495,-0.11394786834716797,0.4282405972480774
1696083237546482000,10.95248193359375,2.2241475582122803,-0.3892965316772461,0.2486899495124817
1696083237556481800,10.962481689453124,2.073301076889038,-0.6773967742919922,-0.045769572257995605
1696083237566482000,10.97248193359375,2.428201198577881,-1.0235261917114258,-0.24231165647506714
1696083237576481800,10.982481689453126,3.424483060836792,-1.445857048034668,-0.4147963523864746
1696083237586482000,10.99248193359375,5.07752799987793,-1.67596435546875,-0.4781578779220581
1696083237596481800,11.002481689453125,6.733157157897949,-1.7081022262573242,-0.1406491994857788
1696083237606482000,11.01248193359375,7.444740295410156,-1.7675561904907227,0.6986441016197205
1696083237616481800,11.022481689453125,6.912763595581055,-1.7685546875,1.9862315654754639
1696083237626482000,11.03248193359375,5.487447261810303,-1.6678457260131836,3.2782998085021973
1696083237636481800,11.042481689453124,3.4976820945739746,-1.6771936416625977,4.417961120605469
1696083237646482000,11.05248193359375,1.4149913787841797,-1.8770742416381836,5.553039073944092
1696083237656481800,11.062481689453126,-0.42603158950805664,-2.231386184692383,6.989054203033447
1696083237666482000,11.07248193359375,-1.6731061935424805,-2.5915985107421875,8.671173095703125
1696083237676481800,11.082481689453125,-1.184934139251709,-2.6939239501953125,10.196681022644043
1696083237686482000,11.09248193359375,1.0310276746749878,-2.1544723510742188,10.792943000793457
1696083237696481800,11.102481689453125,4.013609886169434,-1.4876909255981445,10.295066833496094
1696083237706482000,11.11248193359375,6.664353847503662,-1.4668502807617188,9.376823425292969
1696083237716481800,11.122481689453124,7.889835357666016,-2.330746650695801,8.22355842590332
1696083237726482000,11.13248193359375,7.0461225509643555,-3.4200658798217773,6.847980499267578
1696083237736481800,11.142481689453126,5.488737106323242,-4.130710601806641,5.57368278503418
1696083237746482000,11.15248193359375,4.519505977630615,-4.407588958740234,4.380687713623047
1696083237756481800,11.162481689453125,5.016411304473877,-3.972874641418457,3.1424503326416016
1696083237766482000,11.17248193359375,5.9079437255859375,-3.5611791610717773,2.261122465133667
1696083237776481800,11.182481689453125,6.49732780456543,-3.4016542434692383,1.3538117408752441
1696083237786482000,11.19248193359375,6.294833183288574,-3.5334930419921875,0.4876164197921753
1696083237796481800,11.202481689453125,4.845806121826172,-4.1159467697143555,0.14015066623687744
1696083237806482000,11.21248193359375,2.7125024795532227,-4.700126647949219,-0.5697628259658813
1696083237816481800,11.222481689453126,1.2727792263031006,-5.579991340637207,-1.4858776330947876
1696083237826482000,11.23248193359375,-0.3160276412963867,-6.370059013366699,-2.8455922603607178
1696083237836481800,11.242481689453125,-1.4195832014083862,-6.977028846740723,-3.9897878170013428
1696083237846482000,11.25248193359375,-2.787764072418213,-7.4372358322143555,-5.28104305267334
1696083237856481800,11.262481689453125,-4.323437213897705,-6.668919563293457,-5.7797017097473145
1696083237866482000,11.27248193359375,-4.129817008972168,-5.2674407958984375,-5.585974216461182
1696083237876481800,11.282481689453125,-2.776686191558838,-3.9387779235839844,-4.868646621704102
1696083237886482000,11.29248193359375,-1.7864593267440796,-3.3020076751708984,-3.4864249229431152
1696083237896481800,11.302481689453124,-0.6541809439659119,-2.5203075408935547,-2.365104913711548
1696083237906482000,11.31248193359375,0.2680202126502991,-1.8890933990478516,-1.338378667831421
1696083237916481800,11.322481689453125,-0.328655868768692,-1.4467601776123047,-0.7044590711593628
1696083237926482000,11.33248193359375,-1.6072661876678467,-0.9738435745239258,-0.36676546931266785
1696083237936481800,11.342481689453125,-2.874330520629883,-0.4394693374633789,0.0759667158126831
1696083237946482000,11.35248193359375,-2.911438465118408,0.46114540100097656,0.17948591709136963
1696083237956481800,11.362481689453125,-2.311530590057373,1.2498903274536133,0.02631402015686035
1696083237966482000,11.37248193359375,-2.3136887550354004,1.9819540977478027,0.02358829975128174
1696083237976481800,11.382481689453124,-2.955911159515381,2.460484504699707,-0.062091946601867676
1696083237986482000,11.39248193359375,-3.353841543197632,2.9674854278564453,-0.18491899967193604
1696083237996481800,11.402481689453126,-3.266390085220337,3.4527244567871094,-0.6975026726722717
1696083238006482000,11.41248193359375,-2.73490571975708,3.741669178009033,-1.4488098621368408
1696083238016481800,11.422481689453125,-2.7083580493927,3.7174429893493652,-2.210756301879883
1696083238026482000,11.43248193359375,-3.1269195079803467,3.5600991249084473,-2.797438859939575
1696083238036481800,11.442481689453125,-3.645496368408203,3.3877782821655273,-3.254481315612793
1696083238046482000,11.45248193359375,-3.786508560180664,3.2882332801818848,-3.601818084716797
1696083238056481800,11.462481689453124,-3.8335375785827637,3.2537384033203125,-3.858875274658203
1696083238066482000,11.47248193359375,-4.015413761138916,3.287520408630371,-3.970181941986084
1696083238076481800,11.482481689453126,-4.174436569213867,3.445064067840576,-4.117148399353027
1696083238086482000,11.49248193359375,-4.361011981964111,3.647855758666992,-4.418561935424805
1696083238096481800,11.502481689453125,-4.678529739379883,3.9345974922180176,-4.8350443840026855
1696083238106482000,11.51248193359375,-4.9278154373168945,4.356574535369873,-5.209986686706543
1696083238116481800,11.522481689453125,-4.858436584472656,4.859280109405518,-5.534177780151367
1696083238126482000,11.53248193359375,-4.696707725524902,5.4101762771606445,-5.775836944580078
1696083238136481800,11.542481689453124,-4.338062286376953,5.926087379455566,-5.965539932250977
1696083238146482000,11.55248193359375,-3.8723983764648438,6.295328617095947,-6.088630676269531
1696083238156481800,11.562481689453126,-3.0560057163238525,6.22441291809082,-5.880703926086426
1696083238166482000,11.57248193359375,-2.2739832401275635,5.735049724578857,-5.141951560974121
1696083238176481800,11.582481689453125,-1.1449252367019653,4.9503984451293945,-3.8832178115844727
1696083238186482000,11.59248193359375,0.7483258247375488,3.7698254585266113,-2.1343953609466553
1696083238196481800,11.602481689453125,3.7407076358795166,1.871915340423584,-0.15508782863616943
1696083238206482000,11.61248193359375,8.378719329833984,-0.8248844146728516,2.0463924407958984
1696083238216481800,11.622481689453124,11.243274688720703,-3.8854150772094727,5.015069007873535
1696083238226482000,11.63248193359375,11.147705078125,-7.04155158996582,8.50400447845459
1696083238236481800,11.642481689453126,9.73552417755127,-9.354227066040039,11.162040710449219
1696083238246482000,11.65248193359375,9.540152549743652,-9.848298072814941,11.104994773864746
1696083238256481800,11.662481689453125,8.197864532470703,-7.784852027893066,9.099600791931152
1696083238266482000,11.67248193359375,6.612448215484619,-4.026322364807129,6.018219947814941
1696083238276481800,11.682481689453125,4.976877689361572,-0.46186351776123047,3.6700639724731445
1696083238286482000,11.69248193359375,3.314239025115967,2.690387725830078,2.1148829460144043
1696083238296481800,11.702481689453125,1.7503091096878052,4.584927558898926,0.7185472249984741
1696083238306482000,11.71248193359375,1.2853899002075195,2.6834969520568848,-0.2511775493621826
1696083238316481800,11.722481689453126,0.5485922694206238,-0.9580135345458984,-1.2734975814819336
1696083238326482000,11.73248193359375,-0.5975344181060791,-5.108440399169922,-1.876927375793457
1696083238336481800,11.742481689453125,-2.2941579818725586,-8.288922309875488,-2.6974363327026367
1696083238346482000,11.75248193359375,-3.610178232192993,-11.125531196594238,-4.138820171356201
1696083238356481800,11.762481689453125,2.1686084270477295,-14.593266487121582,-6.177581787109375
1696083238366482000,11.77248193359375,-2.075216770172119,-10.304953575134277,-5.430204391479492
1696083238376481800,11.782481689453125,-3.957622528076172,-4.84808349609375,-4.596883773803711
1696083238386482000,11.79248193359375,-4.360367774963379,-1.0598411560058594,-4.368251323699951
1696083238396481800,11.802481689453124,-6.097621917724609,1.6804618835449219,-5.246773719787598
1696083238406482000,11.81248193359375,-7.273724555969238,4.172492504119873,-5.78598690032959
1696083238416481800,11.822481689453125,-6.565490245819092,5.943179130554199,-4.912906169891357
1696083238426482000,11.83248193359375,-5.554588794708252,6.758930206298828,-4.599152565002441
1696083238436481800,11.842481689453125,-5.586269378662109,6.999262809753418,-4.124671459197998
1696083238446482000,11.85248193359375,-5.335207939147949,6.6075849533081055,-3.144852876663208
1696083238456481800,11.862481689453125,-4.50919246673584,5.6684160232543945,-1.902860164642334
1696083238466482000,11.87248193359375,-3.5850887298583984,3.844334602355957,-1.5189306735992432
1696083238476481800,11.882481689453124,-2.414324998855591,1.81251859664917,-1.3427379131317139
1696083238486482000,11.89248193359375,-1.8669759035110474,-0.120025634765625,-1.3136951923370361
1696083238496481800,11.902481689453126,-1.6295826435089111,-1.8152542114257812,-1.0973186492919922
1696083238506482000,11.91248193359375,-1.0546798706054688,-2.999098777770996,-0.3873487710952759
1696083238516481800,11.922481689453125,1.043617844581604,-3.547451972961426,1.163777470588684
1696083238526482000,11.93248193359375,4.446245193481445,-3.4794845581054688,3.0049192905426025
1696083238536481800,11.942481689453125,7.630300521850586,-2.7400903701782227,4.222757339477539
1696083238546482000,11.95248193359375,9.355413436889648,-1.3097248077392578,4.090958118438721
1696083238556481800,11.962481689453124,8.819622039794922,0.3034210205078125,3.064683675765991
1696083238566482000,11.97248193359375,6.6468939781188965,1.4561681747436523,1.6679375171661377
1696083238576481800,11.982481689453126,3.5339863300323486,1.8547921180725098,0.4272489547729492
1696083238586482000,11.99248193359375,0.8491815328598022,1.7475829124450684,-0.24883638322353363
1696083238596481800,12.002481689453125,-1.115524411201477,1.2920417785644531,-0.6626569628715515
1696083238606482000,12.01248193359375,-2.5121333599090576,0.8425168991088867,-1.0859562158584595
1696083238616481800,12.022481689453125,-3.2861766815185547,0.4783744812011719,-1.2750478982925415
1696083238626482000,12.03248193359375,-3.7741432189941406,0.35845470428466797,-1.496363878250122
1696083238636481800,12.042481689453124,-3.8462624549865723,0.34075355529785156,-1.3591474294662476
1696083238646482000,12.05248193359375,-2.696495532989502,0.19686317443847656,-0.6853229999542236
1696083238656481800,12.062481689453126,-0.7485229969024658,0.19748401641845703,0.06580255925655365
1696083238666482000,12.07248193359375,1.2277488708496094,0.3827047348022461,0.38465338945388794
1696083238676481800,12.082481689453125,2.941568374633789,0.27680110931396484,0.5225054621696472
1696083238686482000,12.09248193359375,4.014976501464844,-0.0010356903076171875,0.9170702695846558
1696083238696481800,12.102481689453125,4.135721206665039,-0.3075876235961914,1.4826844930648804
1696083238706482000,12.11248193359375,3.373116970062256,-0.5884971618652344,1.954657793045044
1696083238716481800,12.122481689453124,2.4152536392211914,-0.7305316925048828,2.0210371017456055
1696083239018333700,12.424333740234376,-3.594837188720703,-9.23997688293457,-4.415502071380615
1696083239028333800,12.434333740234376,-4.5368971824646,-8.263652801513672,-5.106083869934082
1696083239038333700,12.444333740234375,-4.7396135330200195,-6.32511043548584,-4.834299564361572
1696083239048333800,12.454333740234375,-3.797917604446411,-4.433392524719238,-4.270393371582031
1696083239058333700,12.464333740234375,-2.070375680923462,-3.1435928344726562,-3.3225109577178955
1696083239068333800,12.474333740234375,-0.3302838206291199,-2.3839292526245117,-1.967411756515503
1696083239078333700,12.484333740234375,1.2273123264312744,-1.7329120635986328,-0.9343452453613281
1696083239088333800,12.494333740234374,1.9118120670318604,-1.3282413482666016,-0.8411234617233276
1696083239098333700,12.504333740234374,-0.018811523914337158,-0.9993400573730469,-0.7268578410148621
1696083239108333800,12.514333740234376,-2.8210110664367676,-0.5935077667236328,-0.7797878384590149
1696083239118333700,12.524333740234376,-4.063918113708496,0.048264503479003906,-0.5366132855415344
1696083239128333800,12.534333740234375,-3.5768301486968994,0.7561960220336914,-0.7132986783981323
1696083239138333700,12.544333740234375,-2.8282766342163086,1.5403680801391602,-0.9477396011352539
1696083239148333800,12.554333740234375,-2.5338759422302246,2.254058361053467,-1.3386479616165161
1696083239158333700,12.564333740234375,-2.6740031242370605,2.910522937774658,-1.7862728834152222
1696083239168333800,12.574333740234374,-2.817885398864746,3.3656411170959473,-2.388063430786133
1696083239178333700,12.584333740234374,-2.8607664108276367,3.62455415725708,-3.083474636077881
1696083239188333800,12.594333740234376,-2.673689365386963,3.776362419128418,-4.07798957824707
1696083239198333700,12.604333740234376,-2.4034764766693115,3.682832717895508,-4.812506675720215
1696083239208333800,12.614333740234375,-2.6114578247070312,3.512549877166748,-5.218832969665527
1696083239218333700,12.624333740234375,-3.313715934753418,3.2718710899353027,-5.2596821784973145
1696083239228333800,12.634333740234375,-3.854401111602783,3.1428022384643555,-5.171903610229492
1696083239238333700,12.644333740234375,-3.9585061073303223,3.1006388664245605,-5.0148468017578125
1696083239248333800,12.654333740234375,-3.9058303833007812,3.1652536392211914,-4.906924247741699
1696083239258333700,12.664333740234374,-3.898499011993408,3.226614475250244,-4.753997325897217
1696083239268333800,12.674333740234376,-3.963130474090576,3.3850674629211426,-4.733776092529297
1696083239278333700,12.684333740234376,-3.985748529434204,3.7288451194763184,-5.067253112792969
1696083239288333800,12.694333740234375,-4.018750190734863,4.248170375823975,-5.504431247711182
1696083239298333700,12.704333740234375,-3.851893424987793,4.841193675994873,-5.953556060791016
1696083239308333800,12.714333740234375,-3.4991812705993652,5.35033655166626,-6.30334997177124
1696083239318333700,12.724333740234375,-3.1511521339416504,5.487234115600586,-6.1931633949279785
1696083239328333800,12.734333740234375,-2.7702839374542236,5.2191162109375,-5.42336893081665
1696083239338333700,12.744333740234374,-1.982174038887024,4.444986343383789,-4.088771820068359
1696083239348333800,12.754333740234374,-0.4309631586074829,3.2417240142822266,-2.0763165950775146
1696083239358333700,12.764333740234376,1.4179542064666748,1.7497410774230957,0.16027426719665527
1696083239368333800,12.774333740234376,3.8910744190216064,-0.1202392578125,2.163485288619995
1696083239378333700,12.784333740234375,5.976980686187744,-2.0203514099121094,4.089112758636475
1696083239388333800,12.794333740234375,6.115653991699219,-3.4266977310180664,5.732496738433838
1696083239398333700,12.804333740234375,5.376657485961914,-3.9532814025878906,7.098474025726318
1696083239408333800,12.814333740234375,5.173818588256836,-3.7850894927978516,8.212790489196777
1696083239418334000,12.824333984375,6.0983991622924805,-3.5535430908203125,9.089665412902832
1696083239428333800,12.834333740234374,6.146167755126953,-3.3527402877807617,8.667622566223145
1696083239438334000,12.844333984375,5.452651023864746,-3.025247573852539,6.612974643707275
1696083239448333800,12.854333740234376,4.565948963165283,-2.58194637298584,3.920999050140381
1696083239458334000,12.864333984375,3.628380298614502,-2.041813850402832,1.6827722787857056
1696083239468333800,12.874333740234375,1.9374486207962036,-0.5793886184692383,0.10737168788909912
1696083239478334000,12.884333984375,0.9405571222305298,1.4179391860961914,-1.1012701988220215
1696083239488333800,12.894333740234375,0.3224250078201294,2.347195625305176,-1.9958491325378418
1696083239498334000,12.904333984375,0.4015648365020752,1.1553220748901367,-2.17292857170105
1696083239508333800,12.914333740234374,0.8561913371086121,-0.9313774108886719,-2.302597999572754
1696083239518334000,12.924333984375,1.2156540155410767,-3.5011329650878906,-3.055208206176758
1696083239528333800,12.934333740234376,1.5896351337432861,-6.282980918884277,-3.521559238433838
1696083239538334000,12.944333984375,1.7340867519378662,-8.66649055480957,-3.547722578048706
1696083239548333800,12.954333740234375,4.240276336669922,-10.86939811706543,-4.135828018188477
1696083239558334000,12.964333984375,4.2157793045043945,-10.232756614685059,-4.456772327423096
1696083239568333800,12.974333740234375,-0.1809222400188446,-6.554812431335449,-3.574673652648926
1696083239578334000,12.984333984375,-1.717146873474121,-2.977288246154785,-2.3816652297973633
1696083239588333800,12.994333740234374,-2.6235032081604004,0.15379047393798828,-1.869995355606079
1696083239598334000,13.004333984375,-3.9842324256896973,2.809804916381836,-2.3847296237945557
1696083239608333800,13.014333740234376,-4.894673824310303,4.646415710449219,-2.569833755493164
1696083239618334000,13.024333984375,-5.69866418838501,6.070700645446777,-2.4860692024230957
1696083239628333800,13.034333740234375,-6.052612781524658,7.0126237869262695,-3.1982033252716064
1696083239638334000,13.044333984375,-5.42905330657959,6.925424575805664,-3.154036045074463
1696083239648333800,13.054333740234375,-4.908031463623047,5.7575364112854,-2.2958760261535645
1696083239658334000,13.064333984375,-4.731771469116211,3.9098243713378906,-1.7387456893920898
1696083239668333800,13.074333740234374,-4.093005180358887,1.7545318603515625,-1.554200291633606
1696083239678334000,13.084333984375,-3.5336966514587402,-0.4627561569213867,-1.5994553565979004
1696083239688333800,13.094333740234376,-3.1555562019348145,-2.334848403930664,-1.5435092449188232
1696083239698334000,13.104333984375,-2.569213628768921,-3.4156875610351562,-1.0422518253326416
1696083239998363100,13.404363037109375,1.5720701217651367,0.2772407531738281,0.23709465563297272
1696083240008363300,13.41436328125,2.4516215324401855,0.012049674987792969,0.21800050139427185
1696083240018363100,13.424363037109375,3.4858639240264893,-0.25726890563964844,0.4576292037963867
1696083240028363300,13.43436328125,4.528870582580566,-0.3242654800415039,0.7708300352096558
1696083240038363100,13.444363037109374,5.269496440887451,-0.14706707000732422,1.1175239086151123
1696083240048363300,13.45436328125,5.320189476013184,0.05818367004394531,1.560113549232483
1696083240058363100,13.464363037109376,4.602926254272461,0.07798576354980469,1.9667716026306152
1696083240068363300,13.47436328125,3.424954414367676,-0.06960010528564453,2.0808486938476562
1696083240078363100,13.484363037109375,2.171018123626709,-0.1474437713623047,1.8419227600097656
1696083240088363300,13.49436328125,1.070633888244629,0.0682992935180664,1.4792900085449219
1696083240098363100,13.504363037109375,0.38265562057495117,0.4652414321899414,1.373544454574585
1696083240108363300,13.51436328125,-0.00762486457824707,0.8520030975341797,1.4846644401550293
1696083240118363400,13.52436328125,-0.1342073678970337,0.9614419937133789,1.7801964282989502
1696083240128363300,13.53436328125,-0.07590615749359131,0.7166252136230469,2.2956130504608154
1696083240138363400,13.54436328125,-0.047849059104919434,0.115081787109375,2.9168999195098877
1696083240148363300,13.55436328125,0.08702361583709717,-0.8391609191894531,3.3142242431640625
1696083240158363400,13.56436328125,0.4860886335372925,-1.487015724182129,3.2760777473449707
1696083240168363300,13.57436328125,1.1488022804260254,-1.544677734375,3.1953208446502686
1696083240178363400,13.58436328125,1.7514251470565796,-1.4852752685546875,3.4710192680358887
1696083240188363300,13.59436328125,1.9804693460464478,-1.7529535293579102,4.056027412414551
1696083240198363400,13.60436328125,1.896509051322937,-2.2980241775512695,4.648841381072998
1696083240208363300,13.61436328125,1.8787647485733032,-2.725648880004883,4.7196149826049805
1696083240218363400,13.62436328125,2.3111422061920166,-2.7465457916259766,4.03563117980957
