time,seconds_elapsed,z,y,x
1695713569417530600,0.243530517578125,-3.621638298034668,5.928291320800781,-2.2191879749298096
1695713569436604200,0.262604248046875,-2.7746362686157227,5.253854274749756,-2.28464412689209
1695713569455708200,0.281708251953125,-3.335853099822998,4.861586093902588,-3.3880362510681152
1695713569474812200,0.300812255859375,-6.111672401428223,3.9172253608703613,-3.330728769302368
1695713569493885700,0.3198857421875,-5.509204387664795,2.94511079788208,-2.317105531692505
1695713569512989700,0.33898974609375,-3.5830230712890625,3.6077542304992676,-2.4886467456817627
1695713569532063200,0.358063232421875,-2.154980182647705,4.483284950256348,-2.6353888511657715
1695713569551167200,0.377167236328125,-1.232616901397705,4.428060054779053,-2.717256784439087
1695713569570240500,0.396240478515625,-1.2831645011901855,5.025217056274414,-2.6519696712493896
1695713569589344500,0.415344482421875,-2.641995906829834,5.040990352630615,-2.9921629428863525
1695713569608448500,0.434448486328125,-3.453601837158203,3.8359689712524414,-3.465467929840088
1695713569627552500,0.453552490234375,-3.3894991874694824,3.134275436401367,-3.001725196838379
1695713569646656800,0.47265673828125,-3.0103044509887695,3.611976146697998,-2.521331310272217
1695713569665760800,0.4917607421875,-2.1653590202331543,4.6444411277771,-3.125197649002075
1695713569684834000,0.510833984375,-2.465691089630127,4.418054580688477,-3.3249075412750244
1695713569703907600,0.529907470703125,-3.8893818855285645,4.002551555633545,-3.5802359580993652
1695713569723011600,0.549011474609375,-5.116530895233154,4.672306537628174,-3.6665995121002197
1695713569742115600,0.568115478515625,-4.808349132537842,5.619375228881836,-3.5681285858154297
1695713569761189000,0.587189208984375,-2.415853500366211,4.995481967926025,-3.146181344985962
1695713569780293000,0.606293212890625,0.31429386138916016,4.075339317321777,-1.9972587823867798
1695713569799366700,0.62536669921875,-0.10581398010253906,4.366231918334961,-1.7629749774932861
1695713569818470700,0.644470703125,-3.9117560386657715,4.590839385986328,-2.3355586528778076
1695713569837574700,0.66357470703125,-3.044440746307373,3.4494423866271973,-2.0309829711914062
1695713569856648200,0.682648193359375,-1.1343674659729004,4.456690311431885,-1.7356244325637817
1695713569875752200,0.701752197265625,-1.7882113456726074,4.342423439025879,-1.624885082244873
1695713569894825500,0.720825439453125,-3.429734230041504,4.3178911209106445,-2.7265279293060303
1695713569913960200,0.739960205078125,-3.379406452178955,4.784162521362305,-2.6112895011901855
1695713569933033500,0.759033447265625,-2.046027660369873,5.766158580780029,-1.9744187593460083
1695713569952137500,0.778137451171875,-0.5240993499755859,5.728575706481934,-1.0349440574645996
1695713569971241700,0.79724169921875,2.188302993774414,6.062303066253662,0.207411527633667
1695713569990315000,0.81631494140625,4.010444641113281,7.871798992156982,1.0142834186553955
1695713570009419000,0.8354189453125,5.308400630950928,9.51207160949707,0.7834200859069824
1695713570028492500,0.854492431640625,4.100410461425781,9.338802337646484,1.7999486923217773
1695713570047596500,0.873596435546875,2.405221462249756,9.736406326293945,1.5818848609924316
1695713570066670000,0.892670166015625,0.1065514087677002,9.393726348876953,0.8678216934204102
1695713570085774000,0.911774169921875,-6.436700820922852,11.314094543457031,-1.0534558296203613
1695713570104878000,0.930878173828125,-9.1327543258667,12.659004211425781,-2.3995776176452637
1695713570123951600,0.94995166015625,-5.932082653045654,9.401939392089844,-3.3397655487060547
1695713570143055600,0.9690556640625,-4.587434768676758,7.745878219604492,-4.9035797119140625
1695713570162129200,0.988129150390625,-4.499366760253906,9.242735862731934,-6.333146095275879
1695713570181233200,1.007233154296875,-3.169027090072632,8.507617950439453,-9.252382278442383
1695713570200337200,1.026337158203125,-2.391085624694824,4.894954204559326,-9.273029327392578
1695713570219441200,1.045441162109375,-3.777512788772583,1.1571215391159058,-9.314294815063477
1695713570238545200,1.064545166015625,-4.2959089279174805,0.7181512117385864,-8.92414379119873
1695713570257618400,1.083618408203125,3.4304609298706055,-0.9179633855819702,-7.661772727966309
1695713570276722400,1.102722412109375,6.634940147399902,1.3035762310028076,-10.11910629272461
1695713570295796000,1.1217958984375,-2.4218215942382812,8.193580627441406,-6.8686113357543945
1695713570314900000,1.14089990234375,-1.7644000053405762,5.883411407470703,-4.479578018188477
1695713570333973500,1.159973388671875,-4.771543502807617,2.2883400917053223,-2.0929975509643555
1695713570353077500,1.179077392578125,-5.221792221069336,-0.04139089584350586,-0.5014581680297852
1695713570372181500,1.198181396484375,-5.663923740386963,0.18445277214050293,2.082368850708008
1695713570391255000,1.217255126953125,-7.549639701843262,2.9773025512695312,-1.8504858016967773
1695713570410359000,1.236359130859375,-9.230386734008789,2.877066135406494,4.804034233093262
1695713570429432600,1.2554326171875,-5.49547815322876,-5.1457414627075195,4.018001556396484
1695713570448536600,1.27453662109375,-4.140252113342285,-3.997462272644043,-0.573002815246582
1695713570467610000,1.293610107421875,-2.266782283782959,-2.369898796081543,0.1875147819519043
1695713570486744600,1.31274462890625,-4.658212661743164,-1.20695161819458,2.7186102867126465
1695713570505848600,1.3318486328125,-5.861203193664551,0.40715885162353516,4.346602916717529
1695713570524922000,1.350922119140625,-7.741898536682129,-1.7390775680541992,1.067878246307373
1695713570544026000,1.370026123046875,-8.647289276123047,-0.8837594985961914,-2.774272918701172
1695713570563099400,1.389099365234375,-5.554764747619629,0.5214123725891113,-1.5858817100524902
1695713570582203400,1.408203369140625,-1.7558174133300781,-1.0542988777160645,0.9686827659606934
1695713570601338000,1.427338134765625,-3.6656479835510254,-2.031096935272217,1.3903136253356934
1695713570620564200,1.446564208984375,-5.143252849578857,-0.887183666229248,3.1254711151123047
1695713570639790000,1.4657900390625,-5.443811416625977,1.4399456977844238,4.0059075355529785
1695713570659016200,1.48501611328125,-4.832021236419678,5.812115669250488,2.7881417274475098
1695713570677632000,1.503632080078125,-4.808353424072266,7.438329219818115,0.1315624713897705
1695713570696705500,1.52270556640625,-4.9472880363464355,5.237998962402344,-1.0728228092193604
1695713570715840000,1.541840087890625,-4.173487186431885,1.8864192962646484,-0.05319333076477051
1695713570734944000,1.560944091796875,-4.304626941680908,2.484341621398926,0.737757682800293
1695713570754017500,1.580017578125,-5.025391578674316,2.173826217651367,0.8228816986083984
1695713570773182500,1.599182373046875,-6.054590225219727,1.8701066970825195,2.098097324371338
1695713570792225500,1.6182255859375,-4.709942817687988,2.5458812713623047,1.2479991912841797
1695713570811329500,1.63732958984375,-5.238234043121338,2.6397929191589355,-0.6117711067199707
1695713570830403000,1.656403076171875,-4.692255020141602,0.873466968536377,-1.1864347457885742
1695713570849507000,1.675507080078125,-5.473134517669678,-3.4280624389648438,-1.1122617721557617
1695713570868611000,1.694611083984375,-3.0268940925598145,-1.5163588523864746,-0.9750080108642578
1695713570887684400,1.713684326171875,-4.078952789306641,0.2945742607116699,2.5689330101013184
1695713570906788400,1.732788330078125,-10.668328285217285,4.206193923950195,3.4542970657348633
1695713570925862000,1.75186181640625,-5.193756103515625,3.644681453704834,2.5040907859802246
1695713570944966000,1.7709658203125,-3.4528470039367676,2.0066890716552734,0.618868350982666
1695713570964039400,1.790039306640625,-5.1606292724609375,1.7978448867797852,-2.0459980964660645
1695713570983143400,1.809143310546875,-5.106833457946777,0.9059972763061523,0.4805796146392822
1695713571002247400,1.828247314453125,-4.260229587554932,0.7250180244445801,2.0383477210998535
1695713571021321000,1.847321044921875,-4.738456726074219,0.15175819396972656,1.7099766731262207
1695713571040425000,1.866425048828125,-4.89706563949585,-4.1254143714904785,-0.6609663963317871
1695713571059529000,1.885529052734375,-4.15829610824585,-8.464502334594727,1.0324842929840088
1695713571078633000,1.904633056640625,-4.788168907165527,-10.070635795593262,0.6758489608764648
1695713571097706500,1.92370654296875,-2.796962261199951,-4.415052890777588,0.6907076835632324
1695713571116810500,1.942810546875,-3.9075841903686523,0.9083986282348633,-1.1877143383026123
1695713571135914500,1.96191455078125,-8.949822425842285,-0.9683237075805664,-3.059143304824829
1695713571154988000,1.980988037109375,-4.9156317710876465,-0.5892324447631836,0.012204408645629883
1695713571174092000,2.000092041015625,-4.85080623626709,-2.440260887145996,4.8185133934021
1695713571193165300,2.019165283203125,-6.514358043670654,2.3193750381469727,7.534182548522949
1695713571212269300,2.038269287109375,-10.709280014038086,5.37795352935791,3.5190110206604004
1695713571231342800,2.0573427734375,-7.097407817840576,8.053098678588867,4.820240020751953
1695713571250446800,2.07644677734375,-4.856872081756592,8.586248397827148,1.3717377185821533
1695713571269550800,2.09555078125,-3.9948887825012207,5.946695327758789,-0.8141342997550964
1695713571288624400,2.114624267578125,-4.231329441070557,5.840875625610352,-1.0984303951263428
1695713571307728400,2.133728271484375,-4.3884806632995605,5.046723365783691,-1.078620195388794
1695713571326802000,2.152802001953125,-5.562637805938721,2.2203140258789062,-0.5897480249404907
1695713571345936400,2.171936279296875,-5.152335166931152,-0.8621387481689453,0.41814523935317993
1695713571365040400,2.191040283203125,-4.916137218475342,-2.2888565063476562,0.9722362756729126
1695713571384114000,2.210114013671875,-6.353896617889404,-1.0826530456542969,1.3213014602661133
1695713571403218000,2.229218017578125,-6.436797618865967,1.3597297668457031,0.3857598900794983
1695713571422291500,2.24829150390625,-4.958143711090088,2.08420467376709,-0.26882654428482056
1695713571441395500,2.2673955078125,-3.597710609436035,2.309676170349121,-0.9512256383895874
1695713571460469000,2.286468994140625,-3.170438766479492,1.6725234985351562,-0.7119908332824707
1695713571479573000,2.305572998046875,-3.978006362915039,1.207901954650879,0.4886035919189453
1695713571498677000,2.324677001953125,-5.615079879760742,2.595050811767578,1.4823657274246216
1695713571517750300,2.343750244140625,-5.8182902336120605,3.322793960571289,1.3527350425720215
1695713571536854300,2.362854248046875,-4.691385269165039,1.2278480529785156,1.2097041606903076
1695713571555927800,2.381927734375,-5.145144462585449,-0.48038482666015625,2.0610361099243164
1695713571575031800,2.40103173828125,-5.212440490722656,0.5433530807495117,1.2899057865142822
1695713571594105300,2.420105224609375,-5.2088398933410645,1.5689277648925781,1.9452673196792603
1695713571613209300,2.439209228515625,-5.985318183898926,2.392181396484375,1.5970094203948975
1695713571632343800,2.45834375,-4.921541213989258,1.504953384399414,0.4796792268753052
1695713571651417300,2.477417236328125,-1.5496172904968262,-1.1247406005859375,-1.4473793506622314
1695713571670521300,2.496521240234375,-6.579326629638672,-1.7316970825195312,-1.7286157608032227
1695713571689595000,2.515594970703125,-5.127269744873047,-0.05115222930908203,0.3639414310455322
1695713571708729300,2.534729248046875,-3.3026468753814697,0.4696979522705078,1.0611432790756226
1695713571727772400,2.5537724609375,-4.499540328979492,0.23717880249023438,0.8086608052253723
1695713571746876400,2.57287646484375,-4.633356094360352,0.30609893798828125,0.8220685124397278
1695713571765980400,2.59198046875,-4.40003776550293,0.4077949523925781,1.0222193002700806
1695713571785054000,2.611053955078125,-4.024835586547852,0.38503360748291016,0.8708564639091492
1695713571804158000,2.630157958984375,-3.970338821411133,0.3000364303588867,0.9353241920471191
1695713571823231200,2.649231201171875,-3.8646392822265625,0.3400382995605469,1.2082723379135132
1695713571842335200,2.668335205078125,-3.8743629455566406,0.2868623733520508,1.2414571046829224
1695713571861408800,2.68740869140625,-3.947268486022949,0.20116233825683594,1.1673310995101929
1695713571880512800,2.7065126953125,-3.805100202560425,0.24579715728759766,1.1678407192230225
1695713571899616800,2.72561669921875,-3.6882553100585938,0.3873882293701172,1.1891850233078003
1695713571918720800,2.744720703125,-3.439957618713379,0.5196161270141602,1.2685563564300537
1695713571937824800,2.76382470703125,-3.0667917728424072,0.5029897689819336,1.3629958629608154
1695713571956898300,2.782898193359375,-2.8276150226593018,0.5003204345703125,1.4062960147857666
1695713571976002300,2.802002197265625,-2.7883353233337402,0.5583362579345703,1.5580923557281494
1695713571995075800,2.821075927734375,-3.195564031600952,0.843287467956543,2.2189207077026367
1695713572014179800,2.840179931640625,-4.0616888999938965,2.258838653564453,3.6463799476623535
1695713572033283800,2.859283935546875,-3.8963074684143066,3.2225399017333984,4.6220574378967285
1695713572052357400,2.878357421875,-3.6894795894622803,3.1737213134765625,3.689239025115967
1695713572071461400,2.89746142578125,-3.6719002723693848,3.046232223510742,1.4905104637145996
1695713572090535000,2.916534912109375,-3.6618590354919434,1.1650609970092773,-0.40112200379371643
1695713572109639000,2.935638916015625,-4.74671745300293,0.9656410217285156,0.2568657696247101
1695713572128712200,2.954712158203125,-4.915735244750977,1.7271451950073242,1.1378204822540283
1695713572147816200,2.973816162109375,-4.730996608734131,2.5450496673583984,0.675329327583313
1695713572166920200,2.992920166015625,-5.345218658447266,2.9251604080200195,-0.005712822079658508
1695713572186024200,3.012024169921875,-5.70683479309082,3.282090187072754,-0.44662007689476013
1695713572205128200,3.031128173828125,-5.5344133377075195,3.9105424880981445,-0.2021181583404541
1695713572224201700,3.05020166015625,-4.458089351654053,3.911916732788086,0.2516489624977112
1695713572243305700,3.0693056640625,-5.955522537231445,3.974792003631592,0.15492591261863708
1695713572262409700,3.08840966796875,-4.764563083648682,3.704969882965088,0.6480503678321838
1695713572281483300,3.107483154296875,-6.745326519012451,3.211545467376709,0.3064754605293274
1695713572300587300,3.126587158203125,-7.243906497955322,1.88785982131958,-0.1686994433403015
1695713572319660800,3.145660888671875,-5.443236827850342,0.9037046432495117,-0.4472935199737549
1695713572338764800,3.164764892578125,-5.327883720397949,0.6457729339599609,-0.7453595399856567
1695713572357838300,3.18383837890625,-6.136418342590332,0.36011171340942383,-0.3531932234764099
1695713572376942300,3.2029423828125,-6.5646748542785645,-0.17424631118774414,0.47083228826522827
1695713572396046300,3.22204638671875,-6.089577674865723,-0.715857982635498,0.8734601736068726
1695713572415120000,3.241119873046875,-5.287444591522217,-1.3321256637573242,0.8651318550109863
1695713572434223900,3.260223876953125,-4.5848188400268555,-1.58152437210083,0.5776821374893188
1695713572453297200,3.279297119140625,-3.9776792526245117,-1.5435905456542969,0.5419789552688599
1695713572472401200,3.298401123046875,-3.3224287033081055,-1.2721686363220215,0.7812490463256836
1695713572491505200,3.317505126953125,-2.4089603424072266,-0.9291129112243652,1.0306205749511719
1695713572510609200,3.336609130859375,-1.4298310279846191,0.6339378356933594,1.585684061050415
1695713572529713400,3.35571337890625,0.3402724266052246,3.966963768005371,2.532766342163086
1695713572548786700,3.37478662109375,1.0041160583496094,7.276501178741455,4.049123764038086
1695713572567890700,3.393890625,1.8939728736877441,9.405614852905273,4.510478973388672
1695713572586964200,3.412964111328125,0.6857914924621582,6.848364353179932,2.9697585105895996
1695713572606068200,3.432068115234375,-2.3084325790405273,0.07073402404785156,0.7685608863830566
1695713572625141800,3.451141845703125,-1.5361003875732422,-2.780123233795166,-2.1903929710388184
1695713572644276200,3.470276123046875,1.172943115234375,2.556427478790283,-2.1248769760131836
1695713572663349800,3.489349853515625,-0.14634275436401367,11.929920196533203,-1.1691900491714478
1695713572682423300,3.50842333984375,-15.410526275634766,12.777782440185547,-2.5173587799072266
1695713572701527300,3.52752734375,-4.327876567840576,0.06898212432861328,0.2186359167098999
1695713572720600800,3.546600830078125,-6.027687072753906,-7.662308216094971,3.581450939178467
1695713572739704800,3.565704833984375,-9.046306610107422,-4.169227123260498,1.911736011505127
1695713572758829300,3.584829345703125,-7.613245487213135,6.026689052581787,3.977506399154663
1695713572777933300,3.603933349609375,-9.520858764648438,9.443246841430664,4.995706558227539
1695713572797037300,3.623037353515625,-7.480395793914795,5.511352062225342,2.90468430519104
1695713572816110800,3.64211083984375,-3.0672125816345215,-0.39502620697021484,-0.4694245457649231
1695713572835214800,3.66121484375,-3.3314905166625977,-1.7773537635803223,-1.7367674112319946
1695713572854288100,3.6802880859375,-5.353618144989014,-0.6725759506225586,-0.05381688475608826
1695713572873392000,3.69939208984375,-7.3254170417785645,1.3530645370483398,2.0392630100250244
1695713572892465700,3.718465576171875,-7.727627754211426,1.649332046508789,3.099820852279663
1695713572911569700,3.737569580078125,-5.539650917053223,0.07711124420166016,2.3825883865356445
1695713572930673700,3.756673583984375,-4.412557601928711,-0.5017890930175781,0.7726435661315918
1695713572949747200,3.775747314453125,-4.425135612487793,-0.2979278564453125,-0.28203055262565613
1695713572968851200,3.794851318359375,-4.971124172210693,-0.5821123123168945,0.03396134078502655
1695713572987924700,3.8139248046875,-4.524474143981934,-0.9614686965942383,1.0187394618988037
1695713573007028700,3.83302880859375,-3.6856513023376465,-0.44704437255859375,1.56661057472229
1695713573026132700,3.8521328125,-2.699483633041382,0.22417926788330078,2.0064523220062256
1695713573045236700,3.87123681640625,-2.587615728378296,0.9105873107910156,1.9757304191589355
1695713573064340700,3.8903408203125,-2.797559976577759,0.7515220642089844,1.6682217121124268
1695713573083414300,3.909414306640625,-1.897162914276123,0.7983741760253906,1.8988564014434814
1695713573102518300,3.928518310546875,-2.2472498416900635,1.6085643768310547,1.980861783027649
1695713573121591600,3.947591552734375,-3.3239898681640625,1.5742931365966797,2.742344617843628
1695713573140695800,3.96669580078125,-3.668224811553955,1.7505903244018555,3.914351224899292
1695713573159799800,3.9857998046875,-1.2253038883209229,3.0141963958740234,3.3865299224853516
1695713573178873000,4.004873046875,-0.8333368301391602,4.07569694519043,3.2588577270507812
1695713573197977000,4.02397705078125,-4.532086372375488,5.791776657104492,2.845399856567383
1695713573217050600,4.043050537109375,-6.1548991203308105,5.058440208435059,2.634268283843994
1695713573236154600,4.062154541015625,-6.367135047912598,3.36008358001709,1.2099462747573853
1695713573255228200,4.081228271484375,-6.505467414855957,2.522458076477051,-0.8683671951293945
1695713573274332200,4.100332275390625,-6.731931209564209,2.958071708679199,-1.3705155849456787
1695713573293436200,4.119436279296875,-6.482516288757324,3.0457582473754883,-1.1919903755187988
1695713573312509700,4.138509765625,-2.4438772201538086,4.500458717346191,-0.8316268920898438
1695713573331613700,4.15761376953125,1.6853833198547363,5.68416166305542,-0.8763384819030762
1695713573350717700,4.1767177734375,-2.5710458755493164,5.742360591888428,-2.0062203407287598
1695713573369821700,4.19582177734375,-9.308266639709473,6.485455513000488,-3.8922207355499268
1695713573388895200,4.214895263671875,-12.194271087646484,4.8754563331604,-4.580955505371094
1695713573407999200,4.233999267578125,-9.846634864807129,1.3858532905578613,-0.4039269685745239
1695713573427103200,4.253103271484375,-7.069336414337158,-0.19505023956298828,1.3197307586669922
1695713573446176500,4.272176513671875,-6.361634254455566,-1.0922164916992188,1.0523672103881836
1695713573465280800,4.29128076171875,-6.517611026763916,-1.1094880104064941,0.0001157522201538086
1695713573484354000,4.31035400390625,-6.496158599853516,-1.0579872131347656,-0.6990140676498413
1695713573503458000,4.3294580078125,-7.14442253112793,-1.6911582946777344,-0.3599884510040283
1695713573522531600,4.348531494140625,-7.279287338256836,-2.947002410888672,0.30654335021972656
1695713573541635600,4.367635498046875,-6.082200050354004,-3.7547335624694824,1.004922866821289
1695713573560739600,4.386739501953125,-4.360908508300781,-3.7417140007019043,1.6498942375183105
1695713573579843600,4.405843505859375,-3.0671372413635254,-1.6575040817260742,1.707017421722412
1695713573598917000,4.424917236328125,-0.8092613220214844,1.6383495330810547,1.7300739288330078
1695713573618021000,4.444021240234375,3.818246841430664,8.173423767089844,1.695380687713623
1695713573637125000,4.463125,3.0990333557128906,14.435592651367188,0.7174084186553955
1695713573656198700,4.48219873046875,7.11159086227417,11.436185836791992,0.7234292030334473
1695713573675302700,4.501302734375,-0.7602801322937012,0.8468928337097168,0.4396793842315674
1695713573694406700,4.52040673828125,-5.983736991882324,-6.043776512145996,-1.4222934246063232
1695713573713480200,4.539480224609375,-3.017017364501953,-1.6262016296386719,-2.736758232116699
1695713573732584200,4.558584228515625,1.4548969268798828,10.114049911499023,-1.9629287719726562
1695713573751657500,4.577657470703125,-8.833581924438477,16.727519989013672,-3.5312485694885254
1695713573770761700,4.59676171875,-7.154664993286133,6.150217533111572,2.1561663150787354
1695713573789865700,4.61586572265625,-12.891725540161133,-6.216750621795654,4.284021854400635
1695713573808939000,4.63493896484375,-5.01550817489624,-4.9350810050964355,2.4468894004821777
1695713573828043000,4.65404296875,-4.3810625076293945,5.0102128982543945,3.311345338821411
1695713573847116500,4.673116455078125,-9.0257568359375,10.4571533203125,2.5558242797851562
1695713573866220500,4.692220458984375,-7.674636363983154,7.836481094360352,1.9451141357421875
1695713573885294000,4.711294189453125,-5.015231132507324,1.364351749420166,-0.18321704864501953
1695713573904428500,4.730428466796875,-3.9336509704589844,-1.8528008460998535,-1.1737785339355469
1695713573923532500,4.749532470703125,-5.649623394012451,-2.147091865539551,-0.24805867671966553
1695713573942606000,4.768606201171875,-7.171438694000244,-0.27820777893066406,1.5914804935455322
1695713573961710000,4.7877099609375,-5.572166442871094,0.45678138732910156,2.398710250854492
1695713573980783600,4.80678369140625,-3.6608638763427734,-0.5167236328125,1.5027105808258057
1695713573999887600,4.8258876953125,-4.618607997894287,-1.3594331741333008,0.9643558263778687
1695713574018961200,4.844961181640625,-5.163578033447266,-1.0838098526000977,0.882442831993103
1695713574038065200,4.864065185546875,-5.049097537994385,-0.7858686447143555,1.255298137664795
1695713574057169200,4.883169189453125,-3.7251205444335938,-0.5604591369628906,1.1744039058685303
1695713574076242400,4.902242431640625,-2.752054452896118,-0.3947105407714844,1.443160891532898
1695713574095346700,4.9213466796875,-1.524430751800537,0.5373601913452148,2.0595703125
1695713574114420000,4.940419921875,-1.54551100730896,1.6562681198120117,2.0306639671325684
1695713574133524000,4.95952392578125,-3.1111419200897217,1.8545417785644531,1.519953966140747
1695713574152597500,4.978597412109375,-3.663764715194702,1.977677345275879,1.2555516958236694
1695713574171701500,4.997701416015625,-2.950908660888672,1.9960126876831055,2.229459047317505
1695713574190805500,5.016805419921875,-2.546626567840576,2.946417808532715,2.969174385070801
1695713574209909500,5.035909423828125,-1.1699182987213135,4.074615478515625,1.927917242050171
1695713574229013500,5.055013427734375,-0.0815284252166748,4.036890029907227,1.4958281517028809
1695713574248087000,5.074087158203125,-2.2545907497406006,4.689695358276367,1.9482789039611816
1695713574267191000,5.09319091796875,-5.349891662597656,5.3957929611206055,2.8121860027313232
1695713574286264600,5.1122646484375,-6.416960716247559,4.729341506958008,2.5997602939605713
1695713574305368600,5.13136865234375,-6.419532775878906,1.9907617568969727,0.9194228649139404
1695713574324472600,5.15047265625,-6.4324951171875,0.9429197311401367,-2.1360561847686768
1695713574343546000,5.169546142578125,-6.182508945465088,2.366769790649414,-3.2590994834899902
1695713574362650000,5.188650146484375,-5.445611000061035,4.512059211730957,-3.2547545433044434
1695713574381723400,5.207723388671875,-0.9245824813842773,6.223437309265137,-1.870981216430664
1695713574400827400,5.226827392578125,0.7776103019714355,5.568306922912598,-0.673673152923584
1695713574419901000,5.24590087890625,-3.6538171768188477,4.311113357543945,-1.3914536237716675
1695713574439005000,5.2650048828125,-12.555465698242188,5.013418674468994,-2.8745131492614746
1695713574458109000,5.28410888671875,-12.93807601928711,3.1977124214172363,-0.5499070882797241
1695713574477213000,5.303212890625,-7.7446184158325195,0.4192523956298828,2.4032530784606934
1695713574496317000,5.32231689453125,-6.590639591217041,-0.4965085983276367,1.7704095840454102
1695713574515390500,5.341390380859375,-6.320774555206299,-1.3040432929992676,0.746549129486084
1695713574534494500,5.360494384765625,-6.669870853424072,-1.7116026878356934,-0.009871244430541992
1695713574553568000,5.379568115234375,-6.907000541687012,-1.6411800384521484,-0.525620698928833
1695713574572672000,5.398672119140625,-6.961550235748291,-2.1935362815856934,-0.2752053737640381
1695713574591776000,5.41777587890625,-6.408398151397705,-3.230958938598633,0.11707329750061035
1695713574610849500,5.436849609375,-5.2477030754089355,-3.9914989471435547,0.6701412200927734
1695713574629953500,5.45595361328125,-4.30121374130249,-3.305586814880371,1.2836384773254395
1695713574649027000,5.475027099609375,-3.3562378883361816,-0.9163517951965332,1.8057146072387695
1695713574668131000,5.494131103515625,-0.8359513282775879,2.6221508979797363,1.994182825088501
1695713574687265500,5.513265625,5.116760730743408,9.726554870605469,2.6682870388031006
1695713574706308400,5.532308349609375,3.9512948989868164,13.896818161010742,0.38597798347473145
1695713574725412400,5.551412353515625,6.730188846588135,9.949859619140625,-2.593107223510742
1695713574744486000,5.57048583984375,0.771817684173584,-0.509575366973877,-3.3903605937957764
1695713574763590000,5.58958984375,-6.352485656738281,-6.524622917175293,-3.380591630935669
1695713574782694000,5.60869384765625,-5.237513065338135,-2.962393283843994,-2.9550039768218994
1695713574801798000,5.6277978515625,-0.38823795318603516,7.836463451385498,-1.896662712097168
1695713574820902000,5.64690185546875,-4.728311061859131,16.16404151916504,-1.3667476177215576
1695713574839975400,5.665975341796875,-3.479609489440918,8.49919319152832,3.8394861221313477
1695713574859079400,5.685079345703125,-12.585105895996094,-4.646754264831543,6.002934455871582
1695713574878153000,5.704153076171875,-8.948636054992676,-6.0300726890563965,2.7950241565704346
1695713574897257000,5.723257080078125,-4.582754611968994,2.893026828765869,2.7322916984558105
1695713574916330500,5.74233056640625,-7.599949836730957,8.76930046081543,1.4843664169311523
1695713574935434500,5.7614345703125,-6.947207450866699,7.688655376434326,0.620201587677002
1695713574954538500,5.78053857421875,-4.95403528213501,2.217289447784424,-0.7565536499023438
1695713574973612000,5.799612060546875,-3.753570079803467,-1.1181936264038086,-1.5569698810577393
1695713574992716000,5.818716064453125,-4.68241548538208,-1.8708686828613281,0.021094083786010742
1695713575011789300,5.837789306640625,-7.077702522277832,-0.49266529083251953,1.8776204586029053
1695713575030893300,5.856893310546875,-6.637510776519775,-0.05312061309814453,2.2975618839263916
1695713575049997300,5.875997314453125,-4.335883140563965,-0.9890727996826172,1.5914123058319092
1695713575069101600,5.8951015625,-3.4584858417510986,-1.2974481582641602,1.1868221759796143
1695713575088205600,5.91420556640625,-4.114609718322754,-0.8481025695800781,1.3270905017852783
1695713575107278800,5.93327880859375,-4.383182525634766,-0.3480224609375,1.451938509941101
1695713575126382800,5.9523828125,-3.7461445331573486,-0.7015180587768555,1.3803523778915405
1695713575145456400,5.971456298828125,-2.7522993087768555,-0.7380056381225586,1.4583842754364014
1695713575164560400,5.990560302734375,-1.838374376296997,0.19322681427001953,1.8609824180603027
1695713575183634000,6.009634033203125,-1.5124080181121826,1.3876628875732422,1.8582873344421387
1695713575202738000,6.028738037109375,-1.8865306377410889,1.561396598815918,1.24973464012146
1695713575221842000,6.047842041015625,-2.7916104793548584,1.9860210418701172,0.6395421028137207
1695713575240915500,6.06691552734375,-3.0103540420532227,2.204379081726074,0.6080386638641357
1695713575260019500,6.08601953125,-2.180501937866211,2.200270652770996,1.6665802001953125
1695713575279093000,6.105093017578125,-1.5192956924438477,3.2057952880859375,1.4809749126434326
1695713575298197000,6.124197021484375,-1.1032845973968506,4.137314796447754,1.3193323612213135
1695713575317270300,6.143270263671875,-2.014512538909912,5.15403938293457,2.224436044692993
1695713575336405000,6.162405029296875,-3.2227165699005127,5.646912574768066,3.4130892753601074
1695713575355509000,6.181509033203125,-5.738462448120117,4.856145858764648,3.236697196960449
1695713575374582500,6.20058251953125,-5.743941307067871,1.8244571685791016,1.1218786239624023
1695713575393686500,6.2196865234375,-5.307333946228027,-0.5406179428100586,-1.9379417896270752
1695713575412759800,6.238759765625,-4.851736068725586,1.2925310134887695,-3.270033597946167
1695713575431863800,6.25786376953125,-5.024232387542725,3.664836883544922,-2.9408819675445557
1695713575450937300,6.276937255859375,-3.187309741973877,5.40742301940918,-1.8924124240875244
1695713575470041300,6.296041259765625,0.3445272445678711,5.431387424468994,-0.15732073783874512
1695713575489145300,6.315145263671875,-1.9800043106079102,4.452139854431152,-0.7795534133911133
1695713575508219000,6.334218994140625,-8.882923126220703,5.15906286239624,-2.4243903160095215
1695713575527323000,6.353322998046875,-12.879501342773438,3.9267916679382324,0.06791281700134277
1695713575546396400,6.372396484375,-8.222994804382324,0.7808465957641602,2.640665054321289
1695713575565500400,6.39150048828125,-5.85129976272583,-0.07245779037475586,1.8705735206604004
1695713575584604400,6.4106044921875,-5.450315952301025,-0.43206214904785156,0.6969830989837646
1695713575603678000,6.429677978515625,-5.81765079498291,-1.2219338417053223,-0.22235584259033203
1695713575622812400,6.4488125,-6.74430513381958,-1.5978631973266602,-0.8452730178833008
1695713575641886000,6.467885986328125,-7.086216926574707,-2.172759532928467,-0.4529993534088135
1695713575660990000,6.486989990234375,-6.569028854370117,-3.141286849975586,0.4223973751068115
1695713575680063200,6.506063232421875,-5.544588565826416,-3.9839224815368652,1.078864574432373
1695713575699167500,6.52516748046875,-4.6512980461120605,-3.98317289352417,1.4972364902496338
1695713575718271500,6.544271484375,-3.562438488006592,-2.9464807510375977,1.684828758239746
1695713575737344800,6.5633447265625,-2.0833535194396973,-0.8115420341491699,1.7044634819030762
1695713575756448800,6.58244873046875,0.7936534881591797,3.035337448120117,1.3015601634979248
1695713575775522300,6.601522216796875,4.756839752197266,10.296478271484375,1.887617826461792
1695713575794626300,6.620626220703125,3.7420382499694824,14.964727401733398,-0.9054238796234131
1695713575813699800,6.639699951171875,7.293935775756836,9.428728103637695,-3.1070713996887207
1695713575832803800,6.658803955078125,-1.941490650177002,-2.162661552429199,-2.965794086456299
1695713575851907800,6.677907958984375,-5.561135768890381,-5.562623023986816,-3.213097095489502
1695713575870981400,6.6969814453125,-1.5951557159423828,1.6716423034667969,-1.9342269897460938
1695713575890085400,6.71608544921875,-1.805032730102539,10.841289520263672,-0.369964599609375
1695713575909189400,6.735189453125,-11.654816627502441,7.254413604736328,1.5585441589355469
1695713575928293400,6.75429345703125,-4.1405930519104,-1.0569171905517578,5.62733268737793
1695713575947367000,6.773366943359375,-9.74044418334961,-5.9690399169921875,4.98366641998291
1695713575966471000,6.792470947265625,-5.662003040313721,1.7616496086120605,3.201932191848755
1695713575985575000,6.811574951171875,-6.3989152908325195,8.91240119934082,1.4777750968933105
1695713576004648200,6.830648193359375,-7.384974479675293,7.802154541015625,1.2659993171691895
1695713576023752400,6.84975244140625,-4.28363037109375,2.336378574371338,0.3482332229614258
1695713576042825700,6.86882568359375,-3.9839091300964355,-0.8571181297302246,-1.2212917804718018
1695713576061929700,6.8879296875,-4.117315769195557,-1.7215766906738281,0.005001544952392578
1695713576081003300,6.907003173828125,-5.099931716918945,0.02594470977783203,2.0485870838165283
1695713576100107300,6.926107177734375,-5.5785298347473145,1.34552001953125,2.7289295196533203
1695713576119211300,6.945211181640625,-4.32633113861084,-0.1301441192626953,2.2021069526672363
1695713576138284800,6.964284912109375,-3.56825590133667,-1.6279211044311523,1.5447015762329102
1695713576157388800,6.983388916015625,-3.8125715255737305,-1.3682880401611328,1.1047492027282715
1695713576176462300,7.00246240234375,-4.289645195007324,-0.9811782836914062,1.143449306488037
1695713576195596800,7.0215966796875,-3.1440556049346924,-0.8040781021118164,1.2014696598052979
1695713576214670300,7.04067041015625,-1.9421520233154297,-0.7929477691650391,1.4211459159851074
1695713576233774300,7.0597744140625,-1.1749885082244873,-0.3119964599609375,1.9224772453308105
1695713576252878300,7.07887841796875,0.3585963249206543,0.6502437591552734,2.425948143005371
1695713576271952000,7.097951904296875,-0.35066473484039307,1.2799367904663086,2.2886531352996826
1695713576291055900,7.117055908203125,-2.554380416870117,1.9820003509521484,1.3832714557647705
1695713576310129200,7.136129150390625,-3.4674742221832275,2.1016855239868164,2.422645092010498
1695713576329233400,7.1552333984375,-2.2452495098114014,2.8261308670043945,3.352041006088257
1695713576348337400,7.17433740234375,0.36525964736938477,4.048679351806641,2.2381935119628906
1695713576367410700,7.19341064453125,0.3025546073913574,3.2250022888183594,2.252411127090454
1695713576386514700,7.2125146484375,-2.341799736022949,4.213654518127441,3.078948497772217
1695713576405588200,7.231588134765625,-5.329475402832031,6.130537986755371,4.286293029785156
1695713576424692200,7.250692138671875,-6.036972522735596,4.898911476135254,3.2779128551483154
1695713576443765800,7.269765869140625,-5.3227972984313965,1.7732019424438477,-0.44222593307495117
1695713576462869800,7.288869873046875,-4.679970741271973,1.8608837127685547,-4.535480499267578
1695713576481973800,7.307973876953125,-4.675383567810059,2.915574073791504,-5.216790199279785
1695713576501077800,7.327077880859375,-2.6469898223876953,5.166741371154785,-4.745923042297363
1695713576520181800,7.346181640625,1.3938627243041992,6.025672912597656,-1.0838003158569336
1695713576539255300,7.36525537109375,0.29696226119995117,5.380505084991455,0.1372058391571045
1695713576558359300,7.384359375,-8.14000129699707,5.5497822761535645,-0.8374025821685791
1695713576577432800,7.403432861328125,-14.068187713623047,4.459904193878174,0.6850273609161377
1695713576596536800,7.422536865234375,-9.217098236083984,-0.1644139289855957,3.272458791732788
1695713576615640800,7.441640869140625,-6.1694016456604,-1.4822587966918945,2.1810920238494873
1695713576634714000,7.460714111328125,-5.446770668029785,-2.1787943840026855,1.002129077911377
1695713576653818400,7.479818359375,-5.620204448699951,-2.621519088745117,0.32424402236938477
1695713576672891600,7.4988916015625,-5.60874605178833,-2.087433338165283,-0.2543349266052246
1695713576691995600,7.51799560546875,-5.905001163482666,-1.818160057067871,-0.018671035766601562
1695713576711069200,7.537069091796875,-6.3475775718688965,-2.5426573753356934,0.5591864585876465
1695713576730173200,7.556173095703125,-5.916234970092773,-3.8291821479797363,1.0830516815185547
1695713576749277200,7.575277099609375,-4.65580940246582,-4.591931343078613,1.654090166091919
1695713576768381200,7.594381103515625,-3.445939540863037,-3.8263392448425293,1.9316036701202393
1695713576787485200,7.613485107421875,-2.1235995292663574,-1.3830580711364746,1.9727883338928223
1695713576806558700,7.632558837890625,1.1319103240966797,3.318392753601074,1.7945196628570557
1695713576825662700,7.651662841796875,5.194820404052734,10.760614395141602,1.73404860496521
1695713576844736300,7.670736328125,4.8006510734558105,13.701377868652344,-1.4497053623199463
1695713576863840300,7.68984033203125,6.74633264541626,7.024004936218262,-2.722813129425049
1695713576882944300,7.7089443359375,-2.4302773475646973,-2.739729404449463,-2.3071742057800293
1695713576902017800,7.728017822265625,-4.953616619110107,-4.686118125915527,-2.765718460083008
1695713576921121800,7.747121826171875,-1.7068982124328613,3.44581937789917,-2.195589065551758
1695713576940195000,7.766195068359375,1.032353401184082,13.642900466918945,-1.910362720489502
1695713576959299000,7.785299072265625,-9.050637245178223,7.608180046081543,0.6032829284667969
1695713576978372600,7.80437255859375,-7.109625816345215,-3.831965446472168,5.8803391456604
1695713576997476600,7.8234765625,-10.596443176269531,-7.870846748352051,3.9714114665985107
1695713577016580600,7.84258056640625,-3.2071056365966797,0.9668798446655273,4.269955635070801
1695713577035654100,7.861654052734375,-5.459234237670898,9.452900886535645,3.1793923377990723
1695713577054758100,7.880758056640625,-8.248251914978027,8.902181625366211,1.9920847415924072
1695713577073862100,7.899862060546875,-4.767982006072998,2.688014030456543,0.5778326988220215
1695713577092966100,7.918966064453125,-2.6488866806030273,-1.4462108612060547,-1.414158582687378
1695713577112039700,7.938039794921875,-1.9774107933044434,-2.6078338623046875,-0.6021006107330322
1695713577131143700,7.957143798828125,-4.0623393058776855,-0.8668174743652344,1.5994479656219482
1695713577150247700,7.97624755859375,-5.846747875213623,1.2485418319702148,2.817077875137329
1695713577169321200,7.9953212890625,-4.286251068115234,-0.28377819061279297,2.9037415981292725
1695713577188425200,8.01442529296875,-3.232888698577881,-1.717503547668457,2.181494951248169
1695713577207498800,8.033498779296876,-3.791757106781006,-1.521047592163086,1.8417246341705322
1695713577226602800,8.052602783203126,-3.961034059524536,-0.7581253051757812,1.6886684894561768
1695713577245676000,8.071676025390625,-3.0206382274627686,-0.7417135238647461,1.5950446128845215
1695713577264780000,8.090780029296875,-1.925114631652832,-1.0578031539916992,1.3385403156280518
1695713577283884000,8.109884033203125,-1.4211760759353638,-0.8883829116821289,1.3641414642333984
1695713577302957600,8.12895751953125,-0.6383874416351318,0.1187582015991211,1.704265832901001
1695713577322061600,8.1480615234375,-0.2666834592819214,1.2407598495483398,2.118077039718628
1695713577341165600,8.16716552734375,-1.6799333095550537,1.9935731887817383,2.049046516418457
1695713577360269600,8.18626953125,-3.0640392303466797,2.265810012817383,1.8506999015808105
1695713577379373600,8.20537353515625,-2.223278522491455,2.07974910736084,3.003809928894043
1695713577398447000,8.224447021484375,-0.5979944467544556,3.375868797302246,2.819812297821045
1695713577417551000,8.243551025390625,0.19751203060150146,4.188929557800293,2.032106399536133
1695713577436624600,8.262624755859376,-0.03352200984954834,3.5250473022460938,2.1573753356933594
1695713577455728600,8.281728759765626,-1.4639036655426025,4.716181755065918,2.691373348236084
1695713577474802200,8.30080224609375,-4.198489189147949,5.478486061096191,3.4995715618133545
1695713577493906200,8.31990625,-4.811652660369873,3.4433345794677734,2.214991331100464
1695713577513010200,8.33901025390625,-4.784342288970947,0.16179656982421875,-0.7351498603820801
1695713577532083700,8.358083740234376,-4.592133045196533,0.46628475189208984,-3.1717607975006104
1695713577551187700,8.377187744140626,-4.678593158721924,2.3846702575683594,-3.4181153774261475
1695713577570261000,8.396260986328125,-3.124727725982666,4.82335090637207,-2.6176159381866455
1695713577589365000,8.415364990234375,1.4321131706237793,6.003457069396973,-0.8078067302703857
1695713577608438500,8.4344384765625,0.7690544128417969,5.072271347045898,-0.38639092445373535
1695713577627573200,8.4535732421875,-5.934750556945801,5.194571495056152,-1.5551965236663818
1695713577646677200,8.47267724609375,-12.140584945678711,4.043974876403809,0.3191678524017334
1695713577665781200,8.49178125,-8.897199630737305,0.1779637336730957,3.1418163776397705
1695713577684854500,8.5108544921875,-5.830764293670654,-1.2482843399047852,2.5569398403167725
1695713577703928000,8.529927978515625,-5.243248462677002,-1.7180471420288086,1.4429404735565186
1695713577723032000,8.549031982421875,-5.183279514312744,-2.3716483116149902,0.599431037902832
1695713577742105600,8.568105712890626,-5.404249668121338,-2.4166197776794434,0.024744033813476562
1695713577761209600,8.587209716796876,-5.824355125427246,-2.6121039390563965,0.45648694038391113
1695713577780313600,8.606313720703126,-5.967494487762451,-3.3029747009277344,1.2235043048858643
1695713577799387100,8.62538720703125,-5.2701826095581055,-4.178158760070801,1.8272919654846191
1695713577818491100,8.6444912109375,-4.282561302185059,-4.1982340812683105,2.004821300506592
1695713577837564700,8.663564697265626,-3.202380657196045,-3.1680517196655273,1.884904146194458
1695713577856668700,8.682668701171876,-1.6530170440673828,-1.266514778137207,1.708620309829712
1695713577875742000,8.701741943359375,1.0555496215820312,2.2630443572998047,0.8535585403442383
1695713577894846000,8.720845947265625,4.598640441894531,9.319859504699707,1.0158517360687256
1695713577913980700,8.739980712890626,4.31614875793457,14.979521751403809,-1.4566149711608887
1695713577933054200,8.75905419921875,6.895531177520752,9.738569259643555,-3.5806081295013428
1695713577952158200,8.778158203125,-0.2061634063720703,-3.6980762481689453,-1.7229387760162354
1695713577971231500,8.7972314453125,-3.6728696823120117,-10.359735488891602,-1.3586974143981934
1695713577990335500,8.81633544921875,-3.987123966217041,-4.590590000152588,-0.3923969268798828
1695713578009409000,8.835408935546875,3.329681396484375,10.721855163574219,-0.5507986545562744
1695713578028513000,8.854512939453125,-5.619305610656738,17.56236457824707,-1.0746715068817139
1695713578047617000,8.873616943359375,-4.478302478790283,4.934525489807129,3.5113728046417236
1695713578066690600,8.892690673828126,-12.541580200195312,-9.707632064819336,4.943610668182373
1695713578085794600,8.911794677734376,-7.706418514251709,-8.628087997436523,1.4775712490081787
1695713578104868000,8.9308681640625,-2.33939266204834,3.7943115234375,2.5436813831329346
1695713578123972000,8.94997216796875,-4.857016086578369,10.755753517150879,3.849457263946533
1695713578143045600,8.969045654296876,-6.915383815765381,7.520294189453125,3.0523080825805664
1695713578162149600,8.988149658203126,-6.222505569458008,0.700922966003418,-0.5581932067871094
1695713578181253600,9.007253662109376,-4.154491901397705,-2.4228649139404297,-1.0388257503509521
1695713578200357600,9.026357666015626,-3.839695692062378,-2.162672996520996,1.1382086277008057
1695713578219461600,9.045461669921876,-4.864438056945801,-0.09044551849365234,1.5261220932006836
1695713578238535000,9.064534912109375,-3.841756820678711,0.9495038986206055,0.6735012531280518
1695713578257639200,9.08363916015625,-2.29184889793396,-0.2067413330078125,0.749051570892334
1695713578276712400,9.10271240234375,-2.116405963897705,-1.3790321350097656,1.5291359424591064
1695713578295816400,9.12181640625,-3.611243963241577,-0.8465452194213867,1.88600492477417
1695713578314920400,9.14092041015625,-3.401061534881592,-0.6788320541381836,1.8415331840515137
1695713578333994000,9.159993896484375,-1.8656314611434937,-1.1116514205932617,1.7781124114990234
1695713578353098000,9.179097900390625,-1.0410555601119995,-0.9267072677612305,1.6921007633209229
1695713578372171500,9.198171630859376,-0.9948289394378662,-0.5507516860961914,1.5161175727844238
1695713578391275500,9.217275634765626,-0.7085809707641602,0.20401763916015625,1.664625644683838
1695713578410379500,9.236379638671876,-0.20540934801101685,1.141885757446289,1.8374528884887695
1695713578429453000,9.255453125,-0.20485389232635498,1.8497734069824219,1.3481371402740479
1695713578448557000,9.27455712890625,-0.016928553581237793,1.9571027755737305,1.242403268814087
1695713578467630600,9.293630615234376,-0.24044567346572876,2.1653833389282227,2.1335501670837402
1695713578486765000,9.31276513671875,-0.20911842584609985,2.782167434692383,2.491159677505493
1695713578505838600,9.331838623046876,0.21030491590499878,3.2926673889160156,2.5513381958007812
1695713578524942600,9.350942626953126,-0.8493266105651855,4.644366264343262,3.2829294204711914
1695713578544046600,9.370046630859376,-2.851003646850586,6.062380790710449,3.754361867904663
1695713578563119900,9.389119873046875,-5.197822093963623,4.88111686706543,2.886502981185913
1695713578582224100,9.40822412109375,-5.003477096557617,0.8590383529663086,-0.14649653434753418
1695713578601328000,9.427328125,-4.059673309326172,-0.48655223846435547,-3.28877329826355
1695713578620401400,9.4464013671875,-3.3064160346984863,2.2925491333007812,-3.7246110439300537
1695713578639475000,9.465474853515625,-3.1030452251434326,4.649406433105469,-3.080536365509033
1695713578658579000,9.484578857421875,-0.04283785820007324,5.7653303146362305,-1.3427495956420898
1695713578677683000,9.503682861328125,0.40498781204223633,4.768357276916504,-0.1305713653564453
1695713578696756500,9.522756591796876,-4.461296081542969,4.504345893859863,-1.6224069595336914
1695713578715860500,9.541860595703126,-10.664085388183594,4.9652228355407715,-1.4783706665039062
1695713578734934000,9.56093408203125,-9.647235870361328,0.9789261817932129,2.067720413208008
1695713578754038000,9.5800380859375,-5.512007236480713,-1.0805106163024902,2.6986167430877686
1695713578773142000,9.59914208984375,-4.824345111846924,-1.7646546363830566,1.6852431297302246
1695713578792246000,9.61824609375,-5.05457067489624,-2.4061880111694336,0.5155787467956543
1695713578811350000,9.63735009765625,-5.656158447265625,-2.594269275665283,-0.3507077693939209
1695713578830423600,9.656423583984376,-5.734638690948486,-2.5540595054626465,-0.3198661804199219
1695713578849527600,9.675527587890626,-5.848831653594971,-3.1073808670043945,0.4050266742706299
1695713578868600800,9.694600830078125,-5.108598709106445,-3.99619197845459,1.1187477111816406
1695713578887705000,9.713705078125,-4.161145210266113,-4.784878253936768,1.6520891189575195
1695713578906778400,9.7327783203125,-3.3521852493286133,-4.409357070922852,1.7182295322418213
1695713578925882400,9.75188232421875,-2.3849663734436035,-2.7691640853881836,1.6723089218139648
1695713578944986400,9.770986328125,-0.2128596305847168,0.068206787109375,1.613626480102539
1695713578964060000,9.790059814453125,4.300619125366211,6.059433460235596,1.8863131999969482
1695713578983164000,9.809163818359375,4.8681511878967285,12.601219177246094,0.8443102836608887
1695713579002237400,9.828237548828126,6.38719367980957,12.149497985839844,-3.492262840270996
1695713579021341400,9.847341552734376,3.29097843170166,1.9776268005371094,-4.104421615600586
1695713579040415000,9.8664150390625,-3.087036609649658,-8.227357864379883,-1.9627881050109863
1695713579059549400,9.885549560546876,-4.765810489654541,-8.935380935668945,-1.800917625427246
1695713579078653400,9.9046533203125,-2.9386367797851562,-0.5553040504455566,-1.2421302795410156
1695713579097727000,9.92372705078125,2.0026373863220215,13.691819190979004,-1.1547269821166992
1695713579116831000,9.9428310546875,-7.772380828857422,18.19803237915039,-1.3164341449737549
1695713579135904500,9.961904541015626,0.027225494384765625,3.820995807647705,5.034065246582031
1695713579155008500,9.981008544921876,-12.450384140014648,-10.471952438354492,5.372888088226318
1695713579174081800,10.000081787109375,-9.115419387817383,-8.568681716918945,1.4408140182495117
1695713579193185800,10.019185791015625,-3.252584457397461,3.304083824157715,2.128321647644043
1695713579212290000,10.0382900390625,-3.3090033531188965,9.638851165771484,2.5285515785217285
1695713579231363300,10.05736328125,-4.5875396728515625,6.805184364318848,1.6681489944458008
1695713579250467300,10.07646728515625,-4.515179634094238,0.5924358367919922,-1.2009730339050293
1695713579269540900,10.095540771484375,-2.824394941329956,-2.2255592346191406,-1.1746063232421875
1695713579288644900,10.114644775390625,-3.407604217529297,-2.119029998779297,1.3038408756256104
1695713579307718400,10.133718505859376,-5.039339542388916,-0.13527202606201172,1.9481332302093506
1695713579326822400,10.152822509765626,-4.173031806945801,-0.28272533416748047,1.255528211593628
1695713579345956900,10.171956787109375,-2.125556230545044,-1.4771394729614258,0.8178107738494873
1695713579365030400,10.191030517578126,-2.819796085357666,-1.9525480270385742,0.8837590217590332
1695713579384134400,10.210134521484376,-3.64137601852417,-1.2373123168945312,1.2392139434814453
1695713579403208000,10.2292080078125,-2.801759719848633,-0.936553955078125,1.6641647815704346
1695713579422312000,10.24831201171875,-1.3415513038635254,-0.9394016265869141,1.7231438159942627
1695713579441416000,10.267416015625,-0.8791332244873047,-0.8889503479003906,1.7002406120300293
1695713579460489500,10.286489501953126,-0.17449259757995605,-0.44673728942871094,1.967620611190796
1695713579479593500,10.305593505859376,0.05164676904678345,0.5025033950805664,1.9729130268096924
1695713579498666800,10.324666748046875,-0.23274248838424683,1.2044248580932617,1.4135775566101074
1695713579517770800,10.343770751953125,-1.5431292057037354,1.7624244689941406,0.8900167942047119
1695713579536875000,10.362875,-1.7855029106140137,1.8355731964111328,2.1062119007110596
1695713579555948300,10.3819482421875,0.13810747861862183,2.816997528076172,2.1903090476989746
1695713579575052300,10.40105224609375,1.10872220993042,3.7472734451293945,1.3409900665283203
1695713579594125800,10.420125732421875,0.22959673404693604,3.3420095443725586,1.5089433193206787
1695713579613229800,10.439229736328125,-1.1284372806549072,4.734109878540039,2.2379212379455566
1695713579632333800,10.458333740234375,-3.6131911277770996,5.435271263122559,3.566779851913452
1695713579651437800,10.477437744140625,-5.181599140167236,3.294009208679199,3.1422719955444336
1695713579670511400,10.496511474609376,-4.637463569641113,0.27073192596435547,-0.050608158111572266
1695713579689615400,10.515615478515626,-3.7976913452148438,-0.15796661376953125,-3.2777740955352783
1695713579708749800,10.534749755859375,-3.4064977169036865,2.6228551864624023,-3.9187073707580566
1695713579727793000,10.55379296875,-2.2404983043670654,4.871964454650879,-3.2454426288604736
1695713579746897000,10.57289697265625,1.366478443145752,5.49808406829834,-0.30047106742858887
1695713579765970400,10.591970458984376,-0.609550952911377,4.189105033874512,0.8863916397094727
1695713579785074400,10.611074462890626,-8.319559097290039,5.187416076660156,-1.0201234817504883
1695713579804147700,10.630147705078125,-12.383545875549316,3.2614049911499023,0.2673063278198242
1695713579823251700,10.649251708984375,-7.72071647644043,-0.17792749404907227,2.4290366172790527
1695713579842355700,10.668355712890625,-4.26081657409668,-1.2720222473144531,2.0787580013275146
1695713579861429200,10.68742919921875,-3.825435161590576,-1.6011714935302734,1.0020391941070557
1695713579880533200,10.706533203125,-4.679656982421875,-2.187819480895996,-0.15518832206726074
1695713579899606800,10.725606689453125,-5.966229438781738,-2.409792423248291,-0.9768352508544922
1695713579918741200,10.7447412109375,-5.953034400939941,-2.5880489349365234,-0.37458086013793945
1695713579937814800,10.763814697265625,-5.364328384399414,-3.1851415634155273,1.14353346824646
1695713579956918800,10.782918701171875,-4.0201334953308105,-4.019439220428467,2.115333318710327
1695713579976022800,10.802022705078125,-2.833815574645996,-4.416165351867676,2.2923407554626465
1695713579995096300,10.821096435546876,-1.7530570030212402,-3.5292792320251465,1.852339744567871
1695713580014200300,10.840200439453126,-0.4403376579284668,-1.9644660949707031,1.4260132312774658
1695713580033273900,10.85927392578125,1.6199965476989746,0.8664960861206055,0.7938189506530762
1695713580052377900,10.8783779296875,2.8895835876464844,5.370872974395752,-0.020156383514404297
1695713580071451400,10.897451416015626,1.0859484672546387,8.873428344726562,-0.41744184494018555
1695713580090555400,10.916555419921876,3.421863079071045,7.753536224365234,-0.410109281539917
1695713580109659400,10.935659423828126,3.839414119720459,2.231625556945801,0.06169700622558594
1695713580128732700,10.954732666015625,-0.04463911056518555,-4.480011463165283,0.5679895877838135
1695713580147836700,10.973836669921875,-1.4815030097961426,-6.562370777130127,-0.5348219871520996
1695713580166910200,10.99291015625,-0.3962130546569824,-0.921018123626709,-1.8698723316192627
1695713580186014200,11.01201416015625,3.6322097778320312,10.056903839111328,-3.4786558151245117
1695713580205118200,11.0311181640625,-5.4773664474487305,17.687044143676758,-4.892340660095215
1695713580224222200,11.05022216796875,-9.069056510925293,6.933066368103027,-1.2853257656097412
1695713580243326200,11.069326171875,-6.320742130279541,-10.311714172363281,5.443489074707031
1695713580262399700,11.088399658203125,-9.432462692260742,-13.039302825927734,2.904829502105713
1695713580281503700,11.107503662109375,-1.7764601707458496,-2.1811628341674805,3.53576922416687
1695713580300577300,11.126577392578126,-3.757384777069092,9.243176460266113,3.2047247886657715
1695713580319681300,11.145681396484376,-7.034934997558594,11.089964866638184,1.7623698711395264
1695713580338754800,11.1647548828125,-5.781876564025879,3.153143882751465,-0.020521163940429688
1695713580357858800,11.18385888671875,-3.718971014022827,-2.2025442123413086,-1.1763420104980469
1695713580376962800,11.202962890625,-1.3028209209442139,-3.6349964141845703,0.7199761867523193
1695713580396036400,11.222036376953126,-2.0054283142089844,-1.7191200256347656,1.891840934753418
1695713580415140400,11.241140380859376,-2.770728349685669,0.257354736328125,1.6470353603363037
1695713580434213600,11.260213623046875,-2.9900307655334473,-0.4795503616333008,1.427342176437378
1695713580453317600,11.279317626953125,-3.587677001953125,-1.7467718124389648,1.3218178749084473
1695713580472421600,11.298421630859375,-3.4999969005584717,-1.591578483581543,1.6025011539459229
1695713580491525600,11.317525634765625,-2.222937822341919,-1.3610458374023438,1.7586195468902588
1695713580510630000,11.3366298828125,-0.809801459312439,-1.4948053359985352,1.8821065425872803
1695713580529703200,11.355703125,-0.3183714747428894,-0.8045034408569336,2.0013487339019775
1695713580548807200,11.37480712890625,0.11261600255966187,0.072662353515625,2.3307735919952393
1695713580567880700,11.393880615234375,0.03550407290458679,0.3091259002685547,1.966756820678711
1695713580586984700,11.412984619140625,0.1758652627468109,0.5365438461303711,0.4489297866821289
1695713580606058200,11.432058349609376,0.1150507777929306,1.5510101318359375,-0.03022170066833496
1695713580625162200,11.451162353515626,-0.8410230875015259,2.3026962280273438,1.2094881534576416
1695713580644296700,11.470296630859375,-0.6253634095191956,2.630664825439453,2.6572141647338867
1695713580663339800,11.48933984375,-0.023606926202774048,2.763737678527832,2.254021644592285
1695713580682443800,11.50844384765625,0.6029821634292603,2.5260705947875977,1.2415404319763184
1695713580701517300,11.527517333984376,-0.43532636761665344,3.0428667068481445,1.849179983139038
1695713580720621300,11.546621337890626,-0.9710822701454163,5.002846717834473,3.4293160438537598
1695713580739725300,11.565725341796876,-3.091322183609009,5.3846635818481445,4.27663516998291
1695713580758798600,11.584798583984375,-4.159121990203857,3.081040382385254,2.6055490970611572
1695713580777933300,11.603933349609376,-3.4613990783691406,0.11018562316894531,-1.2164790630340576
1695713580797006600,11.623006591796875,-2.860302448272705,0.38302135467529297,-3.699838638305664
1695713580816110800,11.64211083984375,-3.4357664585113525,2.416393280029297,-3.728234052658081
1695713580835184000,11.66118408203125,-2.6871559619903564,4.194812774658203,-2.6525115966796875
1695713580854288100,11.6802880859375,0.5255725383758545,4.603179931640625,-0.5045218467712402
1695713580873392000,11.69939208984375,-1.6673555374145508,3.444085121154785,-0.5712532997131348
1695713580892465700,11.718465576171875,-6.795912265777588,4.012327194213867,-1.8954510688781738
1695713580911569700,11.737569580078125,-10.203710556030273,2.1288070678710938,0.4308948516845703
1695713580930643200,11.756643310546876,-7.220210075378418,-0.6966371536254883,2.6072452068328857
1695713580949747200,11.775747314453126,-4.36470365524292,-1.4981193542480469,2.359989643096924
1695713580968820700,11.79482080078125,-4.7111921310424805,-1.7354936599731445,1.182441234588623
1695713580987924700,11.8139248046875,-4.7966389656066895,-2.1659927368164062,-0.3048436641693115
1695713581007028700,11.83302880859375,-4.812462329864502,-2.361959457397461,-1.0247979164123535
1695713581026102300,11.852102294921876,-5.15392541885376,-2.710048198699951,-0.6259510517120361
1695713581045206300,11.871206298828126,-5.23731803894043,-3.6342978477478027,0.4866945743560791
1695713581064310300,11.890310302734376,-4.6046977043151855,-4.6564178466796875,1.536181926727295
1695713581083414300,11.909414306640626,-3.5938615798950195,-4.9980692863464355,2.127122640609741
1695713581102487600,11.928487548828125,-2.8686180114746094,-4.158795356750488,1.896458387374878
1695713581121591600,11.947591552734375,-1.0845947265625,-2.277341842651367,1.5591461658477783
1695713581140695800,11.96669580078125,2.332822322845459,1.4300179481506348,1.2002739906311035
1695713581159769000,11.98576904296875,6.147444248199463,8.83395004272461,2.06642746925354
1695713581178873000,12.004873046875,4.105438709259033,14.23239803314209,-0.03467988967895508
1695713581197946600,12.023946533203125,6.415534019470215,10.963750839233398,-3.938291311264038
1695713581217050600,12.043050537109375,1.2382378578186035,0.04608440399169922,-4.334536552429199
1695713581236124200,12.062124267578126,-2.0474090576171875,-8.664541244506836,-2.519822597503662
1695713581255228200,12.081228271484376,-2.916816234588623,-7.327887535095215,-0.781325101852417
1695713581274332200,12.100332275390626,1.301004409790039,3.2974982261657715,-0.5389821529388428
1695713581293405700,12.11940576171875,0.8097219467163086,12.02394962310791,0.5484905242919922
1695713581312509700,12.138509765625,-9.06045913696289,6.298946857452393,0.7873518466949463
1695713581331583200,12.157583251953126,-8.239959716796875,-3.4520668983459473,3.0467586517333984
1695713581350717700,12.1767177734375,-7.911318302154541,-6.208122253417969,1.6234335899353027
1695713581369791200,12.195791259765626,-1.961637020111084,1.6796588897705078,2.600799083709717
1695713581388895200,12.214895263671876,-4.82161808013916,5.79640007019043,2.7239763736724854
1695713581407999200,12.233999267578126,-5.800705909729004,3.808773994445801,2.33864688873291
1695713581427072500,12.253072509765625,-5.001823425292969,0.03868389129638672,-0.13922715187072754
1695713581446176500,12.272176513671875,-3.296018600463867,-1.0987110137939453,-1.1113555431365967
1695713581465250000,12.29125,-2.564790725708008,-0.22751998901367188,1.1629343032836914
1695713581484354000,12.31035400390625,-2.7605679035186768,0.6877021789550781,2.273369789123535
1695713581503427600,12.329427490234375,-3.285972833633423,0.035125732421875,1.5712122917175293
1695713581522531600,12.348531494140625,-2.0862209796905518,-1.4520702362060547,0.8880820274353027
1695713581541635600,12.367635498046875,-1.297593593597412,-2.208078384399414,1.1330842971801758
1695713581560709000,12.386709228515626,-2.3488097190856934,-1.363046646118164,1.8446049690246582
1695713581579843600,12.405843505859375,-2.728015422821045,-0.47465991973876953,1.8599848747253418
1695713581598886700,12.42488671875,-1.5816879272460938,-0.671142578125,1.4850826263427734
1695713581617990700,12.44399072265625,-0.4276217818260193,-0.6822423934936523,1.6047999858856201
1695713581637094700,12.4630947265625,0.8159019947052002,0.07587528228759766,1.9669106006622314
1695713581656198700,12.48219873046875,1.4937880039215088,0.5106067657470703,2.0088050365448
1695713581675272200,12.501272216796876,0.9031087756156921,0.9372634887695312,1.6664915084838867
1695713581694376200,12.520376220703126,0.7290000915527344,1.5305900573730469,1.5616648197174072
1695713581713480200,12.539480224609376,0.2444571852684021,1.9561786651611328,2.0173075199127197
1695713581732553500,12.558553466796875,-0.1232227236032486,2.223883628845215,3.0276880264282227
1695713581751657500,12.577657470703125,0.45404309034347534,2.7968435287475586,3.3478572368621826
1695713581770731000,12.59673095703125,-0.3999806046485901,4.73879337310791,3.0857017040252686
1695713581789835000,12.6158349609375,-0.9328844547271729,5.994054794311523,2.459861993789673
1695713581808939000,12.63493896484375,-1.8866527080535889,4.288529396057129,2.396250009536743
1695713581828012500,12.654012451171875,-3.579803228378296,0.923065185546875,0.9098646640777588
1695713581847116500,12.673116455078125,-4.002416610717773,-1.4656505584716797,-1.8326420783996582
1695713581866190000,12.692190185546876,-3.6011133193969727,2.038956642150879,-3.0875484943389893
1695713581885294000,12.711294189453126,-1.8385803699493408,5.234162330627441,-3.183154821395874
1695713581904398000,12.730398193359376,-0.5582435131072998,5.339679718017578,-2.761828899383545
1695713581923502000,12.749502197265626,-0.16370463371276855,3.698118209838867,-2.629908323287964
1695713581942606000,12.768606201171876,-4.056557655334473,3.1041603088378906,-2.598555564880371
1695713581961679600,12.7876796875,-10.041681289672852,3.627833366394043,-1.0370302200317383
1695713581980783600,12.80678369140625,-9.634735107421875,0.7366085052490234,2.0282363891601562
1695713581999857200,12.825857177734376,-5.593033313751221,-1.4144096374511719,2.896324872970581
1695713582018961200,12.844961181640626,-3.5889034271240234,-1.8111510276794434,2.092658281326294
1695713582038034400,12.864034423828125,-3.2818732261657715,-2.22086763381958,0.9710803031921387
1695713582057138400,12.883138427734375,-2.9725637435913086,-2.6784281730651855,-0.12003445625305176
1695713582076242400,12.902242431640625,-3.124795436859131,-3.518176555633545,-0.5139968395233154
1695713582095316000,12.92131591796875,-3.8927111625671387,-4.616656303405762,0.1969435214996338
1695713582114420000,12.940419921875,-4.4358601570129395,-5.451996803283691,1.1483633518218994
1695713582133493500,12.959493408203125,-4.360766887664795,-5.309818267822266,1.2339766025543213
1695713582152597500,12.978597412109375,-3.357442855834961,-4.549765110015869,0.593618631362915
1695713582171701500,12.997701416015625,-2.166780948638916,-2.3751049041748047,0.26198387145996094
1695713582190775000,13.016775146484376,0.07367277145385742,1.5383358001708984,0.2707560062408447
1695713582209909500,13.035909423828125,5.421055793762207,8.605032920837402,3.3072755336761475
1695713582228983000,13.054983154296876,6.510923385620117,17.906726837158203,1.5891883373260498
1695713582248087000,13.074087158203126,5.000002861022949,11.925885200500488,-3.596792221069336
1695713582267160600,13.09316064453125,0.6102361679077148,-7.404841899871826,-1.0782012939453125
1695713582286264600,13.1122646484375,-3.0294318199157715,-17.127147674560547,0.887317419052124
1695713582305368600,13.13136865234375,-5.105775356292725,-7.241459846496582,-1.3447368144989014
1695713582324442000,13.150442138671876,-6.907612323760986,7.7008562088012695,-3.922152280807495
1695713582343546000,13.169546142578126,1.8446507453918457,21.192365646362305,-3.148336172103882
1695713582362619400,13.188619384765625,-4.57112455368042,8.417906761169434,2.7743685245513916
1695713582381723400,13.207723388671875,-10.86463737487793,-6.533716201782227,1.006883144378662
1695713582400797000,13.226796875,-5.031704902648926,-5.90751838684082,0.8539717197418213
1695713582419901000,13.24590087890625,-3.893219470977783,-0.46915149688720703,0.8756015300750732
1695713582439005000,13.2650048828125,-3.8649275302886963,3.2645416259765625,2.236680746078491
1695713582458078500,13.284078369140625,-4.48057222366333,4.546424865722656,2.1797666549682617
1695713582477182500,13.303182373046875,-3.947831869125366,3.229948043823242,0.7133400440216064
1695713582496286500,13.322286376953125,-2.070035457611084,0.4731788635253906,0.9414105415344238
1695713582515390500,13.341390380859375,-2.4276459217071533,-1.416900634765625,1.5180132389068604
1695713582534464000,13.360464111328126,-3.7353973388671875,-1.9641504287719727,1.5007054805755615
1695713582553568000,13.379568115234376,-3.2280871868133545,-2.306157112121582,1.7700772285461426
1695713582572672000,13.398672119140626,-1.1524769067764282,-1.026656150817871,1.8016867637634277
1695713582591745500,13.41774560546875,-0.3753049373626709,0.09487247467041016,1.9633560180664062
1695713582610849500,13.436849609375,-0.8983796834945679,0.4705057144165039,2.247467041015625
1695713582629923000,13.455923095703126,-0.6111557483673096,0.5225019454956055,2.3001019954681396
1695713582649027000,13.475027099609376,0.08445435762405396,0.054366111755371094,2.0888333320617676
1695713582668100400,13.494100341796875,0.44101476669311523,-0.11676311492919922,1.6294546127319336
1695713582687204400,13.513204345703125,0.5584216117858887,0.7349061965942383,1.5890846252441406
1695713582706308400,13.532308349609375,0.27384936809539795,2.2041845321655273,1.8571162223815918
1695713582725382000,13.5513818359375,-0.47447216510772705,2.9833803176879883,2.1734888553619385
1695713582744486000,13.57048583984375,-1.1824781894683838,2.452249526977539,1.913275957107544
1695713582763559700,13.5895595703125,-0.24649721384048462,1.0876131057739258,1.4354805946350098
1695713582782694100,13.608694091796876,1.3818676471710205,0.22601604461669922,1.5346043109893799
1695713582801767700,13.627767578125,1.045910120010376,1.141427993774414,1.785984992980957
1695713582820871700,13.64687158203125,-0.5407537221908569,2.2541322708129883,1.465374231338501
1695713582839975700,13.6659755859375,-1.3562895059585571,1.3066349029541016,1.1122028827667236
1695713582859049200,13.68504931640625,-3.026998996734619,0.07457828521728516,0.2880539894104004
1695713582878153200,13.7041533203125,-2.89365553855896,-0.6178722381591797,-0.8409895896911621
1695713582897226500,13.7232265625,-3.5997488498687744,0.40069007873535156,-0.7121121883392334
1695713582916330500,13.74233056640625,-4.287361145019531,2.918201446533203,-1.5630502700805664
1695713582935404000,13.761404052734376,-1.9515879154205322,5.695675849914551,-0.4277670383453369
1695713582954508000,13.780508056640626,-1.8697845935821533,5.326571464538574,1.9568812847137451
1695713582973612000,13.799612060546876,-3.953307628631592,2.6580352783203125,1.7659647464752197
1695713582992685600,13.818685546875,-5.031369209289551,1.1454830169677734,0.641552209854126
1695713583011789600,13.83778955078125,-4.128994941711426,0.6811676025390625,0.24065589904785156
1695713583030863000,13.856863037109376,-1.5156292915344238,0.08506298065185547,-0.049646854400634766
1695713583049967000,13.875967041015626,-2.029320001602173,-1.572575569152832,-1.2796776294708252
1695713583069071000,13.895071044921876,-2.247401237487793,-4.866232872009277,-2.612720012664795
1695713583088175000,13.914175048828126,-6.237628936767578,-9.400465965270996,-3.234865188598633
1695713583107279000,13.933279052734376,-13.360231399536133,-13.864245414733887,-0.53725266456604
1695713583126352600,13.9523525390625,-15.718473434448242,-14.126936912536621,4.604808807373047
1695713583145456600,13.97145654296875,-5.380059242248535,-9.667403221130371,8.077619552612305
1695713583164530200,13.9905302734375,-1.2586603164672852,-8.510621070861816,12.735129356384277
1695713583183634200,14.00963427734375,2.815369129180908,-8.066363334655762,12.040206909179688
1695713583202707500,14.02870751953125,-1.6443219184875488,-5.191315650939941,1.2652039527893066
1695713583221811500,14.0478115234375,-0.9523806571960449,-4.165029525756836,-5.452336311340332
1695713583240915500,14.06691552734375,-0.2669105529785156,-1.4085407257080078,-8.85428237915039
1695713583259989000,14.085989013671876,-4.705747604370117,-4.293576240539551,-2.734813690185547
1695713583279093000,14.105093017578126,-2.557101249694824,-2.5551061630249023,-1.905217170715332
1695713583298166500,14.12416650390625,3.9249305725097656,4.148602485656738,6.645297050476074
1695713583317270500,14.1432705078125,0.3469219207763672,11.234539031982422,5.039593696594238
1695713583336374500,14.16237451171875,-14.729085922241211,6.0310516357421875,3.7554712295532227
1695713583355478500,14.181478515625,-13.653470993041992,4.050122261047363,-10.524792671203613
1695713583374582500,14.20058251953125,-10.502342224121094,12.170462608337402,-26.75590705871582
1695713583393656000,14.219656005859376,-6.443202018737793,5.548432350158691,-6.502250671386719
1695713583412760000,14.238760009765626,-1.8886170387268066,0.5063819885253906,11.604008674621582
1695713583431833600,14.25783349609375,10.215033531188965,5.9614667892456055,11.712201118469238
1695713583450937600,14.2769375,5.670948505401611,11.364513397216797,1.0284602642059326
1695713583470041600,14.29604150390625,-0.577150821685791,12.336363792419434,-4.037289142608643
1695713583489115100,14.315115234375,-1.0240364074707031,13.701193809509277,-3.8894639015197754
1695713583508219100,14.33421923828125,9.73246955871582,25.21283531188965,-4.585904121398926
1695713583527292400,14.35329248046875,3.5844197273254395,19.476945877075195,-13.710047721862793
1695713583546396400,14.372396484375,-3.782888889312744,-2.1024627685546875,4.455103874206543
1695713583565470000,14.391469970703126,-5.79164981842041,-12.084920883178711,14.627968788146973
1695713583584574000,14.410573974609376,-3.2307543754577637,-14.348166465759277,10.425174713134766
1695713583603678000,14.429677978515626,1.7268567085266113,-1.7613286972045898,-1.6864711046218872
1695713583622751500,14.44875146484375,4.573772430419922,8.52957534790039,0.5652298331260681
1695713583641886000,14.467885986328126,-0.0035810470581054688,8.552632331848145,-3.924283981323242
1695713583660959500,14.48695947265625,0.3230710029602051,-1.6291594505310059,0.5159971714019775
1695713583680063500,14.5060634765625,-0.4442415237426758,-2.6333518028259277,2.3767495155334473
1695713583699137000,14.525136962890626,-1.1684274673461914,0.37975263595581055,2.2501516342163086
1695713583718241000,14.544240966796876,-1.430166244506836,0.9553370475769043,1.4348783493041992
1695713583737345000,14.563344970703126,-2.276428699493408,1.4367003440856934,0.07751345634460449
1695713583756418600,14.58241845703125,-3.2510271072387695,2.1281943321228027,-0.4180105924606323
1695713583775522600,14.6015224609375,-2.0027823448181152,1.442598819732666,-0.2632809281349182
1695713583794596000,14.62059619140625,-0.9566740989685059,0.4655318260192871,0.38274329900741577
1695713583813700000,14.6397001953125,-0.4255361557006836,-0.1739645004272461,1.0646424293518066
1695713583832773400,14.6587734375,-1.132401466369629,-0.17687606811523438,0.7767475247383118
1695713583851877400,14.67787744140625,-1.7048954963684082,0.5096235275268555,-0.2100793719291687
1695713583870981400,14.6969814453125,-1.5055351257324219,0.9709892272949219,0.003823578357696533
1695713583890055000,14.716054931640626,-1.1044807434082031,0.9207897186279297,0.42922309041023254
1695713583909159000,14.735158935546876,-1.8019089698791504,0.7775230407714844,0.37079325318336487
1695713583928263000,14.754262939453126,-1.408121109008789,0.9127063751220703,0.40927886962890625
1695713583947367000,14.773366943359376,-1.2031216621398926,0.7522544860839844,0.20137310028076172
1695713583966440400,14.7924404296875,-1.7451658248901367,0.9463567733764648,0.19381612539291382
1695713583985544400,14.81154443359375,-1.6652212142944336,1.0583534240722656,0.18588176369667053
1695713584004648400,14.8306484375,-1.3767967224121094,1.0156869888305664,0.14190876483917236
1695713584023722000,14.849721923828126,-0.6396055221557617,0.6427822113037109,0.6236661672592163
1695713584042826000,14.868825927734376,-0.7715320587158203,0.35637760162353516,0.9101350903511047
1695713584061899500,14.8878994140625,-1.2274141311645508,0.2520895004272461,0.5522663593292236
1695713584081003500,14.90700341796875,-1.3573994636535645,0.34216785430908203,0.0866064727306366
1695713584100077000,14.9260771484375,-1.2830305099487305,0.5823974609375,0.03316318988800049
1695713584119181000,14.94518115234375,-1.4275026321411133,0.777552604675293,0.5651587247848511
1695713584138285000,14.96428515625,-1.5207014083862305,0.7806625366210938,0.9929391145706177
1695713584157358300,14.9833583984375,-1.430147647857666,0.7879228591918945,0.7819088697433472
1695713584176462300,15.00246240234375,-1.6669998168945312,0.6846342086791992,0.40651434659957886
1695713584195536000,15.021535888671876,-1.5736174583435059,0.6127891540527344,0.37103983759880066
1695713584214670300,15.04067041015625,-1.5166926383972168,0.5911808013916016,0.5369137525558472
1695713584233744000,15.059743896484376,-1.5789227485656738,0.4714670181274414,0.8382377028465271
1695713584252847900,15.078847900390626,-1.4518260955810547,0.5102720260620117,0.7611903548240662
1695713584271952000,15.097951904296876,-1.583512783050537,0.48647594451904297,0.35976994037628174
1695713584291025400,15.117025390625,-1.659745693206787,0.5748481750488281,0.27629274129867554
1695713584310129400,15.13612939453125,-1.667435646057129,0.5983161926269531,0.07772552967071533
1695713584329203000,15.155202880859376,-1.485647201538086,0.5650920867919922,0.3512241244316101
1695713584348307000,15.174306884765626,-1.5944571495056152,0.5597190856933594,0.6588268280029297
1695713584367380500,15.19338037109375,-1.702221393585205,0.6055383682250977,0.6542636752128601
1695713584386484500,15.212484375,-1.5595917701721191,0.7239828109741211,0.4323704242706299
1695713584405588500,15.23158837890625,-1.7082319259643555,0.6380462646484375,0.31284070014953613
1695713584424662000,15.250662109375,-1.6803545951843262,0.5629911422729492,0.33854931592941284
1695713584443766000,15.26976611328125,-1.6427981853485107,0.4737682342529297,0.3556448221206665
1695713584462839300,15.28883935546875,-1.4746129512786865,0.45485591888427734,0.3736364245414734
1695713584481943300,15.307943359375,-1.5406081676483154,0.4257774353027344,0.3791522979736328
1695713584501047300,15.32704736328125,-1.4673879146575928,0.5430946350097656,0.4390459656715393
1695713584520151300,15.3461513671875,-1.2760260105133057,0.5099582672119141,0.3913475275039673
1695713584539255300,15.36525537109375,-1.386261224746704,0.3245811462402344,0.3737946152687073
1695713584558359300,15.384359375,-1.3014686107635498,0.41329383850097656,0.4409189820289612
1695713584577432800,15.403432861328126,-1.3746707439422607,0.4494895935058594,0.22312641143798828
1695713584596506400,15.42250634765625,-1.4917433261871338,0.4230813980102539,0.20476388931274414
1695713584615610400,15.4416103515625,-1.406782627105713,0.5163192749023438,0.38121312856674194
1695713584634684000,15.460683837890626,-1.5227296352386475,0.589024543762207,0.4457559585571289
1695713584653788000,15.479787841796876,-1.621042251586914,0.5233554840087891,0.4695238471031189
1695713584672892000,15.498891845703126,-1.488725185394287,0.45975208282470703,0.5296651124954224
1695713584691965400,15.51796533203125,-1.4568822383880615,0.41649913787841797,0.5634618997573853
1695713584711069400,15.5370693359375,-1.613480567932129,0.4535188674926758,0.339424729347229
1695713584730142700,15.556142822265626,-1.5164034366607666,0.37056446075439453,0.1964958906173706
1695713584749247000,15.5752470703125,-1.279906988143921,0.44005870819091797,0.2207087278366089
1695713584768320300,15.5943203125,-1.2985146045684814,0.5337953567504883,0.40024739503860474
1695713584787455000,15.613455078125,-1.51129150390625,0.511387825012207,0.461711049079895
1695713584806559000,15.63255908203125,-1.6913504600524902,0.5055866241455078,0.40210121870040894
1695713584825632300,15.65163232421875,-1.5956006050109863,0.4716224670410156,0.3092278242111206
1695713584844736300,15.670736328125,-1.3778889179229736,0.5173931121826172,0.3807818293571472
1695713584863809800,15.689809814453126,-1.5302317142486572,0.43332958221435547,0.20318198204040527
1695713584882913800,15.708913818359376,-1.5518999099731445,0.43381404876708984,0.14574646949768066
1695713584901987300,15.7279873046875,-1.4737536907196045,0.40993690490722656,0.2849101424217224
1695713584921091300,15.74709130859375,-1.2865488529205322,0.41057300567626953,0.43647444248199463
1695713584940164900,15.766164794921876,-1.0598654747009277,0.39025115966796875,0.43063539266586304
1695713584959268900,15.785268798828126,-1.1063323020935059,0.45723438262939453,0.5692678093910217
1695713584978372900,15.804372802734376,-1.3778965473175049,0.3901023864746094,0.5788347721099854
1695713584997446400,15.8234462890625,-1.4010803699493408,0.3902549743652344,0.4815064072608948
1695713585016550400,15.84255029296875,-1.2438054084777832,0.38181114196777344,0.4207046627998352
1695713585035654400,15.861654296875,-1.0448601245880127,0.4042835235595703,0.46244698762893677
1695713585054727700,15.880727783203126,-1.153900384902954,0.41341114044189453,0.4351879358291626
1695713585073862400,15.8998623046875,-1.2055137157440186,0.4773845672607422,0.5949356555938721
1695713585092936000,15.91893603515625,-1.1426372528076172,0.45438194274902344,0.5774584412574768
1695713585112040000,15.9380400390625,-1.1347360610961914,0.4037208557128906,0.4652160406112671
1695713585131113200,15.95711328125,-1.188488483428955,0.3058967590332031,0.2763041853904724
1695713585150217200,15.97621728515625,-1.1675314903259277,0.3512554168701172,0.28138744831085205
1695713585169321200,15.9953212890625,-1.0949764251708984,0.4030275344848633,0.3907385468482971
1695713585188394800,16.014394775390624,-1.124279260635376,0.4385566711425781,0.4555532932281494
1695713585207498800,16.033498779296874,-1.271822452545166,0.3921976089477539,0.4616835117340088
1695713585226572300,16.052572265625,-1.0701913833618164,0.3768272399902344,0.4419405460357666
1695713585245676300,16.07167626953125,-1.0114109516143799,0.3250999450683594,0.5103729963302612
1695713585264749800,16.090749755859374,-1.1388418674468994,0.30576610565185547,0.5686875581741333
1695713585283853800,16.109853759765624,-1.2448341846466064,0.3156290054321289,0.5166712999343872
1695713585302957800,16.128957763671874,-1.1888542175292969,0.32895374298095703,0.4371076822280884
1695713585322031400,16.14803125,-1.1750774383544922,0.3798494338989258,0.4161449670791626
1695713585341135400,16.16713525390625,-1.13643217086792,0.31252384185791016,0.4888259172439575
1695713585360239400,16.1862392578125,-1.1342699527740479,0.30620861053466797,0.5782523155212402
1695713585379343400,16.20534326171875,-1.0898234844207764,0.35552406311035156,0.7119450569152832
1695713585398417000,16.2244169921875,-1.1186838150024414,0.42673301696777344,0.6539989709854126
1695713585417521000,16.24352099609375,-1.2421221733093262,0.3633270263671875,0.4799004793167114
1695713585436625000,16.262625,-1.2613449096679688,0.29117870330810547,0.2644944190979004
1695713585455698200,16.2816982421875,-1.300475835800171,0.3231077194213867,0.24977660179138184
1695713585474802200,16.30080224609375,-1.2984199523925781,0.36749744415283203,0.3882002830505371
1695713585493906200,16.31990625,-1.19260573387146,0.37056446075439453,0.43444931507110596
1695713585512979700,16.338979736328124,-1.2341315746307373,0.3569068908691406,0.5285383462905884
1695713585532053200,16.35805322265625,-1.186654806137085,0.3244199752807617,0.5410312414169312
1695713585551157200,16.3771572265625,-1.03271484375,0.32698917388916016,0.6768131256103516
1695713585570261200,16.39626123046875,-1.0071032047271729,0.34211063385009766,0.6892739534378052
1695713585589334800,16.415334716796874,-1.0808610916137695,0.29558658599853516,0.4568523168563843
1695713585608438800,16.434438720703124,-1.111328363418579,0.24055957794189453,0.3157385587692261
1695713585627512300,16.45351220703125,-1.1058557033538818,0.3088865280151367,0.38659775257110596
1695713585646646800,16.472646728515624,-1.090062141418457,0.3269462585449219,0.4953068494796753
1695713585665720300,16.49172021484375,-1.1062469482421875,0.3211402893066406,0.5072144269943237
1695713585684824300,16.51082421875,-1.2514607906341553,0.34156131744384766,0.40943992137908936
1695713585703928300,16.52992822265625,-1.289165735244751,0.30359458923339844,0.1578301191329956
1695713585723001900,16.549001953125,-1.2116615772247314,0.2837677001953125,-0.008427977561950684
1695713585742105900,16.56810595703125,-1.233818769454956,0.23851966857910156,0.04208064079284668
1695713585761179100,16.58717919921875,-1.2923204898834229,0.20194244384765625,0.2044541835784912
1695713585780283100,16.606283203125,-1.308135986328125,0.18964767456054688,0.4091404676437378
1695713585799356700,16.625356689453124,-1.1680238246917725,0.28082847595214844,0.49900197982788086
1695713585818460700,16.644460693359374,-1.230499267578125,0.3712921142578125,0.5067669153213501
1695713585837564700,16.663564697265624,-1.2667291164398193,0.3593635559082031,0.41574132442474365
1695713585856638200,16.68263818359375,-1.2304878234863281,0.2860984802246094,0.4103388786315918
1695713585875742200,16.7017421875,-1.3022987842559814,0.3132352828979492,0.4886728525161743
1695713585894815700,16.720815673828124,-1.1771166324615479,0.32834815979003906,0.523535966873169
1695713585913919700,16.739919677734374,-1.0082488059997559,0.3965177536010742,0.7511038780212402
1695713585933023700,16.759023681640624,-1.0038931369781494,0.49288272857666016,0.865357518196106
1695713585952127700,16.778127685546874,-0.9221348762512207,0.5682096481323242,0.7423152923583984
1695713585971231700,16.797231689453124,-0.9948816299438477,0.4611940383911133,0.5586537718772888
1695713585990305300,16.81630517578125,-0.8661031723022461,0.2856760025024414,0.5078088045120239
1695713586009409300,16.8354091796875,-0.809267520904541,0.22490882873535156,0.5865564346313477
1695713586028482800,16.85448291015625,-0.9869718551635742,0.22169208526611328,0.6254534721374512
1695713586047586800,16.8735869140625,-1.006345510482788,0.2337503433227539,0.6051387190818787
1695713586066660000,16.89266015625,-0.8166368007659912,0.2852163314819336,0.5522328615188599
1695713586085764000,16.91176416015625,-1.0568947792053223,0.28017616271972656,0.5304542183876038
1695713586104868000,16.9308681640625,-1.02492094039917,0.24302101135253906,0.5688949823379517
1695713586123941600,16.949941650390624,-1.051034688949585,0.19626712799072266,0.5195310115814209
1695713586143045600,16.969045654296874,-1.0242664813995361,0.21385669708251953,0.5432592034339905
1695713586162119200,16.988119140625,-1.0101847648620605,0.2573995590209961,0.44151240587234497
1695713586181223200,17.00722314453125,-1.0738754272460938,0.3069343566894531,0.33582544326782227
1695713586200296700,17.026296630859374,-1.1245601177215576,0.3269071578979492,0.3189675211906433
1695713586219431200,17.04543115234375,-1.1187145709991455,0.30324649810791016,0.31125354766845703
1695713586238535200,17.06453515625,-1.0779314041137695,0.25484466552734375,0.3765895962715149
1695713586257608700,17.083608642578124,-1.0914568901062012,0.24446678161621094,0.47535181045532227
1695713586276712700,17.102712646484374,-1.0787146091461182,0.3438291549682617,0.5193696618080139
1695713586295786200,17.1217861328125,-0.9871292114257812,0.3661985397338867,0.5665515065193176
1695713586314890200,17.14089013671875,-0.9495382308959961,0.28748035430908203,0.5856872200965881
1695713586333963500,17.159963623046874,-0.943882942199707,0.25797462463378906,0.635105311870575
1695713586353067800,17.17906787109375,-0.9341287612915039,0.2035360336303711,0.5644484162330627
1695713586372171800,17.198171875,-0.9901878833770752,0.1560039520263672,0.43348753452301025
1695713586391245000,17.2172451171875,-0.9573390483856201,0.22713375091552734,0.3975275158882141
1695713586410349000,17.23634912109375,-0.9448080062866211,0.2378854751586914,0.43834227323532104
1695713586429453000,17.255453125,-0.9035251140594482,0.22737884521484375,0.5521225333213806
1695713586448526600,17.274526611328124,-1.023913860321045,0.22269344329833984,0.5188882946968079
1695713586467600100,17.29360009765625,-1.0564906597137451,0.20518016815185547,0.46515029668807983
1695713586486704000,17.3127041015625,-0.9759626388549805,0.192535400390625,0.42075592279434204
1695713586505838600,17.331838623046874,-1.0406498908996582,0.22968196868896484,0.4021403193473816
1695713586524912000,17.350912109375,-1.0223994255065918,0.21411609649658203,0.4279746413230896
1695713586544016100,17.37001611328125,-1.0828473567962646,0.2309436798095703,0.3965764045715332
1695713586563089700,17.389089599609374,-1.15926194190979,0.2576942443847656,0.2988471984863281
1695713586582193700,17.408193603515624,-1.1570632457733154,0.29061126708984375,0.21640270948410034
1695713586601267200,17.42726708984375,-1.0315701961517334,0.244171142578125,0.22374457120895386
1695713586620371200,17.44637109375,-0.9844822883605957,0.28600406646728516,0.28566408157348633
1695713586639475200,17.46547509765625,-0.878201961517334,0.33032894134521484,0.34404921531677246
1695713586658548500,17.484548583984374,-0.877021074295044,0.2993946075439453,0.41103512048721313
1695713586677652700,17.50365283203125,-0.8945314884185791,0.2629404067993164,0.4783022403717041
1695713586696726000,17.52272607421875,-0.9134283065795898,0.2569561004638672,0.4796518087387085
1695713586715830000,17.541830078125,-0.9468190670013428,0.3213844299316406,0.41852647066116333
1695713586734903600,17.560903564453124,-0.9731185436248779,0.3693666458129883,0.4138287901878357
1695713586754007600,17.580007568359374,-1.0046477317810059,0.29627323150634766,0.42556309700012207
1695713586773111600,17.599111572265624,-1.010746955871582,0.28079700469970703,0.4976789951324463
1695713586792215600,17.618215576171874,-1.0655248165130615,0.29618072509765625,0.49440860748291016
1695713586811319600,17.637319580078124,-1.0413110256195068,0.24787330627441406,0.4426143169403076
1695713586830393000,17.65639306640625,-1.0721523761749268,0.24736881256103516,0.39900141954421997
1695713586849497000,17.6754970703125,-1.0857760906219482,0.29682445526123047,0.5047942996025085
1695713586868570600,17.694570556640624,-1.1035208702087402,0.30534934997558594,0.5188093185424805
1695713586887674600,17.713674560546874,-1.0682144165039062,0.22410297393798828,0.4337204098701477
1695713586906778600,17.732778564453124,-1.042069435119629,0.15372562408447266,0.32638150453567505
1695713586925852200,17.75185205078125,-1.0983481407165527,0.1682453155517578,0.2631099224090576
1695713586944956200,17.7709560546875,-1.0462579727172852,0.1883106231689453,0.30216163396835327
1695713586964029400,17.790029541015624,-0.9686007499694824,0.20771503448486328,0.25239282846450806
1695713586983133700,17.8091337890625,-0.8684704303741455,0.2619152069091797,0.351576566696167
1695713587002237700,17.82823779296875,-0.873701810836792,0.28032684326171875,0.3387821912765503
1695713587021311000,17.84731103515625,-0.8564801216125488,0.22042179107666016,0.33430153131484985
1695713587040415000,17.8664150390625,-0.7984702587127686,0.22102642059326172,0.5161986351013184
1695713587059488500,17.885488525390624,-0.9424645900726318,0.24088001251220703,0.512440025806427
1695713587078623000,17.904623046875,-0.8506107330322266,0.24503135681152344,0.4647647738456726
1695713587097696500,17.923696533203124,-0.7413761615753174,0.20491313934326172,0.4554956555366516
1695713587116800500,17.942800537109374,-0.7977232933044434,0.20329570770263672,0.5229387283325195
1695713587135904500,17.961904541015624,-0.8245997428894043,0.21693038940429688,0.5630599856376648
1695713587154978000,17.98097802734375,-0.8993456363677979,0.24063777923583984,0.5795789957046509
1695713587174082000,18.00008203125,-0.7792022228240967,0.23215389251708984,0.5562136173248291
1695713587193155600,18.019155517578124,-0.830061674118042,0.24082088470458984,0.47669512033462524
1695713587212259600,18.038259521484374,-0.9689452648162842,0.1937408447265625,0.3285251259803772
1695713587231333000,18.0573330078125,-0.9467129707336426,0.1932849884033203,0.25413525104522705
1695713587250437000,18.07643701171875,-0.8926219940185547,0.1751880645751953,0.2418469786643982
1695713587269541000,18.095541015625,-0.8415446281433105,0.13796520233154297,0.3689892292022705
1695713587288614400,18.114614501953124,-0.7384388446807861,0.13251113891601562,0.4565278887748718
1695713587307718700,18.13371875,-0.7456238269805908,0.1503896713256836,0.48985564708709717
1695713587326792000,18.1527919921875,-1.003004789352417,0.16328048706054688,0.42552947998046875
1695713587345896000,18.17189599609375,-0.9990377426147461,0.19662761688232422,0.332349956035614
1695713587365000000,18.191,-1.0077292919158936,0.15674304962158203,0.23161262273788452
1695713587384104000,18.21010400390625,-1.0050361156463623,0.1525745391845703,0.16673678159713745
1695713587403208000,18.2292080078125,-0.9617831707000732,0.12269210815429688,0.21210789680480957
1695713587422281500,18.248281494140624,-0.9555840492248535,0.1725139617919922,0.28087741136550903
1695713587441385500,18.267385498046874,-1.0553407669067383,0.20716381072998047,0.3053715229034424
1695713587460459000,18.286458984375,-1.0565109252929688,0.21875476837158203,0.1973055601119995
1695713587479563000,18.30556298828125,-0.9940400123596191,0.19762802124023438,0.28629279136657715
1695713587498636500,18.324636474609374,-1.0373635292053223,0.2030181884765625,0.35596394538879395
1695713587517740500,18.343740478515624,-1.1313858032226562,0.2373208999633789,0.3884878158569336
1695713587536875000,18.362875,-1.1764459609985352,0.2067241668701172,0.37384164333343506
1695713587555918000,18.38191796875,-1.1518166065216064,0.19304656982421875,0.29083818197250366
1695713587575022000,18.40102197265625,-1.1558091640472412,0.20629596710205078,0.17455506324768066
1695713587594095400,18.420095458984374,-1.1770775318145752,0.2495136260986328,0.1326621174812317
1695713587613199400,18.439199462890624,-1.1083216667175293,0.20687294006347656,0.13097935914993286
1695713587632273000,18.45827294921875,-0.8560705184936523,0.2474956512451172,0.2058323621749878
1695713587651407600,18.47740771484375,-0.5661556720733643,0.26931095123291016,0.4464561939239502
1695713587670511600,18.49651171875,-0.753976583480835,0.20610713958740234,0.5615406632423401
1695713587689585000,18.5155849609375,-0.855919599533081,0.1852865219116211,0.5576674342155457
1695713587708689000,18.53468896484375,-0.6562972068786621,0.20090007781982422,0.4721301198005676
1695713587727762400,18.553762451171874,-0.64353346824646,0.2007465362548828,0.40772438049316406
1695713587746866400,18.572866455078124,-0.8802766799926758,0.15975570678710938,0.3606937527656555
1695713587765940000,18.59193994140625,-0.9558548927307129,0.1759014129638672,0.3643500804901123
1695713587785044000,18.6110439453125,-0.9422891139984131,0.18850040435791016,0.30400383472442627
1695713587804148000,18.63014794921875,-0.956958532333374,0.15618419647216797,0.2396373152732849
1695713587823221500,18.649221435546874,-0.9600510597229004,0.22220993041992188,0.26297348737716675
1695713587842325500,18.668325439453124,-0.9252581596374512,0.2803363800048828,0.2945770025253296
1695713587861399000,18.68739892578125,-0.9283583164215088,0.2240743637084961,0.3318284749984741
1695713587880503000,18.7065029296875,-0.784088134765625,0.17783546447753906,0.2798256278038025
1695713587899576300,18.725576416015624,-0.653618335723877,0.1730489730834961,0.34191733598709106
1695713587918680300,18.744680419921874,-0.691657543182373,0.14736366271972656,0.5289244651794434
1695713587937815000,18.76381494140625,-0.8291828632354736,0.10805892944335938,0.4776648283004761
1695713587956888600,18.782888671875,-0.8321895599365234,0.15059566497802734,0.34334796667099
1695713587975992600,18.80199267578125,-0.7294027805328369,0.16092586517333984,0.313501238822937
1695713587995065900,18.82106591796875,-0.7734274864196777,0.17457199096679688,0.3864896297454834
1695713588014169900,18.840169921875,-0.8859148025512695,0.1995697021484375,0.42846786975860596
1695713588033243400,18.859243408203124,-0.9520666599273682,0.16773700714111328,0.33609187602996826
1695713588052347400,18.878347412109374,-0.8841359615325928,0.17314434051513672,0.2901058793067932
1695713588071451400,18.897451416015624,-0.9089114665985107,0.15129375457763672,0.3440544605255127
1695713588090525000,18.91652490234375,-0.9342856407165527,0.17350006103515625,0.3141559958457947
1695713588109629000,18.93562890625,-0.8820257186889648,0.1888885498046875,0.3612353801727295
1695713588128702500,18.954702392578124,-0.8461577892303467,0.1962146759033203,0.3231733441352844
1695713588147806500,18.973806396484374,-0.776775598526001,0.16797542572021484,0.3119550943374634
1695713588166880000,18.9928798828125,-0.7574923038482666,0.19788360595703125,0.3507404923439026
1695713588185984000,19.01198388671875,-0.7499630451202393,0.16353893280029297,0.3484659194946289
1695713588205057300,19.031057373046874,-0.7651293277740479,0.19287490844726562,0.3754918575286865
1695713588224192000,19.05019189453125,-0.8265483379364014,0.18514347076416016,0.28664928674697876
1695713588243296000,19.0692958984375,-0.8746545314788818,0.21055316925048828,0.24690872430801392
1695713588262369300,19.088369384765624,-0.8601183891296387,0.20648956298828125,0.2484380602836609
1695713588281473500,19.1074736328125,-0.8470938205718994,0.18590068817138672,0.24224990606307983
1695713588300546800,19.126546875,-0.8356475830078125,0.15352916717529297,0.2653775215148926
1695713588319650800,19.14565087890625,-0.8596405982971191,0.17196273803710938,0.2985326051712036
1695713588338754800,19.1647548828125,-0.8343064785003662,0.17636775970458984,0.263353168964386
1695713588357828400,19.183828369140624,-0.7975060939788818,0.16899776458740234,0.197801411151886
1695713588376932400,19.202932373046874,-0.7625885009765625,0.1614847183227539,0.23604559898376465
1695713588396006000,19.222005859375,-0.7153394222259521,0.18352699279785156,0.3205486536026001
1695713588415110000,19.24110986328125,-0.6848394870758057,0.17246246337890625,0.4041717052459717
1695713588434183400,19.260183349609374,-0.8213319778442383,0.1729907989501953,0.3480289578437805
1695713588453287400,19.279287353515624,-0.7079505920410156,0.16649436950683594,0.31723326444625854
1695713588472422000,19.298421875,-0.730412483215332,0.1439676284790039,0.23796409368515015
1695713588491465000,19.31746484375,-0.8781425952911377,0.1510610580444336,0.23603856563568115
1695713588510599400,19.336599365234374,-0.7441520690917969,0.1524066925048828,0.24383091926574707
1695713588529673000,19.3556728515625,-0.6733496189117432,0.12291336059570312,0.23995625972747803
1695713588548777000,19.37477685546875,-0.8102140426635742,0.15475177764892578,0.23761087656021118
1695713588567850200,19.393850341796874,-0.8701317310333252,0.1630859375,0.24098443984985352
1695713588586954500,19.41295458984375,-0.8179779052734375,0.1634197235107422,0.25305789709091187
1695713588606058500,19.43205859375,-0.8476121425628662,0.16125965118408203,0.28601711988449097
1695713588625131800,19.4511318359375,-0.7844891548156738,0.1757068634033203,0.2638005018234253
1695713588644235800,19.47023583984375,-0.8562948703765869,0.2056131362915039,0.2339990735054016
1695713588663309300,19.489309326171874,-0.85465407371521,0.15503692626953125,0.161984384059906
1695713588682413300,19.508413330078124,-0.7941920757293701,0.12949085235595703,0.20172083377838135
1695713588701486800,19.52748681640625,-0.7485425472259521,0.13599014282226562,0.20340633392333984
1695713588720590800,19.5465908203125,-0.7977328300476074,0.1435375213623047,0.2180987000465393
1695713588739694800,19.56569482421875,-0.7510988712310791,0.1097860336303711,0.266146183013916
1695713588758768400,19.584768310546874,-0.8002667427062988,0.13892841339111328,0.24201136827468872
1695713588777872400,19.603872314453124,-0.7515847682952881,0.16208839416503906,0.18051302433013916
1695713588796976400,19.622976318359374,-0.6500244140625,0.184234619140625,0.21331191062927246
1695713588816080400,19.642080322265624,-0.7294368743896484,0.18354034423828125,0.24489998817443848
1695713588835154000,19.66115380859375,-0.7755131721496582,0.18522167205810547,0.2884070873260498
1695713588854258000,19.6802578125,-0.7137324810028076,0.18436813354492188,0.30303430557250977
1695713588873362000,19.69936181640625,-0.7241055965423584,0.18099689483642578,0.267021119594574
1695713588892435200,19.718435302734374,-0.729252815246582,0.1443023681640625,0.2591627240180969
1695713588911539500,19.73753955078125,-0.6872572898864746,0.15038681030273438,0.2273072600364685
1695713588930612700,19.75661279296875,-0.6700835227966309,0.12295722961425781,0.3189343214035034
1695713588949716700,19.775716796875,-0.6634993553161621,0.11892986297607422,0.37589675188064575
1695713588968790300,19.794790283203124,-0.7377102375030518,0.13352108001708984,0.32587099075317383
1695713588987894300,19.813894287109374,-0.7339446544647217,0.13057994842529297,0.28496211767196655
1695713589006998300,19.832998291015624,-0.7046949863433838,0.14322376251220703,0.28591644763946533
1695713589026071800,19.85207177734375,-0.7959036827087402,0.14281654357910156,0.2503660321235657
1695713589045175800,19.87117578125,-0.8049066066741943,0.1246795654296875,0.28317326307296753
1695713589064249300,19.890249267578124,-0.8073899745941162,0.13510799407958984,0.27539414167404175
1695713589083383800,19.9093837890625,-0.7403402328491211,0.12090110778808594,0.30525368452072144
1695713589102457300,19.928457275390624,-0.7562150955200195,0.17441844940185547,0.263511061668396
1695713589121561300,19.947561279296874,-0.8168468475341797,0.13066768646240234,0.2518036961555481
1695713589140665300,19.966665283203124,-0.7616147994995117,0.1028280258178711,0.26292407512664795
1695713589159739000,19.98573876953125,-0.6901285648345947,0.13196563720703125,0.2333439588546753
1695713589178843000,20.0048427734375,-0.7449169158935547,0.12668132781982422,0.23037123680114746
1695713589197916200,20.023916259765624,-0.7055726051330566,0.13207435607910156,0.23833906650543213
1695713589217020200,20.043020263671874,-0.6870021820068359,0.1293802261352539,0.2699984312057495
1695713589236124400,20.06212451171875,-0.7215311527252197,0.1598052978515625,0.25680410861968994
1695713589255197700,20.08119775390625,-0.6986887454986572,0.16061782836914062,0.23940593004226685
1695713589274301700,20.1003017578125,-0.7627034187316895,0.14005279541015625,0.23953777551651
1695713589293375200,20.119375244140624,-0.820112943649292,0.13855266571044922,0.2083473801612854
1695713589312479200,20.138479248046874,-0.7929010391235352,0.1506490707397461,0.25007426738739014
1695713589331552800,20.157552734375,-0.8776910305023193,0.1959667205810547,0.2730472683906555
1695713589350656800,20.17665673828125,-0.7992880344390869,0.17491722106933594,0.3018838167190552
1695713589369791200,20.195791259765624,-0.6952178478240967,0.1824054718017578,0.3179599642753601
1695713589388864800,20.21486474609375,-0.7822384834289551,0.14824390411376953,0.2788769602775574
1695713589407968800,20.23396875,-0.7302169799804688,0.12247848510742188,0.22962820529937744
1695713589427042300,20.253042236328124,-0.7464067935943604,0.13591575622558594,0.19635999202728271
1695713589446146300,20.272146240234374,-0.6579532623291016,0.13848590850830078,0.2759361267089844
1695713589465219800,20.2912197265625,-0.6686608791351318,0.16121768951416016,0.30835533142089844
1695713589484323800,20.31032373046875,-0.6657586097717285,0.12102603912353516,0.29863280057907104
1695713589503427800,20.329427734375,-0.6422796249389648,0.09885692596435547,0.27963393926620483
1695713589522501000,20.348501220703124,-0.6643524169921875,0.12504863739013672,0.27208131551742554
1695713589541605400,20.36760546875,-0.653602123260498,0.0989694595336914,0.2598860263824463
1695713589560678700,20.3866787109375,-0.6446421146392822,0.10948467254638672,0.24827510118484497
1695713589579782700,20.40578271484375,-0.7024486064910889,0.11528873443603516,0.2535090446472168
1695713589598856200,20.424856201171874,-0.7020442485809326,0.15903282165527344,0.20600217580795288
1695713589617960200,20.443960205078124,-0.7297806739807129,0.16479110717773438,0.20032614469528198
1695713589637064200,20.463064208984374,-0.8191540241241455,0.16094493865966797,0.12156188488006592
1695713589656168200,20.482168212890624,-0.8687522411346436,0.15376663208007812,0.10281330347061157
1695713589675272200,20.501272216796874,-0.7073976993560791,0.13052940368652344,0.1734974980354309
1695713589694345700,20.520345703125,-0.7635092735290527,0.11211109161376953,0.1531655192375183
1695713589713449700,20.53944970703125,-0.7518594264984131,0.10439395904541016,0.1516849398612976
1695713589732523300,20.558523193359374,-0.5945627689361572,0.1276874542236328,0.21015632152557373
1695713589751627300,20.577627197265624,-0.6511931419372559,0.1401681900024414,0.19992393255233765
1695713589770731300,20.596731201171874,-0.6430623531341553,0.1490316390991211,0.19610798358917236
1695713589789804800,20.6158046875,-0.575629472732544,0.14252090454101562,0.24559396505355835
1695713589808908800,20.63490869140625,-0.618790864944458,0.13208293914794922,0.27190423011779785
1695713589827982000,20.653982177734374,-0.6590390205383301,0.1227254867553711,0.27940797805786133
1695713589847086000,20.673086181640624,-0.5312211513519287,0.11930465698242188,0.2839609384536743
1695713589866159600,20.69215966796875,-0.4301490783691406,0.08935165405273438,0.24998730421066284
1695713589885263600,20.711263671875,-0.6012980937957764,0.0873727798461914,0.2633850574493408
1695713589904367600,20.73036767578125,-0.5283801555633545,0.11358165740966797,0.2844369411468506
1695713589923441200,20.749441162109374,-0.5988562107086182,0.11826133728027344,0.21774619817733765
1695713589942575600,20.76857568359375,-0.6398184299468994,0.11800003051757812,0.2073611617088318
1695713589961649200,20.787649169921874,-0.6672582626342773,0.12501144409179688,0.1800527572631836
1695713589980753200,20.806753173828124,-0.7425448894500732,0.1344900131225586,0.1725679636001587
1695713589999826700,20.82582666015625,-0.6494846343994141,0.14898109436035156,0.22008484601974487
1695713590018930700,20.8449306640625,-0.7290189266204834,0.12668228149414062,0.2254616916179657
1695713590038034700,20.86403466796875,-0.732830286026001,0.13647842407226562,0.1860903799533844
1695713590057108200,20.883108154296874,-0.6249971389770508,0.12384510040283203,0.1943659782409668
1695713590076212200,20.902212158203124,-0.6208515167236328,0.10764503479003906,0.17610356211662292
1695713590095285800,20.92128564453125,-0.6079742908477783,0.10795211791992188,0.23457613587379456
1695713590114389800,20.9403896484375,-0.6601941585540771,0.11644172668457031,0.2498660683631897
1695713590133463000,20.959463134765624,-0.7000367641448975,0.1310415267944336,0.24509352445602417
1695713590152567000,20.978567138671874,-0.6856482028961182,0.12684059143066406,0.2082202136516571
1695713590171671000,20.997671142578124,-0.6309583187103271,0.12508296966552734,0.19314044713974
1695713590190744600,21.01674462890625,-0.640068769454956,0.1151885986328125,0.19848600029945374
1695713590209848600,21.0358486328125,-0.6464674472808838,0.1028451919555664,0.23627763986587524
1695713590228952600,21.05495263671875,-0.6021859645843506,0.10132026672363281,0.25160327553749084
1695713590248056600,21.074056640625,-0.66794753074646,0.0877685546875,0.20839595794677734
1695713590267130000,21.093130126953124,-0.6121697425842285,0.08044719696044922,0.16222575306892395
1695713590286234000,21.112234130859374,-0.626861572265625,0.10988235473632812,0.14942258596420288
1695713590305338000,21.131338134765624,-0.6413524150848389,0.10611152648925781,0.1687910258769989
1695713590324411600,21.15041162109375,-0.664438009262085,0.12488269805908203,0.1495605707168579
1695713590343515600,21.169515625,-0.6164970397949219,0.12479877471923828,0.1504765748977661
1695713590362589200,21.188589111328124,-0.6355845928192139,0.12242698669433594,0.16331037878990173
1695713590381693200,21.207693115234374,-0.6690099239349365,0.1473064422607422,0.17995724081993103
1695713590400766700,21.2267666015625,-0.6421432495117188,0.1497793197631836,0.1592310667037964
1695713590419870700,21.24587060546875,-0.7180905342102051,0.13544273376464844,0.09468263387680054
1695713590438974700,21.264974609375,-0.608877420425415,0.15564346313476562,0.12030413746833801
1695713590458048000,21.284048095703124,-0.6164195537567139,0.17699527740478516,0.19450581073760986
1695713590477152000,21.303152099609374,-0.6762115955352783,0.124847412109375,0.20013347268104553
1695713590496225500,21.3222255859375,-0.5350289344787598,0.10597705841064453,0.2480449676513672
1695713590515390700,21.341390625,-0.6250653266906738,0.12708187103271484,0.24868234992027283
1695713590534433500,21.36043359375,-0.6804611682891846,0.13132476806640625,0.1897520124912262
1695713590553537500,21.37953759765625,-0.4753420352935791,0.09300899505615234,0.19444477558135986
1695713590572641500,21.3986416015625,-0.5340566635131836,0.08650875091552734,0.17461705207824707
1695713590591715000,21.417715087890624,-0.5839962959289551,0.08584880828857422,0.19602206349372864
1695713590610819000,21.436819091796874,-0.5583217144012451,0.0948333740234375,0.2129461169242859
1695713590629892600,21.455892578125,-0.5818417072296143,0.10480213165283203,0.20220381021499634
1695713590648996600,21.47499658203125,-0.5897731781005859,0.108795166015625,0.19227108359336853
1695713590668070100,21.494070068359374,-0.6331207752227783,0.0984811782836914,0.150829017162323
1695713590687174100,21.513174072265624,-0.6436378955841064,0.08947944641113281,0.16672974824905396
1695713590706278100,21.532278076171874,-0.6129922866821289,0.11023235321044922,0.18185749650001526
1695713590725351700,21.5513515625,-0.5804731845855713,0.1003561019897461,0.18585172295570374
1695713590744455700,21.57045556640625,-0.5204365253448486,0.10701560974121094,0.22053200006484985
1695713590763529000,21.589529052734374,-0.5558273792266846,0.08615589141845703,0.2537075877189636
1695713590782633000,21.608633056640624,-0.5300946235656738,0.0841970443725586,0.28044185042381287
1695713590801737000,21.627737060546874,-0.542078971862793,0.12839508056640625,0.2732280492782593
1695713590820841000,21.646841064453124,-0.5889091491699219,0.1525859832763672,0.19425687193870544
1695713590839945200,21.6659453125,-0.5826406478881836,0.13281726837158203,0.22760367393493652
1695713590859018500,21.6850185546875,-0.6492066383361816,0.11188888549804688,0.20183604955673218
1695713590878122500,21.70412255859375,-0.7082028388977051,0.12284374237060547,0.13507330417633057
1695713590897196000,21.723196044921874,-0.7590582370758057,0.1539163589477539,0.0946626365184784
1695713590916300000,21.742300048828124,-0.7045915126800537,0.14986705780029297,0.07145136594772339
1695713590935373600,21.76137353515625,-0.660374641418457,0.12343883514404297,0.0452272891998291
1695713590954477600,21.7804775390625,-0.592923641204834,0.05326557159423828,0.15079128742218018
1695713590973581600,21.79958154296875,-0.629863977432251,0.04493522644042969,0.23242121934890747
1695713590992655000,21.818655029296874,-0.5716452598571777,0.12350273132324219,0.3234959840774536
1695713591011759000,21.837759033203124,-0.44768762588500977,0.12269783020019531,0.3112512528896332
1695713591030832600,21.85683251953125,-0.633558988571167,0.1500110626220703,0.25895869731903076
1695713591049936600,21.8759365234375,-0.6493568420410156,0.15967559814453125,0.19320112466812134
1695713591069010000,21.895010009765624,-0.5675294399261475,0.09711456298828125,0.15975359082221985
1695713591088144600,21.91414453125,-0.4883394241333008,0.02512073516845703,0.21133631467819214
1695713591107248600,21.93324853515625,-0.4798154830932617,0.03114604949951172,0.31483733654022217
1695713591126322000,21.952322021484374,-0.5368869304656982,0.10093307495117188,0.3080880343914032
1695713591145426200,21.97142626953125,-0.5026519298553467,0.10214614868164062,0.1523909568786621
1695713591164499500,21.99049951171875,-0.4338061809539795,0.08323192596435547,0.09267088770866394
1695713591183603500,22.009603515625,-0.48859143257141113,0.12435626983642578,0.12937259674072266
1695713591202677000,22.028677001953124,-0.574425458908081,0.11899089813232422,0.1415576934814453
1695713591221781000,22.047781005859374,-0.5983502864837646,0.08759212493896484,0.0902605652809143
1695713591240885000,22.066885009765624,-0.36470746994018555,0.043356895446777344,0.05168747901916504
1695713591259958500,22.08595849609375,-0.3975181579589844,0.042476654052734375,0.0877082347869873
1695713591279062500,22.1050625,-0.5061244964599609,0.05447864532470703,0.12441730499267578
1695713591298136000,22.124135986328124,-0.46682310104370117,0.07362079620361328,0.16203874349594116
1695713591317240000,22.143239990234374,-0.4856853485107422,0.06402969360351562,0.19668370485305786
1695713591336313600,22.162313720703125,-0.5623161792755127,0.1053018569946289,0.20316773653030396
1695713591355417600,22.18141748046875,-0.665454626083374,0.11231422424316406,0.22254115343093872
1695713591374552000,22.200552001953124,-0.7682991027832031,0.1053466796875,0.16438406705856323
1695713591393625600,22.21962548828125,-0.778486967086792,0.13308238983154297,0.0978735089302063
1695713591412729600,22.2387294921875,-0.7676286697387695,0.0911865234375,0.05153733491897583
1695713591431803000,22.257802978515624,-0.6985988616943359,0.08418846130371094,0.07487839460372925
1695713591450937600,22.2769375,-0.6889176368713379,0.11320209503173828,0.07985436916351318
1695713591469980400,22.29598046875,-0.7374367713928223,0.12114334106445312,0.0002130270004272461
1695713591489084400,22.31508447265625,-0.7047984600067139,0.16518497467041016,-0.06689971685409546
1695713591508188400,22.3341884765625,-0.42592620849609375,0.17875194549560547,0.038042664527893066
1695713591527262000,22.353261962890624,-0.44362306594848633,0.13863277435302734,0.14119696617126465
1695713591546366000,22.372365966796874,-0.425952672958374,0.09327507019042969,0.26403337717056274
1695713591565439500,22.391439453125,-0.3542184829711914,0.10677051544189453,0.32845544815063477
1695713591584543500,22.41054345703125,-0.15099716186523438,-0.19661712646484375,0.5181081295013428
1695713591603617000,22.429616943359374,-0.5836939811706543,0.1737842559814453,0.15157544612884521
1695713591622721000,22.448720947265624,-0.9752578735351562,0.3727445602416992,0.5167532563209534
1695713591641825000,22.467824951171874,0.05215048789978027,-0.09495353698730469,0.21399223804473877
1695713591660929000,22.486928955078124,-0.5948619842529297,0.10745906829833984,-0.13152801990509033
1695713591680033000,22.506032958984374,-1.325819492340088,0.26187801361083984,-0.22815603017807007
1695713591699106600,22.5251064453125,-0.5179061889648438,0.5047998428344727,0.4399983286857605
1695713591718210600,22.54421044921875,-0.008547306060791016,0.06624698638916016,0.4124875068664551
1695713591737283800,22.563283935546874,-0.19568157196044922,-0.22169876098632812,-0.041466712951660156
1695713591756387800,22.582387939453124,-0.9045567512512207,-0.04328155517578125,0.07819551229476929
1695713591775491800,22.601491943359374,-0.6604123115539551,0.10912322998046875,0.1766985058784485
1695713591794565400,22.6205654296875,0.02074575424194336,0.18629169464111328,0.20751899480819702
1695713591813669400,22.63966943359375,-0.19206476211547852,0.26471424102783203,0.3116913437843323
1695713591832743000,22.658742919921874,-0.45200586318969727,0.10250568389892578,0.22023415565490723
1695713591851847000,22.677846923828124,-0.5980074405670166,-0.09126663208007812,0.12433892488479614
1695713591870920400,22.69692041015625,-0.6632776260375977,-0.11279678344726562,0.17279356718063354
1695713591890024400,22.7160244140625,-0.4174940586090088,0.05190277099609375,0.0991252064704895
1695713591909128400,22.73512841796875,-0.45044732093811035,0.11756229400634766,0.05507725477218628
1695713591928202000,22.754201904296874,-0.6186518669128418,0.07996082305908203,0.03245335817337036
1695713591947336400,22.77333642578125,-0.4719419479370117,0.07373237609863281,0.1790044903755188
1695713591966410000,22.792409912109374,-0.43949079513549805,0.11511802673339844,0.24650275707244873
1695713591985514000,22.811513916015624,-0.6223297119140625,0.07106399536132812,0.05313974618911743
1695713592004587500,22.83058740234375,-0.7105324268341064,0.06267356872558594,-0.13539373874664307
1695713592023691500,22.84969140625,-0.5673918724060059,0.14277172088623047,-0.031107723712921143
1695713592042795500,22.86879541015625,-0.5981655120849609,0.1351327896118164,0.07587617635726929
1695713592061868800,22.887868896484374,-0.5403966903686523,0.07191085815429688,0.20793312788009644
1695713592080972800,22.906972900390624,-0.5482170581817627,0.0681314468383789,0.23259246349334717
1695713592100046300,22.92604638671875,-0.45714569091796875,0.07384586334228516,0.1603681445121765
1695713592119150300,22.945150390625,-0.427506685256958,0.055739402770996094,0.10398924350738525
1695713592138254300,22.96425439453125,-0.44400668144226074,0.10158824920654297,0.09117668867111206
1695713592157328000,22.983327880859374,-0.5191855430603027,0.1022329330444336,0.13792026042938232
1695713592176431900,23.002431884765624,-0.5132322311401367,0.043849945068359375,0.1034395694732666
1695713592195505400,23.02150537109375,-0.45121145248413086,0.08880805969238281,0.1602509617805481
1695713592214609400,23.040609375,-0.46714234352111816,0.09449195861816406,0.06331312656402588
1695713592233713400,23.05971337890625,-0.4590938091278076,0.05390644073486328,0.08320140838623047
1695713592252817400,23.0788173828125,-0.4478139877319336,0.09964847564697266,0.2063734531402588
1695713592271921400,23.09792138671875,-0.43175721168518066,0.1086874008178711,0.28542107343673706
1695713592290995000,23.116994873046874,-0.4528162479400635,0.08900928497314453,0.22501450777053833
1695713592310099000,23.136098876953124,-0.5340118408203125,0.07870864868164062,0.1539812684059143
1695713592329172500,23.15517236328125,-0.4380784034729004,0.10406970977783203,0.07180720567703247
1695713592348276500,23.1742763671875,-0.42838072776794434,0.06793975830078125,0.08064502477645874
1695713592367349800,23.193349853515624,-0.442049503326416,0.07907581329345703,0.14316970109939575
1695713592386484500,23.212484375,-0.44002723693847656,0.07358646392822266,0.1984996199607849
1695713592405557800,23.231557861328124,-0.45212411880493164,0.05736541748046875,0.18139904737472534
1695713592424631300,23.25063134765625,-0.39929819107055664,0.05167675018310547,0.1620139479637146
1695713592443735300,23.2697353515625,-0.4250507354736328,0.055477142333984375,0.12956643104553223
1695713592462808800,23.288808837890624,-0.4636702537536621,0.054474830627441406,0.0647660493850708
1695713592481912800,23.307912841796874,-0.4424898624420166,0.08421134948730469,0.11576336622238159
1695713592500986400,23.326986328125,-0.5365338325500488,0.06881046295166016,0.08338570594787598
1695713592520120800,23.346120849609374,-0.47174930572509766,0.06431293487548828,0.09245103597640991
1695713592539224800,23.365224853515624,-0.4384119510650635,0.07053375244140625,0.12629491090774536
1695713592558298400,23.38429833984375,-0.478562593460083,0.08612346649169922,0.14391940832138062
1695713592577402400,23.40340234375,-0.49097561836242676,0.06493377685546875,0.15458130836486816
1695713592596476000,23.422475830078124,-0.4610278606414795,0.06398963928222656,0.1313820481300354
1695713592615580000,23.441579833984374,-0.4828917980194092,0.05601024627685547,0.08137142658233643
1695713592634653400,23.4606533203125,-0.4700770378112793,0.05157756805419922,0.07579201459884644
1695713592653757400,23.47975732421875,-0.4799926280975342,0.045032501220703125,0.047204792499542236
1695713592672861400,23.498861328125,-0.4529867172241211,0.0813913345336914,0.09551370143890381
1695713592691934700,23.517934814453124,-0.553361177444458,0.0916604995727539,0.11587786674499512
1695713592711038700,23.537038818359374,-0.4912896156311035,0.09141349792480469,0.07974982261657715
1695713592730112300,23.5561123046875,-0.4434373378753662,0.07221794128417969,0.10119873285293579
1695713592749216300,23.57521630859375,-0.5067825317382812,0.0877542495727539,0.19550055265426636
1695713592768288000,23.5942880859375,-0.51287841796875,0.06182670593261719,0.1727062463760376
1695713592787422500,23.61342236328125,-0.48575353622436523,0.05962085723876953,0.20029127597808838
1695713592806526500,23.6325263671875,-0.6368224620819092,0.0810384750366211,0.09693849086761475
1695713592825600000,23.65160009765625,-0.6340703964233398,0.05624866485595703,-0.06371593475341797
1695713592844704000,23.6707041015625,-0.36660218238830566,0.0852060317993164,-0.08935904502868652
1695713592863777300,23.68977734375,-0.4645819664001465,0.15786457061767578,0.10609704256057739
1695713592882881500,23.708881591796874,-0.5503683090209961,0.1507740020751953,0.28022295236587524
1695713592901954800,23.727954833984374,-0.5232248306274414,0.08446025848388672,0.256236732006073
1695713592921058800,23.747058837890624,-0.4015805721282959,0.06719017028808594,0.17098432779312134
1695713592940162800,23.766162841796874,-0.43044185638427734,0.06137561798095703,0.12420046329498291
1695713592959236400,23.785236328125,-0.47315263748168945,0.10167407989501953,0.06683492660522461
1695713592978340400,23.80434033203125,-0.4707503318786621,0.06855297088623047,0.07758510112762451
1695713592997414000,23.823413818359374,-0.3825700283050537,0.08072471618652344,0.11126148700714111
1695713593016518000,23.842517822265624,-0.3514564037322998,0.084564208984375,0.10656702518463135
1695713593035591400,23.86159130859375,-0.4669613838195801,0.09432315826416016,0.0813867449760437
1695713593054695400,23.8806953125,-0.5199995040893555,0.12151908874511719,0.11727660894393921
1695713593073799400,23.89979931640625,-0.4005749225616455,0.13809776306152344,0.16019576787948608
1695713593092903400,23.9189033203125,-0.4277684688568115,0.06941413879394531,0.17943093180656433
1695713593112007400,23.93800732421875,-0.40715956687927246,0.057585716247558594,0.18111351132392883
1695713593131081000,23.9570810546875,-0.43506360054016113,0.1002035140991211,0.12223690748214722
1695713593150185000,23.97618505859375,-0.3646113872528076,0.07757091522216797,0.15656816959381104
1695713593169258200,23.99525830078125,-0.28374648094177246,0.09412288665771484,0.18876466155052185
1695713593188362200,24.0143623046875,-0.3002278804779053,0.11363410949707031,0.16805431246757507
1695713593207466500,24.033466552734374,-0.43943285942077637,-0.021353721618652344,0.22628942131996155
1695713593226539800,24.052539794921874,-0.3715524673461914,-0.018614768981933594,0.2214181125164032
1695713593245643800,24.071643798828124,-0.42325925827026367,0.020959854125976562,0.15328678488731384
1695713593264717300,24.09071728515625,-0.39298343658447266,0.0617828369140625,0.15736931562423706
1695713593283821300,24.1098212890625,-0.4776022434234619,0.06099700927734375,0.10879209637641907
1695713593302894800,24.128894775390624,-0.4689822196960449,0.05687236785888672,0.1205456554889679
1695713593322029300,24.148029296875,-0.4632844924926758,0.046950340270996094,0.1359701156616211
1695713593341102800,24.167102783203124,-0.5047574043273926,0.07863044738769531,0.10090681910514832
1695713593360206800,24.186206787109374,-0.5325891971588135,0.1078033447265625,0.07532185316085815
