time,seconds_elapsed,z,y,x
1696081965574975200,0.041975341796875,9.189245223999023,3.6391866207122803,0.31364041566848755
1696081965584975000,0.05197509765625,9.083900451660156,3.624821424484253,0.37828385829925537
1696081965594975200,0.061975341796875,9.050381660461426,3.603273630142212,0.40701428055763245
1696081965604975000,0.07197509765625,9.088688850402832,3.6080620288848877,0.37828385829925537
1696081965614975200,0.081975341796875,9.184456825256348,3.6320040225982666,0.3734954595565796
1696081965624975000,0.09197509765625,9.270648002624512,3.60566782951355,0.3878606855869293
1696081965634975200,0.101975341796875,9.328108787536621,3.5721490383148193,0.33518823981285095
1696081965644975000,0.11197509765625,9.330503463745117,3.598485231399536,0.2537853717803955
1696081965654975200,0.121975341796875,9.301773071289062,3.6104562282562256,0.3232172429561615
1696081965664975000,0.13197509765625,9.268254280090332,3.5410242080688477,0.3734954595565796
1696081965674975200,0.141975341796875,9.234735488891602,3.5027170181274414,0.3687070608139038
1696081965684975000,0.15197509765625,9.237129211425781,3.5721490383148193,0.3423708379268646
1696081965694975200,0.161975341796875,9.206005096435547,3.576937437057495,0.2944868206977844
1696081965704975000,0.17197509765625,9.110237121582031,3.5745432376861572,0.2849099934101105
1696081965714975200,0.181975341796875,9.069535255432129,3.579331636428833,0.33518823981285095
1696081965724975400,0.191975341796875,9.019257545471191,3.5649664402008057,0.33279404044151306
1696081965734975200,0.201975341796875,8.995314598083496,3.5434184074401855,0.3471592366695404
1696081965744975400,0.211975341796875,9.01207447052002,3.531447410583496,0.38546648621559143
1696081965754975200,0.221975341796875,9.095871925354004,3.5266590118408203,0.395043283700943
1696081965764975400,0.231975341796875,9.241917610168457,3.536235809326172,0.31603461503982544
1696081965774975200,0.241975341796875,9.292196273803711,3.576937437057495,0.2825157940387726
1696081965784975400,0.251975341796875,9.208398818969727,3.5625722408294678,0.28730419278144836
1696081965794975200,0.261975341796875,9.088688850402832,3.536235809326172,0.3064578175544739
1696081965804975400,0.271975341796875,8.937853813171387,3.5697548389434814,0.28730419278144836
1696081965814975200,0.281975341796875,8.79659652709961,3.579331636428833,0.2561795711517334
1696081965824975400,0.291975341796875,8.712799072265625,3.6320040225982666,0.1867477297782898
1696081965834975200,0.301975341796875,8.676886558532715,3.6798880100250244,0.1628057211637497
1696081965844975400,0.311975341796875,8.612242698669434,3.6750996112823486,0.14604631066322327
1696081965854975200,0.321975341796875,8.564358711242676,3.6176388263702393,0.24899697303771973
1696081965864975400,0.331975341796875,8.542811393737793,3.5266590118408203,0.30885201692581177
1696081965874975200,0.341975341796875,8.600272178649902,3.4620156288146973,0.3280056416988373
1696081965884975400,0.351975341796875,8.748712539672852,3.5218706130981445,0.40222588181495667
1696081965894975200,0.361975341796875,8.870816230773926,3.6104562282562256,0.43095630407333374
1696081965904975400,0.371975341796875,9.009679794311523,3.6559460163116455,0.395043283700943
1696081965914975200,0.381975341796875,9.129390716552734,3.6774938106536865,0.2825157940387726
1696081965924975400,0.391975341796875,9.117419242858887,3.663128614425659,0.2106897532939911
1696081965934975200,0.401975341796875,8.997709274291992,3.6176388263702393,0.24181437492370605
1696081965944975400,0.411975341796875,8.854057312011719,3.5697548389434814,0.30885201692581177
1696081965954975200,0.421975341796875,8.846874237060547,3.5721490383148193,0.2944868206977844
1696081965964975400,0.431975341796875,8.842085838317871,3.603273630142212,0.26815059781074524
1696081965974975200,0.441975341796875,8.849268913269043,3.550601005554199,0.26815059781074524
1696081965984975400,0.451975341796875,8.861239433288574,3.5170822143554688,0.3016694188117981
1696081965994975200,0.461975341796875,8.901941299438477,3.5697548389434814,0.23942017555236816
1696081966004975400,0.471975341796875,8.818143844604492,3.6320040225982666,0.14365209639072418
1696081966014975200,0.481975341796875,8.74152946472168,3.5889084339141846,0.19871874153614044
1696081966024975400,0.491975341796875,8.585906982421875,3.529053211212158,0.14365209639072418
1696081966034975200,0.501975341796875,8.636184692382812,3.332728862762451,0.3064578175544739
1696081966044975400,0.511975341796875,8.61463737487793,3.581725835800171,0.05985504388809204
1696081966054975200,0.521975341796875,8.423100471496582,3.2585084438323975,-0.4189853072166443
1696081966064975400,0.531975341796875,8.31057357788086,3.734954595565796,0.14365209639072418
1696081966074975200,0.541975341796875,8.152556419372559,3.8570590019226074,0.4165911078453064
1696081966084975400,0.551975341796875,7.9753851890563965,3.643975019454956,0.395043283700943
1696081966094975200,0.561975341796875,7.977779388427734,3.603273630142212,0.3663128614425659
1696081966104975400,0.571975341796875,8.061576843261719,3.428496837615967,0.19393034279346466
1696081966114975200,0.581975341796875,8.171710014343262,3.0765492916107178,0.07182604819536209
1696081966124975400,0.591975341796875,8.334515571594238,2.9544448852539062,0.1364694982767105
1696081966134975200,0.601975341796875,8.585906982421875,2.875436305999756,0.5841852426528931
1696081966144975400,0.611975341796875,8.727164268493652,2.8203697204589844,0.5937620401382446
1696081966154975200,0.621975341796875,8.588300704956055,2.9903578758239746,0.2968810200691223
1696081966164975400,0.631975341796875,8.37761116027832,3.141192674636841,-0.05506663769483566
1696081966174975200,0.641975341796875,8.281843185424805,3.203441858291626,-0.35434186458587646
1696081966184975400,0.651975341796875,8.456619262695312,3.1914708614349365,-0.40462008118629456
1696081966194975200,0.661975341796875,8.43507194519043,3.1268274784088135,-0.5602431893348694
1696081966204975400,0.671975341796875,8.233959197998047,3.0310592651367188,-0.47644615173339844
1696081966214975200,0.681975341796875,8.01848030090332,2.964021682739258,-0.22744916379451752
1696081966224975400,0.691975341796875,7.72399377822876,2.8131868839263916,0.043095629662275314
1696081966234975200,0.701975341796875,7.520486831665039,2.7293899059295654,0.49320554733276367
1696081966244975400,0.711975341796875,7.439084053039551,2.6360161304473877,0.9528923034667969
1696081966254975200,0.721975341796875,7.412747859954834,2.609679937362671,1.4173674583435059
1696081966264975400,0.731975341796875,7.597101211547852,2.626439332962036,1.8626888990402222
1696081966274975200,0.741975341796875,7.637802600860596,2.779668092727661,2.346317768096924
1696081966284975400,0.751975341796875,7.515698432922363,2.8586769104003906,2.87064790725708
1696081966294975200,0.761975341796875,7.623437404632568,2.784456491470337,3.2824504375457764
1696081966304975400,0.771975341796875,7.601889610290527,2.6216509342193604,3.8594532012939453
1696081966314975200,0.781975341796875,7.498939037322998,2.3056161403656006,4.469974517822266
1696081966324975400,0.791975341796875,7.501333236694336,1.7046716213226318,4.587290287017822
1696081966334975200,0.801975341796875,6.969820499420166,1.5179238319396973,4.393360137939453
1696081966344975400,0.811975341796875,6.062417984008789,1.5921441316604614,4.264073371887207
1696081966354975200,0.821975341796875,2.9089550971984863,2.497152328491211,4.371812343597412
1696081966364975600,0.8319755859375,2.1595699787139893,3.0190882682800293,4.81473970413208
1696081966374975500,0.8419755859375,3.7445313930511475,2.8586769104003906,4.704606533050537
1696081966384975600,0.8519755859375,2.935291290283203,2.185906171798706,4.845864295959473
1696081966394975500,0.8619755859375,1.7070658206939697,1.4484920501708984,5.095160484313965
1696081966404975600,0.8719755859375,0.45250412821769714,1.139639973640442,5.116708278656006
1696081966414975500,0.8819755859375,-0.09576806426048279,1.0127472877502441,4.7836151123046875
1696081966424975600,0.8919755859375,-0.016759412363171577,0,4.642356872558594
1696081966434975500,0.9019755859375,-0.3878606855869293,-2.293645143508911,5.717652797698975
1696081966444975600,0.9119755859375,-1.194706678390503,-4.264073371887207,6.617872714996338
1696081966454975500,0.9219755859375,-1.625662922859192,-5.262754440307617,6.704063892364502
1696081966464975600,0.9319755859375,-1.4269442558288574,-5.329792022705078,6.155791759490967
1696081966474975500,0.9419755859375,-0.828393816947937,-5.092766284942627,5.164592266082764
1696081966484977000,0.951976806640625,0.5003881454467773,-5.018546104431152,4.158728122711182
1696081966494976800,0.961976806640625,2.0422539710998535,-5.0807952880859375,3.4404678344726562
1696081966504977000,0.971976806640625,3.4524388313293457,-5.152621269226074,3.5721490383148193
1696081966514976800,0.981976806640625,4.185064792633057,-5.535693645477295,4.548983097076416
1696081966524977400,0.991977294921875,4.223371982574463,-6.016928195953369,6.31141471862793
1696081966534977300,1.001977294921875,3.60566782951355,-6.3880295753479,8.25311279296875
1696081966544977400,1.011977294921875,2.832340717315674,-6.29944372177124,10.44620132446289
1696081966554977300,1.021977294921875,2.2840683460235596,-6.012139797210693,13.087005615234375
1696081966564977400,1.031977294921875,2.276885747909546,-5.7846903800964355,15.74965763092041
1696081966574977300,1.041977294921875,2.806004285812378,-5.68892240524292,17.84937286376953
1696081966584977400,1.051977294921875,3.485957622528076,-5.751171588897705,19.12308692932129
1696081966594977300,1.061977294921875,4.3622355461120605,-5.746383190155029,19.72642707824707
1696081966604977400,1.071977294921875,5.289090633392334,-5.399224281311035,20.248361587524414
1696081966614977300,1.081977294921875,6.280290126800537,-4.915595531463623,21.421520233154297
1696081966624977400,1.091977294921875,6.917148113250732,-4.338293552398682,23.035213470458984
1696081966634977000,1.10197705078125,7.197269439697266,-4.041412353515625,24.87425994873047
1696081966644977000,1.111976806640625,7.029675483703613,-3.84269380569458,26.370635986328125
1696081966654977000,1.12197705078125,6.766313076019287,-4.19224739074707,26.454431533813477
1696081966664976600,1.1319765625,5.971438407897949,-3.648763418197632,27.151145935058594
1696081966674976800,1.141976806640625,4.76924991607666,-3.1866824626922607,26.16712760925293
1696081966684976600,1.1519765625,3.9887399673461914,-3.466804027557373,23.31294059753418
1696081966694976800,1.161976806640625,2.604891538619995,-2.8371291160583496,21.66094207763672
1696081966704976600,1.1719765625,1.6759412288665771,-2.2625205516815186,20.93789291381836
1696081966714976800,1.181976806640625,2.8203697204589844,-3.2561142444610596,18.019359588623047
1696081966724976600,1.1919765625,2.8610711097717285,-4.290409564971924,15.160683631896973
1696081966734976800,1.201976806640625,0.9409212470054626,-4.264073371887207,14.090176582336426
1696081966744976600,1.2119765625,-0.9792284965515137,-2.0590133666992188,16.08005714416504
1696081966754976800,1.221976806640625,-1.9728221893310547,-2.406172752380371,16.08484649658203
1696081966764976600,1.2319765625,-2.6408045291900635,-3.9863457679748535,14.60492992401123
1696081966774976800,1.241976806640625,-3.557783842086792,-3.5649664402008057,14.241010665893555
1696081966784975400,1.251975341796875,-3.3854012489318848,-3.5027170181274414,12.44536018371582
1696081966794975500,1.2619755859375,-3.1507694721221924,-3.071760892868042,10.86518669128418
1696081966804975400,1.271975341796875,-3.0190882682800293,-2.52109432220459,8.913911819458008
1696081966814975500,1.2819755859375,-3.1866824626922607,-2.2601263523101807,6.768707275390625
1696081966824974800,1.291974853515625,-3.2848446369171143,-1.900996208190918,4.345476150512695
1696081966834975000,1.30197509765625,-3.1962592601776123,-1.2401964664459229,1.8962076902389526
1696081966844974800,1.311974853515625,-2.9951462745666504,-0.3926490843296051,-0.09576806426048279
1696081966854975000,1.32197509765625,-2.75812029838562,0.49320554733276367,-1.6352397203445435
1696081966864974800,1.331974853515625,-2.360682964324951,1.1635819673538208,-2.7748796939849854
1696081966874975000,1.34197509765625,-1.764526605606079,1.7118542194366455,-3.3710360527038574
1696081966884974300,1.351974365234375,-1.139639973640442,2.027888774871826,-3.648763418197632
1696081966894974500,1.361974365234375,-0.7182605266571045,2.0661959648132324,-3.797203779220581
1696081966904974300,1.371974365234375,-0.5291185975074768,1.745373010635376,-3.9432501792907715
1696081966914974500,1.381974365234375,-0.6033388376235962,1.534683346748352,-3.9456443786621094
1696081966924974300,1.391974365234375,-0.8738836050033569,1.4221558570861816,-4.034229755401611
1696081966934974700,1.401974609375,-1.4867992401123047,1.4628572463989258,-3.847482204437256
1696081966944974800,1.411974853515625,-1.5634137392044067,1.7286136150360107,-2.8874073028564453
1696081966954974700,1.421974609375,-1.5705963373184204,1.6663644313812256,-1.802833914756775
1696081966964974800,1.431974853515625,-1.6543933153152466,0.6703764796257019,-0.1604115068912506
1696081966974974700,1.441974609375,-1.7621324062347412,-0.48602294921875,1.3503297567367554
1696081966984974800,1.451974853515625,-2.03507137298584,-1.3455413579940796,2.8131868839263916
1696081966994974700,1.461974609375,-2.52109432220459,-1.4844050407409668,4.355052947998047
1696081967004974800,1.471974853515625,-3.380612850189209,-1.0271124839782715,6.392817974090576
1696081967014974700,1.481974609375,-4.2760443687438965,-0.933738648891449,8.250718116760254
1696081967024974800,1.491974853515625,-5.186140060424805,-1.314416766166687,10.642525672912598
1696081967034974700,1.501974609375,-6.105513572692871,-2.4660277366638184,11.604994773864746
1696081967044974800,1.511974853515625,-7.087136268615723,-3.9193081855773926,11.308114051818848
1696081967054974700,1.521974609375,-8.506897926330566,-4.649539470672607,10.44620132446289
1696081967064974800,1.531974853515625,-9.737517356872559,-4.352658748626709,10.503662109375
1696081967074974700,1.541974609375,-10.111013412475586,-3.0765492916107178,11.889904975891113
1696081967084974800,1.551974853515625,-8.873210906982422,-2.190694570541382,12.756606101989746
1696081967094974700,1.561974609375,-6.988974094390869,-1.900996208190918,11.6552734375
1696081967104974800,1.571974853515625,-4.9491143226623535,-1.9057846069335938,9.593865394592285
1696081967114974700,1.581974609375,-3.3063924312591553,-1.9823989868164062,9.004891395568848
1696081967124974800,1.591974853515625,-2.5905263423919678,-2.3702597618103027,9.842862129211426
1696081967134974700,1.601974609375,-3.043030261993408,-2.3271639347076416,11.523591995239258
1696081967144974600,1.611974609375,-2.2194249629974365,-3.1866824626922607,15.649101257324219
1696081967154974700,1.621974609375,-2.164358377456665,-3.825934410095215,17.31067657470703
1696081967164974600,1.631974609375,-6.787860870361328,-1.403002142906189,14.315231323242188
1696081967174974700,1.641974609375,-7.635408401489258,-2.5761611461639404,13.788506507873535
1696081967184975000,1.65197509765625,-0.30885201692581177,-4.793191909790039,19.92514419555664
1696081967194975700,1.661975830078125,5.5237226486206055,-4.855441093444824,22.40314292907715
1696081967204975900,1.671975830078125,2.5498247146606445,-2.2864625453948975,16.92760467529297
1696081967214975700,1.681975830078125,2.1811177730560303,-1.6328455209732056,11.535563468933105
1696081967224976000,1.691975830078125,3.378218650817871,-2.188300371170044,9.464578628540039
1696081967234975700,1.701975830078125,2.4612393379211426,-0.06224924325942993,11.063905715942383
1696081967244975400,1.711975341796875,2.3056161403656006,-1.0749965906143188,12.574646949768066
1696081967254975500,1.7219755859375,2.123656988143921,-1.455674648284912,13.707103729248047
1696081967264975400,1.731975341796875,0.9289502501487732,-1.9273324012756348,12.543521881103516
1696081967274975500,1.7419755859375,0.7781155705451965,0.19632454216480255,10.733505249023438
1696081967284975400,1.751975341796875,-2.3271639347076416,1.8698714971542358,7.27148962020874
1696081967294975500,1.7619755859375,-1.4053963422775269,0.7374141216278076,8.171710014343262
1696081967304975400,1.771975341796875,-0.09816227108240128,0.5123591423034668,12.361562728881836
1696081967314975500,1.7819755859375,-0.24899697303771973,-0.689530074596405,15.950770378112793
1696081967324975400,1.791975341796875,-4.003105163574219,-2.827552318572998,17.083227157592773
1696081967334975500,1.8019755859375,-7.898770809173584,-4.137180328369141,16.173431396484375
1696081967344974800,1.811974853515625,-21.56277847290039,-4.752490520477295,5.181351661682129
1696081967354974500,1.821974365234375,-13.438953399658203,-3.9887399673461914,5.715258598327637
1696081967364974600,1.831974609375,-5.849334239959717,-4.1156325340271,4.10366153717041
1696081967374974500,1.841974365234375,-3.799597978591919,-2.892195701599121,-0.35673606395721436
1696081967384974600,1.851974609375,-5.040093898773193,-0.8834604024887085,-3.490746021270752
1696081967394974500,1.861974365234375,-3.529053211212158,-0.4620809257030487,-5.226841449737549
1696081967404974600,1.871974609375,-1.623268723487854,-0.6224924325942993,-4.469974517822266
1696081967414974500,1.881974365234375,-0.023942016065120697,-1.5418659448623657,-4.553771495819092
1696081967424974600,1.891974609375,1.6184803247451782,-2.9759926795959473,-6.210858345031738
1696081967434974500,1.901974365234375,2.9041666984558105,-4.572925090789795,-7.331345081329346
1696081967444974300,1.911974365234375,4.692635536193848,-6.852504730224609,-6.222829341888428
1696081967454974500,1.921974365234375,2.985569477081299,-8.001721382141113,-4.474762916564941
1696081967464974600,1.931974609375,1.2545616626739502,-10.000880241394043,-0.993593692779541
1696081967474974500,1.941974365234375,1.8411411046981812,-12.114959716796875,0.2777273952960968
1696081967484974600,1.951974609375,2.1164743900299072,-12.363956451416016,2.52109432220459
1696081967494973700,1.9619736328125,2.6408045291900635,-13.675979614257812,8.777442932128906
1696081967504973800,1.971973876953125,2.4851813316345215,-16.39848518371582,13.36233901977539
1696081967514973700,1.9819736328125,2.7461493015289307,-17.858949661254883,16.31708335876465
1696081967524973800,1.991973876953125,8.719982147216797,-19.652206420898438,20.779874801635742
1696081967534973700,2.0019736328125,17.803882598876953,-25.278879165649414,28.42725372314453
1696081967544974000,2.01197412109375,12.679991722106934,-23.98331642150879,25.017911911010742
1696081967554974200,2.02197412109375,10.597036361694336,-19.807828903198242,20.131046295166016
1696081967564974000,2.03197412109375,7.7072343826293945,-11.892298698425293,11.245864868164062
1696081967574974200,2.04197412109375,4.7620673179626465,-6.814197540283203,6.862081527709961
1696081967584974000,2.05197412109375,3.026270866394043,-5.152621269226074,4.857835292816162
1696081967594974200,2.06197412109375,1.5873557329177856,-4.845864295959473,4.268861770629883
1696081967604974000,2.07197412109375,-0.7829039692878723,-4.663905143737793,4.043806552886963
1696081967614974200,2.08197412109375,-1.6855180263519287,-4.278438568115234,4.357447147369385
1696081967624974000,2.09197412109375,-1.455674648284912,-4.584896087646484,4.264073371887207
1696081967634974200,2.10197412109375,-0.6775590777397156,-4.611232280731201,4.273650169372559
1696081967644974600,2.111974609375,0.35673606395721436,-4.790797710418701,4.838681697845459
1696081967654975000,2.12197509765625,0.9959878921508789,-5.32739782333374,5.928342819213867
1696081967664975000,2.13197509765625,1.2258312702178955,-6.139032363891602,6.634632110595703
1696081967674975000,2.14197509765625,1.5322890281677246,-7.350498676300049,7.204452037811279
1696081967684975000,2.15197509765625,2.0231003761291504,-8.514080047607422,7.017704486846924
1696081967694975000,2.16197509765625,2.389413356781006,-8.83250904083252,6.416759967803955
1696081967704975000,2.17197509765625,2.557007312774658,-8.88757610321045,5.6769514083862305
1696081967714975000,2.18197509765625,2.252943754196167,-8.779836654663086,4.94193172454834
1696081967724975000,2.19197509765625,1.7693150043487549,-8.729558944702148,4.261679172515869
1696081967734975000,2.20197509765625,1.8195933103561401,-7.501333236694336,4.062960147857666
1696081967744975400,2.211975341796875,2.3343467712402344,-3.4524388313293457,0.090979665517807
1696081967754975200,2.221975341796875,5.047276496887207,1.3503297567367554,-0.12449848651885986
1696081967764975400,2.231975341796875,3.552995204925537,0.1867477297782898,2.674323320388794
1696081967774975200,2.241975341796875,0.9983820915222168,-2.051830768585205,6.677727699279785
1696081967784975400,2.251975341796875,0.33518823981285095,-2.0590133666992188,6.957849502563477
1696081967794975200,2.261975341796875,-0.7015010714530945,-2.5977089405059814,6.033687591552734
1696081967804975400,2.271975341796875,-1.558625340461731,-3.4189200401306152,5.0784010887146
1696081967814975200,2.281975341796875,-3.069366693496704,-4.077325344085693,3.4835634231567383
1696081967824975400,2.291975341796875,-4.412513732910156,-4.141968727111816,2.5043349266052246
1696081967834975200,2.301975341796875,-4.884171485900879,-4.436455726623535,2.43011474609375
1696081967844975400,2.311975341796875,-4.288015365600586,-5.471050262451172,1.8100165128707886
1696081967854975200,2.321975341796875,-3.5482068061828613,-6.421548366546631,1.4772224426269531
1696081967864975400,2.331975341796875,-2.5306711196899414,-7.194875240325928,1.3192051649093628
1696081967874975200,2.341975341796875,-1.7525556087493896,-8.28663158416748,0.43335050344467163
1696081967884975400,2.351975341796875,0.2561795711517334,-9.96017837524414,0.33997663855552673
1696081967894975200,2.361975341796875,2.403778553009033,-14.693514823913574,3.2321722507476807
1696081967904975400,2.371975341796875,3.514688014984131,-22.78382110595703,8.820538520812988
1696081967918470400,2.385470458984375,3.1220390796661377,-25.822362899780273,10.003273963928223
1696081967928470300,2.39547021484375,2.3774423599243164,-17.734451293945312,6.783072471618652
1696081967938470400,2.405470458984375,0.028730420395731926,-13.000814437866211,6.481403350830078
1696081967948470300,2.41547021484375,0.33518823981285095,-19.498977661132812,8.262689590454102
1696081967958470400,2.425470458984375,0.12689268589019775,-18.074426651000977,6.639420509338379
1696081967968470500,2.435470458984375,-0.2513911724090576,-16.26919937133789,5.46147346496582
1696081967978470400,2.445470458984375,-0.44771572947502136,-14.403817176818848,4.060565948486328
1696081967988470500,2.455470458984375,-0.8068459630012512,-12.727875709533691,2.3582887649536133
1696081967998470400,2.465470458984375,-1.2545616626739502,-11.77977180480957,0.3663128614425659
1696081968008470500,2.475470458984375,-1.6065093278884888,-11.372756958007812,-0.9409212470054626
1696081968018470400,2.485470458984375,-0.8355764150619507,-10.81011962890625,-1.3766659498214722
1696081968028470500,2.495470458984375,0.07182604819536209,-7.94904899597168,-2.537853717803955
1696081968038470400,2.505470458984375,0.7972691655158997,-5.593154430389404,-1.403002142906189
1696081968048470500,2.515470458984375,2.2601263523101807,-4.953902721405029,1.6543933153152466
1696081968058470400,2.525470458984375,2.4396915435791016,-5.33697509765625,3.711012601852417
1696081968068470500,2.535470458984375,-0.1364694982767105,-5.940313816070557,4.750096321105957
1696081968078470400,2.545470458984375,1.0558429956436157,-6.567594528198242,6.287472724914551
1696081968088470500,2.555470458984375,1.7597382068634033,-7.783848762512207,6.1414265632629395
1696081968098470400,2.565470458984375,2.205059766769409,-8.779836654663086,5.459079265594482
1696081968108470500,2.575470458984375,1.8291701078414917,-9.366415977478027,4.666299343109131
1696081968118470400,2.585470458984375,1.0845733880996704,-9.613018989562988,3.892971992492676
1696081968128470500,2.595470458984375,0.2585737705230713,-9.766247749328613,3.4404678344726562
1696081968138470400,2.605470458984375,-0.40222588181495667,-9.756670951843262,3.2776620388031006
1696081968148470500,2.615470458984375,-0.9145850539207458,-9.675268173217773,3.3734302520751953
1696081968158470400,2.625470458984375,-1.2617442607879639,-9.52922248840332,3.6343982219696045
1696081968168470500,2.635470458984375,-1.6208745241165161,-9.366415977478027,4.134786128997803
1696081968178470400,2.645470458984375,-1.7693150043487549,-9.107842445373535,4.73573112487793
1696081968188470500,2.655470458984375,-1.5825673341751099,-8.827720642089844,5.126285076141357
1696081968198470400,2.665470458984375,-1.2090718746185303,-8.5595703125,5.133467674255371
1696081968208470500,2.675470458984375,-0.7876923680305481,-8.418312072753906,4.989815711975098
1696081968218470400,2.685470458984375,-0.48602294921875,-8.387187957763672,4.855441093444824
1696081968228470500,2.695470458984375,-0.3256114423274994,-8.459013938903809,4.7620673179626465
1696081968238470400,2.705470458984375,-0.3208230137825012,-8.547599792480469,4.661510944366455
1696081968248470500,2.715470458984375,-0.3998316824436188,-8.652944564819336,4.481945514678955
1696081968258470400,2.725470458984375,-0.42856210470199585,-8.763077735900879,4.244919776916504
1696081968268470500,2.735470458984375,-0.43335050344467163,-8.856451034545898,3.9671921730041504
1696081968278470400,2.745470458984375,-0.35434186458587646,-8.959402084350586,3.598485231399536
1696081968288470500,2.755470458984375,-0.2753331959247589,-9.055170059204102,3.2154128551483154
1696081968298470400,2.765470458984375,-0.22744916379451752,-9.150938034057617,2.9257144927978516
1696081968308470500,2.775470458984375,-0.21547815203666687,-9.237129211425781,2.7102363109588623
1696081968318470400,2.785470458984375,-0.2082955539226532,-9.237129211425781,2.5953147411346436
1696081968328470500,2.795470458984375,-0.1628057211637497,-9.146149635314941,2.6455929279327393
1696081968338470400,2.805470458984375,-0.15083470940589905,-9.064746856689453,2.8850131034851074
1696081968348470500,2.815470458984375,-0.1412578970193863,-9.038411140441895,3.2537200450897217
1696081968358470400,2.825470458984375,-0.15801730751991272,-9.081506729125977,3.557783842086792
1696081968368470500,2.835470458984375,-0.2585737705230713,-9.026439666748047,3.778050184249878
1696081968378470400,2.845470458984375,-0.38067805767059326,-8.930671691894531,3.9001545906066895
1696081968388470500,2.855470458984375,-0.43335050344467163,-8.79659652709961,3.971980571746826
1696081968398470400,2.865470458984375,-0.4118026793003082,-8.803778648376465,4.050989151000977
1696081968408470500,2.875470458984375,-0.4118026793003082,-8.88757610321045,4.079719543457031
1696081968418470400,2.885470458984375,-0.40222588181495667,-8.952219009399414,4.062960147857666
1696081968428470500,2.895470458984375,-0.40940847992897034,-8.976161003112793,3.976768970489502
1696081968438470400,2.905470458984375,-0.4165911078453064,-8.918700218200684,3.818751811981201
1696081968448470500,2.915470458984375,-0.42616790533065796,-8.827720642089844,3.670311212539673
1696081968458470400,2.925470458984375,-0.48602294921875,-8.854057312011719,3.5434184074401855
1696081968468470500,2.935470458984375,-0.5578489899635315,-8.933065414428711,3.406949043273926
1696081968478470400,2.945470458984375,-0.6033388376235962,-9.04319953918457,3.2800562381744385
1696081968488470500,2.955470458984375,-0.629675030708313,-9.158121109008789,3.134010076522827
1696081968498470400,2.965470458984375,-0.569819986820221,-9.165303230285645,2.940079689025879
1696081968508470500,2.975470458984375,-0.48602294921875,-9.17009162902832,2.738966703414917
1696081968518469600,2.9854697265625,-0.38546648621559143,-9.213187217712402,2.564189910888672
1696081968528469500,2.995469482421875,-0.2561795711517334,-9.308955192565918,2.4444799423217773
1696081968538469600,3.0054697265625,-0.15083470940589905,-9.38317584991455,2.315192937850952
1696081968548469500,3.015469482421875,-0.10055647045373917,-9.347262382507324,2.2361843585968018
1696081968558469600,3.0254697265625,-0.15322890877723694,-9.206005096435547,2.1930887699127197
1696081968568469500,3.035469482421875,-0.3016694188117981,-8.949825286865234,2.1954829692840576
1696081968578469600,3.0454697265625,-0.5434837937355042,-8.79659652709961,2.3942017555236816
1696081968588469500,3.055469482421875,-0.7733271718025208,-8.820538520812988,2.7269957065582275
1696081968598469600,3.0654697265625,-0.9840168952941895,-8.916306495666504,3.0837318897247314
1696081968608469500,3.075469482421875,-1.1324573755264282,-8.995314598083496,3.3207578659057617
1696081968618469600,3.0854697265625,-1.1971008777618408,-8.909123420715332,3.471592426300049
1696081968628469500,3.095469482421875,-1.1779472827911377,-8.753500938415527,3.6104562282562256
1696081968638469600,3.1054697265625,-1.1061211824417114,-8.753500938415527,3.864241600036621
1696081968648469500,3.115469482421875,-1.1851298809051514,-8.820538520812988,4.106055736541748
1696081968658469600,3.1254697265625,-1.434126853942871,-8.767866134643555,4.271255970001221
1696081968668469500,3.135469482421875,-1.8052281141281128,-8.638579368591309,4.2975921630859375
1696081968678469600,3.1454697265625,-2.1523873805999756,-8.509291648864746,4.367023944854736
1696081968688469500,3.155469482421875,-2.2361843585968018,-8.43507194519043,4.551377296447754
1696081968698469600,3.1654697265625,-2.2673089504241943,-8.569147109985352,4.879383087158203
1696081968708469500,3.175469482421875,-1.8411411046981812,-8.719982147216797,5.114314079284668
1696081968718469600,3.1854697265625,-1.0821791887283325,-8.794201850891113,5.176563262939453
1696081968728469500,3.195469482421875,-0.3926490843296051,-8.770259857177734,5.15740966796875
1696081968738469600,3.2054697265625,0.05506663769483566,-8.755894660949707,5.159803867340088
1696081968748469500,3.215469482421875,0.2106897532939911,-8.662521362304688,5.035305500030518
1696081968758470000,3.225469970703125,0.181959331035614,-8.571541786193848,4.841075897216797
1696081968768469800,3.2354697265625,0.1628057211637497,-8.576330184936523,4.580107688903809
1696081968778469600,3.2454697265625,0.07900865375995636,-8.652944564819336,4.158728122711182
1696081968788469800,3.2554697265625,-0.17717093229293823,-8.765471458435059,3.6774938106536865
1696081968798469600,3.2654697265625,-0.3495534360408783,-8.83250904083252,3.332728862762451
1696081968808469800,3.2754697265625,-0.4357447028160095,-9.028834342956543,3.112462282180786
1696081968818470700,3.285470703125,-0.5339069962501526,-9.220370292663574,2.937685489654541
1696081968828470500,3.295470458984375,-0.608127236366272,-9.296984672546387,2.8850131034851074
1696081968838470700,3.305470703125,-0.6033388376235962,-9.179668426513672,2.918531894683838
1696081968848470500,3.315470458984375,-0.5027823448181152,-8.839692115783691,3.2082302570343018
1696081968858470700,3.325470703125,-0.45489832758903503,-8.538022994995117,3.643975019454956
1696081968868470500,3.335470458984375,-0.5674257874488831,-8.32254409790039,4.323928356170654
1696081968878471200,3.34547119140625,-0.8451532125473022,-8.157344818115234,4.982633113861084
1696081968888471000,3.355470947265625,-1.1085153818130493,-7.929895401000977,5.5237226486206055
1696081968898471200,3.36547119140625,-1.3431471586227417,-7.745541572570801,5.928342819213867
1696081968908471000,3.375470947265625,-1.4724340438842773,-7.551611423492432,6.122272968292236
1696081968918471200,3.38547119140625,-1.5466543436050415,-7.455843448638916,6.079177379608154
1696081968928471000,3.395470947265625,-1.5466543436050415,-7.49654483795166,5.909189224243164
1696081968938471200,3.40547119140625,-1.3958195447921753,-7.565976619720459,5.557241439819336
1696081968948471000,3.415470947265625,-1.036689281463623,-7.750329971313477,5.114314079284668
1696081968958471200,3.42547119140625,-0.6871358752250671,-8.052000045776367,4.642356872558594
1696081968968471000,3.435470947265625,-0.38546648621559143,-8.394370079040527,4.129997730255127
1696081968978471200,3.44547119140625,-0.19871874153614044,-8.686463356018066,3.576937437057495
1696081968988471000,3.455470947265625,-0.10773907601833344,-8.978555679321289,3.1004912853240967
1696081968998471200,3.46547119140625,-0.13407529890537262,-9.280224800109863,2.829946517944336
1696081969008471000,3.475470947265625,-0.20111294090747833,-9.555558204650879,2.6384103298187256
1696081969018471200,3.48547119140625,-0.16998831927776337,-9.809343338012695,2.609679937362671
1696081969028471000,3.495470947265625,0.021547814831137657,-10.122983932495117,2.7126305103302
1696081969038471200,3.50547119140625,0.3495534360408783,-10.520421981811523,3.00711727142334
1696081969048471000,3.515470947265625,0.7589619159698486,-10.747870445251465,3.1938650608062744
1696081969058471000,3.525470947265625,1.2449848651885986,-10.64970874786377,3.4404678344726562
1696081969068471000,3.535470947265625,1.6089035272598267,-10.398317337036133,4.015076160430908
1696081969078471000,3.545470947265625,1.7142484188079834,-10.247482299804688,4.836287498474121
1696081969088471000,3.555470947265625,1.5897499322891235,-10.149320602416992,5.7631425857543945
1696081969098471000,3.565470947265625,1.2042834758758545,-10.182839393615723,6.634632110595703
1696081969108471000,3.575470947265625,0.6320692300796509,-10.383952140808105,7.498939037322998
1696081969118471000,3.585470947265625,0.08619125932455063,-10.64970874786377,8.07115364074707
1696081969128471000,3.595470947265625,-0.2825157940387726,-10.714351654052734,8.37761116027832
1696081969138471000,3.605470947265625,-0.2849099934101105,-10.589853286743164,8.142979621887207
1696081969148471000,3.615470947265625,0.43095630407333374,-10.297760963439941,7.580341815948486
1696081969158471000,3.625470947265625,1.821987509727478,-10.036792755126953,6.979397296905518
1696081969168471000,3.635470947265625,3.224989652633667,-10.020033836364746,6.704063892364502
1696081969178470400,3.645470458984375,3.9001545906066895,-10.360010147094727,7.020098686218262
1696081969188470500,3.655470458984375,3.7493197917938232,-10.609006881713867,7.455843448638916
1696081969198470400,3.665470458984375,3.136404275894165,-10.338461875915527,7.6641387939453125
1696081969208470500,3.675470458984375,2.612074136734009,-9.905111312866211,7.814973831176758
1696081969218470400,3.685470458984375,2.4396915435791016,-9.428665161132812,7.836521625518799
1696081969228470500,3.695470458984375,2.6144683361053467,-8.930671691894531,7.4678144454956055
1696081969238470400,3.705470458984375,2.6384103298187256,-8.415918350219727,6.948272705078125
1696081969248470500,3.715470458984375,2.315192937850952,-8.159738540649414,6.182127952575684
1696081969258470400,3.725470458984375,1.7573440074920654,-8.528446197509766,5.166986465454102
1696081969268470300,3.73547021484375,1.2713210582733154,-9.672874450683594,4.446032524108887
1696081969278470400,3.745470458984375,1.2497732639312744,-11.219528198242188,3.866635799407959
1696081969288470300,3.75547021484375,0.7876923680305481,-12.526762962341309,3.220201253890991
1696081969298470400,3.765470458984375,0.2968810200691223,-13.3982515335083,2.8610711097717285
1696081969308470300,3.77547021484375,-0.7398083209991455,-13.774141311645508,2.8586769104003906
1696081969318470400,3.785470458984375,-2.078166961669922,-13.85075569152832,3.043030261993408
1696081969328470300,3.79547021484375,-3.3949780464172363,-13.438953399658203,3.0190882682800293
1696081969338470400,3.805470458984375,-4.027047157287598,-12.885892868041992,2.999934673309326
1696081969348470300,3.81547021484375,-4.63517427444458,-12.435782432556152,3.335123062133789
1696081969358470400,3.825470458984375,-4.197035789489746,-12.088624000549316,3.909731388092041
1696081969368470300,3.83547021484375,-4.089296340942383,-12.067075729370117,3.84269380569458
1696081969378470400,3.845470458984375,-2.4660277366638184,-11.880328178405762,4.548983097076416
1696081969388470300,3.85547021484375,0.05985504388809204,-11.583447456359863,4.944325923919678
1696081969398470400,3.865470458984375,1.3527239561080933,-11.097424507141113,4.541800498962402
1696081969408470300,3.87547021484375,1.1899182796478271,-10.510845184326172,3.9264907836914062
1696081969418470400,3.885470458984375,0.6105214357376099,-9.945813179016113,3.0789434909820557
1696081969428470300,3.89547021484375,-0.2801215946674347,-9.466972351074219,2.231395959854126
1696081969438470400,3.905470458984375,-1.280897855758667,-9.069535255432129,2.0422539710998535
1696081969448470300,3.91547021484375,-1.644816517829895,-8.554781913757324,1.9129672050476074
1696081969458470400,3.925470458984375,-1.6711528301239014,-8.001721382141113,1.7860745191574097
1696081969468470500,3.935470458984375,-1.1492167711257935,-7.513304233551025,1.8842366933822632
1696081969478470400,3.945470458984375,-0.5722141861915588,-6.9363017082214355,2.049436569213867
1696081969488470500,3.955470458984375,-0.5817909836769104,-6.347328186035156,1.944091796875
1696081969498470400,3.965470458984375,-0.8619126081466675,-5.945102214813232,1.8195933103561401
1696081969508470500,3.975470458984375,-0.9289502501487732,-5.653009414672852,1.8722656965255737
1696081969518470400,3.985470458984375,-1.2330138683319092,-5.600337028503418,2.0231003761291504
1696081969528470500,3.995470458984375,-1.4460978507995605,-5.55245304107666,2.161964178085327
1696081969538470400,4.005470458984375,-1.4197616577148438,-5.569212436676025,2.229001760482788
1696081969548470500,4.015470458984375,-1.3886369466781616,-5.6099138259887695,2.38462495803833
1696081969558470400,4.025470458984375,-1.2976573705673218,-5.653009414672852,2.3750481605529785
1696081969568470500,4.035470458984375,-1.1540051698684692,-5.765536785125732,2.0590133666992188
1696081969578470400,4.045470458984375,-1.0821791887283325,-5.86848783493042,1.3239935636520386
1696081969588470500,4.055470458984375,-1.1324573755264282,-5.870882034301758,0.48602294921875
1696081969598470400,4.065470458984375,-1.1300631761550903,-5.703287601470947,-0.17477671802043915
1696081969608470500,4.075470458984375,-0.871489405632019,-5.363311290740967,-0.7661445140838623
1696081969618470400,4.085470458984375,-0.3423708379268646,-4.9275665283203125,-1.213860273361206
1696081969628470500,4.095470458984375,0.33758243918418884,-4.548983097076416,-1.5753847360610962
1696081969638470400,4.105470458984375,1.0606313943862915,-4.273650169372559,-1.7501614093780518
1696081969648470500,4.115470458984375,1.5849615335464478,-4.151545524597168,-1.3407529592514038
1696081969658470400,4.125470458984375,2.0207061767578125,-4.201824188232422,0.047884032130241394
1696081969668470500,4.135470458984375,2.7964274883270264,-4.347870349884033,2.3056161403656006
1696081969678470400,4.145470458984375,4.326322555541992,-4.728548526763916,4.963479518890381
1696081969688470500,4.155470458984375,7.202057838439941,-5.439925670623779,7.767089366912842
1696081969698470400,4.165470458984375,9.739912033081055,-6.31141471862793,10.764630317687988
1696081969708470500,4.175470458984375,10.565911293029785,-7.403171062469482,13.496414184570312
1696081969718470400,4.185470458984375,10.75265884399414,-9.148544311523438,15.656283378601074
1696081969728470500,4.195470458984375,10.747870445251465,-11.142913818359375,17.327436447143555
1696081969738470400,4.205470458984375,10.185233116149902,-12.579435348510742,18.5867862701416
1696081969748470500,4.215470458984375,9.146149635314941,-12.924200057983398,18.57960319519043
1696081969758470400,4.225470458984375,7.484573841094971,-12.01679801940918,15.38813304901123
1696081969768470300,4.23547021484375,5.72244119644165,-10.316914558410645,10.350433349609375
1696081969778470400,4.245470458984375,4.129997730255127,-8.327332496643066,6.2491655349731445
1696081969788470300,4.25547021484375,2.6815059185028076,-7.520486831665039,3.6798880100250244
1696081969798470400,4.265470458984375,1.3096283674240112,-8.806173324584961,1.50355863571167
1696081969808470300,4.27547021484375,1.656787633895874,-10.93461799621582,-0.42616790533065796
1696081969818470400,4.285470458984375,1.742978811264038,-12.921805381774902,-1.3886369466781616
1696081969828470300,4.29547021484375,2.583343744277954,-15.108011245727539,-0.7422025203704834
1696081969838470400,4.305470458984375,7.63301420211792,-17.217302322387695,3.4141316413879395
1696081969848470300,4.31547021484375,8.181286811828613,-16.783952713012695,7.319374084472656
1696081969858470400,4.325470458984375,3.1004912853240967,-12.699145317077637,6.3425397872924805
1696081969868470300,4.33547021484375,-6.071994781494141,-8.511686325073242,2.717418909072876
1696081969878470400,4.345470458984375,-11.008838653564453,-5.071218490600586,-0.2825157940387726
1696081969888470300,4.35547021484375,-10.020033836364746,-3.0861260890960693,-1.4413094520568848
1696081969898470400,4.365470458984375,-7.307403087615967,-2.410961151123047,-1.742978811264038
1696081969908470300,4.37547021484375,-5.2340240478515625,-2.9903578758239746,-1.0223240852355957
1696081969918470400,4.385470458984375,-4.316745758056641,-4.874594688415527,-0.5003881454467773
1696081969928470300,4.39547021484375,-3.706224203109741,-7.647379398345947,-0.07422025501728058
1696081969938470400,4.405470458984375,-3.2393548488616943,-10.340856552124023,0.9433154463768005
1696081969948470300,4.41547021484375,-3.7493197917938232,-12.435782432556152,1.9321208000183105
1696081969958470400,4.425470458984375,-4.618414878845215,-13.470078468322754,2.5785553455352783
1696081969968470500,4.435470458984375,-4.807557106018066,-13.484443664550781,3.0358476638793945
1696081969978470400,4.445470458984375,-4.197035789489746,-12.526762962341309,3.3662476539611816
1696081969988470500,4.455470458984375,-2.8107926845550537,-11.20276927947998,3.514688014984131
1696081969998470400,4.465470458984375,-0.7086837291717529,-9.952995300292969,3.9217023849487305
1696081970008470500,4.475470458984375,1.6663644313812256,-9.179668426513672,4.5825018882751465
1696081970018470400,4.485470458984375,3.1675288677215576,-8.806173324584961,5.317821025848389
1696081970028470500,4.495470458984375,3.07415509223938,-8.545205116271973,5.569212436676025
1696081970038470400,4.505470458984375,1.9991583824157715,-8.303390502929688,5.356128692626953
1696081970048470500,4.515470458984375,0.3926490843296051,-8.023268699645996,5.06643009185791
1696081970058470400,4.525470458984375,-0.7398083209991455,-7.795820236206055,4.671087741851807
1696081970068470500,4.535470458984375,-1.2042834758758545,-7.618649005889893,3.9456443786621094
1696081970078470400,4.545470458984375,-1.5083470344543457,-7.427113056182861,3.3231520652770996
1696081970088470500,4.555470458984375,-1.4772224426269531,-7.293037414550781,3.1292216777801514
1696081970098470400,4.565470458984375,-1.1563993692398071,-7.300220489501953,3.1316158771514893
1696081970108470500,4.575470458984375,-0.6224924325942993,-7.388805866241455,3.3255462646484375
1696081970118470400,4.585470458984375,-0.4572925269603729,-7.680898189544678,3.5003228187561035
1696081970128470500,4.595470458984375,-0.4189853072166443,-7.972990989685059,3.60566782951355
1696081970138470400,4.605470458984375,-0.11971008777618408,-8.166921615600586,3.624821424484253
1696081970148470500,4.615470458984375,0.2322375625371933,-8.147768020629883,3.428496837615967
1696081970158470400,4.625470458984375,0.7924807667732239,-8.085518836975098,3.3686418533325195
1696081970168470500,4.635470458984375,1.259350061416626,-8.210017204284668,3.6966474056243896
1696081970178470400,4.645470458984375,1.3192051649093628,-8.633790969848633,4.402936935424805
1696081970188470500,4.655470458984375,1.1827356815338135,-9.165303230285645,5.186140060424805
1696081970198470400,4.665470458984375,1.015141487121582,-9.304166793823242,5.674557209014893
1696081970208470500,4.675470458984375,0.11252748221158981,-9.038411140441895,5.880458831787109
1696081970218470400,4.685470458984375,-1.0630255937576294,-8.423100471496582,5.645826816558838
1696081970228470500,4.695470458984375,-2.188300371170044,-7.920318603515625,5.3226094245910645
1696081970238470400,4.705470458984375,-2.7772738933563232,-7.834127426147461,4.829104900360107
1696081970248470500,4.715470458984375,-2.38462495803833,-8.530839920043945,4.259284973144531
1696081970258470400,4.725470458984375,-0.6153098344802856,-9.658509254455566,3.84269380569458
1696081970268470300,4.73547021484375,2.212242364883423,-10.728716850280762,3.7014358043670654
1696081970278470400,4.745470458984375,5.095160484313965,-11.344026565551758,3.914519786834717
1696081970288470300,4.75547021484375,6.716034889221191,-11.346421241760254,4.587290287017822
1696081970298470400,4.765470458984375,6.028899192810059,-10.853215217590332,5.475838661193848
1696081970308470300,4.77547021484375,3.598485231399536,-10.16368579864502,6.194098949432373
1696081970318470400,4.785470458984375,1.1516109704971313,-9.47654914855957,6.488585948944092
1696081970328470300,4.79547021484375,-0.31603461503982544,-9.115025520324707,6.7806782722473145
1696081970338470400,4.805470458984375,-0.8667010068893433,-9.115025520324707,7.472602844238281
1696081970348470300,4.81547021484375,-0.9361328482627869,-9.273042678833008,8.324938774108887
1696081970358470400,4.825470458984375,-0.8164227604866028,-9.423876762390137,9.158121109008789
1696081970368470300,4.83547021484375,-0.7972691655158997,-9.71357536315918,10.077494621276855
1696081970378470400,4.845470458984375,-0.8954314589500427,-10.41268253326416,10.858003616333008
1696081970388470300,4.85547021484375,-0.3734954595565796,-11.312902450561523,11.315296173095703
1696081970398470400,4.865470458984375,0.8571242094039917,-11.923423767089844,10.62576675415039
1696081970408470300,4.87547021484375,2.2577321529388428,-12.153266906738281,9.500492095947266
1696081970418470400,4.885470458984375,3.4332852363586426,-12.246641159057617,8.542811393737793
1696081970428470300,4.89547021484375,4.228160381317139,-12.282553672790527,7.431901454925537
1696081970438470400,4.905470458984375,4.6471452713012695,-12.2681884765625,5.648221015930176
1696081970448470300,4.91547021484375,3.955221176147461,-12.11974811553955,3.6080620288848877
1696081970458470400,4.925470458984375,2.296039342880249,-12.165238380432129,2.1308395862579346
1696081970468470500,4.935470458984375,0.6416460275650024,-12.59380054473877,0.9672574996948242
1696081970478470400,4.945470458984375,0.31842881441116333,-13.642460823059082,0.35434186458587646
1696081970488470500,4.955470458984375,-0.11252748221158981,-15.246874809265137,0.38546648621559143
1696081970498470400,4.965470458984375,-1.3838485479354858,-16.56368637084961,1.05105459690094
1696081970508470500,4.975470458984375,-3.8379054069519043,-16.88450813293457,2.1164743900299072
1696081970518470400,4.985470458984375,-4.455609321594238,-15.890914916992188,1.7908629179000854
1696081970528470500,4.995470458984375,-4.288015365600586,-14.03032112121582,1.1468225717544556
1696081970538470400,5.005470458984375,-4.508281707763672,-12.409446716308594,1.8698714971542358
1696081970548470500,5.015470458984375,-2.9065608978271484,-11.075876235961914,2.123656988143921
1696081970558470400,5.025470458984375,-0.19393034279346466,-10.348038673400879,3.404554843902588
1696081970568470500,5.035470458984375,2.123656988143921,-9.83807373046875,4.7836151123046875
1696081970578470400,5.045470458984375,2.5019407272338867,-9.526827812194824,5.530905246734619
1696081970588470500,5.055470458984375,1.3551181554794312,-9.308955192565918,5.358522891998291
1696081970598470400,5.065470458984375,-0.05985504388809204,-9.019257545471191,4.546588897705078
1696081970608470500,5.075470458984375,-1.0606313943862915,-8.636184692382812,3.754108190536499
1696081970618470400,5.085470458984375,-1.742978811264038,-8.210017204284668,3.265691041946411
1696081970628470500,5.095470458984375,-2.3774423599243164,-7.7527241706848145,3.0142998695373535
1696081970638470400,5.105470458984375,-2.1763293743133545,-7.230788230895996,2.9161376953125
1696081970648470500,5.115470458984375,-1.3982137441635132,-6.672939300537109,2.516305923461914
1696081970658470400,5.125470458984375,-1.091755986213684,-6.0743889808654785,2.0901381969451904
1696081970668470500,5.135470458984375,-1.1444283723831177,-5.708076000213623,2.054224967956543
1696081970678470400,5.145470458984375,-1.0199298858642578,-5.712864398956299,2.0231003761291504
1696081970688470500,5.155470458984375,-0.9792284965515137,-5.691316604614258,1.479616641998291
1696081970698470400,5.165470458984375,-1.3694833517074585,-5.801449775695801,1.0630255937576294
1696081970708470500,5.175470458984375,-1.577778935432434,-5.894824028015137,0.9169792532920837
1696081970718470400,5.185470458984375,-1.436521053314209,-5.832574844360352,0.9241618514060974
1696081970728470500,5.195470458984375,-1.235408067703247,-5.674557209014893,0.912190854549408
1696081970738470400,5.205470458984375,-1.2449848651885986,-5.528511047363281,0.6967126727104187
1696081970748470500,5.215470458984375,-1.4245500564575195,-5.454290866851807,0.47644615173339844
1696081970758470400,5.225470458984375,-1.6855180263519287,-5.399224281311035,0.08140286058187485
1696081970768470300,5.23547021484375,-1.941697597503662,-5.346551895141602,-0.3447650372982025
1696081970778470400,5.245470458984375,-1.9752163887023926,-5.245995044708252,-0.7781155705451965
1696081970788470300,5.25547021484375,-1.778891921043396,-5.03291130065918,-1.173158884048462
1696081970798470400,5.265470458984375,-1.3239935636520386,-4.704606533050537,-1.4867992401123047
1696081970808470300,5.27547021484375,-0.6847416758537292,-4.309563159942627,-1.7621324062347412
1696081970818470400,5.285470458984375,0.20111294090747833,-4.000710964202881,-1.7908629179000854
1696081970828470300,5.29547021484375,0.8331822156906128,-3.8977603912353516,-1.3215993642807007
1696081970838470400,5.305470458984375,1.501164436340332,-4.216189384460449,0.40222588181495667
1696081970848470300,5.31547021484375,2.315192937850952,-4.714183330535889,3.227383852005005
1696081970858470400,5.325470458984375,5.806238174438477,-5.633855819702148,6.792649269104004
1696081970868470300,5.33547021484375,11.300930976867676,-7.154173851013184,11.35360336303711
1696081970878470400,5.345470458984375,13.350367546081543,-9.35205078125,15.687408447265625
1696081970888470300,5.35547021484375,13.771747589111328,-11.214739799499512,18.931550979614258
1696081970898470400,5.365470458984375,13.87230396270752,-13.11573600769043,20.164566040039062
1696081970908470300,5.37547021484375,13.163619995117188,-14.918869018554688,20.904373168945312
1696081970918470400,5.385470458984375,10.427047729492188,-15.620370864868164,19.79585838317871
1696081970928470300,5.39547021484375,7.19248104095459,-14.523527145385742,14.195521354675293
1696081970938470400,5.405470458984375,4.9706621170043945,-11.233893394470215,7.917924404144287
1696081970948470300,5.41547021484375,3.3734302520751953,-7.563582420349121,3.9169139862060547
1696081970958470400,5.425470458984375,2.741360902786255,-4.290409564971924,1.280897855758667
1696081970968470300,5.43547021484375,2.473210334777832,-1.625662922859192,-0.9361328482627869
1696081970978470400,5.445470458984375,1.7717092037200928,-1.5825673341751099,-2.123656988143921
1696081970988470300,5.45547021484375,1.7764976024627686,-4.76924991607666,-2.2026655673980713
1696081970998470400,5.465470458984375,0.4405331015586853,-8.511686325073242,-1.3551181554794312
1696081971008470300,5.47547021484375,-3.56017804145813,-11.590629577636719,0.569819986820221
1696081971018470400,5.485470458984375,-5.32739782333374,-13.764564514160156,3.272873640060425
1696081971028470300,5.49547021484375,-3.4620156288146973,-15.17265510559082,6.8022260665893555
1696081971038470400,5.505470458984375,3.4380736351013184,-16.92521095275879,9.821314811706543
1696081971048470300,5.51547021484375,7.6210432052612305,-17.559673309326172,9.969755172729492
1696081971058470400,5.525470458984375,2.5737667083740234,-14.547469139099121,6.572382926940918
1696081971068470300,5.53547021484375,-4.54419469833374,-10.771812438964844,2.185906171798706
1696081971078470400,5.545470458984375,-7.3600754737854,-7.805397033691406,-0.9672574996948242
1696081971088470300,5.55547021484375,-6.6705451011657715,-5.8996124267578125,-2.7102363109588623
1696081971098470400,5.565470458984375,-6.2276177406311035,-5.3226094245910645,-2.964021682739258
1696081971108470300,5.57547021484375,-6.100725173950195,-6.26592493057251,-2.4612393379211426
1696081971118470400,5.585470458984375,-6.347328186035156,-8.183680534362793,-1.8698714971542358
1696081971128470500,5.595470458984375,-5.911583423614502,-10.187627792358398,-0.730231523513794
1696081971138470400,5.605470458984375,-4.994604110717773,-11.552322387695312,0.4118026793003082
1696081971148470500,5.615470458984375,-4.51067590713501,-11.997644424438477,2.099714994430542
1696081971158470400,5.625470458984375,-4.4292731285095215,-11.355998039245605,2.9041666984558105
1696081971168470500,5.635470458984375,-3.823540210723877,-10.111013412475586,3.1220390796661377
1696081971178470400,5.645470458984375,-2.518700122833252,-8.966584205627441,3.248931646347046
1696081971188470500,5.655470458984375,-0.5003881454467773,-8.332120895385742,3.7445313930511475
1696081971198470400,5.665470458984375,2.1930887699127197,-7.929895401000977,4.19224739074707
1696081971208470500,5.675470458984375,4.481945514678955,-7.565976619720459,4.522646903991699
1696081971218470400,5.685470458984375,5.320215225219727,-7.240365028381348,4.587290287017822
1696081971228470500,5.695470458984375,4.050989151000977,-7.029675483703613,4.553771495819092
1696081971238470400,5.705470458984375,2.0685901641845703,-7.118260860443115,4.520252704620361
1696081971248470500,5.715470458984375,0.4908113479614258,-7.458237648010254,4.613626480102539
1696081971258470400,5.725470458984375,-0.6847416758537292,-7.8867998123168945,4.738125324249268
1696081971268470500,5.735470458984375,-1.7262194156646729,-8.243535995483398,4.793191909790039
1696081971278470400,5.745470458984375,-2.1116859912872314,-8.372822761535645,4.6471452713012695
1696081971288470500,5.755470458984375,-2.346317768096924,-8.245929718017578,4.398148536682129
1696081971298470400,5.765470458984375,-2.3080103397369385,-7.958625793457031,4.113238334655762
1696081971308470500,5.775470458984375,-1.8794482946395874,-7.867646217346191,4.163516521453857
1696081971318470400,5.785470458984375,-1.05105459690094,-8.538022994995117,4.774038314819336
1696081971328470500,5.795470458984375,1.091755986213684,-9.270648002624512,5.341763496398926
1696081971338470400,5.805470458984375,2.7485435009002686,-9.543587684631348,5.799055576324463
1696081971348470500,5.815470458984375,3.1914708614349365,-9.251494407653809,6.040870189666748
1696081971358470400,5.825470458984375,2.513911724090576,-8.674491882324219,6.170156955718994
1696081971368470500,5.835470458984375,0.9959878921508789,-8.056788444519043,6.002562999725342
1696081971378470400,5.845470458984375,-0.8547300100326538,-7.616254806518555,5.257966041564941
1696081971388470500,5.855470458984375,-2.542642116546631,-7.676109790802002,4.067748546600342
1696081971398470400,5.865470458984375,-3.383007049560547,-8.25550651550293,2.978386878967285
1696081971408470500,5.875470458984375,-3.023876667022705,-9.29458999633789,2.3247697353363037
1696081971418470400,5.885470458984375,-1.4460978507995605,-10.515633583068848,2.1763293743133545
1696081971428470300,5.89547021484375,1.091755986213684,-11.367968559265137,2.3774423599243164
1696081971438470400,5.905470458984375,4.036623954772949,-11.437400817871094,2.7317841053009033
1696081971448470300,5.91547021484375,6.043264389038086,-10.71914005279541,3.2345664501190186
1696081971458470400,5.925470458984375,6.033687591552734,-9.921871185302734,3.9193081855773926
1696081971468470500,5.935470458984375,4.278438568115234,-9.483732223510742,5.018546104431152
1696081971478470400,5.945470458984375,1.9704279899597168,-9.275436401367188,5.983409404754639
1696081971488470500,5.955470458984375,0.1628057211637497,-9.117419242858887,6.47900915145874
1696081971498470400,5.965470458984375,-1.0869675874710083,-8.918700218200684,7.020098686218262
1696081971508470500,5.975470458984375,-2.2864625453948975,-8.880393028259277,7.972990989685059
1696081971518470400,5.985470458984375,-3.0119056701660156,-8.976161003112793,9.131784439086914
1696081971528470500,5.995470458984375,-2.63362193107605,-8.98813247680664,10.036792755126953
1696081971538470400,6.005470458984375,-1.194706678390503,-8.839692115783691,10.269030570983887
1696081971548470500,6.015470458984375,0.9959878921508789,-9.028834342956543,9.979331970214844
1696081971558470400,6.025470458984375,3.3925838470458984,-9.727940559387207,9.5316162109375
1696081971568470500,6.035470458984375,5.02094030380249,-10.834061622619629,9.213187217712402
1696081971578470400,6.045470458984375,5.626673221588135,-11.478102684020996,8.686463356018066
1696081971588470500,6.055470458984375,5.164592266082764,-11.578659057617188,7.9753851890563965
1696081971598470400,6.065470458984375,3.797203779220581,-11.332056045532227,7.290643215179443
1696081971608470500,6.075470458984375,2.1045033931732178,-11.32966136932373,6.881235122680664
1696081971618470400,6.085470458984375,0.49799394607543945,-11.8132905960083,6.651391506195068
1696081971628470500,6.095470458984375,-0.8236053586006165,-12.624924659729004,5.9427080154418945
1696081971638470400,6.105470458984375,-1.5275006294250488,-13.608942031860352,4.937143325805664
1696081971648470500,6.115470458984375,-1.0271124839782715,-14.499585151672363,3.7924153804779053
1696081971658470400,6.125470458984375,-0.6033388376235962,-15.534178733825684,3.1651346683502197
1696081971668470500,6.135470458984375,-1.6615760326385498,-16.417638778686523,2.9017724990844727
1696081971678470400,6.145470458984375,-2.564189910888672,-17.22927474975586,3.0789434909820557
1696081971688470500,6.155470458984375,-3.361459255218506,-17.705720901489258,3.4380736351013184
1696081971698470400,6.165470458984375,-4.32871675491333,-17.54770278930664,3.5482068061828613
1696081971708470500,6.175470458984375,-4.4723687171936035,-15.977106094360352,3.028665065765381
1696081971718470400,6.185470458984375,-3.404554843902588,-14.214674949645996,2.6599581241607666
1696081971728470500,6.195470458984375,-1.3527239561080933,-12.871527671813965,2.6791117191314697
1696081971738470400,6.205470458984375,0.9888052940368652,-11.700762748718262,3.6320040225982666
1696081971748470500,6.215470458984375,2.252943754196167,-10.434229850769043,4.505887508392334
1696081971758470400,6.225470458984375,1.7956513166427612,-9.481337547302246,4.060565948486328
1696081971768470300,6.23547021484375,0.2849099934101105,-8.782231330871582,3.5434184074401855
1696081971778470400,6.245470458984375,-1.8962076902389526,-8.142979621887207,2.9257144927978516
1696081971788470300,6.25547021484375,-3.2178070545196533,-7.506121635437012,2.58813214302063
1696081971798470400,6.265470458984375,-2.937685489654541,-6.720823287963867,2.293645143508911
1696081971808470300,6.27547021484375,-1.680729627609253,-5.844545841217041,1.9105730056762695
1696081971818470400,6.285470458984375,-0.9696516990661621,-4.989815711975098,1.6974890232086182
1696081971828470300,6.29547021484375,-1.292868971824646,-4.532223701477051,1.8124107122421265
1696081971838470400,6.305470458984375,-1.3215993642807007,-3.950432777404785,1.2473790645599365
1696081971848470300,6.31547021484375,-1.6903064250946045,-3.713406801223755,0.8307880163192749
1696081971858470400,6.325470458984375,-2.099714994430542,-3.971980571746826,0.586579442024231
1696081971868470300,6.33547021484375,-2.188300371170044,-4.577713489532471,0.45010992884635925
1696081971878470400,6.345470458984375,-1.9919757843017578,-5.210082054138184,0.2801215946674347
1696081971888470300,6.35547021484375,-1.7741034030914307,-5.650615215301514,0.17717093229293823
1696081971898470400,6.365470458984375,-1.7070658206939697,-6.026504993438721,0.043095629662275314
1696081971908470300,6.37547021484375,-1.702277421951294,-6.289866924285889,-0.24181437492370605
1696081971918470400,6.385470458984375,-1.7597382068634033,-6.380846977233887,-0.6775590777397156
1696081971928470300,6.39547021484375,-1.8914192914962769,-6.344933986663818,-1.0869675874710083
1696081971938470400,6.405470458984375,-1.8722656965255737,-6.167762756347656,-1.4173674583435059
1696081971948470300,6.41547021484375,-1.7932571172714233,-5.866093635559082,-1.5753847360610962
1696081971958470700,6.425470703125,-1.4460978507995605,-5.389647483825684,-1.6280571222305298
1696081971968470800,6.435470703125,-0.8786720037460327,-4.850652694702148,-1.6974890232086182
1696081971978470700,6.445470703125,-0.026336219161748886,-4.23773717880249,-1.8363527059555054
1696081971988470800,6.455470703125,0.6536170840263367,-3.8977603912353516,-1.6735470294952393
1696081971998470700,6.465470703125,0.9888052940368652,-4.01268196105957,-0.16998831927776337
1696081972008470800,6.475470703125,1.7932571172714233,-4.280832767486572,2.5546131134033203
1696081972018470700,6.485470703125,5.542876243591309,-4.833893299102783,6.22043514251709
1696081972028470800,6.495470703125,10.360010147094727,-6.043264389038086,11.310507774353027
1696081972038470700,6.505470703125,11.777377128601074,-8.023268699645996,17.11674690246582
1696081972048470800,6.515470703125,13.901034355163574,-10.242693901062012,19.147029876708984
1696081972058470700,6.525470703125,17.530942916870117,-12.71829891204834,19.410390853881836
1696081972068470800,6.535470703125,17.993024826049805,-16.429611206054688,19.06562614440918
1696081972078470700,6.545470703125,12.610559463500977,-19.637840270996094,16.99703598022461
1696081972088470800,6.555470703125,7.139808654785156,-18.591575622558594,12.675203323364258
1696081972098470700,6.565470703125,4.393360137939453,-14.001590728759766,7.455843448638916
1696081972108470800,6.575470703125,3.667917013168335,-8.011298179626465,3.6750996112823486
1696081972118470700,6.585470703125,2.892195701599121,-3.5410242080688477,1.3455413579940796
1696081972128470800,6.595470703125,1.9560627937316895,-1.6304513216018677,-0.5099649429321289
1696081972138470700,6.605470703125,2.87064790725708,-3.4596214294433594,-1.8579005002975464
1696081972148470800,6.615470703125,0.8092401623725891,-6.988974094390869,-1.6927006244659424
1696081972158470700,6.625470703125,-6.814197540283203,-10.419864654541016,-0.30885201692581177
1696081972168470800,6.635470703125,-7.779060363769531,-13.798083305358887,2.451662540435791
1696081972178470700,6.645470703125,0.6775590777397156,-16.427215576171875,7.0679826736450195
1696081972188470800,6.655470703125,4.790797710418701,-16.44158172607422,10.25466537475586
1696081972198470700,6.665470703125,3.383007049560547,-14.26734733581543,8.080730438232422
1696081972208470800,6.675470703125,-3.2776620388031006,-11.14770221710205,3.4548330307006836
1696081972218470700,6.685470703125,-7.123049259185791,-9.026439666748047,0.4692635238170624
1696081972228470800,6.695470703125,-6.84053373336792,-7.611466407775879,-0.9888052940368652
1696081972238470700,6.705470703125,-5.317821025848389,-6.862081527709961,-1.7381904125213623
1696081972248470800,6.715470703125,-4.951508522033691,-7.163750648498535,-1.824381709098816
1696081972258470400,6.725470458984375,-5.097554683685303,-8.312967300415039,-1.4724340438842773
1696081972268470300,6.73547021484375,-4.817133903503418,-10.14213752746582,-0.2537853717803955
1696081972278470400,6.745470458984375,-4.850652694702148,-11.8132905960083,1.015141487121582
1696081972288470300,6.75547021484375,-5.332186222076416,-12.39029312133789,1.479616641998291
1696081972298470400,6.765470458984375,-5.492598056793213,-11.842020988464355,1.9704279899597168
1696081972308470300,6.77547021484375,-4.819528102874756,-10.788572311401367,2.693476915359497
1696081972318470400,6.785470458984375,-3.7158010005950928,-9.739912033081055,3.0190882682800293
1696081972328470300,6.79547021484375,-2.0183119773864746,-8.820538520812988,3.181894063949585
1696081972338470400,6.805470458984375,0.07900865375995636,-8.011298179626465,3.734954595565796
1696081972348470300,6.81547021484375,2.5258827209472656,-7.486968040466309,4.6950297355651855
1696081972358470400,6.825470458984375,4.101267337799072,-7.206846237182617,5.267542839050293
1696081972368470300,6.83547021484375,4.180276393890381,-7.01052188873291,5.32739782333374
1696081972378470400,6.845470458984375,2.983175277709961,-6.972214698791504,4.994604110717773
1696081972388470300,6.85547021484375,1.4197616577148438,-7.053617477416992,4.620809078216553
1696081972398470400,6.865470458984375,0.2968810200691223,-7.185298442840576,4.352658748626709
1696081972408470300,6.87547021484375,-0.22505496442317963,-7.410353660583496,4.206612586975098
1696081972418470400,6.885470458984375,-0.5602431893348694,-7.616254806518555,4.129997730255127
1696081972428470300,6.89547021484375,-0.9361328482627869,-7.767089366912842,4.0964789390563965
1696081972438470400,6.905470458984375,-1.37906014919281,-7.654561996459961,3.9384617805480957
1696081972448470300,6.91547021484375,-1.702277421951294,-7.54203462600708,3.8115692138671875
1696081972458470400,6.925470458984375,-0.4812345504760742,-7.518092632293701,3.8139634132385254
1696081972468470300,6.93547021484375,0.29209262132644653,-7.925107002258301,4.3406877517700195
1696081972478471400,6.945471435546875,1.5298948287963867,-8.5595703125,4.8267107009887695
1696081972488471600,6.955471435546875,2.738966703414917,-9.253889083862305,5.437531471252441
1696081972498471400,6.965471435546875,2.980781078338623,-9.38556957244873,6.105513572692871
1696081972508471600,6.975471435546875,2.099714994430542,-8.911518096923828,6.467038154602051
1696081972518471400,6.985471435546875,0.44532153010368347,-8.138191223144531,6.40000057220459
1696081972528471600,6.995471435546875,-1.1779472827911377,-7.668927192687988,5.796661376953125
1696081972538471400,7.005471435546875,-2.540247917175293,-7.623437404632568,4.891354084014893
1696081972548471600,7.015471435546875,-3.2992098331451416,-7.920318603515625,3.9863457679748535
1696081972558471400,7.025471435546875,-3.0861260890960693,-8.966584205627441,3.404554843902588
1696081972568471600,7.035471435546875,-1.4963760375976562,-10.247482299804688,3.2824504375457764
1696081972578471400,7.045471435546875,0.9768342971801758,-11.324872970581055,3.4787750244140625
1696081972588471600,7.055471435546875,3.801992416381836,-11.638513565063477,3.6966474056243896
1696081972598471400,7.065471435546875,6.08396577835083,-11.174038887023926,4.015076160430908
1696081972608471600,7.075471435546875,6.711246490478516,-10.376769065856934,4.606443881988525
1696081972618471400,7.085471435546875,5.454290866851807,-9.670479774475098,5.356128692626953
1696081972628471600,7.095471435546875,3.071760892868042,-9.13657283782959,6.186916351318359
1696081972638471400,7.105471435546875,0.706289529800415,-8.794201850891113,6.969820499420166
1696081972648471600,7.115471435546875,-0.9600749015808105,-8.64815616607666,7.850886821746826
1696081972658471400,7.125471435546875,-1.9345149993896484,-8.746317863464355,8.79659652709961
1696081972668471600,7.135471435546875,-2.1068975925445557,-8.952219009399414,9.735123634338379
1696081972678471400,7.145471435546875,-1.6280571222305298,-8.827720642089844,10.23311710357666
1696081972688471600,7.155471435546875,-0.37828385829925537,-8.758289337158203,10.496479988098145
1696081972698471400,7.165471435546875,1.5394717454910278,-9.431059837341309,11.056722640991211
1696081972708471600,7.175471435546875,4.2329487800598145,-10.352827072143555,10.946589469909668
1696081972718471400,7.185471435546875,6.153397560119629,-10.798149108886719,9.914688110351562
1696081972728471600,7.195471435546875,5.595548629760742,-11.049540519714355,9.081506729125977
1696081972738471400,7.205471435546875,3.2178070545196533,-11.38472843170166,8.731952667236328
1696081972748471600,7.215471435546875,0.9169792532920837,-11.81568431854248,8.217199325561523
1696081972758471400,7.225471435546875,-0.6177040338516235,-12.351985931396484,7.115866661071777
1696081972768471600,7.235471435546875,-1.139639973640442,-13.254599571228027,5.681739807128906
1696081972778470400,7.245470458984375,-1.335964560508728,-14.545074462890625,4.242525577545166
1696081972788470300,7.25547021484375,-0.11252748221158981,-15.713744163513184,2.715024709701538
1696081972798470400,7.265470458984375,0.33518823981285095,-16.712125778198242,1.5155296325683594
1696081972808470300,7.27547021484375,-1.479616641998291,-17.66980743408203,1.2042834758758545
1696081972818470400,7.285470458984375,-2.494758129119873,-18.52214241027832,1.7501614093780518
1696081972828470300,7.29547021484375,-3.56017804145813,-19.068021774291992,2.3918075561523438
1696081972838470400,7.305470458984375,-4.462791919708252,-18.253992080688477,2.4013843536376953
1696081972848470300,7.31547021484375,-3.002328872680664,-15.610794067382812,1.2330138683319092
1696081972858470400,7.325470458984375,-2.118868589401245,-13.637672424316406,1.460463047027588
1696081972868470300,7.33547021484375,-1.015141487121582,-12.17481517791748,1.946485996246338
1696081972878470400,7.345470458984375,0.5003881454467773,-10.90109920501709,3.136404275894165
1696081972888470300,7.35547021484375,0.8690952062606812,-9.888352394104004,3.7181951999664307
1696081972898470400,7.365470458984375,0.4429273009300232,-9.25867748260498,3.670311212539673
1696081972908470300,7.37547021484375,-0.1867477297782898,-8.806173324584961,3.3925838470458984
1696081972918470400,7.385470458984375,-1.4915876388549805,-8.205228805541992,3.203441858291626
1696081972928470300,7.39547021484375,-2.382230758666992,-7.439084053039551,2.7892448902130127
1696081972938470400,7.405470458984375,-2.5067291259765625,-6.5819597244262695,2.5761611461639404
1696081972948470300,7.41547021484375,-1.9752163887023926,-5.803843975067139,2.4396915435791016
1696081972958470400,7.425470458984375,-1.113303780555725,-5.052064895629883,2.145204782485962
1696081972968470500,7.435470458984375,-0.9289502501487732,-4.481945514678955,1.944091796875
1696081972978470400,7.445470458984375,-1.3263877630233765,-4.168305397033691,1.7142484188079834
1696081972988470500,7.455470458984375,-1.6519991159439087,-3.8953661918640137,1.381454348564148
1696081972998470400,7.465470458984375,-1.889025092124939,-3.9264907836914062,0.8188169598579407
1696081973008470500,7.475470458984375,-1.9584569931030273,-4.259284973144531,0.3256114423274994
1696081973018470400,7.485470458984375,-1.8124107122421265,-4.651933670043945,-0.19871874153614044
1696081973028470500,7.495470458984375,-1.6352397203445435,-5.0161519050598145,-0.47884035110473633
1696081973038470400,7.505470458984375,-1.4676456451416016,-5.29387903213501,-0.7230489253997803
1696081973048470500,7.515470458984375,-1.5155296325683594,-5.492598056793213,-0.9217676520347595
1696081973058470400,7.525470458984375,-1.6950948238372803,-5.463867664337158,-1.2042834758758545
1696081973068470500,7.535470458984375,-1.9081788063049316,-5.320215225219727,-1.5825673341751099
1696081973078470400,7.545470458984375,-1.8411411046981812,-5.104737281799316,-1.941697597503662
1696081973088470500,7.555470458984375,-1.4748282432556152,-4.802768707275391,-2.205059766769409
1696081973098470400,7.565470458984375,-0.9648633003234863,-4.4532151222229,-2.279279947280884
1696081973108470500,7.575470458984375,-0.49320554733276367,-4.0533833503723145,-2.169146776199341
1696081973118470400,7.585470458984375,-0.090979665517807,-3.9025487899780273,-1.7549498081207275
1696081973128470500,7.595470458984375,0.2082955539226532,-4.144362926483154,-0.27054479718208313
1696081973138470400,7.605470458984375,0.993593692779541,-4.568136692047119,2.1954829692840576
1696081973148470500,7.615470458984375,5.004180908203125,-5.557241439819336,5.681739807128906
1696081973158470400,7.625470458984375,10.388740539550781,-7.427113056182861,11.126154899597168
1696081973168470500,7.635470458984375,10.755053520202637,-9.613018989562988,16.841413497924805
1696081973178470400,7.645470458984375,11.219528198242188,-10.965743064880371,18.775928497314453
1696081973188470500,7.655470458984375,14.914080619812012,-11.942577362060547,18.866907119750977
1696081973198470400,7.665470458984375,17.7943058013916,-13.527539253234863,19.235614776611328
1696081973208470500,7.675470458984375,12.981660842895508,-15.213356018066406,18.220474243164062
1696081973218470400,7.685470458984375,7.01052188873291,-14.78000545501709,13.02236270904541
1696081973228470500,7.695470458984375,4.458003520965576,-11.346421241760254,7.37204647064209
1696081973238470400,7.705470458984375,3.3016040325164795,-7.154173851013184,4.2090067863464355
1696081973248470500,7.715470458984375,2.8131868839263916,-3.4332852363586426,2.051830768585205
1696081973258470400,7.725470458984375,3.706224203109741,-0.5817909836769104,0.17238251864910126
1696081973268470300,7.73547021484375,4.443638324737549,0.15322890877723694,-1.1755530834197998
1696081973278470000,7.745469970703125,-0.6584054827690125,-3.4332852363586426,-0.8236053586006165
1696081973288470000,7.755469970703125,-3.359065055847168,-9.478943824768066,-0.05985504388809204
1696081973298470000,7.765469970703125,-4.867412090301514,-15.02900218963623,1.6927006244659424
1696081973308470000,7.775469970703125,-4.874594688415527,-18.433557510375977,4.522646903991699
1696081973318470000,7.785469970703125,-4.393360137939453,-19.812618255615234,8.50210952758789
1696081973328470000,7.795469970703125,1.158793568611145,-17.880496978759766,10.182839393615723
1696081973338470000,7.805469970703125,6.900388717651367,-14.408605575561523,9.665691375732422
1696081973348470000,7.815469970703125,-0.14844051003456116,-10.953771591186523,4.738125324249268
1696081973358470000,7.825469970703125,-4.474762916564941,-8.633790969848633,0.545877993106842
1696081973368470000,7.835469970703125,-3.914519786834717,-7.343316078186035,-1.8076223134994507
1696081973378470000,7.845469970703125,-4.034229755401611,-7.240365028381348,-2.985569477081299
1696081973388470000,7.855469970703125,-4.469974517822266,-7.807791233062744,-2.980781078338623
1696081973398470000,7.865469970703125,-4.541800498962402,-8.947430610656738,-2.33913516998291
1696081973408470000,7.875469970703125,-4.321534156799316,-10.477325439453125,-1.2617442607879639
1696081973418470000,7.885469970703125,-4.721365928649902,-12.14369010925293,-0.6272808313369751
1696081973428470000,7.895469970703125,-6.000168800354004,-13.29769515991211,0.2992752194404602
1696081973438470000,7.905469970703125,-6.409577369689941,-12.90025806427002,1.2090718746185303
1696081973448470000,7.915469970703125,-6.019322395324707,-11.74625301361084,2.011129379272461
1696081973458470000,7.925469970703125,-5.303455829620361,-10.731111526489258,2.492363929748535
1696081973468470000,7.935469970703125,-3.8570590019226074,-9.80455493927002,2.8850131034851074
1696081973478470100,7.94547021484375,-1.599326729774475,-8.882787704467773,3.4165258407592773
1696081973488470000,7.955469970703125,1.0414776802062988,-8.09509563446045,4.046200752258301
1696081973498470100,7.96547021484375,3.2561142444610596,-7.580341815948486,4.78122091293335
1696081973508470000,7.975469970703125,4.479551315307617,-7.269095420837402,5.509357452392578
1696081973518470000,7.985469970703125,4.422090530395508,-7.087136268615723,6.122272968292236
1696081973528470000,7.995469970703125,3.205836057662964,-6.996156692504883,6.337751388549805
1696081973538470000,8.005469970703125,1.7717092037200928,-7.020098686218262,6.119878768920898
1696081973548470000,8.015469970703125,0.5123591423034668,-7.149385452270508,5.832574844360352
1696081973558470000,8.025469970703124,-0.272938996553421,-7.32655668258667,5.621884822845459
1696081973568470000,8.035469970703126,-0.7110779285430908,-7.527669429779053,5.4351372718811035
1696081973578470400,8.045470458984376,-1.3694833517074585,-7.6210432052612305,5.047276496887207
1696081973588470500,8.055470458984376,-1.6639702320098877,-7.3792290687561035,4.19224739074707
1696081973598470400,8.065470458984375,-1.7549498081207275,-7.0033392906188965,3.464409828186035
1696081973608470500,8.075470458984375,-1.6879122257232666,-6.900388717651367,3.2130186557769775
1696081973618470400,8.085470458984375,-1.1659762859344482,-7.091924667358398,3.339911460876465
1696081973628470500,8.095470458984375,-0.2753331959247589,-7.76948356628418,3.885789394378662
1696081973638470400,8.105470458984374,0.7613561153411865,-8.748712539672852,4.517858505249023
1696081973648470500,8.115470458984374,1.6136919260025024,-9.493309020996094,4.915595531463623
1696081973658470400,8.125470458984376,1.482010841369629,-9.727940559387207,5.150227069854736
1696081973668470500,8.135470458984376,0.828393816947937,-9.435848236083984,5.2364182472229
1696081973678470400,8.145470458984375,0.021547814831137657,-8.842085838317871,5.406406879425049
1696081973688470500,8.155470458984375,-0.7565677165985107,-8.202834129333496,5.32739782333374
1696081973698470400,8.165470458984375,-1.0821791887283325,-7.9969329833984375,4.901230335235596
1696081973708470500,8.175470458984375,-0.2825157940387726,-8.358457565307617,4.611232280731201
1696081973718470400,8.185470458984375,1.5466543436050415,-9.01207447052002,4.446032524108887
1696081973728470500,8.195470458984374,3.450044631958008,-9.773430824279785,4.707000732421875
1696081973738470400,8.205470458984376,4.6950297355651855,-10.367192268371582,5.222053050994873
1696081973748470500,8.215470458984376,4.72376012802124,-10.568305969238281,5.653009414672852
1696081973758470400,8.225470458984375,3.6727054119110107,-10.273818969726562,5.794267177581787
1696081973768470300,8.23547021484375,2.0877439975738525,-9.613018989562988,5.6434326171875
1696081973778470400,8.245470458984375,0.4141969084739685,-9.107842445373535,5.777507781982422
1696081973788470300,8.25547021484375,-0.8451532125473022,-8.930671691894531,6.522104740142822
1696081973798470400,8.265470458984375,-1.4652514457702637,-9.069535255432129,7.6210432052612305
1696081973808470300,8.27547021484375,-1.4173674583435059,-9.277831077575684,8.710405349731445
1696081973818470400,8.285470458984374,-0.871489405632019,-9.268254280090332,9.17009162902832
1696081973828470300,8.29547021484375,0.2801215946674347,-9.083900451660156,9.074323654174805
1696081973838470400,8.305470458984376,1.9345149993896484,-9.332897186279297,8.889969825744629
1696081973848470300,8.31547021484375,3.4165258407592773,-10.185233116149902,9.009679794311523
1696081973858470400,8.325470458984375,4.228160381317139,-11.066299438476562,8.930671691894531
1696081973868470300,8.33547021484375,4.3191399574279785,-11.341632843017578,8.423100471496582
1696081973878470400,8.345470458984375,3.550601005554199,-11.344026565551758,7.884405612945557
1696081973888470300,8.35547021484375,2.3702597618103027,-11.59781265258789,7.702445983886719
1696081973898470400,8.365470458984374,0.8930372595787048,-12.44775390625,7.6856865882873535
1696081973908470300,8.37547021484375,-0.5889736413955688,-13.563451766967773,6.864475727081299
1696081973918470400,8.385470458984376,-1.6160861253738403,-14.683938026428223,5.672163009643555
1696081973928470300,8.39547021484375,-1.1516109704971313,-15.567697525024414,4.367023944854736
1696081973938470400,8.405470458984375,-0.6991068720817566,-16.67621421813965,2.6455929279327393
1696081973948470300,8.41547021484375,-1.359906554222107,-17.71529769897461,1.8411411046981812
1696081973958470400,8.425470458984375,-2.7940332889556885,-18.529325485229492,2.051830768585205
1696081973968470300,8.43547021484375,-3.4141316413879395,-18.89563751220703,2.473210334777832
1696081973978470400,8.445470458984374,-3.184288263320923,-18.02414894104004,2.7126305103302
1696081973988470300,8.45547021484375,-3.0573954582214355,-16.218921661376953,2.300827741622925
1696081973998470400,8.465470458984376,-2.9472622871398926,-14.415787696838379,1.9919757843017578
1696081974008470300,8.47547021484375,-0.7350199222564697,-12.75421142578125,1.6879122257232666
1696081974018470400,8.485470458984375,1.01753568649292,-11.542745590209961,2.7485435009002686
1696081974028470300,8.49547021484375,0.993593692779541,-10.563517570495605,3.7445313930511475
1696081974038470400,8.505470458984375,0.49559974670410156,-9.759065628051758,3.976768970489502
1696081974048470300,8.51547021484375,0.26815059781074524,-9.141361236572266,3.5865142345428467
1696081974058470400,8.525470458984374,-0.6057330369949341,-8.566753387451172,3.205836057662964
1696081974068470300,8.53547021484375,-2.1763293743133545,-8.04002857208252,3.093308687210083
1696081974078470400,8.545470458984376,-2.6862943172454834,-7.23797082901001,2.650381326675415
1696081974088470300,8.55547021484375,-2.6001031398773193,-6.361693382263184,2.276885747909546
1696081974098470400,8.565470458984375,-2.1978771686553955,-5.459079265594482,1.886630892753601
1696081974108470000,8.575469970703125,-1.6879122257232666,-4.6471452713012695,1.580173134803772
1696081974118470000,8.585469970703125,-1.4844050407409668,-4.271255970001221,1.3096283674240112
1696081974128470000,8.595469970703125,-1.37906014919281,-4.034229755401611,0.9911994934082031
1696081974138470000,8.605469970703124,-1.5658079385757446,-4.141968727111816,0.3926490843296051
1696081974148470000,8.615469970703124,-1.6424223184585571,-4.505887508392334,-0.08379705995321274
1696081974158470000,8.625469970703126,-1.6950948238372803,-4.879383087158203,-0.2298433631658554
1696081974168470000,8.635469970703125,-1.889025092124939,-5.200505256652832,-0.2944868206977844
1696081974178470000,8.645469970703125,-1.9704279899597168,-5.389647483825684,-0.5003881454467773
1696081974188470000,8.655469970703125,-1.9776105880737305,-5.432743072509766,-0.790086567401886
1696081974198470000,8.665469970703125,-2.1475989818573,-5.346551895141602,-1.0773907899856567
1696081974208470000,8.675469970703125,-2.4636335372924805,-5.121496677398682,-1.3623007535934448
1696081974218470000,8.685469970703124,-2.5905263423919678,-4.831499099731445,-1.6711528301239014
1696081974228470000,8.695469970703124,-2.3750481605529785,-4.5609540939331055,-2.049436569213867
1696081974238470000,8.705469970703126,-1.9129672050476074,-4.2760443687438965,-2.4588451385498047
1696081974248470000,8.715469970703126,-1.1013327836990356,-3.9169139862060547,-2.892195701599121
1696081974258470000,8.725469970703125,-0.42856210470199585,-3.60566782951355,-3.0406360626220703
1696081974268470000,8.735469970703125,-0.12689268589019775,-3.6583402156829834,-2.2409727573394775
1696081974278470000,8.745469970703125,0.42616790533065796,-3.9240965843200684,0.05985504388809204
1696081974288470000,8.755469970703125,2.5019407272338867,-4.338293552398682,3.3949780464172363
1696081974298470000,8.765469970703125,7.015310287475586,-5.2555718421936035,7.455843448638916
1696081974308469800,8.7754697265625,10.362403869628906,-7.403171062469482,12.057498931884766
1696081974318470000,8.785469970703126,12.272976875305176,-9.806949615478516,18.050485610961914
1696081974328469800,8.7954697265625,15.131953239440918,-12.30170726776123,21.411943435668945
1696081974338469600,8.8054697265625,18.313846588134766,-15.402498245239258,21.577144622802734
1696081974348469500,8.815469482421875,16.88211441040039,-18.749591827392578,20.487783432006836
1696081974358469600,8.8254697265625,10.812514305114746,-19.288288116455078,17.399261474609375
1696081974368469500,8.835469482421875,5.937919616699219,-15.239692687988281,10.53478717803955
1696081974378469600,8.8454697265625,3.3662476539611816,-9.481337547302246,5.885247230529785
1696081974388469500,8.855469482421874,3.399766445159912,-4.845864295959473,3.1531636714935303
1696081974398469600,8.8654697265625,2.8227639198303223,-2.013523578643799,0.9241618514060974
1696081974408470000,8.875469970703126,1.6974890232086182,-3.047818660736084,-0.36152446269989014
1696081974418470000,8.885469970703125,0.5051765441894531,-7.1350202560424805,0.026336219161748886
1696081974428470000,8.895469970703125,-5.219658851623535,-11.20516300201416,1.4676456451416016
1696081974438470000,8.905469970703125,-9.687239646911621,-14.214674949645996,3.804386615753174
1696081974448470000,8.915469970703125,-4.541800498962402,-16.33144760131836,7.427113056182861
1696081974458470000,8.925469970703125,5.708076000213623,-15.53896713256836,11.372756958007812
1696081974468470000,8.935469970703124,7.103895664215088,-12.835614204406738,8.023268699645996
1696081974478470000,8.945469970703124,-1.7717092037200928,-10.000880241394043,2.1595699787139893
1696081974488470000,8.955469970703126,-6.864475727081299,-8.451830863952637,-0.6033388376235962
1696081974498470000,8.965469970703126,-6.062417984008789,-7.740753173828125,-1.6903064250946045
1696081974508469800,8.9754697265625,-4.20421838760376,-7.3600754737854,-2.6791117191314697
1696081974518469600,8.9854697265625,-4.158728122711182,-7.72399377822876,-2.801215887069702
1696081974528469800,8.9954697265625,-4.89644193649292,-8.602665901184082,-2.63362193107605
1696081974538470000,9.005469970703125,-4.982633113861084,-10.024822235107422,-1.8291701078414917
1696081974548470000,9.015469970703125,-4.721365928649902,-11.679215431213379,-0.6847416758537292
1696081974558470000,9.025469970703124,-5.708076000213623,-12.598588943481445,0.5123591423034668
1696081974568470000,9.035469970703126,-6.304232120513916,-12.059893608093262,1.8411411046981812
1696081974578470000,9.045469970703126,-5.770325183868408,-11.162067413330078,2.7748796939849854
1696081974588470000,9.055469970703125,-4.288015365600586,-10.240300178527832,3.1052796840667725
1696081974598470100,9.06547021484375,-2.5474305152893066,-9.457395553588867,3.3446998596191406
1696081974608470000,9.075469970703125,-0.30885201692581177,-8.657732963562012,3.581725835800171
1696081974618470100,9.08547021484375,2.0183119773864746,-7.951443195343018,3.8786067962646484
1696081974628470000,9.095469970703125,3.8953661918640137,-7.427113056182861,4.797980308532715
1696081974638470400,9.105470458984374,4.675876140594482,-7.130231857299805,5.471050262451172
1696081974648470300,9.11547021484375,3.861847400665283,-7.084742069244385,5.28190803527832
1696081974658470400,9.125470458984376,2.427720546722412,-7.0895304679870605,4.8267107009887695
1696081974668470300,9.13547021484375,0.9959878921508789,-7.099107265472412,4.292803764343262
1696081974678470400,9.145470458984375,-0.1364694982767105,-7.331345081329346,4.19224739074707
1696081974688470300,9.15547021484375,-0.8930372595787048,-7.563582420349121,4.144362926483154
1696081974698470400,9.165470458984375,-1.2737152576446533,-7.8221564292907715,4.055777549743652
1696081974708470300,9.17547021484375,-1.8698714971542358,-7.884405612945557,3.7828385829925537
1696081974718470400,9.185470458984375,-2.535459518432617,-7.9538373947143555,3.6750996112823486
1696081974728470300,9.19547021484375,-2.22660756111145,-7.8867998123168945,3.557783842086792
1696081974738470400,9.205470458984376,-1.7597382068634033,-7.745541572570801,3.6583402156829834
1696081974748470300,9.21547021484375,-0.730231523513794,-7.817368030548096,3.5194764137268066
1696081974758470400,9.225470458984375,0.6392518281936646,-8.327332496643066,3.514688014984131
1696081974768470300,9.23547021484375,1.8411411046981812,-9.021651268005371,3.9217023849487305
1696081974778470400,9.245470458984375,2.4636335372924805,-9.47654914855957,4.4939165115356445
1696081974788470300,9.25547021484375,2.0207061767578125,-9.47654914855957,4.98742151260376
1696081974798470700,9.265470703125,0.6871358752250671,-8.964190483093262,5.131073474884033
1696081974808470500,9.275470458984374,-0.8667010068893433,-8.384793281555176,5.162198066711426
1696081974818470700,9.285470703125,-2.0374655723571777,-8.133402824401855,4.8602294921875
1696081974828470500,9.295470458984376,-1.9177556037902832,-8.332120895385742,4.280832767486572
1696081974838470400,9.305470458984376,-0.37828385829925537,-8.839692115783691,3.825934410095215
1696081974848470300,9.31547021484375,2.049436569213867,-9.581894874572754,3.711012601852417
1696081974858470400,9.325470458984375,4.094084739685059,-10.211569786071777,4.036623954772949
1696081974868470300,9.33547021484375,4.999392509460449,-10.465354919433594,4.627991676330566
1696081974878470400,9.345470458984375,4.273650169372559,-10.352827072143555,5.284302234649658
1696081974888470300,9.35547021484375,2.473210334777832,-9.924264907836914,5.897218227386475
1696081974898470400,9.365470458984374,0.6440402865409851,-9.332897186279297,6.352116584777832
1696081974908470300,9.37547021484375,-0.7733271718025208,-8.911518096923828,6.902782917022705
1696081974918470400,9.385470458984376,-1.8195933103561401,-8.722375869750977,7.673715591430664
1696081974928470300,9.39547021484375,-2.5689783096313477,-8.822932243347168,8.698433876037598
1696081974938470400,9.405470458984375,-2.33913516998291,-8.787019729614258,9.708786964416504
1696081974948470500,9.415470458984375,-1.3431471586227417,-8.454225540161133,10.252270698547363
1696081974958470400,9.425470458984375,-0.1388636976480484,-8.25550651550293,10.424653053283691
1696081974968470500,9.435470458984375,1.2186486721038818,-8.652944564819336,10.587459564208984
1696081974978470400,9.445470458984374,3.1196448802948,-9.708786964416504,10.6832275390625
1696081974988470500,9.455470458984376,4.685452938079834,-10.74068832397461,10.333673477172852
1696081974998470400,9.465470458984376,4.280832767486572,-11.42064094543457,9.933841705322266
1696081975008470500,9.475470458984375,3.1459810733795166,-11.537957191467285,9.342473983764648
1696081975018470400,9.485470458984375,2.516305923461914,-11.276988983154297,8.59308910369873
1696081975028470500,9.495470458984375,1.1755530834197998,-11.013627052307129,7.855675220489502
1696081975038470400,9.505470458984375,-0.6703764796257019,-11.123760223388672,6.8716583251953125
1696081975048470500,9.515470458984375,-1.8507179021835327,-12.064682006835938,6.1845221519470215
1696081975058470400,9.525470458984374,-1.2521674633026123,-13.599365234375,5.466261863708496
1696081975068470500,9.535470458984374,0.05027823522686958,-15.23250961303711,4.163516521453857
1696081975078470400,9.545470458984376,-0.47884035110473633,-16.556503295898438,2.9951462745666504
1696081975088470500,9.555470458984376,-1.4772224426269531,-17.957111358642578,2.3487119674682617
1696081975098470400,9.565470458984375,-2.7222073078155518,-19.223644256591797,2.6360161304473877
1696081975108470500,9.575470458984375,-3.624821424484253,-20.257938385009766,2.829946517944336
1696081975118470400,9.585470458984375,-4.443638324737549,-19.5588321685791,1.9321208000183105
1696081975128470500,9.595470458984375,-2.652775526046753,-17.1622371673584,0.45489832758903503
1696081975138470400,9.605470458984374,0.7110779285430908,-14.756063461303711,-0.07661445438861847
1696081975148470500,9.615470458984374,3.6176388263702393,-12.857162475585938,0.5171475410461426
1696081975158470400,9.625470458984376,3.6559460163116455,-11.20516300201416,1.2258312702178955
1696081975168470500,9.635470458984376,0.8738836050033569,-10.247482299804688,1.2425906658172607
1696081975178470400,9.645470458984375,-1.7836803197860718,-9.672874450683594,1.6065093278884888
1696081975188470500,9.655470458984375,-2.779668092727661,-9.064746856689453,1.8363527059555054
1696081975198470400,9.665470458984375,-2.9305028915405273,-8.250718116760254,1.766920804977417
1696081975208470500,9.675470458984375,-2.935291290283203,-7.376834869384766,1.7046716213226318
1696081975218470400,9.685470458984375,-2.2577321529388428,-6.146214962005615,1.9632453918457031
1696081975228470500,9.695470458984374,-1.678335428237915,-5.150227069854736,2.190694570541382
1696081975238470400,9.705470458984376,-1.3838485479354858,-4.28322696685791,2.5091233253479004
1696081975248470500,9.715470458984376,-1.3934253454208374,-3.7876269817352295,2.499546527862549
1696081975258470400,9.725470458984375,-1.4173674583435059,-3.4835634231567383,2.319981336593628
1696081975268470300,9.73547021484375,-1.6879122257232666,-3.399766445159912,1.9105730056762695
1696081975278470400,9.745470458984375,-1.8267759084701538,-3.751713991165161,1.6424223184585571
1696081975288470300,9.75547021484375,-1.9273324012756348,-4.2544965744018555,1.1803414821624756
1696081975298470400,9.765470458984375,-2.030282974243164,-4.738125324249268,0.6823474764823914
1696081975308470300,9.77547021484375,-2.27209734916687,-5.114314079284668,0.028730420395731926
1696081975318470400,9.785470458984374,-2.5546131134033203,-5.341763496398926,-0.7805097699165344
1696081975328470300,9.79547021484375,-2.940079689025879,-5.404012680053711,-1.577778935432434
1696081975338469600,9.8054697265625,-3.0885202884674072,-5.320215225219727,-2.2577321529388428
1696081975348469800,9.8154697265625,-3.069366693496704,-5.052064895629883,-2.7222073078155518
1696081975358469600,9.8254697265625,-2.6192567348480225,-4.7405195236206055,-2.9448680877685547
1696081975368469800,9.8354697265625,-1.824381709098816,-4.333505153656006,-3.090914487838745
1696081975378469600,9.8454697265625,-1.2497732639312744,-3.8570590019226074,-2.715024709701538
1696081975388469800,9.8554697265625,-0.8954314589500427,-3.627215623855591,-1.6663644313812256
1696081975398469600,9.8654697265625,-0.21787235140800476,-3.665522813796997,0.45010992884635925
1696081975408469800,9.8754697265625,1.4748282432556152,-3.907337188720703,3.251325845718384
1696081975418469400,9.885469482421875,6.349722385406494,-4.72376012802124,6.78546667098999
1696081975428469200,9.89546923828125,10.47014331817627,-6.177339553833008,11.255441665649414
1696081975438469400,9.905469482421875,10.434229850769043,-8.078335762023926,15.761628150939941
1696081975448469200,9.91546923828125,11.358391761779785,-9.830891609191895,21.081544876098633
1696081975458469400,9.925469482421875,15.826272010803223,-12.007221221923828,22.154146194458008
1696081975468469200,9.93546923828125,15.919645309448242,-14.252982139587402,22.264280319213867
1696081975478469400,9.945469482421874,11.834837913513184,-16.183008193969727,19.86768341064453
1696081975488469200,9.95546923828125,8.154950141906738,-15.359402656555176,12.931382179260254
1696081975498469400,9.965469482421875,4.855441093444824,-11.925817489624023,7.197269439697266
1696081975508469200,9.97546923828125,3.861847400665283,-7.807791233062744,3.5410242080688477
1696081975518469400,9.985469482421875,3.3470940589904785,-4.980238914489746,0.3064578175544739
1696081975528469200,9.99546923828125,2.2601263523101807,-5.090372085571289,-2.032677173614502
1696081975538469400,10.005469482421875,3.5889084339141846,-8.34648609161377,-3.136404275894165
1696081975548469200,10.01546923828125,4.6255974769592285,-11.710339546203613,-3.5458126068115234
1696081975558469400,10.025469482421874,0.2944868206977844,-14.57380485534668,-2.1811177730560303
1696081975568469200,10.03546923828125,-2.4684219360351562,-18.15822410583496,1.9393033981323242
1696081975578469400,10.045469482421876,-2.8874073028564453,-18.81902313232422,6.457461357116699
1696081975588469200,10.05546923828125,-3.773261785507202,-14.382268905639648,6.196493148803711
1696081975598469400,10.065469482421875,-3.3279404640197754,-10.654497146606445,4.338293552398682
1696081975608469200,10.07546923828125,-4.146757125854492,-7.539640426635742,2.6168625354766846
1696081975618469400,10.085469482421875,-4.520252704620361,-6.261136531829834,1.4652514457702637
1696081975628469200,10.09546923828125,-4.084507942199707,-6.002562999725342,0.7733271718025208
1696081975638470000,10.105469970703124,-3.9600095748901367,-6.905177116394043,0.3687070608139038
1696081975648470000,10.115469970703124,-4.14915132522583,-8.363245964050293,0.3663128614425659
1696081975658470000,10.125469970703126,-4.364629745483398,-10.041581153869629,0.35913026332855225
1696081975668470000,10.135469970703125,-4.862623691558838,-11.92821216583252,1.1252747774124146
1696081975678470000,10.145469970703125,-5.801449775695801,-13.374309539794922,2.4133553504943848
1696081975688470000,10.155469970703125,-6.97700309753418,-13.537116050720215,3.466804027557373
1696081975698470000,10.165469970703125,-7.2212114334106445,-12.672808647155762,4.067748546600342
1696081975708470000,10.175469970703125,-6.577171325683594,-11.607389450073242,4.402936935424805
1696081975718470400,10.185470458984375,-5.483021259307861,-10.539575576782227,4.247313976287842
1696081975728470300,10.19547021484375,-3.6750996112823486,-9.29458999633789,3.9408559799194336
1696081975738470400,10.205470458984376,-1.2425906658172607,-8.257901191711426,3.8283286094665527
1696081975748470300,10.21547021484375,1.1061211824417114,-7.594707012176514,3.869029998779297
1696081975758470400,10.225470458984375,3.308786630630493,-7.051223278045654,4.072536945343018
1696081975768470300,10.23547021484375,4.644751071929932,-6.783072471618652,4.434061527252197
1696081975778470400,10.245470458984375,4.532223701477051,-6.641814708709717,4.395754337310791
1696081975788470300,10.25547021484375,3.251325845718384,-6.658574104309082,3.6320040225982666
1696081975798470400,10.265470458984375,1.6160861253738403,-6.883629322052002,2.736572504043579
1696081975808470300,10.27547021484375,0.05506663769483566,-7.19248104095459,2.3104045391082764
1696081975818470400,10.285470458984374,-0.6991068720817566,-7.654561996459961,2.2840683460235596
1696081975828470300,10.29547021484375,-1.1994950771331787,-8.047211647033691,2.315192937850952
1696081975838470400,10.305470458984376,-1.5610195398330688,-8.21959400177002,2.31758713722229
1696081975848470300,10.31547021484375,-2.0853497982025146,-8.150161743164062,2.1787235736846924
1696081975858470400,10.325470458984375,-1.4772224426269531,-8.119037628173828,1.98958158493042
1696081975868470300,10.33547021484375,-0.24420857429504395,-7.910741806030273,2.0877439975738525
1696081975878470400,10.345470458984375,1.41257905960083,-7.829339027404785,2.1356279850006104
1696081975888470300,10.35547021484375,3.423708438873291,-8.308178901672363,3.0526070594787598
1696081975898470400,10.365470458984374,4.915595531463623,-8.995314598083496,4.639962673187256
1696081975908470300,10.37547021484375,4.618414878845215,-9.292196273803711,6.021716594696045
1696081975918470400,10.385470458984376,2.647987127304077,-9.016862869262695,6.771101474761963
1696081975928470300,10.39547021484375,0.3734954595565796,-8.61703109741211,6.9817914962768555
1696081975938470400,10.405470458984375,-1.3024457693099976,-8.260294914245605,7.053617477416992
1696081975948470300,10.41547021484375,-2.1068975925445557,-7.98256778717041,6.979397296905518
1696081975958470400,10.425470458984375,-1.6328455209732056,-8.152556419372559,6.93151330947876
1696081975968470300,10.43547021484375,-0.16519992053508759,-8.83011531829834,6.795043468475342
1696081975978470400,10.445470458984374,1.7812861204147339,-9.58668327331543,6.66096830368042
1696081975988470300,10.45547021484375,3.469198226928711,-10.221146583557129,6.593930721282959
1696081975998470400,10.465470458984376,4.0078935623168945,-10.367192268371582,6.701669692993164
1696081976008470300,10.47547021484375,2.8227639198303223,-10.079888343811035,7.096713066101074
1696081976018470400,10.485470458984375,0.7948749661445618,-9.756670951843262,7.659350395202637
1696081976028470300,10.49547021484375,-0.8427590131759644,-9.519645690917969,8.291419982910156
1696081976038470400,10.505470458984375,-1.4317326545715332,-9.253889083862305,8.854057312011719
1696081976048470300,10.51547021484375,-1.036689281463623,-8.928277015686035,9.244312286376953
1696081976058470400,10.525470458984374,-0.12689268589019775,-8.466196060180664,9.306561470031738
1696081976068470300,10.53547021484375,0.9672574996948242,-8.12861442565918,9.141361236572266
1696081976078470400,10.545470458984376,1.8746598958969116,-8.571541786193848,9.289801597595215
1696081976088470300,10.55547021484375,2.3032219409942627,-9.701604843139648,9.787796020507812
1696081976098470400,10.565470458984375,2.894589900970459,-10.680832862854004,9.902717590332031
1696081976108470300,10.57547021484375,3.3446998596191406,-11.334449768066406,9.488520622253418
1696081976118470400,10.585470458984375,2.9017724990844727,-11.858779907226562,8.588300704956055
1696081976128470300,10.59547021484375,1.6903064250946045,-12.402263641357422,7.870040416717529
1696081976138470400,10.605470458984374,-0.06703764945268631,-12.996026039123535,6.854898929595947
1696081976148470300,10.61547021484375,-1.091755986213684,-13.69273853302002,5.238812446594238
1696081976158470400,10.625470458984376,-1.482010841369629,-14.705785751342773,4.055777549743652
1696081976168470300,10.63547021484375,-1.944091796875,-15.878944396972656,3.201047658920288
1696081976178470400,10.645470458984375,-2.6886885166168213,-17.351377487182617,3.069366693496704
1696081976188470300,10.65547021484375,-2.6384103298187256,-18.974647521972656,3.3925838470458984
1696081976198470400,10.665470458984375,-2.669534921646118,-20.301034927368164,3.7636849880218506
1696081976208470300,10.67547021484375,-3.064578056335449,-20.40877342224121,3.7181951999664307
1696081976218470400,10.685470458984375,-2.3774423599243164,-18.534114837646484,2.564189910888672
1696081976228470300,10.69547021484375,-1.522712230682373,-16.31708335876465,1.2521674633026123
1696081976238470400,10.705470458984376,1.7501614093780518,-14.42297077178955,0.5482721924781799
1696081976248470300,10.71547021484375,2.7557260990142822,-12.9649019241333,1.455674648284912
1696081976258470400,10.725470458984375,0.5506663918495178,-11.729493141174316,2.0614075660705566
1696081976268470300,10.73547021484375,-0.7326257228851318,-10.71914005279541,2.4636335372924805
1696081976278470400,10.745470458984375,-0.9385270476341248,-9.840468406677246,2.5977089405059814
1696081976288470300,10.75547021484375,-1.3527239561080933,-8.8971529006958,2.7772738933563232
1696081976298470400,10.765470458984375,-1.6208745241165161,-8.19804573059082,2.715024709701538
1696081976308470300,10.77547021484375,-2.2409727573394775,-7.376834869384766,2.537853717803955
1696081976318470400,10.785470458984374,-2.7437551021575928,-6.56998872756958,2.4205379486083984
1696081976328470300,10.79547021484375,-2.296039342880249,-5.777507781982422,2.4684219360351562
1696081976338470400,10.805470458984376,-1.3503297567367554,-4.898836135864258,1.9369091987609863
1696081976348470300,10.81547021484375,-1.0773907899856567,-4.316745758056641,1.37906014919281
1696081976358470400,10.825470458984375,-1.2306196689605713,-3.993528366088867,1.0582371950149536
1696081976368470300,10.83547021484375,-1.4413094520568848,-3.799597978591919,0.5817909836769104
1696081976378470400,10.845470458984375,-1.5729905366897583,-3.9671921730041504,0.13407529890537262
1696081976388470300,10.85547021484375,-1.6903064250946045,-4.230554580688477,-0.24420857429504395
1696081976398470400,10.865470458984374,-2.0829553604125977,-4.525041103363037,-0.5602431893348694
1696081976408470300,10.87547021484375,-2.4157495498657227,-4.855441093444824,-0.8020575642585754
1696081976418470400,10.885470458984376,-2.542642116546631,-5.085583686828613,-0.9648633003234863
1696081976428470300,10.89547021484375,-2.4444799423217773,-5.164592266082764,-1.2832920551300049
1696081976438470400,10.905470458984375,-2.5905263423919678,-5.104737281799316,-1.7142484188079834
1696081976448470300,10.91547021484375,-2.779668092727661,-5.0592474937438965,-2.0159177780151367
1696081976458470400,10.925470458984375,-2.6240451335906982,-4.910807132720947,-2.425326347351074
1696081976468470300,10.93547021484375,-2.229001760482788,-4.747702121734619,-2.808398485183716
1696081976478470400,10.945470458984374,-1.3551181554794312,-4.5154643058776855,-3.1962592601776123
1696081976488470300,10.95547021484375,-0.730231523513794,-4.127603530883789,-3.31118106842041
1696081976498470400,10.965470458984376,-0.42377370595932007,-3.732560396194458,-2.6216509342193604
1696081976508470300,10.97547021484375,0.47165772318840027,-3.7708675861358643,-1.1061211824417114
1696081976518470400,10.985470458984375,1.6208745241165161,-4.299986362457275,1.213860273361206
1696081976528470300,10.99547021484375,3.9432501792907715,-5.238812446594238,4.0078935623168945
1696081976538470400,11.005470458984375,11.11418342590332,-7.355287075042725,7.951443195343018
1696081976548470300,11.01547021484375,17.751209259033203,-10.692804336547852,13.910611152648926
1696081976558470400,11.025470458984374,16.637907028198242,-14.461277961730957,20.32737159729004
1696081976568470300,11.03547021484375,12.981660842895508,-17.835006713867188,25.30760955810547
1696081976578470400,11.045470458984376,13.913004875183105,-19.24040412902832,26.16473388671875
1696081976588470300,11.05547021484375,12.770971298217773,-17.509395599365234,25.3818302154541
1696081976598470400,11.065470458984375,7.676109790802002,-13.211503982543945,15.732897758483887
1696081976608470300,11.07547021484375,3.4308910369873047,-8.554781913757324,8.693645477294922
1696081976618470400,11.085470458984375,1.4915876388549805,-4.1156325340271,4.9060187339782715
1696081976628470300,11.09547021484375,1.2401964664459229,-0.19153612852096558,1.5418659448623657
1696081976638470400,11.105470458984374,2.650381326675415,1.8722656965255737,-1.4508862495422363
1696081976648470300,11.11547021484375,-2.7700912952423096,0.45489832758903503,-2.585737943649292
1696081976658470400,11.125470458984376,-6.160580158233643,-4.458003520965576,-1.9776105880737305
1696081976668470300,11.13547021484375,-6.75194787979126,-10.213963508605957,-0.08140286058187485
1696081976678470400,11.145470458984375,-5.210082054138184,-14.616900444030762,2.2361843585968018
1696081976688470300,11.15547021484375,0.3663128614425659,-19.206884384155273,6.550835132598877
1696081976698470400,11.165470458984375,7.14699125289917,-21.771074295043945,11.631331443786621
1696081976708470300,11.17547021484375,6.146214962005615,-20.04485511779785,8.86363410949707
1696081976718470400,11.185470458984375,2.161964178085327,-15.500659942626953,2.209848165512085
1696081976728470300,11.19547021484375,-2.7557260990142822,-11.118971824645996,-1.8746598958969116
1696081976738470400,11.205470458984376,-4.393360137939453,-8.348880767822266,-3.2345664501190186
1696081976748470300,11.21547021484375,-4.4077253341674805,-6.613084316253662,-4.355052947998047
1696081976758470400,11.225470458984375,-5.485415458679199,-5.825392246246338,-4.702212333679199
1696081976768470300,11.23547021484375,-6.22043514251709,-6.790255069732666,-4.244919776916504
1696081976778470400,11.245470458984375,-6.026504993438721,-8.700828552246094,-2.542642116546631
1696081976788470300,11.25547021484375,-5.547664642333984,-10.767024040222168,-0.6751648783683777
1696081976798470400,11.265470458984375,-5.727229595184326,-12.337620735168457,1.4844050407409668
1696081976808470300,11.27547021484375,-5.485415458679199,-12.670414924621582,2.9544448852539062
1696081976818470400,11.285470458984374,-5.0161519050598145,-12.2681884765625,3.864241600036621
1696081976828470300,11.29547021484375,-4.817133903503418,-11.540351867675781,4.1156325340271
1696081976838470400,11.305470458984376,-4.343081951141357,-10.728716850280762,3.931279182434082
1696081976848470300,11.31547021484375,-3.3423056602478027,-9.74709415435791,3.7469255924224854
1696081976858470400,11.325470458984375,-1.1827356815338135,-8.55717658996582,3.8786067962646484
1696081976868470300,11.33547021484375,1.900996208190918,-7.630620002746582,4.460397720336914
1696081976878470400,11.345470458984375,4.594472885131836,-7.012916088104248,5.55245304107666
1696081976888470300,11.35547021484375,5.815814971923828,-6.730400085449219,6.1414265632629395
1696081976898470400,11.365470458984374,5.267542839050293,-6.632237911224365,5.765536785125732
1696081976908470300,11.37547021484375,3.3207578659057617,-6.759130477905273,5.03291130065918
1696081976918470400,11.385470458984376,1.3838485479354858,-7.142202854156494,4.424484729766846
1696081976928470300,11.39547021484375,0.181959331035614,-7.673715591430664,4.036623954772949
1696081976938470400,11.405470458984375,-0.6775590777397156,-8.035240173339844,3.9240965843200684
1696081976948470300,11.41547021484375,-1.9273324012756348,-8.075942039489746,3.7038300037384033
1696081976958470400,11.425470458984375,-2.0446481704711914,-7.9753851890563965,3.3734302520751953
1696081976968470500,11.435470458984375,-1.8770540952682495,-7.9322896003723145,3.246537446975708
1696081976978470400,11.445470458984374,-1.213860273361206,-7.874828815460205,3.157952070236206
1696081976988470500,11.455470458984376,-0.8810662031173706,-8.032846450805664,3.181894063949585
1696081976998470400,11.465470458984376,-0.0933738648891449,-8.545205116271973,3.3039982318878174
1696081977008470500,11.475470458984375,0.9600749015808105,-9.249100685119629,3.6822822093963623
1696081977018470400,11.485470458984375,1.6639702320098877,-9.610625267028809,4.323928356170654
1696081977028470300,11.49547021484375,1.4772224426269531,-9.624990463256836,4.81473970413208
1696081977038470400,11.505470458984375,0.4381389021873474,-9.419088363647461,5.11191987991333
1696081977048470300,11.51547021484375,-0.48602294921875,-9.301773071289062,5.444714069366455
1696081977058470400,11.525470458984374,-0.8690952062606812,-9.29458999633789,5.638644218444824
1696081977068470300,11.53547021484375,-0.45489832758903503,-9.3735990524292,5.664980411529541
1696081977078470400,11.545470458984376,1.0271124839782715,-9.366415977478027,5.430348873138428
1696081977088470300,11.55547021484375,3.1076738834381104,-9.320926666259766,5.092766284942627
1696081977098470400,11.565470458984375,4.7189717292785645,-9.246706008911133,5.054459095001221
1696081977108470300,11.57547021484375,4.613626480102539,-9.141361236572266,5.4351372718811035
1696081977118470400,11.585470458984375,2.650381326675415,-9.098265647888184,6.234800338745117
1696081977128470300,11.59547021484375,0.545877993106842,-9.026439666748047,6.883629322052002
1696081977138470400,11.605470458984374,-0.7589619159698486,-8.885181427001953,7.319374084472656
1696081977148470300,11.61547021484375,-1.4724340438842773,-8.827720642089844,7.8006086349487305
1696081977158470400,11.625470458984376,-1.900996208190918,-8.765471458435059,8.456619262695312
1696081977168470500,11.635470458984376,-1.8363527059555054,-8.595483779907227,9.038411140441895
1696081977178470400,11.645470458984375,-1.2952631711959839,-8.277054786682129,9.325715065002441
1696081977188470500,11.655470458984375,-0.2082955539226532,-8.085518836975098,9.007286071777344
1696081977198470400,11.665470458984375,1.2665326595306396,-8.351274490356445,8.52605152130127
1696081977208470500,11.675470458984375,3.3446998596191406,-9.56513500213623,8.142979621887207
1696081977218470400,11.685470458984375,5.245995044708252,-11.001656532287598,7.704840183258057
1696081977228470500,11.695470458984374,5.509357452392578,-11.729493141174316,7.065588474273682
1696081977238470400,11.705470458984376,4.668693542480469,-11.882721900939941,6.186916351318359
1696081977248470500,11.715470458984376,3.5410242080688477,-11.801319122314453,5.5668182373046875
1696081977258470400,11.725470458984375,1.5155296325683594,-11.923423767089844,5.86848783493042
1696081977268470300,11.73547021484375,-0.9433154463768005,-12.30170726776123,6.467038154602051
1696081977278470400,11.745470458984375,-2.849100112915039,-13.163619995117188,6.845322132110596
1696081977288470300,11.75547021484375,-2.937685489654541,-14.602535247802734,6.768707275390625
1696081977298470400,11.765470458984375,-1.6376339197158813,-16.171037673950195,5.73441219329834
1696081977308470300,11.77547021484375,-1.414973258972168,-17.523759841918945,4.7836151123046875
1696081977318470400,11.785470458984374,-1.8339585065841675,-18.69213104248047,4.182670593261719
1696081977328470300,11.79547021484375,-2.049436569213867,-19.5588321685791,3.2417490482330322
1696081977338470400,11.805470458984376,-2.0590133666992188,-19.724031448364258,2.434903144836426
1696081977348470300,11.81547021484375,-1.6376339197158813,-19.24040412902832,1.259350061416626
1696081977358470400,11.825470458984375,-0.19393034279346466,-17.66501808166504,-0.10534487664699554
1696081977368470300,11.83547021484375,1.7357962131500244,-15.634736061096191,-0.7757213711738586
1696081977378470400,11.845470458984375,1.745373010635376,-13.340790748596191,-0.8355764150619507
1696081977388470300,11.85547021484375,-0.26815059781074524,-11.22671127319336,-1.070208191871643
1696081977398470400,11.865470458984374,-1.7693150043487549,-9.598653793334961,-0.6775590777397156
1696081977408470300,11.87547021484375,-2.099714994430542,-8.454225540161133,-0.08858546614646912
1696081977418470400,11.885470458984376,-2.4181437492370605,-7.676109790802002,0.5195417404174805
1696081977428470300,11.89547021484375,-2.3798365592956543,-7.0464348793029785,1.3551181554794312
1696081977438470400,11.905470458984375,-2.2409727573394775,-6.593930721282959,2.1308395862579346
1696081977448470300,11.91547021484375,-1.6519991159439087,-5.885247230529785,2.7772738933563232
1696081977458470400,11.925470458984375,-0.8667010068893433,-4.932354927062988,3.6511576175689697
1696081977468470300,11.93547021484375,-0.181959331035614,-3.952826976776123,3.993528366088867
1696081977478470400,11.945470458984374,-0.11013327538967133,-3.335123062133789,4.448426723480225
1696081977488470300,11.95547021484375,-0.5123591423034668,-3.071760892868042,4.616020679473877
1696081977498470400,11.965470458984376,-0.7948749661445618,-3.1723172664642334,4.513070106506348
1696081977508470300,11.97547021484375,-1.3287819623947144,-3.6966474056243896,3.9480385780334473
1696081977518470400,11.985470458984375,-1.766920804977417,-4.486733913421631,3.155557870864868
1696081977528470300,11.99547021484375,-1.5753847360610962,-5.243600845336914,2.2816741466522217
1696081977538470400,12.005470458984375,-1.403002142906189,-5.904400825500488,1.501164436340332
1696081977548470300,12.01547021484375,-1.235408067703247,-6.519710540771484,0.6009446382522583
1696081977558470400,12.025470458984374,-1.2186486721038818,-6.876446723937988,-0.5051765441894531
1696081977568470300,12.03547021484375,-1.2234370708465576,-6.957849502563477,-1.5131354331970215
1696081977578470400,12.045470458984376,-1.3958195447921753,-6.890811920166016,-2.427720546722412
1696081977588470300,12.05547021484375,-1.6208745241165161,-6.565200328826904,-3.141192674636841
1696081977598470400,12.065470458984375,-1.4652514457702637,-6.064812183380127,-3.404554843902588
1696081977608470300,12.07547021484375,-0.9409212470054626,-5.459079265594482,-3.378218650817871
1696081977618470400,12.085470458984375,-0.31603461503982544,-4.925172328948975,-3.205836057662964
1696081977628470300,12.09547021484375,0.4572925269603729,-4.508281707763672,-2.868253707885742
1696081977638470400,12.105470458984374,1.1300631761550903,-4.2090067863464355,-2.1978771686553955
1696081977648470300,12.11547021484375,1.434126853942871,-4.0964789390563965,-0.7422025203704834
1696081977658470400,12.125470458984376,1.8267759084701538,-4.1874589920043945,1.723825216293335
1696081977668470300,12.13547021484375,3.8115692138671875,-4.6950297355651855,5.087977886199951
1696081977678470400,12.145470458984375,8.980949401855469,-5.954679012298584,9.122207641601562
1696081977688470300,12.15547021484375,13.719075202941895,-7.870040416717529,13.585000038146973
1696081977698470400,12.165470458984375,13.879486083984375,-9.742305755615234,18.555662155151367
1696081977708470300,12.17547021484375,10.8412446975708,-11.391910552978516,22.65932273864746
1696081977718470400,12.185470458984375,8.940248489379883,-13.549086570739746,23.212383270263672
1696081977728470300,12.19547021484375,8.7391357421875,-15.493477821350098,22.927474975585938
1696081977738470400,12.205470458984376,7.163750648498535,-15.670648574829102,18.570026397705078
1696081977748470300,12.21547021484375,4.577713489532471,-13.664008140563965,11.83962631225586
1696081977758470400,12.225470458984375,2.911349296569824,-10.187627792358398,6.550835132598877
1696081977768470300,12.23547021484375,2.518700122833252,-6.325780391693115,2.5977089405059814
1696081977778470400,12.245470458984375,1.987187385559082,-3.292027235031128,-0.3519476354122162
1696081977788470300,12.25547021484375,0.23942017555236816,-2.3056161403656006,-2.717418909072876
1696081977798470400,12.265470458984375,0.22026655077934265,-4.898836135864258,-3.222595453262329
1696081977808470300,12.27547021484375,1.5490485429763794,-9.428665161132812,-2.674323320388794
1696081977818470400,12.285470458984374,1.0247182846069336,-14.583381652832031,-0.35673606395721436
1696081977828470300,12.29547021484375,5.339369297027588,-19.513341903686523,4.405331134796143
1696081977838470400,12.305470458984376,6.565200328826904,-21.847688674926758,10.812514305114746
1696081977848470300,12.31547021484375,0.24899697303771973,-18.51496124267578,10.71914005279541
1696081977858470400,12.325470458984375,-4.041412353515625,-13.051093101501465,5.444714069366455
1696081977868470300,12.33547021484375,-6.862081527709961,-8.655338287353516,1.094150185585022
1696081977878470400,12.345470458984375,-6.696881294250488,-5.4159836769104,-0.9744400978088379
1696081977888470300,12.35547021484375,-5.047276496887207,-3.8738183975219727,-2.161964178085327
1696081977898470400,12.365470458984374,-4.350264549255371,-4.2544965744018555,-2.3774423599243164
1696081977908470300,12.37547021484375,-5.073612689971924,-5.7631425857543945,-2.10210919380188
1696081977918470400,12.385470458984376,-5.480627059936523,-7.946654796600342,-1.8842366933822632
1696081977928470300,12.39547021484375,-5.269937038421631,-10.642525672912598,-0.7852981686592102
1696081977938470400,12.405470458984375,-5.054459095001221,-12.53633975982666,0.7829039692878723
1696081977948470300,12.41547021484375,-5.557241439819336,-13.675979614257812,2.099714994430542
1696081977958470400,12.425470458984375,-6.222829341888428,-13.764564514160156,3.335123062133789
1696081977968470300,12.43547021484375,-6.66096830368042,-12.591405868530273,3.1292216777801514
1696081977978470400,12.445470458984374,-6.165368556976318,-11.051934242248535,2.1595699787139893
1696081977988470300,12.45547021484375,-4.757278919219971,-9.900322914123535,2.0183119773864746
1696081977998470400,12.465470458984376,-2.449268341064453,-8.952219009399414,2.3582887649536133
1696081978008470300,12.47547021484375,1.0271124839782715,-8.166921615600586,3.0310592651367188
1696081978018470400,12.485470458984375,5.011363506317139,-7.582736015319824,3.579331636428833
1696081978028470300,12.49547021484375,7.362469673156738,-7.0679826736450195,4.829104900360107
1696081978038470400,12.505470458984375,6.186916351318359,-6.687304496765137,5.238812446594238
1696081978048470300,12.51547021484375,3.380612850189209,-6.56998872756958,4.903624534606934
1696081978058470400,12.525470458984374,0.6488286852836609,-6.730400085449219,4.788403511047363
1696081978068470300,12.53547021484375,-1.3982137441635132,-7.202057838439941,5.1023430824279785
1696081978078470400,12.545470458984376,-2.3918075561523438,-7.7287821769714355,5.492598056793213
1696081978088470300,12.55547021484375,-2.126051187515259,-7.8867998123168945,5.480627059936523
1696081978098470400,12.565470458984375,-1.4460978507995605,-7.850886821746826,5.375282287597656
1696081978108470300,12.57547021484375,-0.27054479718208313,-8.087912559509277,5.406406879425049
1696081978118470400,12.585470458984375,1.3503297567367554,-8.789413452148438,5.91397762298584
1696081978128470300,12.59547021484375,3.648763418197632,-9.754277229309082,7.017704486846924
1696081978138470400,12.605470458984374,5.542876243591309,-10.187627792358398,7.661744594573975
1696081978148470300,12.61547021484375,5.394435882568359,-9.806949615478516,7.676109790802002
1696081978158470400,12.625470458984376,3.49314022064209,-8.882787704467773,7.214028835296631
1696081978168470300,12.63547021484375,0.7326257228851318,-8.13100814819336,6.426336765289307
1696081978178470400,12.645470458984375,-1.900996208190918,-7.5324578285217285,5.365705490112305
1696081978188470300,12.65547021484375,-3.6727054119110107,-7.132626056671143,4.034229755401611
1696081978198470400,12.665470458984375,-4.211400985717773,-6.79743766784668,2.935291290283203
1696081978208470300,12.67547021484375,-3.9432501792907715,-6.969820499420166,2.123656988143921
1696081978218470400,12.685470458984375,-3.31118106842041,-7.613860607147217,1.7860745191574097
1696081978228470300,12.69547021484375,-2.3319525718688965,-8.430283546447754,1.5921441316604614
1696081978238470400,12.705470458984376,-1.4460978507995605,-9.04319953918457,1.6639702320098877
