time,seconds_elapsed,z,y,x
1695713634084098300,0.192098388671875,0.71624755859375,-0.244598388671875,1.36077880859375
1695713634093650200,0.201650146484375,0.557861328125,-0.269012451171875,1.449127197265625
1695713634103171600,0.211171630859375,0.388031005859375,-0.216217041015625,1.450653076171875
1695713634112693200,0.220693359375,0.36346435546875,-0.324249267578125,1.414642333984375
1695713634122245000,0.2302451171875,0.3436279296875,-0.248260498046875,1.314697265625
1695713634131797200,0.23979736328125,0.375518798828125,-0.189666748046875,1.172637939453125
1695713634141349000,0.24934912109375,0.34576416015625,0.049591064453125,1.029205322265625
1695713634150901200,0.2589013671875,0.279541015625,0.17974853515625,0.90850830078125
1695713634160422700,0.268422607421875,0.24444580078125,0.31219482421875,0.812835693359375
1695713634169974800,0.277974853515625,0.491485595703125,0.498809814453125,0.726470947265625
1695713634179526700,0.287526611328125,0.63751220703125,0.782623291015625,0.570068359375
1695713634189078800,0.297078857421875,0.6103515625,1.016845703125,0.27008056640625
1695713634198630700,0.306630615234375,0.533905029296875,1.101837158203125,-0.362701416015625
1695713634208152000,0.316152099609375,0.473480224609375,1.113433837890625,-0.89935302734375
1695713634217704200,0.3257041015625,0.466156005859375,0.9674072265625,-1.1810302734375
1695713634227256000,0.335256103515625,0.400543212890625,0.725250244140625,-1.23260498046875
1695713634236808200,0.34480810546875,0.160980224609375,0.458221435546875,-1.106719970703125
1695713634246360000,0.354360107421875,-0.10009765625,0.264892578125,-0.841064453125
1695713634255881700,0.3638818359375,-0.15594482421875,0.116119384765625,-0.47515869140625
1695713634265433600,0.37343359375,-0.01373291015625,-0.12359619140625,-0.120849609375
1695713634274985700,0.38298583984375,0.2838134765625,-0.46051025390625,0.21331787109375
1695713634284568000,0.392568115234375,0.552978515625,-0.75958251953125,0.4949951171875
1695713634294089700,0.40208984375,0.6329345703125,-0.895538330078125,0.655517578125
1695713634303641600,0.4116416015625,0.26641845703125,-1.021575927734375,0.5291748046875
1695713634313193700,0.42119384765625,-0.524139404296875,-0.973663330078125,-0.079345703125
1695713634322745600,0.43074560546875,-0.7080078125,-0.458984375,-0.50750732421875
1695713634332297700,0.440297607421875,-0.342559814453125,-0.188140869140625,-0.48004150390625
1695713634341819100,0.449819091796875,-0.204010009765625,-0.183563232421875,-0.556640625
1695713634351371300,0.459371337890625,-0.292510986328125,-0.10101318359375,-0.638885498046875
1695713634360923100,0.468923095703125,-0.343017578125,0.025787353515625,-0.616607666015625
1695713634370475300,0.478475341796875,-0.3338623046875,0.2996826171875,-0.597381591796875
1695713634379996700,0.48799658203125,-0.282135009765625,0.513153076171875,-0.597991943359375
1695713634389548500,0.497548583984375,-0.204315185546875,0.465850830078125,-0.596771240234375
1695713634399100700,0.5071005859375,-0.178680419921875,0.26641845703125,-0.53802490234375
1695713634408652500,0.516652587890625,-0.174713134765625,-0.00396728515625,-0.406494140625
1695713634418204700,0.52620458984375,-0.166473388671875,-0.236358642578125,-0.254669189453125
1695713634427726000,0.53572607421875,-0.167083740234375,-0.282745361328125,-0.20660400390625
1695713634437278200,0.5452783203125,-0.1495361328125,-0.195159912109375,-0.243988037109375
1695713634446830000,0.554830078125,-0.09429931640625,-0.11993408203125,-0.270233154296875
1695713634456382200,0.56438232421875,-0.0250244140625,-0.14801025390625,-0.249786376953125
1695713634465934000,0.57393408203125,0.047149658203125,-0.279388427734375,-0.17791748046875
1695713634475455700,0.583455810546875,0.127716064453125,-0.48614501953125,-0.08941650390625
1695713634485007600,0.593007568359375,0.2301025390625,-0.7696533203125,-0.019073486328125
1695713634494559700,0.602559814453125,0.28900146484375,-1.10687255859375,0.040740966796875
1695713634504111600,0.612111572265625,0.357666015625,-1.371612548828125,0.117645263671875
1695713634513663700,0.621663818359375,0.485992431640625,-1.59454345703125,0.162353515625
1695713634523185200,0.63118505859375,0.728912353515625,-1.90093994140625,0.12939453125
1695713634532737000,0.640737060546875,0.800018310546875,-2.075347900390625,0.1348876953125
1695713634542289200,0.6502890625,0.827789306640625,-1.971588134765625,0.2178955078125
1695713634551841000,0.659841064453125,0.95550537109375,-1.86767578125,0.352020263671875
1695713634561362700,0.66936279296875,1.149444580078125,-1.96502685546875,0.4876708984375
1695713634570945000,0.678945068359375,1.3482666015625,-2.1746826171875,0.621337890625
1695713634580497200,0.6884970703125,1.580352783203125,-2.375640869140625,0.811309814453125
1695713634590049000,0.698049072265625,1.877899169921875,-2.59796142578125,1.105194091796875
1695713634599601200,0.70760107421875,2.212982177734375,-2.92083740234375,1.481170654296875
1695713634609122600,0.71712255859375,2.631988525390625,-3.3148193359375,1.908416748046875
1695713634618674700,0.7266748046875,3.099365234375,-3.7469482421875,2.3162841796875
1695713634628226600,0.7362265625,3.54949951171875,-4.167633056640625,2.65472412109375
1695713634637778700,0.74577880859375,4.079437255859375,-4.540252685546875,2.878875732421875
1695713634647330600,0.75533056640625,4.698944091796875,-4.855804443359375,2.962799072265625
1695713634656852200,0.764852294921875,5.350341796875,-5.130615234375,2.897186279296875
1695713634666404000,0.774404052734375,5.98846435546875,-5.342254638671875,2.783203125
1695713634675956200,0.783956298828125,6.553802490234375,-5.580596923828125,2.80059814453125
1695713634685508000,0.793508056640625,6.945037841796875,-5.8660888671875,3.06793212890625
1695713634695060200,0.803060302734375,7.15301513671875,-6.1541748046875,3.622589111328125
1695713634704581600,0.81258154296875,7.18505859375,-6.391754150390625,4.364776611328125
1695713634714133500,0.822133544921875,6.962432861328125,-6.56097412109375,5.130157470703125
1695713634723685600,0.831685546875,6.623992919921875,-6.648101806640625,5.780181884765625
1695713634733237500,0.841237548828125,6.198272705078125,-6.58843994140625,6.220550537109375
1695713634742759200,0.85075927734375,5.60943603515625,-6.353302001953125,6.469573974609375
1695713634752311000,0.86031103515625,4.964599609375,-5.794677734375,6.515350341796875
1695713634761863200,0.86986328125,4.382476806640625,-4.945831298828125,6.25457763671875
1695713634771415000,0.8794150390625,3.8641357421875,-3.9874267578125,5.724945068359375
1695713634780967200,0.88896728515625,3.391571044921875,-2.98370361328125,5.089874267578125
1695713634790488600,0.898488525390625,2.959747314453125,-2.057342529296875,4.4989013671875
1695713634800040700,0.908040771484375,2.543487548828125,-1.355133056640625,4.011993408203125
1695713634809592600,0.917592529296875,2.11669921875,-0.8526611328125,3.622283935546875
1695713634819144700,0.927144775390625,1.7498779296875,-0.4638671875,3.288726806640625
1695713634828696600,0.936696533203125,1.454315185546875,-0.205535888671875,2.989044189453125
1695713634838218000,0.946218017578125,1.211090087890625,-0.07080078125,2.779541015625
1695713634847770000,0.95577001953125,1.02294921875,-0.232086181640625,2.7838134765625
1695713634857352700,0.965352783203125,0.830535888671875,-0.922393798828125,3.01300048828125
1695713634866904600,0.974904541015625,0.731658935546875,-1.8780517578125,3.311004638671875
1695713634876426000,0.984426025390625,0.823516845703125,-2.434539794921875,3.4490966796875
1695713634885978000,0.99397802734375,1.096038818359375,-2.27081298828125,3.3740234375
1695713634895530000,1.003530029296875,1.40350341796875,-1.60614013671875,3.11737060546875
1695713634905082000,1.01308203125,1.562042236328125,-1.067352294921875,2.72674560546875
1695713634914634000,1.022634033203125,1.41357421875,-1.44775390625,2.05108642578125
1695713634924155600,1.03215576171875,1.0321044921875,-1.89422607421875,1.190032958984375
1695713634933707500,1.04170751953125,0.919189453125,-1.342010498046875,0.55450439453125
1695713634943259600,1.051259765625,1.109466552734375,-0.611114501953125,0.1446533203125
1695713634952811500,1.0608115234375,1.39556884765625,-0.1446533203125,-0.16876220703125
1695713634962363600,1.07036376953125,1.6424560546875,0.112457275390625,-0.321197509765625
1695713634971885000,1.079885009765625,1.843414306640625,0.152740478515625,-0.333099365234375
1695713634981437200,1.089437255859375,1.99066162109375,0.139923095703125,-0.292510986328125
1695713634990989000,1.098989013671875,2.02545166015625,0.18646240234375,-0.253143310546875
1695713635000541200,1.108541259765625,1.986083984375,0.19256591796875,-0.238494873046875
1695713635010062600,1.1180625,1.958465576171875,0.20263671875,-0.2001953125
1695713635019614500,1.127614501953125,1.981964111328125,0.34027099609375,-0.09429931640625
1695713635029166600,1.13716650390625,1.961517333984375,0.57403564453125,0.20477294921875
1695713635038718500,1.146718505859375,1.830596923828125,0.103302001953125,0.434722900390625
1695713635048301000,1.156301025390625,1.605072021484375,-0.907135009765625,0.696868896484375
1695713635057914000,1.1659140625,1.4044189453125,-1.55242919921875,1.042938232421875
1695713635067527200,1.175527099609375,1.409912109375,-1.8475341796875,1.241455078125
1695713635077140200,1.18514013671875,1.533660888671875,-1.362152099609375,1.455535888671875
1695713635086753300,1.194753173828125,1.75079345703125,-0.612335205078125,1.749725341796875
1695713635096366300,1.204366455078125,2.083740234375,-0.190277099609375,1.800994873046875
1695713635105979400,1.2139794921875,2.50335693359375,-0.40283203125,1.2030029296875
1695713635115623000,1.223622802734375,2.902679443359375,-0.39276123046875,0.27252197265625
1695713635134086000,1.2420859375,3.44512939453125,0.431671142578125,-0.2215576171875
1695713635143668500,1.25166845703125,3.4478759765625,0.2215576171875,0.19073486328125
1695713635153281500,1.261281494140625,3.339691162109375,-0.015869140625,0.66070556640625
1695713635162864000,1.270864013671875,3.241729736328125,0.185546875,0.85479736328125
1695713635172385500,1.280385498046875,2.950592041015625,0.759735107421875,0.5938720703125
1695713635181937700,1.289937744140625,2.35015869140625,1.242523193359375,0.003204345703125
1695713635191459000,1.299458984375,1.76055908203125,1.530303955078125,-0.54931640625
1695713635201011000,1.309010986328125,1.243743896484375,1.520233154296875,-0.814208984375
1695713635210563000,1.31856298828125,0.855255126953125,1.110687255859375,-0.720062255859375
1695713635220115000,1.328114990234375,0.760040283203125,0.545654296875,-0.4266357421875
1695713635229667000,1.3376669921875,0.91064453125,0.130462646484375,-0.11962890625
1695713635239188500,1.3471884765625,1.206512451171875,-0.179901123046875,0.125274658203125
1695713635248740600,1.35674072265625,1.495819091796875,-0.218658447265625,0.284423828125
1695713635258292500,1.36629248046875,1.623687744140625,-0.11871337890625,0.347137451171875
1695713635267844600,1.3758447265625,1.585540771484375,-0.05157470703125,0.357208251953125
1695713635277396500,1.385396484375,1.66595458984375,-0.0811767578125,0.382537841796875
1695713635286918100,1.394918212890625,1.837005615234375,-0.12298583984375,0.410003662109375
1695713635296470000,1.404469970703125,1.984405517578125,-0.0616455078125,0.413055419921875
1695713635306022100,1.414022216796875,2.05535888671875,0.103302001953125,0.338287353515625
1695713635315574000,1.423573974609375,2.05535888671875,0.27801513671875,0.2117919921875
1695713635325095400,1.433095458984375,1.9976806640625,0.428009033203125,0.1446533203125
1695713635334647600,1.4426474609375,1.97723388671875,0.68145751953125,0.126190185546875
1695713635344199400,1.452199462890625,2.08160400390625,0.9844970703125,-0.006866455078125
1695713635353751600,1.46175146484375,2.14080810546875,1.149444580078125,-0.258026123046875
1695713635363303400,1.471303466796875,1.941680908203125,1.136322021484375,-0.269927978515625
1695713635372825000,1.4808251953125,1.66412353515625,1.091461181640625,-0.260467529296875
1695713635382377000,1.490376953125,1.541595458984375,1.097869873046875,-0.211181640625
1695713635391929000,1.49992919921875,1.6754150390625,0.59814453125,0.113067626953125
1695713635401481000,1.50948095703125,1.893463134765625,0.420989990234375,0.26031494140625
1695713635411033000,1.519033203125,2.08038330078125,0.95184326171875,0.037689208984375
1695713635420554500,1.528554443359375,1.99249267578125,-0.523223876953125,0.28228759765625
1695713635430137000,1.53813720703125,1.7071533203125,-0.84442138671875,0.25390625
1695713635439689000,1.54768896484375,1.577606201171875,-0.362548828125,0.025787353515625
1695713635449241000,1.557240966796875,1.63482666015625,0.19073486328125,-0.423583984375
1695713635458762500,1.566762451171875,1.824493408203125,0.60760498046875,-0.714263916015625
1695713635468314600,1.576314697265625,2.00286865234375,0.65826416015625,-0.799560546875
1695713635477866500,1.585866455078125,2.12799072265625,0.444183349609375,-0.8282470703125
1695713635487418600,1.595418701171875,2.04986572265625,0.006256103515625,-1.1492919921875
1695713635496970500,1.604970458984375,1.819000244140625,-0.544586181640625,-1.360626220703125
1695713635506492000,1.614491943359375,1.66961669921875,-1.358795166015625,-1.55548095703125
1695713635516044000,1.6240439453125,1.79443359375,-1.965789794921875,-1.850738525390625
1695713635525596000,1.633595947265625,1.9854736328125,-1.992950439453125,-2.058868408203125
1695713635535148000,1.64314794921875,2.12982177734375,-1.704559326171875,-2.318115234375
1695713635544700000,1.652699951171875,2.206878662109375,-1.21490478515625,-2.62481689453125
1695713635554221600,1.6622216796875,2.169647216796875,-0.76904296875,-2.862701416015625
1695713635563773400,1.6717734375,1.877593994140625,0.078277587890625,-3.605804443359375
1695713635573325600,1.68132568359375,1.68914794921875,0.718994140625,-4.196929931640625
1695713635582877400,1.69087744140625,1.64154052734375,0.70220947265625,-4.212493896484375
1695713635592429600,1.7004296875,1.562957763671875,0.70831298828125,-4.221038818359375
1695713635601951000,1.709950927734375,1.470184326171875,0.574951171875,-3.71978759765625
1695713635611503000,1.719503173828125,1.32598876953125,0.65093994140625,-2.73834228515625
1695713635621055000,1.729054931640625,0.982666015625,1.64581298828125,-1.814422607421875
1695713635630607000,1.738607177734375,0.67352294921875,2.949066162109375,-1.092681884765625
1695713635640128500,1.74812841796875,0.531158447265625,3.711090087890625,-1.068267822265625
1695713635649680400,1.757680419921875,0.495452880859375,3.650054931640625,-1.042938232421875
1695713635659232500,1.767232421875,-0.048828125,3.334197998046875,-0.637664794921875
1695713635668784400,1.776784423828125,-2.062835693359375,3.56475830078125,-0.0604248046875
1695713635678336500,1.78633642578125,-4.903717041015625,3.841552734375,0.62896728515625
1695713635687858000,1.79585791015625,-5.53985595703125,3.1634521484375,1.22528076171875
1695713635697410000,1.80541015625,-4.127044677734375,1.180877685546875,1.024932861328125
1695713635706962000,1.8149619140625,-2.51251220703125,-0.845947265625,0.362396240234375
1695713635716544500,1.82454443359375,-1.43798828125,-2.117462158203125,-0.362396240234375
1695713635726096400,1.834096435546875,-0.884857177734375,-2.356109619140625,-0.90240478515625
1695713635735618000,1.8436181640625,-0.612335205078125,-1.533203125,-1.331329345703125
1695713635745170000,1.853169921875,-0.36834716796875,-0.06988525390625,-1.680145263671875
1695713635754722000,1.86272216796875,-0.00518798828125,1.3262939453125,-1.8701171875
1695713635764274000,1.87227392578125,0.335693359375,2.07244873046875,-1.88629150390625
1695713635773795600,1.881795654296875,0.510101318359375,2.047119140625,-1.795196533203125
1695713635783347500,1.891347412109375,0.556640625,1.79229736328125,-1.6046142578125
1695713635792899600,1.900899658203125,0.54962158203125,1.66412353515625,-1.325225830078125
1695713635802451500,1.910451416015625,0.506439208984375,1.561126708984375,-1.029815673828125
1695713635812003600,1.920003662109375,0.418853759765625,1.416015625,-0.753021240234375
1695713635821525000,1.92952490234375,0.35614013671875,1.252899169921875,-0.43243408203125
1695713635831076900,1.939076904296875,0.389251708984375,1.126556396484375,-0.049591064453125
1695713635840629000,1.94862890625,0.409698486328125,1.03485107421875,0.334320068359375
1695713635850180900,1.958180908203125,0.388641357421875,0.965576171875,0.667266845703125
1695713635859733000,1.96773291015625,0.36285400390625,0.877838134765625,0.9234619140625
1695713635869254400,1.97725439453125,0.3582763671875,0.70648193359375,1.082916259765625
1695713635878806500,1.986806640625,0.372772216796875,0.447540283203125,1.123809814453125
1695713635888358400,1.9963583984375,0.390472412109375,0.168609619140625,1.023712158203125
1695713635897910500,2.00591064453125,0.396270751953125,-0.06317138671875,0.753936767578125
1695713635907432000,2.015431884765625,0.386810302734375,-0.209503173828125,0.330352783203125
1695713635916984000,2.024984130859375,0.35797119140625,-0.246429443359375,-0.1934814453125
1695713635926536000,2.034535888671875,0.31036376953125,-0.06591796875,-0.701141357421875
1695713635936088000,2.044088134765625,0.198974609375,0.35888671875,-1.099395751953125
1695713635945640000,2.053639892578125,0.117340087890625,0.95062255859375,-1.374359130859375
1695713635955161300,2.063161376953125,0.149078369140625,1.504974365234375,-1.5350341796875
1695713635964713500,2.07271337890625,0.393829345703125,1.590118408203125,-1.786651611328125
1695713635974265300,2.082265380859375,0.544586181640625,1.264801025390625,-2.067718505859375
1695713635983817500,2.0918173828125,0.454864501953125,0.72845458984375,-1.91314697265625
1695713635993369300,2.101369384765625,0.377349853515625,-0.030517578125,-1.50634765625
1695713636002921500,2.11092138671875,0.32379150390625,-0.462646484375,-1.090850830078125
1695713636012473300,2.120473388671875,0.274658203125,-0.3875732421875,-0.8544921875
1695713636022025500,2.130025390625,0.102996826171875,0.104217529296875,-0.615692138671875
1695713636031577300,2.139577392578125,-0.198822021484375,0.68023681640625,-0.2203369140625
1695713636041099000,2.14909912109375,-0.3369140625,1.107025146484375,0.2191162109375
1695713636050651000,2.15865087890625,-0.355224609375,1.490325927734375,0.679779052734375
1695713636060203000,2.168203125,-0.318450927734375,1.77490234375,1.20208740234375
1695713636069755000,2.1777548828125,-0.10833740234375,1.39007568359375,1.856536865234375
1695713636079307000,2.18730712890625,0.22125244140625,-0.12786865234375,2.0208740234375
1695713636088828400,2.196828369140625,0.392303466796875,-2.341461181640625,1.2432861328125
1695713636098380500,2.206380615234375,0.26214599609375,-2.725372314453125,0.347442626953125
1695713636107932400,2.215932373046875,0.2215576171875,-1.180419921875,-0.362396240234375
1695713636117484500,2.225484619140625,0.66162109375,-0.39306640625,-0.13763427734375
1695713636127036400,2.235036376953125,1.0089111328125,-0.637969970703125,1.23870849609375
1695713636136557800,2.244557861328125,0.92498779296875,-1.016082763671875,2.288818359375
1695713636146110000,2.25410986328125,0.6494140625,-1.22344970703125,2.521514892578125
1695713636155661800,2.263661865234375,0.191650390625,-0.44891357421875,2.097015380859375
1695713636165214000,2.2732138671875,-0.327606201171875,0.781097412109375,1.443939208984375
1695713636174735400,2.2827353515625,-0.542755126953125,0.419158935546875,1.517486572265625
1695713636184287500,2.29228759765625,-0.49163818359375,-0.799560546875,1.9146728515625
1695713636193839400,2.30183935546875,-0.318756103515625,-2.26593017578125,2.3291015625
1695713636203391500,2.3113916015625,-0.0958251953125,-3.174896240234375,2.526702880859375
1695713636212943400,2.320943359375,0.24139404296875,-3.141021728515625,2.183685302734375
1695713636222465000,2.330465087890625,0.439910888671875,-1.986236572265625,1.62109375
1695713636232017000,2.340016845703125,0.443878173828125,-0.613555908203125,1.3128662109375
1695713636241569000,2.349569091796875,0.3204345703125,0.146331787109375,1.2518310546875
1695713636251121000,2.359120849609375,0.157928466796875,0.444183349609375,1.32843017578125
1695713636260673000,2.368673095703125,0.009002685546875,0.369110107421875,1.469573974609375
1695713636270194400,2.3781943359375,-0.0604248046875,-0.09307861328125,1.62750244140625
1695713636279746300,2.387746337890625,-0.04364013671875,-0.772705078125,1.753997802734375
1695713636289329000,2.397328857421875,0.049896240234375,-1.233978271484375,1.843414306640625
1695713636298881000,2.406881103515625,0.137176513671875,-1.342926025390625,1.846160888671875
1695713636308433000,2.416432861328125,0.167694091796875,-1.22406005859375,1.739349365234375
1695713636317954300,2.425954345703125,0.167388916015625,-0.906219482421875,1.62109375
1695713636327506400,2.43550634765625,0.127410888671875,-0.584869384765625,1.535491943359375
1695713636337058300,2.445058349609375,0.069122314453125,-0.43914794921875,1.478118896484375
1695713636346610400,2.4546103515625,0.021820068359375,-0.418701171875,1.444244384765625
1695713636356131800,2.4641318359375,-0.025634765625,-0.4815673828125,1.425323486328125
1695713636365684000,2.47368408203125,-0.0482177734375,-0.577239990234375,1.389007568359375
1695713636375235800,2.48323583984375,-0.05218505859375,-0.592498779296875,1.3385009765625
1695713636384788000,2.4927880859375,-0.05828857421875,-0.538482666015625,1.29119873046875
1695713636394339800,2.50233984375,-0.08453369140625,-0.51361083984375,1.27410888671875
1695713636403861500,2.511861572265625,-0.13153076171875,-0.50140380859375,1.2841796875
1695713636413413400,2.521413330078125,-0.181121826171875,-0.4998779296875,1.29669189453125
1695713636422965500,2.530965576171875,-0.234222412109375,-0.50567626953125,1.2957763671875
1695713636432517400,2.540517333984375,-0.276641845703125,-0.553741455078125,1.27777099609375
1695713636442069500,2.550069580078125,-0.307159423828125,-0.69671630859375,1.251220703125
1695713636451591000,2.5595908203125,-0.326690673828125,-0.892181396484375,1.21856689453125
1695713636461142800,2.569142822265625,-0.3411865234375,-1.020660400390625,1.168060302734375
1695713636470695000,2.57869482421875,-0.34393310546875,-0.990142822265625,1.072845458984375
1695713636480246800,2.588246826171875,-0.337371826171875,-0.80596923828125,0.92559814453125
1695713636489799000,2.597798828125,-0.325775146484375,-0.574493408203125,0.743865966796875
1695713636499320300,2.6073203125,-0.303192138671875,-0.48309326171875,0.55419921875
1695713636508872400,2.61687255859375,-0.274200439453125,-0.561065673828125,0.415191650390625
1695713636518424300,2.62642431640625,-0.262298583984375,-0.615692138671875,0.326385498046875
1695713636527976400,2.6359765625,-0.282135009765625,-0.558929443359375,0.24993896484375
1695713636537497900,2.645497802734375,-0.325775146484375,-0.520477294921875,0.16326904296875
1695713636547050000,2.655050048828125,-0.360107421875,-0.589752197265625,0.056915283203125
1695713636556601900,2.664601806640625,-0.35247802734375,-0.691680908203125,-0.0689697265625
1695713636566154000,2.674154052734375,-0.298309326171875,-0.701904296875,-0.196533203125
1695713636575736300,2.683736328125,-0.247955322265625,-0.565948486328125,-0.304412841796875
1695713636585258000,2.693258056640625,-0.245208740234375,-0.37750244140625,-0.403594970703125
1695713636594809900,2.702809814453125,-0.260162353515625,-0.299224853515625,-0.555419921875
1695713636604362000,2.712362060546875,-0.230865478515625,-0.320892333984375,-0.7965087890625
1695713636613913900,2.721913818359375,-0.14190673828125,-0.262908935546875,-1.118621826171875
1695713636623466000,2.731466064453125,-0.01129150390625,-0.06439208984375,-1.468658447265625
1695713636632987400,2.7409873046875,0.167999267578125,0.21331787109375,-1.792449951171875
1695713636642539300,2.750539306640625,0.379486083984375,0.527496337890625,-2.079010009765625
1695713636652091400,2.76009130859375,0.539398193359375,0.826568603515625,-2.34375
1695713636661643300,2.769643310546875,0.6182861328125,1.02020263671875,-2.5921630859375
1695713636671165000,2.7791650390625,0.6365966796875,1.06475830078125,-2.859039306640625
1695713636680716800,2.788716796875,0.6011962890625,0.850982666015625,-3.104248046875
1695713636690269000,2.79826904296875,0.55511474609375,0.446319580078125,-3.255462646484375
1695713636699820800,2.80782080078125,0.465545654296875,0.1995849609375,-3.31512451171875
1695713636709373000,2.817373046875,0.25482177734375,0.384979248046875,-3.345947265625
1695713636718894300,2.826894287109375,-0.0384521484375,0.9747314453125,-3.39630126953125
1695713636728446500,2.836446533203125,-0.256195068359375,1.427001953125,-3.41400146484375
1695713636737998300,2.845998291015625,-0.335845947265625,1.297607421875,-3.32855224609375
1695713636747550500,2.855550537109375,-0.38330078125,0.69610595703125,-3.154144287109375
1695713636757102300,2.865102294921875,-0.519866943359375,0.039825439453125,-2.907867431640625
1695713636766623700,2.874623779296875,-0.7061767578125,-0.178985595703125,-2.509613037109375
1695713636776175900,2.88417578125,-0.78460693359375,-0.03021240234375,-2.154388427734375
1695713636785727700,2.893727783203125,-0.528411865234375,0.3265380859375,-1.99981689453125
1695713636795280000,2.90327978515625,-0.07781982421875,0.69793701171875,-2.125091552734375
1695713636804801300,2.91280126953125,0.108795166015625,1.00006103515625,-2.476043701171875
1695713636814353400,2.922353515625,0.025482177734375,1.214141845703125,-2.71575927734375
1695713636823905300,2.9319052734375,-0.05096435546875,1.3153076171875,-2.760162353515625
1695713636833457400,2.94145751953125,-0.04364013671875,1.256866455078125,-2.6611328125
1695713636843009300,2.95100927734375,0.037689208984375,1.273040771484375,-2.444610595703125
1695713636852531000,2.960531005859375,0.121002197265625,1.40045166015625,-2.192535400390625
1695713636862113300,2.97011328125,0.170745849609375,1.44287109375,-1.9561767578125
1695713636871665400,2.97966552734375,0.20477294921875,1.275634765625,-1.743621826171875
1695713636881217300,2.98921728515625,0.2606201171875,1.132354736328125,-1.5118408203125
1695713636890769400,2.998769287109375,0.31951904296875,1.092681884765625,-1.25091552734375
1695713636900290800,3.008290771484375,0.365447998046875,1.0736083984375,-0.975799560546875
1695713636909843000,3.017843017578125,0.395355224609375,1.0845947265625,-0.706634521484375
1695713636919394800,3.027394775390625,0.399932861328125,1.082763671875,-0.457763671875
1695713636928947000,3.036947021484375,0.390167236328125,1.06048583984375,-0.22674560546875
1695713636938468400,3.04646826171875,0.387115478515625,1.0009765625,0.001373291015625
1695713636948020200,3.056020263671875,0.397186279296875,0.902862548828125,0.25146484375
1695713636957572400,3.065572265625,0.423736572265625,0.789337158203125,0.528564453125
1695713636967124200,3.075124267578125,0.477447509765625,0.68817138671875,0.8258056640625
1695713636976676400,3.08467626953125,0.5615234375,0.58929443359375,1.135406494140625
1695713636986197800,3.09419775390625,0.670166015625,0.518646240234375,1.456756591796875
1695713636995750000,3.10375,0.790557861328125,0.487213134765625,1.786956787109375
1695713637005301800,3.1133017578125,0.879364013671875,0.492095947265625,2.081298828125
1695713637014854000,3.12285400390625,0.865631103515625,0.556640625,2.225799560546875
1695713637024405800,3.13240576171875,0.757904052734375,0.72723388671875,2.06512451171875
1695713637033927400,3.141927490234375,0.65765380859375,0.927734375,1.525421142578125
1695713637043479300,3.151479248046875,0.55999755859375,1.107330322265625,0.6329345703125
1695713637053031400,3.161031494140625,0.26458740234375,1.3421630859375,-0.614776611328125
1695713637062583300,3.170583251953125,-0.14678955078125,1.35589599609375,-1.63970947265625
1695713637072104700,3.180104736328125,-0.1544189453125,0.441436767578125,-1.813507080078125
1695713637081656800,3.18965673828125,0.213623046875,-0.81024169921875,-1.411590576171875
1695713637091208700,3.199208740234375,0.438079833984375,-1.46514892578125,-0.974578857421875
1695713637100760800,3.2087607421875,0.378265380859375,-1.270599365234375,-0.727996826171875
1695713637110312700,3.218312744140625,0.18890380859375,-0.656890869140625,-0.657501220703125
1695713637119834400,3.22783447265625,-0.0213623046875,0.24078369140625,-0.58013916015625
1695713637129386200,3.23738623046875,-0.396728515625,1.480560302734375,-0.239410400390625
1695713637138938400,3.2469384765625,-0.8087158203125,2.325897216796875,0.428009033203125
1695713637148520700,3.256520751953125,-0.935516357421875,1.35589599609375,1.025543212890625
1695713637158072800,3.26607275390625,-0.562591552734375,-1.510009765625,0.91949462890625
1695713637167594200,3.27559423828125,-0.222625732421875,-2.487335205078125,0.52642822265625
1695713637177146400,3.285146484375,-0.00152587890625,-0.8319091796875,0.038604736328125
1695713637186698200,3.2946982421875,0.397796630859375,-1.12548828125,0.728912353515625
1695713637196250400,3.30425048828125,0.67291259765625,-2.111053466796875,1.895294189453125
1695713637205802200,3.31380224609375,0.5767822265625,-1.9085693359375,2.205047607421875
1695713637215324000,3.323323974609375,0.233154296875,-0.881195068359375,1.752471923828125
1695713637224875800,3.332875732421875,-0.13427734375,-0.374755859375,1.65496826171875
1695713637234428000,3.342427978515625,-0.291595458984375,-0.567779541015625,2.179107666015625
1695713637243979800,3.351979736328125,-0.1470947265625,-1.112060546875,2.68707275390625
1695713637253501200,3.361501220703125,0.113677978515625,-1.698455810546875,2.830352783203125
1695713637263053300,3.37105322265625,0.367889404296875,-1.92657470703125,2.609710693359375
1695713637272605200,3.380605224609375,0.54718017578125,-1.621246337890625,2.171173095703125
1695713637282157300,3.3901572265625,0.533294677734375,-1.121826171875,1.860809326171875
1695713637291709200,3.399709228515625,0.410614013671875,-0.7244873046875,1.71783447265625
1695713637301230800,3.40923095703125,0.30792236328125,-0.47149658203125,1.644287109375
1695713637310782700,3.41878271484375,0.2166748046875,-0.307769775390625,1.66046142578125
1695713637320334800,3.4283349609375,0.142059326171875,-0.308380126953125,1.770782470703125
1695713637329886700,3.43788671875,0.063323974609375,-0.520782470703125,1.9134521484375
1695713637339438800,3.44743896484375,-0.0140380859375,-0.78704833984375,2.0111083984375
1695713637348960300,3.456960205078125,-0.048828125,-0.935821533203125,1.986083984375
1695713637358512400,3.466512451171875,-0.0164794921875,-0.964813232421875,1.845550537109375
1695713637368064300,3.476064208984375,0.050811767578125,-0.918426513671875,1.6839599609375
1695713637377616400,3.485616455078125,0.099334716796875,-0.85113525390625,1.59759521484375
1695713637387137800,3.4951376953125,0.092926025390625,-0.82000732421875,1.575927734375
1695713637396689700,3.504689697265625,0.023956298828125,-0.823974609375,1.540985107421875
1695713637406241800,3.51424169921875,-0.0616455078125,-0.8380126953125,1.461944580078125
1695713637415793700,3.523793701171875,-0.14007568359375,-0.879058837890625,1.382293701171875
1695713637425345800,3.533345703125,-0.198822021484375,-0.883331298828125,1.3372802734375
1695713637434897700,3.542897705078125,-0.241546630859375,-0.8294677734375,1.3323974609375
1695713637444449800,3.55244970703125,-0.259857177734375,-0.73577880859375,1.35009765625
1695713637454001700,3.562001708984375,-0.271148681640625,-0.635833740234375,1.383819580078125
1695713637463553800,3.5715537109375,-0.294036865234375,-0.540618896484375,1.423187255859375
1695713637473105700,3.581105712890625,-0.323638916015625,-0.46875,1.459808349609375
1695713637482627300,3.59062744140625,-0.35919189453125,-0.45013427734375,1.474761962890625
1695713637492179200,3.60017919921875,-0.40069580078125,-0.469970703125,1.451568603515625
1695713637501731300,3.6097314453125,-0.45196533203125,-0.531463623046875,1.408538818359375
1695713637511283200,3.619283203125,-0.50567626953125,-0.584259033203125,1.366729736328125
1695713637520835300,3.62883544921875,-0.544891357421875,-0.622406005859375,1.3165283203125
1695713637530356700,3.638356689453125,-0.559844970703125,-0.660247802734375,1.24725341796875
1695713637539908900,3.647908935546875,-0.547332763671875,-0.685272216796875,1.149139404296875
1695713637549460700,3.657460693359375,-0.50872802734375,-0.7012939453125,1.007843017578125
1695713637559012900,3.667012939453125,-0.44097900390625,-0.72296142578125,0.825042724609375
1695713637568534300,3.6765341796875,-0.3594970703125,-0.73699951171875,0.63720703125
1695713637578086100,3.686086181640625,-0.292510986328125,-0.69549560546875,0.48126220703125
1695713637587638300,3.69563818359375,-0.276031494140625,-0.634918212890625,0.346221923828125
1695713637597190100,3.705190185546875,-0.324554443359375,-0.640106201171875,0.21453857421875
1695713637606742300,3.7147421875,-0.38970947265625,-0.71868896484375,0.076446533203125
1695713637616263700,3.724263671875,-0.40313720703125,-0.7513427734375,-0.0714111328125
1695713637625815800,3.73381591796875,-0.3411865234375,-0.643768310546875,-0.19775390625
1695713637635367700,3.74336767578125,-0.240631103515625,-0.44586181640625,-0.292205810546875
1695713637644919800,3.752919921875,-0.177154541015625,-0.241241455078125,-0.394439697265625
1695713637654471700,3.7624716796875,-0.159149169921875,-0.087890625,-0.56549072265625
1695713637663993300,3.771993408203125,-0.11993408203125,-0.052490234375,-0.806884765625
1695713637673545200,3.781545166015625,-0.04486083984375,-0.02105712890625,-1.063079833984375
1695713637683097300,3.791097412109375,0.009918212890625,0.185394287109375,-1.315155029296875
1695713637692649200,3.800649169921875,0.062713623046875,0.55389404296875,-1.6143798828125
1695713637702170600,3.810170654296875,0.146942138671875,0.92529296875,-1.97784423828125
1695713637711753200,3.819753173828125,0.27801513671875,1.150665283203125,-2.3223876953125
1695713637721305300,3.829305419921875,0.408477783203125,1.140899658203125,-2.63336181640625
1695713637730857200,3.838857177734375,0.464019775390625,0.92559814453125,-2.93914794921875
1695713637740409300,3.848409423828125,0.480804443359375,0.5633544921875,-3.159027099609375
1695713637749930800,3.8579306640625,0.490875244140625,0.100250244140625,-3.267059326171875
1695713637759482600,3.867482666015625,0.458831787109375,-0.263519287109375,-3.271942138671875
1695713637769034800,3.87703466796875,0.376434326171875,-0.4107666015625,-3.206329345703125
1695713637778586600,3.886586669921875,0.28900146484375,-0.37139892578125,-3.138580322265625
1695713637788138800,3.896138671875,0.21942138671875,-0.328216552734375,-3.123321533203125
1695713637797660200,3.90566015625,0.161590576171875,-0.48492431640625,-3.123626708984375
1695713637807212300,3.91521240234375,0.097503662109375,-0.76324462890625,-3.05816650390625
1695713637816764200,3.92476416015625,0.059051513671875,-0.821533203125,-2.844390869140625
1695713637826316300,3.93431640625,0.055084228515625,-0.252532958984375,-2.416839599609375
1695713637835837700,3.943837646484375,0.134735107421875,0.797576904296875,-1.95892333984375
1695713637845389800,3.953389892578125,0.3167724609375,1.601104736328125,-1.878662109375
1695713637854941700,3.962941650390625,0.387420654296875,1.98883056640625,-2.148895263671875
1695713637864493800,3.972493896484375,0.2899169921875,2.203826904296875,-2.490997314453125
1695713637874045700,3.982045654296875,0.142974853515625,2.307891845703125,-2.711181640625
1695713637883567000,3.991567138671875,0.037689208984375,2.234954833984375,-2.783966064453125
1695713637893119200,4.001119140625,0.009002685546875,1.962738037109375,-2.735595703125
1695713637902671000,4.010671142578125,0.089569091796875,1.621246337890625,-2.564239501953125
1695713637912223200,4.02022314453125,0.1922607421875,1.473846435546875,-2.3394775390625
1695713637921775000,4.029775146484375,0.28900146484375,1.505889892578125,-2.091522216796875
1695713637931296800,4.039296875,0.373077392578125,1.6455078125,-1.844940185546875
1695713637940848600,4.0488486328125,0.406341552734375,1.867828369140625,-1.6668701171875
1695713637950400800,4.05840087890625,0.402984619140625,1.976165771484375,-1.5179443359375
1695713637959952600,4.06795263671875,0.399017333984375,2.08770751953125,-1.345367431640625
1695713637969474300,4.077474365234375,0.417327880859375,2.174224853515625,-1.14532470703125
1695713637979026200,4.087026123046875,0.442047119140625,2.1435546875,-0.9326171875
1695713637988578300,4.096578369140625,0.441436767578125,1.963348388671875,-0.726165771484375
1695713637998130200,4.106130126953125,0.413055419921875,1.70867919921875,-0.53314208984375
1695713638007712800,4.115712646484375,0.381927490234375,1.41815185546875,-0.326690673828125
1695713638017234200,4.125234130859375,0.367889404296875,1.08673095703125,-0.0848388671875
1695713638026786300,4.134786376953125,0.368804931640625,0.758819580078125,0.1898193359375
1695713638036338200,4.144338134765625,0.400238037109375,0.471343994140625,0.48187255859375
1695713638045890300,4.153890380859375,0.475311279296875,0.21728515625,0.794830322265625
1695713638055442200,4.163442138671875,0.57464599609375,-0.01251220703125,1.127471923828125
1695713638064963600,4.172963623046875,0.6787109375,-0.218048095703125,1.454925537109375
1695713638074515700,4.182515625,0.791473388671875,-0.37384033203125,1.727752685546875
1695713638084067600,4.192067626953125,0.9124755859375,-0.40008544921875,1.884307861328125
1695713638093619700,4.20161962890625,0.9930419921875,-0.260772705078125,1.850128173828125
1695713638103171600,4.211171630859375,0.9991455078125,0.052947998046875,1.60247802734375
1695713638112693200,4.220693359375,0.92376708984375,0.546112060546875,1.192626953125
1695713638122245000,4.2302451171875,0.775909423828125,1.148834228515625,0.62225341796875
1695713638131797200,4.23979736328125,0.55419921875,1.70379638671875,-0.22796630859375
1695713638141349000,4.24934912109375,0.372161865234375,1.879425048828125,-1.035614013671875
1695713638150870800,4.258870849609375,0.36590576171875,1.262969970703125,-1.393890380859375
1695713638160422700,4.268422607421875,0.475006103515625,0.143585205078125,-1.273193359375
1695713638169974800,4.277974853515625,0.55572509765625,-0.75927734375,-0.914306640625
1695713638179526700,4.287526611328125,0.565185546875,-0.954742431640625,-0.5401611328125
1695713638189078800,4.297078857421875,0.54962158203125,-0.562896728515625,-0.279998779296875
1695713638198600200,4.30660009765625,0.537261962890625,0.110321044921875,-0.1922607421875
1695713638208152000,4.316152099609375,0.386810302734375,0.92437744140625,-0.044097900390625
1695713638217704200,4.3257041015625,0.055999755859375,1.500396728515625,0.318450927734375
1695713638227256000,4.335256103515625,-0.34881591796875,1.02752685546875,0.97412109375
1695713638236808200,4.34480810546875,-0.536041259765625,-0.74737548828125,1.29425048828125
1695713638246329600,4.35432958984375,-0.309295654296875,-2.52532958984375,0.57647705078125
1695713638255881700,4.3638818359375,-0.218658447265625,-1.873779296875,-0.403900146484375
1695713638265433600,4.37343359375,-0.00701904296875,-0.0311279296875,-0.574951171875
1695713638274985700,4.38298583984375,0.30975341796875,0.121002197265625,0.418243408203125
1695713638284537600,4.39253759765625,0.5767822265625,-0.8160400390625,1.62322998046875
1695713638294089700,4.40208984375,0.67108154296875,-0.83892822265625,2.0526123046875
1695713638303641600,4.4116416015625,0.552978515625,-0.72235107421875,1.5655517578125
1695713638313193700,4.42119384765625,0.19683837890625,-1.734466552734375,1.575927734375
1695713638322745600,4.43074560546875,-0.13153076171875,-2.738800048828125,2.432861328125
1695713638332267300,4.440267333984375,-0.160064697265625,-3.147125244140625,3.243255615234375
1695713638341819100,4.449819091796875,0.088348388671875,-3.173065185546875,3.302154541015625
1695713638351371300,4.459371337890625,0.470123291015625,-2.430267333984375,2.42828369140625
1695713638360923100,4.468923095703125,0.6549072265625,-1.07391357421875,1.63177490234375
1695713638370475300,4.478475341796875,0.65765380859375,-0.205841064453125,1.436614990234375
1695713638379996700,4.48799658203125,0.59417724609375,-0.115966796875,1.57257080078125
1695713638389548500,4.497548583984375,0.466156005859375,-0.289154052734375,1.790924072265625
1695713638399100700,4.5071005859375,0.29144287109375,-0.526885986328125,1.97509765625
1695713638408652500,4.516652587890625,0.113372802734375,-0.81451416015625,2.106781005859375
1695713638418204700,4.52620458984375,-0.015869140625,-1.07177734375,2.152252197265625
1695713638427726000,4.53572607421875,-0.0860595703125,-1.317901611328125,2.136383056640625
1695713638437278200,4.5452783203125,-0.10284423828125,-1.48101806640625,2.104339599609375
1695713638446830000,4.554830078125,-0.05584716796875,-1.45965576171875,2.05230712890625
1695713638456382200,4.56438232421875,0.031890869140625,-1.313018798828125,1.9598388671875
1695713638465903600,4.573903564453125,0.094757080078125,-1.13677978515625,1.820526123046875
1695713638475455700,4.583455810546875,0.103607177734375,-0.962982177734375,1.66290283203125
1695713638485007600,4.593007568359375,0.048370361328125,-0.83984375,1.501922607421875
1695713638494559700,4.602559814453125,-0.02716064453125,-0.7293701171875,1.384429931640625
1695713638504111600,4.612111572265625,-0.08880615234375,-0.673675537109375,1.35894775390625
1695713638513633000,4.621633056640625,-0.15594482421875,-0.7244873046875,1.364593505859375
1695713638523185200,4.63118505859375,-0.224761962890625,-0.850830078125,1.32080078125
1695713638532737000,4.640737060546875,-0.302276611328125,-0.982513427734375,1.258544921875
1695713638542289200,4.6502890625,-0.380859375,-1.05072021484375,1.22955322265625
1695713638551841000,4.659841064453125,-0.4449462890625,-1.050262451171875,1.23138427734375
1695713638561362700,4.66936279296875,-0.49102783203125,-0.990142822265625,1.256103515625
1695713638570945000,4.678945068359375,-0.523529052734375,-0.8648681640625,1.3006591796875
1695713638580497200,4.6884970703125,-0.554656982421875,-0.71380615234375,1.35406494140625
1695713638590049000,4.698049072265625,-0.565032958984375,-0.618438720703125,1.378936767578125
1695713638599570700,4.70757080078125,-0.547027587890625,-0.664520263671875,1.3623046875
1695713638609122600,4.71712255859375,-0.517425537109375,-0.7708740234375,1.30584716796875
1695713638618674700,4.7266748046875,-0.50628662109375,-0.8050537109375,1.186676025390625
1695713638628226600,4.7362265625,-0.527191162109375,-0.7611083984375,0.99761962890625
1695713638637778700,4.74577880859375,-0.562591552734375,-0.7293701171875,0.778350830078125
1695713638647300000,4.755300048828125,-0.569915771484375,-0.7501220703125,0.57373046875
1695713638656852200,4.764852294921875,-0.513916015625,-0.81146240234375,0.413665771484375
1695713638666404000,4.774404052734375,-0.428466796875,-0.83770751953125,0.307464599609375
1695713638675956200,4.783956298828125,-0.364990234375,-0.791015625,0.23193359375
1695713638685508000,4.793508056640625,-0.3460693359375,-0.7635498046875,0.1629638671875
1695713638695029500,4.803029541015625,-0.34881591796875,-0.8294677734375,0.085296630859375
1695713638704581600,4.81258154296875,-0.34149169921875,-0.927886962890625,-0.018157958984375
1695713638714133500,4.822133544921875,-0.310211181640625,-0.912628173828125,-0.14556884765625
1695713638723685600,4.831685546875,-0.255889892578125,-0.7525634765625,-0.275726318359375
1695713638733207000,4.84120703125,-0.196685791015625,-0.528106689453125,-0.4229736328125
1695713638742759200,4.85075927734375,-0.147705078125,-0.288543701171875,-0.612030029296875
1695713638752311000,4.86031103515625,-0.0933837890625,-0.10650634765625,-0.86517333984375
1695713638761863200,4.86986328125,-0.03021240234375,0.023345947265625,-1.177978515625
1695713638771415000,4.8794150390625,0.045013427734375,0.171356201171875,-1.5020751953125
1695713638780936700,4.888936767578125,0.132598876953125,0.440521240234375,-1.822052001953125
1695713638790488600,4.898488525390625,0.2056884765625,0.842742919921875,-2.136077880859375
1695713638800040700,4.908040771484375,0.26611328125,1.185150146484375,-2.415618896484375
1695713638809592600,4.917592529296875,0.322265625,1.258697509765625,-2.74017333984375
1695713638819144700,4.927144775390625,0.29754638671875,1.090850830078125,-3.147430419921875
1695713638828666000,4.936666015625,0.22735595703125,0.694580078125,-3.4381103515625
1695713638838218000,4.946218017578125,0.175933837890625,0.24993896484375,-3.511199951171875
1695713638847770000,4.95577001953125,0.151214599609375,0.00457763671875,-3.4130859375
1695713638857322000,4.965322021484375,0.129241943359375,-0.00518798828125,-3.276824951171875
1695713638866904600,4.974904541015625,0.085296630859375,0.0079345703125,-3.203277587890625
1695713638876426000,4.984426025390625,0.009613037109375,-0.193634033203125,-3.176422119140625
1695713638885978000,4.99397802734375,-0.0994873046875,-0.635223388671875,-3.120880126953125
1695713638895530000,5.003530029296875,-0.187225341796875,-1.08612060546875,-3.001708984375
1695713638905082000,5.01308203125,-0.248870849609375,-1.175537109375,-2.775115966796875
1695713638914603500,5.022603515625,-0.292510986328125,-0.633087158203125,-2.438201904296875
1695713638924155600,5.03215576171875,-0.231475830078125,0.37322998046875,-2.129364013671875
1695713638933707500,5.04170751953125,-0.02044677734375,1.41815185546875,-2.03399658203125
1695713638943259600,5.051259765625,0.159759521484375,2.11883544921875,-2.21923828125
1695713638952811500,5.0608115234375,0.164337158203125,2.37823486328125,-2.535552978515625
1695713638962333200,5.070333251953125,0.052337646484375,2.37152099609375,-2.752685546875
1695713638971885000,5.079885009765625,-0.04058837890625,2.219390869140625,-2.801055908203125
1695713638981437200,5.089437255859375,-0.032958984375,1.949005126953125,-2.72216796875
1695713638990989000,5.098989013671875,0.041656494140625,1.67816162109375,-2.524261474609375
1695713639000541200,5.108541259765625,0.168609619140625,1.510467529296875,-2.23114013671875
1695713639010062600,5.1180625,0.3521728515625,1.474151611328125,-1.87744140625
1695713639019614500,5.127614501953125,0.535125732421875,1.517181396484375,-1.546630859375
1695713639029166600,5.13716650390625,0.68359375,1.577606201171875,-1.29364013671875
1695713639038718500,5.146718505859375,0.774688720703125,1.639404296875,-1.110992431640625
1695713639048270600,5.1562705078125,0.809478759765625,1.7095947265625,-0.959320068359375
1695713639057792000,5.1657919921875,0.807952880859375,1.75628662109375,-0.80963134765625
1695713639067344100,5.17534423828125,0.791168212890625,1.72149658203125,-0.646209716796875
1695713639076896000,5.18489599609375,0.763092041015625,1.613006591796875,-0.4644775390625
1695713639086448000,5.1944482421875,0.72265625,1.458892822265625,-0.269012451171875
1695713639095969500,5.203969482421875,0.68817138671875,1.266937255859375,-0.05615234375
1695713639105521700,5.213521728515625,0.67138671875,1.03729248046875,0.196533203125
1695713639115073500,5.223073486328125,0.68450927734375,0.779876708984375,0.49102783203125
1695713639124625700,5.232625732421875,0.737152099609375,0.521392822265625,0.813751220703125
1695713639134177500,5.242177490234375,0.813751220703125,0.27557373046875,1.145477294921875
1695713639143729700,5.251729736328125,0.897064208984375,0.069122314453125,1.465911865234375
1695713639153281500,5.261281494140625,0.989990234375,-0.0714111328125,1.737823486328125
1695713639162833700,5.270833740234375,1.06536865234375,-0.093994140625,1.869964599609375
1695713639172385500,5.280385498046875,1.07757568359375,0.134429931640625,1.715087890625
1695713639181937700,5.289937744140625,0.96099853515625,0.57830810546875,1.234130859375
1695713639191459000,5.299458984375,0.70770263671875,1.101837158203125,0.64697265625
1695713639201011000,5.309010986328125,0.404205322265625,1.66717529296875,-0.05462646484375
1695713639210563000,5.31856298828125,0.125885009765625,1.949005126953125,-0.957183837890625
1695713639220115000,5.328114990234375,-0.10406494140625,1.64947509765625,-1.58782958984375
1695713639229636600,5.33763671875,-0.08514404296875,0.5889892578125,-1.701812744140625
1695713639239188500,5.3471884765625,0.150909423828125,-0.553741455078125,-1.49658203125
1695713639248740600,5.35674072265625,0.25909423828125,-1.035614013671875,-1.1669921875
1695713639258292500,5.36629248046875,0.097808837890625,-1.07574462890625,-0.771636962890625
1695713639267844600,5.3758447265625,-0.11016845703125,-0.926055908203125,-0.399932861328125
1695713639277366000,5.385365966796875,-0.190277099609375,-0.515289306640625,-0.09674072265625
1695713639286918100,5.394918212890625,-0.1470947265625,0.27435302734375,0.19378662109375
1695713639296470000,5.404469970703125,-0.173187255859375,1.233978271484375,0.52490234375
1695713639306022100,5.414022216796875,-0.335235595703125,1.989288330078125,0.98876953125
1695713639315574000,5.423573974609375,-0.558013916015625,1.623687744140625,1.429595947265625
1695713639325095400,5.433095458984375,-0.543975830078125,-0.4376220703125,1.100006103515625
1695713639334647600,5.4426474609375,-0.211029052734375,-2.26654052734375,0.418853759765625
1695713639344199400,5.452199462890625,-0.1129150390625,-0.518646240234375,-0.43609619140625
1695713639353751600,5.46175146484375,0.25604248046875,-0.589447021484375,-0.017547607421875
1695713639363273000,5.47127294921875,0.72174072265625,-2.62664794921875,1.6986083984375
1695713639372825000,5.4808251953125,0.826873779296875,-3.174591064453125,2.63519287109375
1695713639382377000,5.490376953125,0.59326171875,-2.027740478515625,2.28363037109375
1695713639391929000,5.49992919921875,0.171661376953125,0.522613525390625,0.56976318359375
1695713639401481000,5.50948095703125,-0.182952880859375,0.6201171875,0.5877685546875
1695713639411002600,5.519002685546875,-0.39581298828125,-0.935516357421875,1.773529052734375
1695713639420554500,5.528554443359375,-0.382080078125,-2.25006103515625,2.829437255859375
1695713639430137000,5.53813720703125,-0.101318359375,-2.53753662109375,3.308258056640625
1695713639439689000,5.54768896484375,0.31005859375,-2.452850341796875,3.13446044921875
1695713639449241000,5.557240966796875,0.64697265625,-2.23602294921875,2.4078369140625
1695713639458762500,5.566762451171875,0.66131591796875,-1.785888671875,1.891326904296875
1695713639468314600,5.576314697265625,0.56884765625,-1.075439453125,1.717529296875
1695713639477866500,5.585866455078125,0.486602783203125,-0.576629638671875,1.728668212890625
1695713639487418600,5.595418701171875,0.399627685546875,-0.41961669921875,1.803131103515625
1695713639496940000,5.60493994140625,0.272216796875,-0.4998779296875,1.893157958984375
1695713639506492000,5.614491943359375,0.112152099609375,-0.75286865234375,1.94549560546875
1695713639516044000,5.6240439453125,-0.01556396484375,-0.966949462890625,1.915283203125
1695713639525596000,5.633595947265625,-0.06988525390625,-0.998077392578125,1.851959228515625
1695713639535148000,5.64314794921875,-0.03387451171875,-0.961151123046875,1.828155517578125
1695713639544669400,5.65266943359375,0.041046142578125,-0.899200439453125,1.819915771484375
1695713639554221600,5.6622216796875,0.085906982421875,-0.82305908203125,1.782073974609375
1695713639563773400,5.6717734375,0.066375732421875,-0.82122802734375,1.688232421875
1695713639573325600,5.68132568359375,0.00335693359375,-0.883636474609375,1.5679931640625
1695713639582847000,5.690846923828125,-0.0506591796875,-0.937957763671875,1.465606689453125
1695713639592399000,5.700399169921875,-0.1068115234375,-1.011810302734375,1.382598876953125
1695713639601951000,5.709950927734375,-0.165252685546875,-1.045989990234375,1.33392333984375
1695713639611503000,5.719503173828125,-0.204925537109375,-0.978546142578125,1.334228515625
1695713639621055000,5.729054931640625,-0.226898193359375,-0.8026123046875,1.356201171875
1695713639630576400,5.738576416015625,-0.245513916015625,-0.623626708984375,1.3623046875
1695713639640128500,5.74812841796875,-0.280609130859375,-0.49041748046875,1.35589599609375
1695713639649680400,5.757680419921875,-0.333404541015625,-0.4327392578125,1.3555908203125
1695713639659232500,5.767232421875,-0.37933349609375,-0.430908203125,1.369476318359375
1695713639668784400,5.776784423828125,-0.41717529296875,-0.510406494140625,1.387481689453125
1695713639678306000,5.78630615234375,-0.44342041015625,-0.646820068359375,1.410675048828125
1695713639687858000,5.79585791015625,-0.44952392578125,-0.74859619140625,1.421661376953125
1695713639697410000,5.80541015625,-0.4486083984375,-0.77911376953125,1.380157470703125
1695713639706962000,5.8149619140625,-0.4559326171875,-0.75347900390625,1.26220703125
1695713639716514000,5.82451416015625,-0.47332763671875,-0.669708251953125,1.080474853515625
1695713639726066000,5.83406591796875,-0.498046875,-0.567169189453125,0.855712890625
1695713639735618000,5.8436181640625,-0.50567626953125,-0.50323486328125,0.6292724609375
1695713639745170000,5.853169921875,-0.465087890625,-0.50811767578125,0.444488525390625
1695713639754722000,5.86272216796875,-0.38360595703125,-0.547637939453125,0.326080322265625
1695713639764274000,5.87227392578125,-0.309295654296875,-0.567779541015625,0.2606201171875
1695713639773795600,5.881795654296875,-0.273590087890625,-0.562896728515625,0.19775390625
1695713639783347500,5.891347412109375,-0.270843505859375,-0.603485107421875,0.096282958984375
1695713639792899600,5.900899658203125,-0.284576416015625,-0.679779052734375,-0.048065185546875
1695713639802451500,5.910451416015625,-0.278778076171875,-0.69854736328125,-0.206298828125
1695713639811972900,5.919972900390625,-0.266876220703125,-0.620574951171875,-0.353851318359375
1695713639821525000,5.92952490234375,-0.288543701171875,-0.4229736328125,-0.51513671875
1695713639831076900,5.939076904296875,-0.293426513671875,-0.239410400390625,-0.744781494140625
1695713639840629000,5.94862890625,-0.224761962890625,-0.170440673828125,-1.019439697265625
1695713639850180900,5.958180908203125,-0.093994140625,-0.12115478515625,-1.332244873046875
1695713639859702500,5.96770263671875,0.066070556640625,0.030059814453125,-1.64337158203125
1695713639869254400,5.97725439453125,0.22430419921875,0.376129150390625,-1.9451904296875
1695713639878806500,5.986806640625,0.335693359375,0.832672119140625,-2.2283935546875
1695713639888358400,5.9963583984375,0.387115478515625,1.27471923828125,-2.480621337890625
1695713639897910500,6.00591064453125,0.418243408203125,1.548614501953125,-2.758331298828125
1695713639907432000,6.015431884765625,0.415191650390625,1.480255126953125,-3.0914306640625
1695713639916984000,6.024984130859375,0.406646728515625,1.05682373046875,-3.311767578125
1695713639926536000,6.034535888671875,0.377960205078125,0.507354736328125,-3.345947265625
1695713639936088000,6.044088134765625,0.27374267578125,0.1995849609375,-3.284149169921875
1695713639945640000,6.053639892578125,0.120697021484375,0.31219482421875,-3.237457275390625
1695713639955161300,6.063161376953125,-0.00274658203125,0.64239501953125,-3.243560791015625
1695713639964713500,6.07271337890625,-0.07598876953125,0.805206298828125,-3.244476318359375
1695713639974265300,6.082265380859375,-0.166168212890625,0.61492919921875,-3.175811767578125
1695713639983817500,6.0918173828125,-0.299835205078125,0.165557861328125,-3.046875
1695713639993339000,6.1013388671875,-0.4296875,-0.180816650390625,-2.839202880859375
1695713640002921500,6.11092138671875,-0.423583984375,0.00244140625,-2.454376220703125
1695713640012473300,6.120473388671875,-0.218658447265625,0.548248291015625,-2.088775634765625
1695713640022025500,6.130025390625,0.051422119140625,1.058349609375,-1.99310302734375
1695713640031577300,6.139577392578125,0.148468017578125,1.3330078125,-2.205047607421875
1695713640041099000,6.14909912109375,0.049591064453125,1.6424560546875,-2.419586181640625
1695713640050651000,6.15865087890625,-0.06195068359375,1.822967529296875,-2.533416748046875
1695713640060203000,6.168203125,-0.08880615234375,1.77490234375,-2.560272216796875
1695713640069755000,6.1777548828125,-0.04180908203125,1.604766845703125,-2.513580322265625
1695713640079307000,6.18730712890625,0.070953369140625,1.506500244140625,-2.3455810546875
1695713640088828400,6.196828369140625,0.2178955078125,1.477813720703125,-2.116241455078125
1695713640098380500,6.206380615234375,0.36041259765625,1.464080810546875,-1.86431884765625
1695713640107932400,6.215932373046875,0.477752685546875,1.473846435546875,-1.61590576171875
1695713640117484500,6.225484619140625,0.526580810546875,1.515045166015625,-1.396331787109375
1695713640127006000,6.235005859375,0.54656982421875,1.525421142578125,-1.18194580078125
1695713640136557800,6.244557861328125,0.574951171875,1.529388427734375,-0.95367431640625
1695713640146110000,6.25410986328125,0.596923828125,1.519012451171875,-0.723419189453125
1695713640155661800,6.263661865234375,0.59478759765625,1.468963623046875,-0.50994873046875
1695713640165214000,6.2732138671875,0.576171875,1.39923095703125,-0.312652587890625
1695713640174735400,6.2827353515625,0.56640625,1.2939453125,-0.12237548828125
1695713640184287500,6.29228759765625,0.574951171875,1.136627197265625,0.081939697265625
1695713640193839400,6.30183935546875,0.6072998046875,0.9674072265625,0.326080322265625
1695713640203391500,6.3113916015625,0.66192626953125,0.785369873046875,0.60546875
1695713640212943400,6.320943359375,0.746612548828125,0.5859375,0.9259033203125
1695713640222465000,6.330465087890625,0.863494873046875,0.430755615234375,1.27716064453125
1695713640232017000,6.340016845703125,0.9954833984375,0.3564453125,1.627197265625
1695713640241569000,6.349569091796875,1.103973388671875,0.34515380859375,1.94000244140625
1695713640251121000,6.359120849609375,1.128692626953125,0.440826416015625,2.120208740234375
1695713640260642300,6.368642333984375,1.05743408203125,0.6268310546875,2.01904296875
1695713640270194400,6.3781943359375,0.9326171875,0.7183837890625,1.59393310546875
1695713640279746300,6.387746337890625,0.760955810546875,0.758209228515625,0.91949462890625
1695713640289298400,6.39729833984375,0.483245849609375,1.0498046875,0.013275146484375
1695713640298881000,6.406881103515625,0.142059326171875,1.467437744140625,-1.044158935546875
1695713640308402400,6.41640234375,-0.015869140625,1.2982177734375,-1.700286865234375
1695713640317954300,6.425954345703125,0.168304443359375,0.33111572265625,-1.672821044921875
1695713640327506400,6.43550634765625,0.369720458984375,-0.640106201171875,-1.2286376953125
1695713640337058300,6.445058349609375,0.393218994140625,-1.07421875,-0.701141357421875
1695713640346610400,6.4546103515625,0.28656005859375,-0.915985107421875,-0.343475341796875
1695713640356131800,6.4641318359375,0.2044677734375,-0.35064697265625,-0.234222412109375
1695713640365684000,6.47368408203125,0.139007568359375,0.5560302734375,-0.1800537109375
1695713640375235800,6.48323583984375,-0.128173828125,1.63726806640625,0.087432861328125
1695713640384788000,6.4927880859375,-0.48797607421875,2.1173095703125,0.682220458984375
1695713640394309400,6.502309326171875,-0.700225830078125,0.890960693359375,1.476287841796875
1695713640403861500,6.511861572265625,-0.574188232421875,-1.83135986328125,1.469573974609375
1695713640413413400,6.521413330078125,-0.301666259765625,-3.171539306640625,0.331878662109375
1695713640422965500,6.530965576171875,-0.198516845703125,-0.897979736328125,-0.958099365234375
1695713640432517400,6.540517333984375,0.171356201171875,0.6341552734375,-0.631866455078125
1695713640442038800,6.550038818359375,0.58502197265625,-0.582733154296875,1.057586669921875
1695713640451591000,6.5595908203125,0.812835693359375,-1.620330810546875,2.274169921875
1695713640461142800,6.569142822265625,0.69122314453125,-1.378936767578125,2.3272705078125
1695713640470695000,6.57869482421875,0.394744873046875,-0.591888427734375,1.431427001953125
1695713640480246800,6.588246826171875,0.011749267578125,-0.85662841796875,1.21551513671875
1695713640489768400,6.5977685546875,-0.3363037109375,-1.642608642578125,1.892242431640625
1695713640499320300,6.6073203125,-0.41107177734375,-2.20123291015625,2.681884765625
1695713640508872400,6.61687255859375,-0.175933837890625,-2.5579833984375,3.0718994140625
1695713640518424300,6.62642431640625,0.22247314453125,-2.483673095703125,2.863006591796875
1695713640527976400,6.6359765625,0.58197021484375,-1.51031494140625,2.131195068359375
1695713640537497900,6.645497802734375,0.6884765625,-0.408935546875,1.550750732421875
1695713640547050000,6.655050048828125,0.6268310546875,0.093841552734375,1.368255615234375
1695713640556601900,6.664601806640625,0.500946044921875,0.20233154296875,1.393585205078125
1695713640566154000,6.674154052734375,0.35186767578125,0.21209716796875,1.511077880859375
1695713640575705900,6.683705810546875,0.211181640625,0.039215087890625,1.69281005859375
1695713640585258000,6.693258056640625,0.116119384765625,-0.37353515625,1.886138916015625
1695713640594809900,6.702809814453125,0.076751708984375,-0.885772705078125,2.034912109375
1695713640604362000,6.712362060546875,0.104522705078125,-1.247406005859375,2.110137939453125
1695713640613913900,6.721913818359375,0.186767578125,-1.343536376953125,2.115325927734375
1695713640623435300,6.731435302734375,0.28289794921875,-1.2158203125,2.082672119140625
1695713640632987400,6.7409873046875,0.33111572265625,-1.019134521484375,2.02667236328125
1695713640642539300,6.750539306640625,0.2734375,-1.000213623046875,1.897430419921875
1695713640652091400,6.76009130859375,0.142059326171875,-1.09588623046875,1.726531982421875
1695713640661643300,6.769643310546875,0.013275146484375,-1.1431884765625,1.56646728515625
1695713640671165000,6.7791650390625,-0.08819580078125,-1.08062744140625,1.473846435546875
1695713640680716800,6.788716796875,-0.179290771484375,-0.962066650390625,1.439361572265625
1695713640690269000,6.79826904296875,-0.248870849609375,-0.84228515625,1.436614990234375
1695713640699820800,6.80782080078125,-0.309906005859375,-0.7379150390625,1.428070068359375
1695713640709373000,6.817373046875,-0.36163330078125,-0.662078857421875,1.394195556640625
1695713640718894300,6.826894287109375,-0.40985107421875,-0.622100830078125,1.35009765625
1695713640728446500,6.836446533203125,-0.43914794921875,-0.614166259765625,1.32537841796875
1695713640737998300,6.845998291015625,-0.455322265625,-0.637664794921875,1.33148193359375
1695713640747550500,6.855550537109375,-0.46173095703125,-0.682525634765625,1.35650634765625
1695713640757072000,6.86507177734375,-0.46142578125,-0.73333740234375,1.35833740234375
1695713640766623700,6.874623779296875,-0.45745849609375,-0.7611083984375,1.31134033203125
1695713640776175900,6.88417578125,-0.45013427734375,-0.77728271484375,1.2139892578125
1695713640785727700,6.893727783203125,-0.45013427734375,-0.83221435546875,1.065216064453125
1695713640795280000,6.90327978515625,-0.4595947265625,-0.944366455078125,0.87432861328125
1695713640804801300,6.91280126953125,-0.47119140625,-1.07818603515625,0.667266845703125
1695713640814353400,6.922353515625,-0.452880859375,-1.1273193359375,0.46905517578125
1695713640823905300,6.9319052734375,-0.39642333984375,-1.042022705078125,0.308685302734375
1695713640833457400,6.94145751953125,-0.3460693359375,-0.860595703125,0.20599365234375
1695713640843009300,6.95100927734375,-0.325164794921875,-0.72021484375,0.14434814453125
1695713640852531000,6.960531005859375,-0.316619873046875,-0.7208251953125,0.081329345703125
1695713640862113300,6.97011328125,-0.307464599609375,-0.80657958984375,-0.005950927734375
1695713640871665400,6.97966552734375,-0.285491943359375,-0.8502197265625,-0.111083984375
1695713640881217300,6.98921728515625,-0.244903564453125,-0.81756591796875,-0.22552490234375
1695713640890739000,6.998739013671875,-0.188140869140625,-0.7275390625,-0.348358154296875
1695713640900290800,7.008290771484375,-0.12298583984375,-0.572052001953125,-0.50750732421875
1695713640909843000,7.017843017578125,-0.0555419921875,-0.323944091796875,-0.735626220703125
1695713640919394800,7.027394775390625,0.020904541015625,-0.09185791015625,-1.016998291015625
1695713640928947000,7.036947021484375,0.100555419921875,0.044708251953125,-1.28692626953125
1695713640938468400,7.04646826171875,0.166778564453125,0.192413330078125,-1.53778076171875
1695713640948020200,7.056020263671875,0.2362060546875,0.463714599609375,-1.824493408203125
1695713640957572400,7.065572265625,0.27679443359375,0.828094482421875,-2.146148681640625
1695713640967124200,7.075124267578125,0.299072265625,1.117706298828125,-2.470550537109375
1695713640976676400,7.08467626953125,0.313720703125,1.131439208984375,-2.805633544921875
1695713640986197800,7.09419775390625,0.25787353515625,0.909423828125,-3.0743408203125
1695713640995750000,7.10375,0.22064208984375,0.5474853515625,-3.234100341796875
1695713641005301800,7.1133017578125,0.24261474609375,0.125885009765625,-3.269195556640625
1695713641014854000,7.12285400390625,0.27496337890625,-0.261993408203125,-3.203887939453125
1695713641024375300,7.132375244140625,0.281982421875,-0.601348876953125,-3.11126708984375
1695713641033927400,7.141927490234375,0.27008056640625,-0.894927978515625,-3.03863525390625
1695713641043479300,7.151479248046875,0.23681640625,-1.16851806640625,-2.98370361328125
1695713641053031400,7.161031494140625,0.175018310546875,-1.391754150390625,-2.899322509765625
1695713641062583300,7.170583251953125,0.089874267578125,-1.45782470703125,-2.73529052734375
1695713641072104700,7.180104736328125,0.030670166015625,-0.946807861328125,-2.35107421875
1695713641081656800,7.18965673828125,0.106658935546875,0.25146484375,-1.795501708984375
1695713641091208700,7.199208740234375,0.31158447265625,1.479949951171875,-1.51153564453125
1695713641100760800,7.2087607421875,0.480804443359375,2.0562744140625,-1.757354736328125
1695713641110312700,7.218312744140625,0.475616455078125,2.298126220703125,-2.165679931640625
1695713641119834400,7.22783447265625,0.33966064453125,2.4560546875,-2.454986572265625
1695713641129386200,7.23738623046875,0.19500732421875,2.43896484375,-2.556304931640625
1695713641138938400,7.2469384765625,0.091094970703125,2.194061279296875,-2.540435791015625
1695713641148490200,7.256490234375,0.067596435546875,1.853790283203125,-2.446136474609375
1695713641158042400,7.26604248046875,0.124053955078125,1.577606201171875,-2.26898193359375
1695713641167594200,7.27559423828125,0.2294921875,1.39495849609375,-2.02972412109375
1695713641177146400,7.285146484375,0.34759521484375,1.3153076171875,-1.759796142578125
1695713641186698200,7.2946982421875,0.446624755859375,1.33331298828125,-1.51275634765625
1695713641196250400,7.30425048828125,0.480804443359375,1.3916015625,-1.318206787109375
1695713641205771800,7.313771728515625,0.492095947265625,1.43280029296875,-1.1572265625
1695713641215324000,7.323323974609375,0.503387451171875,1.44744873046875,-1.011199951171875
1695713641224875800,7.332875732421875,0.498504638671875,1.452789306640625,-0.863037109375
1695713641234428000,7.342427978515625,0.479583740234375,1.439208984375,-0.711212158203125
1695713641243979800,7.351979736328125,0.456085205078125,1.38885498046875,-0.54443359375
1695713641253501200,7.361501220703125,0.440216064453125,1.29119873046875,-0.351715087890625
1695713641263053300,7.37105322265625,0.433197021484375,1.143035888671875,-0.120849609375
1695713641272605200,7.380605224609375,0.430755615234375,0.94085693359375,0.150146484375
1695713641282157300,7.3901572265625,0.441131591796875,0.71044921875,0.456695556640625
1695713641291709200,7.399709228515625,0.485992431640625,0.508575439453125,0.790863037109375
1695713641301230800,7.40923095703125,0.5535888671875,0.34149169921875,1.150360107421875
1695713641310782700,7.41878271484375,0.62408447265625,0.21484375,1.500701904296875
1695713641320334800,7.4283349609375,0.69305419921875,0.117340087890625,1.796722412109375
1695713641329886700,7.43788671875,0.730743408203125,0.129547119140625,1.9537353515625
1695713641339408400,7.447408447265625,0.69915771484375,0.368804931640625,1.829376220703125
1695713641348960300,7.456960205078125,0.6317138671875,0.68572998046875,1.397857666015625
1695713641358512400,7.466512451171875,0.5499267578125,0.890045166015625,0.87677001953125
1695713641368064300,7.476064208984375,0.397796630859375,1.08642578125,0.2044677734375
1695713641377616400,7.485616455078125,0.163726806640625,1.39892578125,-0.77880859375
1695713641387137800,7.4951376953125,0.015411376953125,1.532440185546875,-1.54510498046875
1695713641396689700,7.504689697265625,0.153350830078125,0.803070068359375,-1.6156005859375
1695713641406241800,7.51424169921875,0.410308837890625,-0.41656494140625,-1.15936279296875
1695713641415793700,7.523793701171875,0.54718017578125,-1.2249755859375,-0.612640380859375
1695713641425345800,7.533345703125,0.471954345703125,-1.20849609375,-0.283355712890625
1695713641434897700,7.542897705078125,0.2838134765625,-0.642547607421875,-0.22216796875
1695713641444449800,7.55244970703125,0.142974853515625,0.174407958984375,-0.23284912109375
1695713641454001700,7.562001708984375,-0.05706787109375,1.138153076171875,-0.034027099609375
1695713641463553800,7.5715537109375,-0.34637451171875,1.78863525390625,0.458831787109375
1695713641473075200,7.5810751953125,-0.539703369140625,1.34033203125,1.21002197265625
1695713641482627300,7.59062744140625,-0.47149658203125,-0.7440185546875,1.497955322265625
1695713641492179200,7.60017919921875,-0.230560302734375,-2.825775146484375,0.8782958984375
1695713641501731300,7.6097314453125,-0.207672119140625,-1.8695068359375,-0.1434326171875
1695713641511283200,7.619283203125,-0.01068115234375,0.098114013671875,-0.50201416015625
1695713641520804900,7.628804931640625,0.2978515625,-0.43426513671875,0.54351806640625
1695713641530356700,7.638356689453125,0.494232177734375,-1.52099609375,1.779022216796875
1695713641539908900,7.647908935546875,0.429229736328125,-1.348419189453125,2.196197509765625
1695713641549460700,7.657460693359375,0.20263671875,-0.632781982421875,1.750946044921875
1695713641559012900,7.667012939453125,-0.08697509765625,-0.81207275390625,1.5740966796875
1695713641568534300,7.6765341796875,-0.316925048828125,-1.49810791015625,2.05413818359375
1695713641578086100,7.686086181640625,-0.320587158203125,-2.126007080078125,2.604217529296875
1695713641587638300,7.69563818359375,-0.133056640625,-2.4993896484375,2.863922119140625
1695713641597190100,7.705190185546875,0.142059326171875,-2.421417236328125,2.6824951171875
1695713641606742300,7.7147421875,0.438079833984375,-1.56982421875,2.054443359375
1695713641616263700,7.724263671875,0.58807373046875,-0.669097900390625,1.5496826171875
1695713641625815800,7.73381591796875,0.59417724609375,-0.211334228515625,1.432037353515625
1695713641635367700,7.74336767578125,0.496673583984375,0.102691650390625,1.456146240234375
1695713641644919800,7.752919921875,0.357666015625,0.166778564453125,1.5496826171875
1695713641654441200,7.762441162109375,0.223388671875,-0.10162353515625,1.67694091796875
1695713641663993300,7.771993408203125,0.094451904296875,-0.599822998046875,1.813201904296875
1695713641673545200,7.781545166015625,0.012664794921875,-1.10626220703125,1.9293212890625
1695713641683097300,7.791097412109375,0.0018310546875,-1.388397216796875,1.97113037109375
1695713641692649200,7.800649169921875,0.060882568359375,-1.45416259765625,1.95556640625
1695713641702170600,7.810170654296875,0.158233642578125,-1.367340087890625,1.888275146484375
1695713641711722800,7.81972265625,0.228271484375,-1.239471435546875,1.795196533203125
1695713641721305300,7.829305419921875,0.20904541015625,-1.158447265625,1.688232421875
1695713641730857200,7.838857177734375,0.087738037109375,-1.1468505859375,1.5533447265625
1695713641740409300,7.848409423828125,-0.0628662109375,-1.13311767578125,1.399383544921875
1695713641749930800,7.8579306640625,-0.170135498046875,-1.0906982421875,1.2823486328125
1695713641759482600,7.867482666015625,-0.240325927734375,-1.038665771484375,1.25274658203125
1695713641769034800,7.87703466796875,-0.279083251953125,-0.972137451171875,1.2841796875
1695713641778586600,7.886586669921875,-0.289154052734375,-0.86151123046875,1.33056640625
1695713641788108300,7.8961083984375,-0.296783447265625,-0.731201171875,1.35406494140625
1695713641797660200,7.90566015625,-0.322418212890625,-0.610809326171875,1.34918212890625
1695713641807212300,7.91521240234375,-0.36041259765625,-0.525970458984375,1.346435546875
1695713641816764200,7.92476416015625,-0.3936767578125,-0.47454833984375,1.375274658203125
1695713641826316300,7.93431640625,-0.41290283203125,-0.4840087890625,1.418914794921875
1695713641835837700,7.943837646484375,-0.42510986328125,-0.583648681640625,1.451873779296875
1695713641845389800,7.953389892578125,-0.42388916015625,-0.71319580078125,1.436614990234375
1695713641854941700,7.962941650390625,-0.41168212890625,-0.78521728515625,1.3458251953125
1695713641864493800,7.972493896484375,-0.40374755859375,-0.8056640625,1.155548095703125
1695713641874045700,7.982045654296875,-0.41961669921875,-0.8648681640625,0.8837890625
1695713641883567000,7.991567138671875,-0.472412109375,-0.967864990234375,0.58807373046875
1695713641893119200,8.001119140625,-0.5084228515625,-1.05133056640625,0.304107666015625
1695713641902671000,8.010671142578126,-0.472412109375,-1.043853759765625,0.078887939453125
1695713641912223200,8.02022314453125,-0.41473388671875,-0.934295654296875,-0.043487548828125
1695713641921744600,8.02974462890625,-0.37445068359375,-0.80718994140625,-0.09796142578125
1695713641931296800,8.039296875,-0.350341796875,-0.73333740234375,-0.12176513671875
1695713641940848600,8.0488486328125,-0.332489013671875,-0.72235107421875,-0.1568603515625
1695713641950400800,8.05840087890625,-0.300750732421875,-0.70953369140625,-0.22857666015625
1695713641959952600,8.06795263671875,-0.243072509765625,-0.675811767578125,-0.330352783203125
1695713641969474300,8.077474365234375,-0.173187255859375,-0.643768310546875,-0.462646484375
1695713641979026200,8.087026123046876,-0.106201171875,-0.582122802734375,-0.626983642578125
1695713641988578300,8.096578369140625,-0.03631591796875,-0.41534423828125,-0.82672119140625
1695713641998130200,8.106130126953126,0.032806396484375,-0.14862060546875,-1.074676513671875
1695713642007682300,8.115682373046875,0.067596435546875,0.141448974609375,-1.331939697265625
1695713642017234200,8.125234130859376,0.083465576171875,0.395965576171875,-1.578369140625
1695713642026786300,8.134786376953125,0.108795166015625,0.68511962890625,-1.8585205078125
1695713642036338200,8.144338134765626,0.121917724609375,1.02294921875,-2.171173095703125
1695713642045890300,8.153890380859375,0.170745849609375,1.27532958984375,-2.480316162109375
1695713642055442200,8.163442138671876,0.185699462890625,1.32537841796875,-2.851104736328125
1695713642064963600,8.172963623046876,0.102386474609375,1.175994873046875,-3.242340087890625
1695713642074515700,8.182515625,0.077362060546875,0.809783935546875,-3.518218994140625
1695713642084067600,8.192067626953126,0.123138427734375,0.3118896484375,-3.549957275390625
1695713642093619700,8.20161962890625,0.18310546875,-0.0872802734375,-3.3404541015625
1695713642103141000,8.21114111328125,0.22430419921875,-0.258026123046875,-3.0499267578125
1695713642112693200,8.220693359375,0.24169921875,-0.304412841796875,-2.824554443359375
1695713642122245000,8.2302451171875,0.2117919921875,-0.4595947265625,-2.72796630859375
1695713642131797200,8.23979736328125,0.137786865234375,-0.79803466796875,-2.71728515625
1695713642141349000,8.24934912109375,0.055999755859375,-1.06536865234375,-2.6605224609375
1695713642150870800,8.258870849609375,0.022735595703125,-0.71319580078125,-2.36907958984375
1695713642160422700,8.268422607421876,0.099334716796875,0.37139892578125,-1.932373046875
1695713642169974800,8.277974853515625,0.2685546875,1.505889892578125,-1.755828857421875
1695713642179526700,8.287526611328126,0.378875732421875,2.14813232421875,-1.9561767578125
1695713642189078800,8.297078857421875,0.370941162109375,2.38861083984375,-2.25311279296875
1695713642198600200,8.30660009765625,0.29022216796875,2.406005859375,-2.438812255859375
1695713642208152000,8.316152099609376,0.20477294921875,2.342376708984375,-2.484893798828125
1695713642217704200,8.3257041015625,0.143280029296875,2.16156005859375,-2.441864013671875
1695713642227256000,8.335256103515626,0.149078369140625,1.917266845703125,-2.31536865234375
1695713642236777700,8.34477783203125,0.20599365234375,1.70440673828125,-2.116241455078125
1695713642246329600,8.35432958984375,0.2960205078125,1.565093994140625,-1.88140869140625
1695713642255881700,8.3638818359375,0.410614013671875,1.512908935546875,-1.63482666015625
1695713642265433600,8.37343359375,0.486602783203125,1.500091552734375,-1.428070068359375
1695713642274985700,8.38298583984375,0.503997802734375,1.504364013671875,-1.25732421875
1695713642284507100,8.392507080078126,0.513153076171875,1.498870849609375,-1.104583740234375
1695713642294089700,8.40208984375,0.528717041015625,1.516265869140625,-0.946044921875
1695713642303641600,8.4116416015625,0.527496337890625,1.539764404296875,-0.7855224609375
1695713642313193700,8.42119384765625,0.503692626953125,1.514739990234375,-0.629425048828125
1695713642322745600,8.43074560546875,0.472869873046875,1.44134521484375,-0.4638671875
1695713642332267300,8.440267333984375,0.445098876953125,1.329345703125,-0.272674560546875
1695713642341819100,8.449819091796876,0.432281494140625,1.179046630859375,-0.052337646484375
1695713642351371300,8.459371337890625,0.435028076171875,0.9716796875,0.2044677734375
1695713642360923100,8.468923095703126,0.454864501953125,0.729827880859375,0.4974365234375
1695713642370444500,8.478444580078126,0.506134033203125,0.496978759765625,0.812835693359375
1695713642379996700,8.48799658203125,0.5877685546875,0.2960205078125,1.137237548828125
1695713642389548500,8.497548583984376,0.6878662109375,0.168914794921875,1.438751220703125
1695713642399100700,8.5071005859375,0.800628662109375,0.142364501953125,1.683349609375
1695713642408652500,8.516652587890626,0.899505615234375,0.2398681640625,1.792449951171875
1695713642418174200,8.52617431640625,0.9344482421875,0.55206298828125,1.641845703125
1695713642427726000,8.53572607421875,0.9100341796875,0.9539794921875,1.251220703125
1695713642437278200,8.5452783203125,0.849456787109375,1.184234619140625,0.8319091796875
1695713642446830000,8.554830078125,0.697021484375,1.26861572265625,0.403289794921875
1695713642456382200,8.56438232421875,0.444793701171875,1.34490966796875,-0.235443115234375
1695713642465903600,8.573903564453126,0.1959228515625,1.488800048828125,-0.998687744140625
1695713642475455700,8.583455810546875,0.136260986328125,1.007080078125,-1.364898681640625
1695713642485007600,8.593007568359376,0.286865234375,-0.213165283203125,-1.13800048828125
1695713642494559700,8.602559814453125,0.437469482421875,-1.291046142578125,-0.718231201171875
1695713642504111600,8.612111572265626,0.407562255859375,-1.663360595703125,-0.42694091796875
1695713642513633000,8.621633056640626,0.22857666015625,-1.358184814453125,-0.335845947265625
1695713642523185200,8.63118505859375,0.051116943359375,-0.612335205078125,-0.359954833984375
1695713642532737000,8.640737060546876,-0.1104736328125,0.516510009765625,-0.264129638671875
1695713642542289200,8.6502890625,-0.38818359375,1.6851806640625,0.106048583984375
1695713642551810600,8.659810546875,-0.692901611328125,2.042236328125,0.746917724609375
1695713642561362700,8.66936279296875,-0.78277587890625,0.866851806640625,1.401519775390625
1695713642570914600,8.67891455078125,-0.547027587890625,-1.284637451171875,1.106719970703125
1695713642580466700,8.688466796875,-0.173187255859375,-2.008514404296875,-0.10040283203125
1695713642590049000,8.698049072265626,0.106964111328125,-0.73486328125,-0.90576171875
1695713642599570700,8.70757080078125,0.530853271484375,-0.309906005859375,-0.019378662109375
1695713642609122600,8.71712255859375,0.851287841796875,-1.5240478515625,1.792755126953125
1695713642618674700,8.7266748046875,0.747222900390625,-2.2705078125,2.7813720703125
1695713642628226600,8.7362265625,0.31005859375,-1.986846923828125,2.514190673828125
1695713642637778700,8.74577880859375,-0.188140869140625,-1.293792724609375,1.568603515625
1695713642647300000,8.755300048828126,-0.4931640625,-1.272125244140625,1.525421142578125
1695713642656852200,8.764852294921875,-0.567169189453125,-1.52252197265625,2.138519287109375
1695713642666404000,8.774404052734376,-0.4132080078125,-1.8902587890625,2.77008056640625
1695713642675956200,8.783956298828125,-0.0726318359375,-2.17376708984375,2.926177978515625
1695713642685508000,8.793508056640626,0.311279296875,-1.7828369140625,2.41424560546875
1695713642695029500,8.803029541015626,0.5517578125,-0.79132080078125,1.66473388671875
1695713642704581600,8.81258154296875,0.5694580078125,-0.166473388671875,1.3494873046875
1695713642714133500,8.822133544921876,0.501251220703125,-0.0994873046875,1.348876953125
1695713642723685600,8.831685546875,0.384674072265625,-0.1263427734375,1.465911865234375
1695713642733207000,8.84120703125,0.26641845703125,-0.149383544921875,1.61529541015625
1695713642742759200,8.85075927734375,0.148773193359375,-0.391845703125,1.751251220703125
1695713642752311000,8.86031103515625,0.049285888671875,-0.7818603515625,1.878509521484375
1695713642761863200,8.86986328125,-0.00335693359375,-1.0687255859375,1.9677734375
1695713642771415000,8.8794150390625,0.013580322265625,-1.19476318359375,1.97357177734375
1695713642780919800,8.888919921875,0.103302001953125,-1.212158203125,1.904144287109375
1695713642790471700,8.8984716796875,0.19561767578125,-1.17523193359375,1.808319091796875
1695713642800023800,8.90802392578125,0.21820068359375,-1.10870361328125,1.739349365234375
1695713642809575700,8.91757568359375,0.153961181640625,-1.06597900390625,1.66778564453125
1695713642819097000,8.92709716796875,0.034332275390625,-1.05072021484375,1.5496826171875
1695713642828649200,8.936649169921875,-0.08514404296875,-1.006317138671875,1.413116455078125
1695713642838201000,8.946201171875,-0.172576904296875,-0.943450927734375,1.31439208984375
1695713642847753200,8.955753173828125,-0.230865478515625,-0.8526611328125,1.2823486328125
1695713642857305000,8.96530517578125,-0.268096923828125,-0.7318115234375,1.28570556640625
1695713642866857200,8.974857177734375,-0.306243896484375,-0.620574951171875,1.28692626953125
1695713642876409300,8.984409423828126,-0.35552978515625,-0.552215576171875,1.29974365234375
1695713642885961200,8.993961181640625,-0.39642333984375,-0.49102783203125,1.351318359375
1695713642895513300,9.003513427734376,-0.41351318359375,-0.47088623046875,1.436309814453125
1695713642905065200,9.013065185546875,-0.41259765625,-0.530853271484375,1.504364013671875
1695713642914586600,9.022586669921875,-0.39642333984375,-0.658111572265625,1.529998779296875
1695713642924138800,9.032138671875,-0.3680419921875,-0.77362060546875,1.491241455078125
1695713642933690600,9.041690673828125,-0.347900390625,-0.8331298828125,1.3623046875
1695713642943242800,9.05124267578125,-0.3472900390625,-0.76263427734375,1.150970458984375
1695713642952794600,9.060794677734375,-0.3753662109375,-0.612335205078125,0.89996337890625
1695713642962316300,9.07031640625,-0.42724609375,-0.584564208984375,0.655517578125
1695713642971868200,9.0798681640625,-0.45623779296875,-0.7135009765625,0.446319580078125
1695713642981420300,9.089420166015625,-0.430908203125,-0.86151123046875,0.2899169921875
1695713642990972200,9.09897216796875,-0.38299560546875,-0.921173095703125,0.20477294921875
1695713643000493600,9.10849365234375,-0.3521728515625,-0.830078125,0.16082763671875
1695713643010045700,9.118045654296875,-0.336151123046875,-0.70831298828125,0.115814208984375
1695713643019597600,9.12759765625,-0.317230224609375,-0.6976318359375,0.056610107421875
1695713643029149700,9.137149658203125,-0.284576416015625,-0.745849609375,-0.023956298828125
1695713643038701800,9.146701904296876,-0.239105224609375,-0.77789306640625,-0.12054443359375
1695713643048223200,9.15622314453125,-0.194244384765625,-0.7879638671875,-0.224456787109375
1695713643057775000,9.165775146484375,-0.160675048828125,-0.72418212890625,-0.356292724609375
1695713643067327200,9.1753271484375,-0.1446533203125,-0.545501708984375,-0.5145263671875
1695713643076879000,9.184879150390625,-0.12420654296875,-0.3558349609375,-0.716400146484375
1695713643086431200,9.19443115234375,-0.07354736328125,-0.175933837890625,-0.989532470703125
1695713643095952600,9.20395263671875,-0.00213623046875,0.057830810546875,-1.303558349609375
1695713643105504800,9.2135048828125,0.088653564453125,0.3607177734375,-1.6058349609375
1695713643115056600,9.223056640625,0.1922607421875,0.741119384765625,-1.91375732421875
1695713643124608800,9.23260888671875,0.2716064453125,1.153106689453125,-2.21282958984375
1695713643134130200,9.242130126953125,0.3558349609375,1.4288330078125,-2.502899169921875
1695713643143682000,9.25168212890625,0.414276123046875,1.39739990234375,-2.856597900390625
1695713643153264600,9.2612646484375,0.396881103515625,1.07696533203125,-3.186492919921875
1695713643162816800,9.270816650390625,0.387725830078125,0.56365966796875,-3.3355712890625
1695713643172368600,9.28036865234375,0.3509521484375,0.110015869140625,-3.2928466796875
1695713643181890000,9.28989013671875,0.26580810546875,-0.02899169921875,-3.157196044921875
1695713643191442200,9.299442138671875,0.160064697265625,0.149383544921875,-3.05938720703125
1695713643200994300,9.308994384765626,0.073699951171875,0.36956787109375,-3.03314208984375
1695713643210546200,9.318546142578125,-0.00885009765625,0.31890869140625,-3.021240234375
1695713643220098300,9.328098388671876,-0.1263427734375,-0.05157470703125,-2.97332763671875
1695713643229619700,9.33761962890625,-0.254974365234375,-0.50048828125,-2.836761474609375
1695713643239171600,9.347171630859375,-0.313262939453125,-0.550689697265625,-2.545318603515625
1695713643248723700,9.3567236328125,-0.250396728515625,-0.11505126953125,-2.19573974609375
1695713643258275600,9.366275634765625,-0.0457763671875,0.61767578125,-1.91925048828125
1695713643267827700,9.37582763671875,0.160369873046875,1.176300048828125,-1.9635009765625
1695713643277349000,9.38534912109375,0.174407958984375,1.62628173828125,-2.190399169921875
1695713643286901200,9.3949013671875,0.079193115234375,1.845550537109375,-2.392730712890625
1695713643296453000,9.404453125,0.024566650390625,1.840362548828125,-2.481536865234375
1695713643306005200,9.414005126953125,0.049896240234375,1.74713134765625,-2.451019287109375
1695713643315526700,9.423526611328125,0.118865966796875,1.689453125,-2.314453125
1695713643325078500,9.43307861328125,0.21759033203125,1.620330810546875,-2.111663818359375
1695713643334630700,9.442630615234375,0.32867431640625,1.519927978515625,-1.88018798828125
1695713643344182500,9.4521826171875,0.450286865234375,1.44805908203125,-1.64337158203125
1695713643353734700,9.461734619140625,0.528717041015625,1.4105224609375,-1.428375244140625
1695713643363256000,9.471256103515625,0.533905029296875,1.39190673828125,-1.24176025390625
1695713643372808200,9.48080810546875,0.536651611328125,1.380615234375,-1.049346923828125
1695713643382360000,9.490360107421875,0.562744140625,1.37298583984375,-0.8465576171875
1695713643391912200,9.499912109375,0.58807373046875,1.35528564453125,-0.645599365234375
1695713643401464000,9.509464111328125,0.59539794921875,1.326904296875,-0.4559326171875
1695713643410985700,9.51898583984375,0.59661865234375,1.2750244140625,-0.270843505859375
1695713643420537600,9.52853759765625,0.59967041015625,1.173248291015625,-0.07476806640625
1695713643430089700,9.53808984375,0.60882568359375,1.00982666015625,0.14984130859375
1695713643439672000,9.547672119140625,0.6231689453125,0.793914794921875,0.419158935546875
1695713643449193700,9.55719384765625,0.65673828125,0.5963134765625,0.721588134765625
1695713643458745600,9.56674560546875,0.72265625,0.425567626953125,1.043243408203125
1695713643468297700,9.576297607421875,0.803985595703125,0.29327392578125,1.36077880859375
1695713643477849600,9.585849609375,0.882415771484375,0.2032470703125,1.629638671875
1695713643487401700,9.595401611328125,0.9405517578125,0.2215576171875,1.803741455078125
1695713643496923100,9.604923095703125,0.91278076171875,0.364990234375,1.754608154296875
1695713643506475000,9.61447509765625,0.794830322265625,0.59814453125,1.387481689453125
1695713643516027100,9.624027099609375,0.6414794921875,0.71868896484375,0.832366943359375
1695713643525579300,9.633579345703126,0.458526611328125,0.861968994140625,0.29510498046875
1695713643535131100,9.643131103515625,0.24749755859375,1.087646484375,-0.284271240234375
1695713643544652500,9.652652587890625,0.062408447265625,1.27960205078125,-0.86517333984375
1695713643554204700,9.66220458984375,-0.01312255859375,0.9674072265625,-1.15264892578125
1695713643563756500,9.671756591796875,0.098724365234375,-0.04058837890625,-0.966949462890625
1695713643573308700,9.68130859375,0.25238037109375,-0.992279052734375,-0.583038330078125
1695713643582830000,9.690830078125,0.26275634765625,-1.408233642578125,-0.244598388671875
1695713643592382200,9.70038232421875,0.100250244140625,-1.315765380859375,-0.0714111328125
1695713643601934000,9.70993408203125,-0.08941650390625,-0.78521728515625,-0.0555419921875
1695713643611486200,9.719486328125,-0.228729248046875,0.063018798828125,-0.05889892578125
1695713643621038000,9.7290380859375,-0.4180908203125,0.9503173828125,0.16204833984375
1695713643630559500,9.7385595703125,-0.7037353515625,1.44195556640625,0.696258544921875
1695713643640111600,9.748111572265625,-0.86029052734375,0.9735107421875,1.57562255859375
1695713643649663500,9.75766357421875,-0.8123779296875,-0.7086181640625,2.126312255859375
1695713643659215600,9.767215576171875,-0.501708984375,-2.5628662109375,1.3568115234375
1695713643668767700,9.776767822265626,-0.238494873046875,-2.032318115234375,-0.13031005859375
1695713643678289200,9.7862890625,-0.09918212890625,0.402374267578125,-0.83465576171875
1695713643687841000,9.795841064453125,0.32928466796875,0.075225830078125,0.1983642578125
1695713643697393200,9.80539306640625,0.842742919921875,-2.17926025390625,2.136383056640625
1695713643706945000,9.814945068359375,0.95367431640625,-3.035430908203125,3.0987548828125
1695713643716466700,9.824466796875,0.6121826171875,-2.438201904296875,2.845306396484375
1695713643726049000,9.834049072265625,0.182037353515625,-1.343231201171875,1.890411376953125
1695713643735601200,9.84360107421875,-0.15625,-0.897674560546875,1.5771484375
1695713643745153000,9.853153076171875,-0.41961669921875,-1.06719970703125,2.01446533203125
1695713643754705200,9.862705078125,-0.572662353515625,-1.624603271484375,2.618560791015625
1695713643764226600,9.8722265625,-0.43060302734375,-2.011871337890625,2.888336181640625
1695713643773778700,9.88177880859375,-0.07354736328125,-1.937255859375,2.6654052734375
1695713643783330600,9.89133056640625,0.34423828125,-1.352691650390625,2.071533203125
1695713643792882700,9.900882568359375,0.552978515625,-0.7373046875,1.611328125
1695713643802434600,9.9104345703125,0.55877685546875,-0.35064697265625,1.468353271484375
1695713643811956000,9.9199560546875,0.504608154296875,-0.1220703125,1.510772705078125
1695713643821508000,9.929508056640625,0.412445068359375,0.025482177734375,1.6497802734375
1695713643831060200,9.939060302734376,0.28717041015625,-0.064697265625,1.796417236328125
1695713643840612000,9.948612060546875,0.164337158203125,-0.4193115234375,1.842498779296875
1695713643850164200,9.958164306640626,0.058746337890625,-0.81573486328125,1.769866943359375
1695713643859685600,9.967685546875,-0.00762939453125,-1.09100341796875,1.668701171875
1695713643869237500,9.977237548828125,-0.01190185546875,-1.19232177734375,1.5875244140625
1695713643878789600,9.98678955078125,0.026397705078125,-1.16485595703125,1.556549072265625
1695713643888341500,9.996341552734375,0.053863525390625,-1.11572265625,1.535491943359375
1695713643897863200,10.00586328125,0.048065185546875,-1.077880859375,1.465606689453125
1695713643907415000,10.0154150390625,-0.0067138671875,-0.959014892578125,1.348876953125
1695713643916967200,10.02496728515625,-0.06317138671875,-0.75775146484375,1.2152099609375
1695713643926519000,10.03451904296875,-0.0970458984375,-0.530853271484375,1.151275634765625
1695713643936071200,10.0440712890625,-0.12481689453125,-0.382080078125,1.160736083984375
1695713643945592600,10.053592529296875,-0.1556396484375,-0.36102294921875,1.199188232421875
1695713643955144400,10.06314453125,-0.204925537109375,-0.39306640625,1.24176025390625
1695713643964696600,10.072696533203125,-0.260162353515625,-0.41168212890625,1.26922607421875
1695713643974248400,10.08224853515625,-0.312347412109375,-0.43426513671875,1.3037109375
1695713643983800600,10.091800537109375,-0.3546142578125,-0.4913330078125,1.34307861328125
1695713643993322000,10.101322021484375,-0.3863525390625,-0.578460693359375,1.399688720703125
1695713644002874000,10.1108740234375,-0.40802001953125,-0.687713623046875,1.435394287109375
1695713644012456700,10.120456787109376,-0.42205810546875,-0.78948974609375,1.406707763671875
1695713644022008600,10.130008544921875,-0.44158935546875,-0.81573486328125,1.2786865234375
1695713644031560700,10.139560791015626,-0.4656982421875,-0.76873779296875,1.040191650390625
1695713644041082000,10.14908203125,-0.49041748046875,-0.7684326171875,0.744476318359375
1695713644050634000,10.158634033203125,-0.4888916015625,-0.896453857421875,0.48828125
1695713644060186000,10.16818603515625,-0.43426513671875,-1.04888916015625,0.310821533203125
1695713644069738000,10.177738037109375,-0.35736083984375,-1.094970703125,0.2044677734375
1695713644079259600,10.187259765625,-0.294036865234375,-1.043548583984375,0.1336669921875
1695713644088811500,10.1968115234375,-0.270843505859375,-0.921478271484375,0.070953369140625
1695713644098363600,10.20636376953125,-0.287322998046875,-0.78155517578125,-0.019073486328125
1695713644107915500,10.21591552734375,-0.320587158203125,-0.69610595703125,-0.1690673828125
1695713644117467600,10.225467529296875,-0.350341796875,-0.644683837890625,-0.355987548828125
1695713644126989000,10.234989013671875,-0.345458984375,-0.634918212890625,-0.533447265625
1695713644136541000,10.244541015625,-0.301361083984375,-0.594940185546875,-0.707244873046875
1695713644146093000,10.254093017578125,-0.209197998046875,-0.4901123046875,-0.926513671875
1695713644155645200,10.263645263671876,-0.0799560546875,-0.341796875,-1.19598388671875
1695713644165197000,10.273197021484375,0.067596435546875,-0.158843994140625,-1.456146240234375
1695713644174718500,10.282718505859375,0.19195556640625,0.089569091796875,-1.698455810546875
1695713644184270600,10.2922705078125,0.30548095703125,0.425567626953125,-2.0086669921875
1695713644193822500,10.301822509765625,0.401153564453125,0.817413330078125,-2.349853515625
1695713644203374600,10.31137451171875,0.480194091796875,1.142120361328125,-2.62786865234375
1695713644212896000,10.32089599609375,0.512542724609375,1.260223388671875,-2.857818603515625
1695713644222448000,10.3304482421875,0.478363037109375,1.218414306640625,-3.122711181640625
1695713644232000000,10.34,0.469207763671875,1.033935546875,-3.292236328125
1695713644241552100,10.34955224609375,0.461578369140625,0.72509765625,-3.2830810546875
1695713644251104000,10.35910400390625,0.392608642578125,0.420989990234375,-3.194122314453125
1695713644260625400,10.36862548828125,0.28167724609375,0.24810791015625,-3.144683837890625
1695713644270177500,10.378177490234375,0.167388916015625,0.129547119140625,-3.096466064453125
1695713644279729400,10.3877294921875,0.023651123046875,-0.0433349609375,-2.9388427734375
1695713644289281500,10.397281494140625,-0.14495849609375,-0.207672119140625,-2.65045166015625
1695713644298864000,10.406864013671875,-0.193328857421875,-0.02838134765625,-2.196044921875
1695713644308385500,10.416385498046875,0.010833740234375,0.508575439453125,-1.758270263671875
1695713644317937700,10.425937744140626,0.30303955078125,1.097259521484375,-1.59576416015625
1695713644327489500,10.435489501953125,0.424652099609375,1.4129638671875,-1.775054931640625
1695713644337041700,10.445041748046876,0.3436279296875,1.567535400390625,-2.022857666015625
1695713644346563000,10.45456298828125,0.2105712890625,1.813201904296875,-2.171173095703125
1695713644356115000,10.464114990234375,0.106964111328125,2.03125,-2.2283935546875
1695713644365667000,10.4736669921875,0.038299560546875,2.12158203125,-2.20977783203125
1695713644375219000,10.483218994140625,0.022735595703125,2.01995849609375,-2.124481201171875
1695713644384771000,10.49277099609375,0.108489990234375,1.73095703125,-1.99066162109375
1695713644394292500,10.50229248046875,0.272216796875,1.478729248046875,-1.806793212890625
1695713644403844600,10.5118447265625,0.443878173828125,1.3751220703125,-1.578369140625
1695713644413396500,10.521396484375,0.5706787109375,1.27899169921875,-1.354827880859375
1695713644422948600,10.530948486328125,0.62530517578125,1.201629638671875,-1.15478515625
1695713644432500500,10.54050048828125,0.66131591796875,1.151580810546875,-0.975494384765625
1695713644442022000,10.55002197265625,0.6805419921875,1.109466552734375,-0.791015625
1695713644451574000,10.559573974609375,0.655517578125,1.08245849609375,-0.600128173828125
1695713644461126000,10.5691259765625,0.60150146484375,1.07330322265625,-0.395355224609375
1695713644470678000,10.578677978515625,0.538787841796875,1.0736083984375,-0.17578125
1695713644480199400,10.588199462890625,0.466766357421875,1.03729248046875,0.062103271484375
1695713644489751600,10.59775146484375,0.411529541015625,0.950927734375,0.320587158203125
1695713644499303400,10.607303466796875,0.389862060546875,0.827484130859375,0.59661865234375
1695713644508855600,10.61685546875,0.404205322265625,0.66436767578125,0.867919921875
1695713644518407400,10.626407470703125,0.451202392578125,0.486602783203125,1.140594482421875
1695713644527929000,10.63592919921875,0.530853271484375,0.34515380859375,1.387481689453125
1695713644537481000,10.64548095703125,0.63262939453125,0.2490234375,1.533966064453125
1695713644547033000,10.655033203125,0.7244873046875,0.2410888671875,1.508026123046875
1695713644556585000,10.6645849609375,0.764007568359375,0.347900390625,1.2335205078125
1695713644566137000,10.67413720703125,0.71502685546875,0.537872314453125,0.725250244140625
1695713644575658500,10.683658447265625,0.540008544921875,0.795135498046875,0.041961669921875
1695713644585241000,10.693240966796875,0.21636962890625,1.210174560546875,-1.062469482421875
1695713644594793000,10.70279296875,-0.1495361328125,1.829986572265625,-2.274169921875
1695713644604345000,10.712344970703125,-0.179290771484375,1.34765625,-2.637939453125
1695713644613897000,10.72189697265625,0.22125244140625,-0.098876953125,-2.091827392578125
1695713644623418400,10.73141845703125,0.57891845703125,-0.950775146484375,-1.29547119140625
1695713644632970500,10.740970458984375,0.60211181640625,-0.8648681640625,-0.724639892578125
1695713644642522600,10.750522705078126,0.435638427734375,-0.3515625,-0.4339599609375
1695713644652074500,10.760074462890625,0.22735595703125,0.32562255859375,-0.267181396484375
1695713644661596000,10.769595947265625,-0.008544921875,1.142120361328125,-0.12054443359375
1695713644671148000,10.77914794921875,-0.34515380859375,1.831817626953125,0.194091796875
1695713644680700000,10.788699951171875,-0.674896240234375,1.526336669921875,0.853271484375
1695713644690252000,10.798251953125,-0.751953125,-0.4864501953125,1.27197265625
1695713644699804000,10.807803955078125,-0.49713134765625,-2.442474365234375,0.90301513671875
1695713644709325600,10.81732568359375,-0.312042236328125,-1.387176513671875,0.051116943359375
1695713644718877400,10.82687744140625,0.017852783203125,-0.01434326171875,-0.337066650390625
1695713644728429600,10.8364296875,0.473785400390625,-0.84014892578125,0.759735107421875
1695713644737981400,10.8459814453125,0.863800048828125,-1.746063232421875,2.089691162109375
1695713644747533600,10.855533447265625,0.825653076171875,-1.330413818359375,2.44415283203125
1695713644757055000,10.865054931640625,0.419464111328125,-0.34027099609375,1.787567138671875
1695713644766606800,10.87460693359375,-0.06805419921875,-0.47760009765625,1.483612060546875
1695713644776159000,10.884158935546875,-0.42938232421875,-1.19873046875,2.0458984375
1695713644785711000,10.893711181640626,-0.46844482421875,-1.83868408203125,2.73468017578125
1695713644795232500,10.903232421875,-0.35369873046875,-2.409210205078125,2.970733642578125
1695713644804784400,10.912784423828125,-0.223541259765625,-2.687835693359375,2.6531982421875
1695713644814336500,10.92233642578125,-0.0177001953125,-2.22381591796875,1.953125
1695713644823888400,10.931888427734375,0.149993896484375,-1.19903564453125,1.389617919921875
1695713644833440500,10.9414404296875,0.220947265625,-0.265045166015625,1.21795654296875
1695713644842962000,10.9509619140625,0.24749755859375,0.29541015625,1.2603759765625
1695713644852514000,10.96051416015625,0.22491455078125,0.518035888671875,1.391754150390625
1695713644862066000,10.97006591796875,0.18524169921875,0.392303466796875,1.56036376953125
1695713644871648500,10.9796484375,0.147247314453125,-0.08087158203125,1.7169189453125
1695713644881200400,10.989200439453125,0.121002197265625,-0.687103271484375,1.820831298828125
1695713644890722000,10.99872216796875,0.101165771484375,-1.1492919921875,1.835479736328125
1695713644900274000,11.00827392578125,0.077056884765625,-1.373443603515625,1.794281005859375
1695713644909826000,11.017825927734375,0.081329345703125,-1.388092041015625,1.746673583984375
1695713644919378000,11.0273779296875,0.097198486328125,-1.352081298828125,1.71142578125
1695713644928930000,11.036929931640625,0.083770751953125,-1.341094970703125,1.6925048828125
1695713644938451500,11.046451416015625,0.052947998046875,-1.234283447265625,1.6717529296875
1695713644948003300,11.05600341796875,-0.00274658203125,-1.09039306640625,1.61041259765625
1695713644957555500,11.065555419921875,-0.09368896484375,-0.955047607421875,1.477813720703125
1695713644967107600,11.075107666015626,-0.178985595703125,-0.7598876953125,1.3409423828125
1695713644976629000,11.08462890625,-0.235137939453125,-0.557708740234375,1.26708984375
1695713644986180900,11.094180908203125,-0.283660888671875,-0.43243408203125,1.26190185546875
1695713644995733000,11.10373291015625,-0.329742431640625,-0.38055419921875,1.26922607421875
1695713645005284900,11.113284912109375,-0.3765869140625,-0.3619384765625,1.28936767578125
1695713645014837000,11.1228369140625,-0.41351318359375,-0.3717041015625,1.2982177734375
1695713645024358400,11.1323583984375,-0.4351806640625,-0.43121337890625,1.29150390625
1695713645033910500,11.14191064453125,-0.445556640625,-0.469970703125,1.297607421875
1695713645043462400,11.15146240234375,-0.44158935546875,-0.42205810546875,1.2933349609375
1695713645053014500,11.1610146484375,-0.4193115234375,-0.355224609375,1.24237060546875
1695713645062566400,11.17056640625,-0.38787841796875,-0.3912353515625,1.116790771484375
1695713645072087800,11.180087890625,-0.37811279296875,-0.49468994140625,0.92803955078125
1695713645081640000,11.189639892578125,-0.3997802734375,-0.625457763671875,0.721282958984375
1695713645091191800,11.19919189453125,-0.42694091796875,-0.74737548828125,0.5548095703125
1695713645100744000,11.208743896484375,-0.42388916015625,-0.8050537109375,0.438690185546875
1695713645110265300,11.218265380859375,-0.3924560546875,-0.79742431640625,0.329437255859375
1695713645119817500,11.2278173828125,-0.37261962890625,-0.688018798828125,0.19805908203125
1695713645129369300,11.237369384765625,-0.3778076171875,-0.534210205078125,0.058441162109375
1695713645138921500,11.24692138671875,-0.4071044921875,-0.42144775390625,-0.0732421875
1695713645148473300,11.256473388671875,-0.41839599609375,-0.3826904296875,-0.19378662109375
1695713645158025500,11.266025390625,-0.37689208984375,-0.396728515625,-0.306243896484375
1695713645167577300,11.275577392578125,-0.286407470703125,-0.40374755859375,-0.4296875
1695713645177129500,11.28512939453125,-0.167388916015625,-0.323638916015625,-0.5902099609375
1695713645186681300,11.294681396484375,-0.023193359375,-0.158538818359375,-0.78094482421875
1695713645196233500,11.3042333984375,0.132598876953125,0.069732666015625,-0.956268310546875
1695713645205755000,11.3137548828125,0.2435302734375,0.30120849609375,-1.112518310546875
1695713645215307000,11.32330712890625,0.25909423828125,0.508880615234375,-1.342010498046875
1695713645224859000,11.33285888671875,0.2410888671875,0.6915283203125,-1.684722900390625
1695713645234411000,11.342410888671875,0.20843505859375,0.828399658203125,-2.080230712890625
1695713645243932400,11.351932373046875,0.168914794921875,0.9368896484375,-2.442779541015625
1695713645253484300,11.361484375,0.137481689453125,1.0394287109375,-2.799224853515625
1695713645263036400,11.371036376953125,0.048980712890625,1.03302001953125,-3.189239501953125
1695713645272588500,11.380588623046876,0.00274658203125,0.835113525390625,-3.45306396484375
1695713645282140400,11.390140380859375,0.089569091796875,0.379791259765625,-3.42376708984375
1695713645291661800,11.399661865234375,0.175018310546875,-0.255889892578125,-3.177337646484375
1695713645301214000,11.4092138671875,0.1910400390625,-0.75103759765625,-2.881927490234375
1695713645310765800,11.418765869140625,0.131683349609375,-0.927886962890625,-2.70233154296875
1695713645320318000,11.42831787109375,0.025177001953125,-0.84808349609375,-2.66204833984375
1695713645329869800,11.437869873046875,-0.0860595703125,-0.75408935546875,-2.66204833984375
1695713645339391500,11.4473916015625,-0.172576904296875,-0.72113037109375,-2.538909912109375
1695713645348943400,11.456943359375,-0.210418701171875,-0.44677734375,-2.207489013671875
1695713645358495500,11.46649560546875,-0.1507568359375,0.171356201171875,-1.847991943359375
1695713645368047400,11.47604736328125,0.00396728515625,0.823211669921875,-1.682281494140625
1695713645377568800,11.48556884765625,0.129241943359375,1.36138916015625,-1.764068603515625
1695713645387121000,11.495120849609375,0.140228271484375,1.609039306640625,-1.9873046875
1695713645396672800,11.5046728515625,0.088348388671875,1.632080078125,-2.133026123046875
1695713645406225000,11.514224853515625,0.039215087890625,1.579132080078125,-2.127532958984375
1695713645415776800,11.52377685546875,0.050811767578125,1.508331298828125,-2.00439453125
1695713645425298400,11.53329833984375,0.127410888671875,1.44195556640625,-1.820220947265625
1695713645434850300,11.542850341796875,0.25299072265625,0.873260498046875,-1.474456787109375
1695713645444433000,11.552432861328125,0.446624755859375,0.128021240234375,-1.098785400390625
1695713645453985000,11.561985107421876,0.5810546875,0.60333251953125,-0.959625244140625
1695713645463537000,11.571536865234375,0.59295654296875,1.27410888671875,-0.91949462890625
1695713645473058300,11.581058349609375,0.533905029296875,1.34765625,-0.83282470703125
1695713645482610400,11.5906103515625,0.513763427734375,1.198883056640625,-0.705413818359375
1695713645492162300,11.600162353515625,0.532684326171875,1.172027587890625,-0.5474853515625
1695713645501714400,11.60971435546875,0.54931640625,1.130523681640625,-0.359649658203125
1695713645511266300,11.619266357421875,0.540771484375,1.091156005859375,-0.1629638671875
1695713645520788000,11.6287880859375,0.494537353515625,1.07757568359375,0.039520263671875
1695713645530339800,11.63833984375,0.431060791015625,1.06842041015625,0.2691650390625
1695713645539892000,11.64789208984375,0.394744873046875,1.01287841796875,0.55755615234375
1695713645549443800,11.65744384765625,0.391998291015625,0.895538330078125,0.9521484375
1695713645558965200,11.66696533203125,0.429534912109375,0.806732177734375,1.411285400390625
1695713645568517400,11.676517333984375,0.494842529296875,0.791473388671875,1.826629638671875
1695713645578069200,11.6860693359375,0.5743408203125,0.737762451171875,2.151947021484375
1695713645587621400,11.695621337890625,0.648193359375,0.525665283203125,2.320556640625
1695713645597173500,11.705173583984376,0.7049560546875,0.147247314453125,2.202911376953125
1695713645606695000,11.71469482421875,0.701904296875,-0.323944091796875,1.6448974609375
1695713645616246800,11.724246826171875,0.58135986328125,-0.677032470703125,0.694427490234375
1695713645625799000,11.733798828125,0.3375244140625,-0.435791015625,-0.247344970703125
1695713645635350800,11.743350830078125,0.143585205078125,0.515899658203125,-1.060638427734375
1695713645644903000,11.75290283203125,0.170745849609375,1.161041259765625,-1.572265625
1695713645654424300,11.76242431640625,0.381011962890625,0.70404052734375,-1.51611328125
1695713645663976400,11.7719765625,0.6024169921875,-0.12451171875,-1.063079833984375
1695713645673528300,11.7815283203125,0.66864013671875,-0.609283447265625,-0.504150390625
1695713645683080400,11.79108056640625,0.525665283203125,-0.613555908203125,-0.098876953125
1695713645692632300,11.80063232421875,0.29541015625,-0.285186767578125,0.068511962890625
1695713645702153700,11.81015380859375,0.085601806640625,0.109100341796875,0.080413818359375
1695713645711705900,11.819705810546875,-0.1312255859375,0.60516357421875,0.064849853515625
1695713645721257700,11.8292578125,-0.335235595703125,1.125640869140625,0.075225830078125
1695713645730840300,11.83884033203125,-0.443115234375,1.29608154296875,0.133056640625
1695713645740361700,11.84836181640625,-0.37628173828125,0.827484130859375,0.310211181640625
1695713645749913900,11.857913818359375,-0.14984130859375,-0.194549560546875,0.55572509765625
1695713645759466000,11.867466064453126,0.080413818359375,-0.970306396484375,0.5718994140625
1695713645769017900,11.877017822265625,0.262451171875,-0.664215087890625,0.218505859375
1695713645778570000,11.886570068359376,0.512847900390625,-0.39154052734375,-0.1373291015625
1695713645788091400,11.89609130859375,0.751190185546875,-1.18682861328125,0.457611083984375
1695713645797643300,11.905643310546875,0.835723876953125,-1.996307373046875,1.536407470703125
1695713645807195400,11.9151953125,0.68817138671875,-1.80877685546875,2.131805419921875
1695713645816747300,11.924747314453125,0.3387451171875,-0.8404541015625,1.98272705078125
1695713645826269000,11.93426904296875,-0.02197265625,0.177764892578125,1.370391845703125
1695713645835820800,11.94382080078125,-0.238800048828125,0.381317138671875,1.056365966796875
1695713645845373000,11.953373046875,-0.323028564453125,-0.04547119140625,1.2158203125
1695713645854924800,11.9629248046875,-0.289764404296875,-0.882720947265625,1.499176025390625
1695713645864477000,11.972476806640625,-0.213775634765625,-1.680450439453125,1.472015380859375
1695713645873998300,11.981998291015625,-0.133056640625,-1.714324951171875,1.082000732421875
1695713645883550200,11.99155029296875,-0.09429931640625,-1.08978271484375,0.63323974609375
1695713645893102300,12.001102294921875,-0.10986328125,-0.4888916015625,0.526123046875
1695713645902654200,12.010654296875,-0.142822265625,-0.249481201171875,0.687408447265625
1695713645912206300,12.020206298828125,-0.188751220703125,-0.42083740234375,0.93505859375
1695713645921727700,12.029727783203125,-0.265960693359375,-0.902252197265625,1.148223876953125
1695713645931280000,12.03927978515625,-0.36407470703125,-1.4923095703125,1.2738037109375
1695713645940831700,12.048831787109375,-0.4791259765625,-1.9439697265625,1.31561279296875
1695713645950383900,12.0583837890625,-0.585784912109375,-2.051239013671875,1.26434326171875
1695713645959935700,12.067935791015625,-0.635833740234375,-1.758270263671875,1.066436767578125
1695713645969457400,12.07745751953125,-0.600128173828125,-1.21246337890625,0.688323974609375
1695713645979009300,12.08700927734375,-0.50567626953125,-0.579071044921875,0.1885986328125
1695713645988561400,12.0965615234375,-0.4254150390625,-0.07568359375,-0.399627685546875
1695713645998113300,12.10611328125,-0.374755859375,0.086822509765625,-1.060028076171875
1695713646007634700,12.115634765625,-0.316925048828125,0.034637451171875,-1.767120361328125
1695713646017217300,12.12521728515625,-0.240936279296875,-0.164642333984375,-2.503814697265625
1695713646026769400,12.134769287109375,-0.213775634765625,-0.3704833984375,-3.180694580078125
1695713646036321300,12.1443212890625,-0.254058837890625,-0.37872314453125,-3.7518310546875
1695713646045873400,12.153873291015625,-0.304718017578125,-0.164642333984375,-4.242706298828125
1695713646055394800,12.163394775390625,-0.318145751953125,-0.047607421875,-4.582672119140625
1695713646064946700,12.17294677734375,-0.251007080078125,-0.128173828125,-4.600982666015625
1695713646074498800,12.182498779296875,-0.04302978515625,-0.10833740234375,-4.17877197265625
1695713646084051000,12.192051025390626,0.296630859375,-0.01434326171875,-3.472137451171875
1695713646093602800,12.201602783203125,0.764312744140625,0.083160400390625,-2.64495849609375
1695713646103124200,12.211124267578125,1.37664794921875,0.21881103515625,-1.6259765625
1695713646112676400,12.22067626953125,2.04864501953125,0.2166748046875,-0.220947265625
1695713646122228200,12.230228271484375,2.46368408203125,-0.319976806640625,1.407318115234375
1695713646131780400,12.2397802734375,2.37396240234375,-1.20147705078125,2.593841552734375
1695713646141301800,12.2493017578125,2.01019287109375,-1.76544189453125,3.0035400390625
1695713646150854000,12.25885400390625,1.576690673828125,-1.5814208984375,2.953338623046875
1695713646160405800,12.26840576171875,1.07452392578125,-0.76873779296875,2.6544189453125
1695713646169958000,12.2779580078125,0.500946044921875,0.65948486328125,2.38067626953125
1695713646179509800,12.287509765625,0.089569091796875,1.605987548828125,2.779541015625
1695713646189031200,12.29703125,-0.01007080078125,1.34002685546875,3.51043701171875
1695713646198583300,12.306583251953125,-0.06256103515625,0.027923583984375,3.931121826171875
1695713646208135200,12.31613525390625,-0.06927490234375,-0.895843505859375,3.699493408203125
1695713646217687300,12.325687255859375,-0.0372314453125,-0.883331298828125,2.823944091796875
1695713646227239400,12.335239501953126,0.375213623046875,-2.91717529296875,2.37548828125
1695713646236760800,12.3447607421875,1.169586181640625,-6.45599365234375,1.851959228515625
1695713646246312700,12.354312744140625,1.72271728515625,-5.5303955078125,-0.031280517578125
1695713646255864800,12.36386474609375,1.815948486328125,-0.706787109375,-1.843109130859375
1695713646265416700,12.373416748046875,1.247711181640625,1.228485107421875,-1.60400390625
1695713646274938400,12.3829384765625,1.121978759765625,1.44256591796875,-0.693206787109375
1695713646284490200,12.392490234375,1.102447509765625,3.370513916015625,-0.5206298828125
1695713646294042400,12.40204248046875,0.3240966796875,3.767852783203125,-0.8935546875
1695713646303624700,12.411624755859375,-0.883026123046875,1.192474365234375,-1.2225341796875
1695713646313176800,12.4211767578125,-1.651153564453125,-1.05255126953125,-1.796417236328125
1695713646322698200,12.4306982421875,-1.610870361328125,-1.58416748046875,-2.117767333984375
1695713646332250400,12.44025048828125,-1.1175537109375,-0.706787109375,-1.703643798828125
1695713646341802200,12.44980224609375,-0.647125244140625,0.770416259765625,-0.77423095703125
1695713646351354400,12.459354248046875,-0.4022216796875,1.862640380859375,0.18402099609375
1695713646360906200,12.46890625,-0.285491943359375,2.223052978515625,0.668182373046875
1695713646370427600,12.478427734375,-0.165863037109375,1.73004150390625,0.720062255859375
1695713646379979800,12.487979736328125,-0.01617431640625,0.579833984375,0.670013427734375
1695713646389531600,12.49753173828125,0.156097412109375,-0.599822998046875,0.702972412109375
1695713646399083800,12.507083740234375,0.29083251953125,-1.258087158203125,0.807037353515625
1695713646408636000,12.516635986328126,0.26153564453125,-1.19659423828125,0.799102783203125
1695713646418157300,12.5261572265625,0.114898681640625,-0.76690673828125,0.53863525390625
1695713646427709200,12.535709228515625,-0.01922607421875,-0.4998779296875,0.184326171875
1695713646437261300,12.54526123046875,-0.05340576171875,-0.303192138671875,-0.1251220703125
1695713646446813200,12.554813232421875,-0.0738525390625,0.35552978515625,-0.5792236328125
1695713646456334800,12.5643349609375,-0.037841796875,1.06597900390625,-0.8648681640625
1695713646465886700,12.57388671875,-0.264739990234375,-0.298004150390625,-0.53863525390625
1695713646475438800,12.58343896484375,-0.550079345703125,-1.717071533203125,-0.52703857421875
1695713646484990700,12.59299072265625,-0.177459716796875,-1.967315673828125,-1.23260498046875
1695713646494542800,12.60254296875,0.23040771484375,-1.741485595703125,-1.417694091796875
1695713646504064300,12.612064208984375,0.182952880859375,-0.7220458984375,-0.89813232421875
1695713646513616100,12.6216162109375,-0.229949951171875,-0.10833740234375,-0.49224853515625
1695713646523168300,12.631168212890625,-0.522003173828125,-0.07080078125,-0.50750732421875
1695713646532720000,12.64072021484375,-0.521697998046875,0.095367431640625,-0.387115478515625
1695713646542272300,12.650272216796875,-0.40313720703125,0.3094482421875,-0.0567626953125
1695713646551793700,12.659793701171875,-0.248870849609375,0.054779052734375,0.2587890625
1695713646561345800,12.669345703125,-0.0897216796875,-0.612335205078125,0.400848388671875
1695713646570897700,12.678897705078125,-0.0128173828125,-0.996856689453125,0.405426025390625
1695713646580449800,12.68844970703125,-0.04547119140625,-0.76385498046875,0.363311767578125
1695713646590001700,12.698001708984375,-0.1434326171875,-0.310516357421875,0.301361083984375
1695713646599553800,12.7075537109375,-0.260162353515625,-0.08331298828125,0.21759033203125
1695713646609105700,12.717105712890625,-0.34271240234375,-0.09307861328125,0.108489990234375
1695713646618657800,12.72665771484375,-0.334930419921875,-0.14862060546875,0.014801025390625
1695713646628209700,12.736209716796875,-0.272674560546875,-0.169830322265625,-0.009918212890625
1695713646637731300,12.7457314453125,-0.200042724609375,-0.212554931640625,0.009613037109375
1695713646647283200,12.755283203125,-0.11962890625,-0.251922607421875,0.011749267578125
1695713646656835300,12.76483544921875,-0.05401611328125,-0.271148681640625,0.004425048828125
1695713646666387200,12.77438720703125,-0.03509521484375,-0.244598388671875,0.026397705078125
1695713646675939300,12.783939208984375,-0.02960205078125,-0.167999267578125,0.050201416015625
1695713646685460700,12.793460693359375,-0.02471923828125,-0.13519287109375,0.058135986328125
1695713646695012600,12.8030126953125,-0.0250244140625,-0.168609619140625,0.077362060546875
1695713646704564700,12.812564697265625,-0.02410888671875,-0.174407958984375,0.090484619140625
1695713646714116900,12.822116943359376,-0.0360107421875,-0.171661376953125,0.081329345703125
1695713646723668700,12.831668701171875,-0.074462890625,-0.175323486328125,0.082550048828125
1695713646733190100,12.841190185546875,-0.108642578125,-0.214691162109375,0.084075927734375
1695713646742742300,12.8507421875,-0.11474609375,-0.308074951171875,0.081329345703125
1695713646752294100,12.860294189453125,-0.0921630859375,-0.3375244140625,0.102386474609375
1695713646761846300,12.86984619140625,-0.03143310546875,-0.192413330078125,0.19927978515625
1695713646771367700,12.87936767578125,-0.02593994140625,0.034942626953125,0.301361083984375
1695713646780919800,12.888919921875,-0.167999267578125,0.395355224609375,0.332794189453125
1695713646790471700,12.8984716796875,-0.311737060546875,1.175079345703125,0.393829345703125
1695713646800023800,12.90802392578125,-0.0390625,1.07269287109375,0.169677734375
1695713646809575700,12.91757568359375,0.006561279296875,0.504608154296875,0.023040771484375
1695713646819097000,12.92709716796875,-0.13641357421875,-0.247955322265625,-0.074462890625
1695713646828649200,12.936649169921875,-0.081787109375,-0.86456298828125,-0.004119873046875
1695713646838201000,12.946201171875,-0.0604248046875,-1.14288330078125,0.098724365234375
1695713646847753200,12.955753173828125,-0.0384521484375,-1.07940673828125,0.1763916015625
