time,seconds_elapsed,z,y,x
1695712775802739200,0.1107392578125,0,0,0
1695712775812775200,0.120775146484375,-0.4639134407043457,0.22216224670410156,-0.10346698760986328
1695712775822801200,0.13080126953125,-0.6820106506347656,0.7580642700195312,0.13484299182891846
1695712775832850400,0.140850341796875,-0.6006793975830078,0.8776583671569824,0.4315750002861023
1695712775842886400,0.150886474609375,-0.5880770683288574,0.6099843978881836,0.5011569261550903
1695712775852901000,0.160901123046875,-0.32561588287353516,0.42424726486206055,0.39824604988098145
1695712775862925300,0.17092529296875,-0.09134960174560547,0.2972416877746582,0.24232572317123413
1695712775873140500,0.181140380859375,0.64031982421875,-0.17178726196289062,-0.0771026611328125
1695712775882990800,0.190990966796875,1.1478023529052734,-0.38677024841308594,-0.35025548934936523
1695712775893015000,0.20101513671875,1.3785290718078613,-0.38314247131347656,-0.48060548305511475
1695712775903209200,0.211209228515625,1.6760964393615723,-0.040721893310546875,-0.3842993974685669
1695712775913109800,0.22110986328125,2.073178768157959,0.40515899658203125,-0.19171416759490967
1695712775923078100,0.231078125,2.1624698638916016,0.5572547912597656,0.18503975868225098
1695712775933144300,0.241144287109375,1.7781476974487305,0.3833589553833008,0.8031183481216431
1695712775943154200,0.251154296875,1.351567268371582,0.12263345718383789,1.0997569561004639
1695712775953218300,0.26121826171875,1.1078720092773438,0.10521697998046875,0.9874560236930847
1695712775963251000,0.2712509765625,0.7396574020385742,0.20655059814453125,0.44135573506355286
1695712775973289200,0.281289306640625,0.38605213165283203,0.2630424499511719,-0.14144361019134521
1695712775983324200,0.29132421875,0.2194671630859375,0.37871694564819336,-0.6690421104431152
1695712775993371000,0.301370849609375,0.10356426239013672,0.3886122703552246,-0.4715878963470459
1695712776003411000,0.311410888671875,0.3548088073730469,0.17643308639526367,-0.003466010093688965
1695712776013386800,0.32138671875,0.6415157318115234,0.2619051933288574,0.4749191999435425
1695712776023399400,0.3313994140625,1.2549724578857422,0.32269954681396484,0.9789060354232788
1695712776033475000,0.34147509765625,1.150883674621582,0.10947227478027344,1.4129334688186646
1695712776043514400,0.351514404296875,1.0118751525878906,0.012205123901367188,1.5658326148986816
1695712776053546500,0.36154638671875,0.9091320037841797,0.11966228485107422,1.5406261682510376
1695712776063582500,0.37158251953125,0.7824077606201172,0.1396803855895996,1.0922225713729858
1695712776073583600,0.38158349609375,0.5591354370117188,-0.24042606353759766,0.4358217716217041
1695712776083605000,0.39160498046875,0.06664371490478516,-0.2634305953979492,-0.009916581213474274
1695712776093683000,0.401682861328125,-0.3679533004760742,-0.07904481887817383,-0.3926270008087158
1695712776103728400,0.411728271484375,-0.720606803894043,-0.12313270568847656,-0.15037137269973755
1695712776113747700,0.421747802734375,-0.7329111099243164,-0.5975723266601562,0.354870468378067
1695712776123782000,0.431781982421875,-1.144162654876709,-0.8917670249938965,0.3259943127632141
1695712776133794600,0.441794677734375,-1.616224765777588,-1.0392179489135742,0.18247532844543457
1695712776143819800,0.45181982421875,-1.972191333770752,-0.973515510559082,0.18949228525161743
1695712776153878000,0.4618779296875,-2.416121482849121,-0.90509033203125,0.3330973982810974
1695712776163917300,0.471917236328125,-2.2706618309020996,-0.8096580505371094,0.48225897550582886
1695712776173960200,0.481960205078125,-2.162837505340576,-0.794867992401123,0.4422897696495056
1695712776184001000,0.4920009765625,-2.0683493614196777,-0.8134255409240723,0.5405510067939758
1695712776193994800,0.501994873046875,-2.4799880981445312,-0.1290736198425293,0.007384181022644043
1695712776204015600,0.512015625,-2.939072608947754,-0.7343411445617676,0.2980707883834839
1695712776214089000,0.5220888671875,-3.541769027709961,-1.0386388301849365,0.7983393669128418
1695712776224131800,0.5321318359375,-4.1940765380859375,-1.5875999927520752,1.475917100906372
1695712776234132500,0.542132568359375,-4.601311206817627,-1.9229283332824707,1.8933075666427612
1695712776244171300,0.552171142578125,-4.864889144897461,-2.1173644065856934,2.090959072113037
1695712776254191000,0.562191162109375,-4.642696380615234,-2.524482011795044,2.4373905658721924
1695712776264227800,0.572227783203125,-4.043936729431152,-2.9209744930267334,2.5723671913146973
1695712776274259500,0.582259521484375,-3.297222137451172,-3.195626974105835,2.067115545272827
1695712776284295700,0.592295654296875,-2.084855079650879,-3.669628381729126,0.9792299270629883
1695712776294312200,0.602312255859375,-0.6618051528930664,-4.224917411804199,-0.31063032150268555
1695712776304346400,0.612346435546875,0.2562274932861328,-4.781190872192383,-2.0639359951019287
1695712776314403800,0.62240380859375,0.4049100875854492,-5.214903831481934,-4.011323928833008
1695712776324440600,0.632440673828125,-0.29491472244262695,-5.9126129150390625,-5.245421409606934
1695712776334469600,0.6424697265625,-1.7539677619934082,-6.803311347961426,-5.28620719909668
1695712776344505300,0.65250537109375,-3.709066390991211,-7.8072099685668945,-5.0445733070373535
1695712776354523400,0.6625234375,-5.133911609649658,-8.385736465454102,-4.606567859649658
1695712776364557600,0.6725576171875,-5.542104244232178,-9.787199020385742,-4.166441917419434
1695712776374591700,0.682591796875,-4.558778285980225,-10.158864974975586,-4.112515449523926
1695712776384626000,0.6926259765625,-2.2596936225891113,-9.699661254882812,-4.5800347328186035
1695712776394660000,0.70266015625,0.40351152420043945,-10.111318588256836,-3.6222546100616455
1695712776404694300,0.7126943359375,1.4574708938598633,-10.408052444458008,-2.0108888149261475
1695712776414724000,0.72272412109375,0.9890871047973633,-9.839537620544434,-0.6231307983398438
1695712776424757800,0.7327578125,-0.06947469711303711,-9.239585876464844,3.1088738441467285
1695712776434783000,0.742782958984375,-0.2825186252593994,-7.560671806335449,8.199483871459961
1695712776444816000,0.75281591796875,1.0762794017791748,-6.058598518371582,13.117315292358398
1695712776454849800,0.762849853515625,4.840611457824707,-4.954307556152344,16.188276290893555
1695712776464882700,0.772882568359375,9.126395225524902,-3.467007637023926,18.902957916259766
1695712776474916900,0.782916748046875,12.284332275390625,-2.0473275184631348,19.804325103759766
1695712776484950000,0.792949951171875,13.172223091125488,0.07909488677978516,19.027385711669922
1695712776494967000,0.802967041015625,11.189496994018555,1.04002046585083,16.569164276123047
1695712776504998400,0.812998291015625,8.036017417907715,0.9001569747924805,14.37768840789795
1695712776515051500,0.823051513671875,4.1965107917785645,1.59635591506958,12.79356575012207
1695712776525085000,0.8330849609375,0.2942497730255127,3.206714630126953,11.09852123260498
1695712776535109600,0.843109619140625,-2.462857723236084,4.837996482849121,10.056821823120117
1695712776545296000,0.8532958984375,-4.703415870666504,5.439547061920166,9.29488754272461
1695712776555331000,0.8633310546875,-6.310445785522461,5.083223819732666,9.108642578125
1695712776565364000,0.873364013671875,-7.928777694702148,5.009530067443848,9.760178565979004
1695712776575396900,0.88339697265625,-9.332311630249023,5.154906749725342,10.520187377929688
1695712776585281000,0.893281005859375,-11.570308685302734,5.8985795974731445,11.208587646484375
1695712776595301600,0.903301513671875,-25.60760498046875,7.472562313079834,9.538653373718262
1695712776605335600,0.91333544921875,-33.14036560058594,9.659492492675781,6.857206344604492
1695712776615357400,0.923357421875,-5.535499572753906,7.237326622009277,9.568619728088379
1695712776625411300,0.933411376953125,0.2529265880584717,3.2714951038360596,6.392801284790039
1695712776635436300,0.943436279296875,-1.602607250213623,2.2807137966156006,-0.7602529525756836
1695712776645473500,0.9534736328125,-1.4516631364822388,2.6804263591766357,-6.325243949890137
1695712776655499800,0.963499755859375,-2.1052706241607666,2.649723768234253,-4.133592128753662
1695712776665524700,0.973524658203125,0.15402935445308685,2.6143412590026855,-0.7323513031005859
1695712776675550700,0.98355078125,0.87901771068573,2.8286609649658203,0.37522029876708984
1695712776685598000,0.993597900390625,2.1356167793273926,1.8969495296478271,-0.6927309036254883
1695712776695626200,1.003626220703125,3.1423802375793457,1.4224088191986084,-1.929610252380371
1695712776705664000,1.0136640625,3.1912474632263184,0.25510263442993164,-1.9203786849975586
1695712776715693300,1.023693359375,2.7989566326141357,-0.3538658618927002,-2.4939393997192383
1695712776725721900,1.033721923828125,2.7869040966033936,-1.7912585735321045,-1.4489779472351074
1695712776735751000,1.0437509765625,1.568596363067627,-0.9627683162689209,-2.9860477447509766
1695712776745796000,1.053796142578125,2.969210624694824,-3.029217481613159,-3.7348685264587402
1695712776755826700,1.06382666015625,2.539407730102539,-4.653622150421143,-5.351273536682129
1695712776765854700,1.073854736328125,1.7764123678207397,-4.94660758972168,-6.245933532714844
1695712776775885300,1.08388525390625,-0.7690188884735107,-4.856342315673828,-5.889080047607422
1695712776785916200,1.093916259765625,-2.076603651046753,-5.688687324523926,-3.775463581085205
1695712776795946800,1.10394677734375,-1.5810834169387817,-7.232538223266602,-1.6733546257019043
1695712776805989000,1.113989013671875,-0.4129714369773865,-7.8088860511779785,-0.5021390914916992
1695712776816021000,1.12402099609375,-0.5320374965667725,-8.065927505493164,0.6400890350341797
1695712776826024200,1.134024169921875,-0.6740943789482117,-7.165264129638672,0.16940879821777344
1695712776836053200,1.14405322265625,-0.406973659992218,-5.007925987243652,-0.10156440734863281
1695712776846106600,1.154106689453125,-0.027493000030517578,-2.4032392501831055,-1.4540467262268066
1695712776856138000,1.164137939453125,-0.021372616291046143,-0.5901236534118652,-2.947535514831543
1695712776866176000,1.174176025390625,0.10944435000419617,0.5319488048553467,-3.595703601837158
1695712776876208000,1.1842080078125,-0.19853630661964417,1.839374303817749,-3.675464153289795
1695712776886241000,1.194240966796875,1.0294787883758545,2.9130053520202637,-3.7666478157043457
1695712776896273200,1.204273193359375,2.1083180904388428,2.6550991535186768,-4.296231269836426
1695712776906292000,1.2142919921875,2.8945186138153076,2.3279991149902344,-3.3372693061828613
1695712776916322800,1.22432275390625,3.2257399559020996,2.2593531608581543,-2.2372360229492188
1695712776926376000,1.2343759765625,2.656583786010742,2.5333313941955566,-1.5382919311523438
1695712776936409000,1.2444091796875,1.4133005142211914,2.5292177200317383,0.036936283111572266
1695712776946440400,1.2544404296875,0.4121149778366089,1.2782373428344727,1.3904824256896973
1695712776956473000,1.26447314453125,-1.0455191135406494,-0.061959266662597656,2.5183324813842773
1695712776966498600,1.27449853515625,-1.1755386590957642,-0.9347968101501465,3.2030844688415527
1695712776976530700,1.28453076171875,-0.5968528985977173,-0.5856437683105469,2.8925795555114746
1695712776986564000,1.294564208984375,0.5733799934387207,-0.0027704238891601562,1.7562861442565918
1695712776996596200,1.30459619140625,0.713054895401001,0.34662389755249023,1.1943168640136719
1695712777006601000,1.31460107421875,0.20752543210983276,0.7061882019042969,0.28143930435180664
1695712777016630500,1.324630615234375,0.39135777950286865,1.5159292221069336,-0.4342167377471924
1695712777026690800,1.33469091796875,0.5438875555992126,2.122579574584961,-0.9148025512695312
1695712777036723500,1.344723388671875,0.31215059757232666,2.45391845703125,-1.1824021339416504
1695712777046728400,1.354728515625,0.5108231902122498,2.699127197265625,-1.6381306648254395
1695712777056758300,1.36475830078125,1.0173814296722412,2.61721134185791,-1.979493498802185
1695712777066818300,1.374818359375,1.4983348846435547,2.104050636291504,-2.3141446113586426
1695712777076851200,1.384851318359375,2.4168879985809326,-6.343317985534668,1.2788078784942627
1695712777086889200,1.39488916015625,2.1268675327301025,-17.461467742919922,3.5683207511901855
1695712777096922600,1.404922607421875,0.19088608026504517,-20.081985473632812,1.5974211692810059
1695712777106951400,1.414951416015625,-0.763842761516571,-11.625727653503418,-0.987987756729126
1695712777116984300,1.424984375,-1.8431377410888672,-3.9061622619628906,-1.348017692565918
1695712777127015700,1.435015625,-2.653101682662964,0.18697452545166016,-1.5225163698196411
1695712777137048300,1.44504833984375,-1.770058512687683,1.8788700103759766,-1.5177849531173706
1695712777147079400,1.455079345703125,-0.2582467198371887,1.8452081680297852,-1.2905329465866089
1695712777157111800,1.46511181640625,0.731427788734436,1.1683969497680664,-1.325407862663269
1695712777167146000,1.47514599609375,0.590993344783783,0.04656410217285156,-1.401552438735962
1695712777177178600,1.4851787109375,-0.006430208683013916,-1.3530750274658203,-1.5668226480484009
1695712777187188700,1.495188720703125,0.07188805937767029,-2.157057762145996,-1.9603979587554932
1695712777197219000,1.505218994140625,0.5930251479148865,-1.2510900497436523,-1.7394511699676514
1695712777207268400,1.515268310546875,0.41361889243125916,-0.005950927734375,-1.3394269943237305
1695712777217300500,1.525300537109375,-0.7837722301483154,-0.029273033142089844,-0.5519169569015503
1695712777227339500,1.535339599609375,-0.6891661882400513,-0.18891334533691406,0.3346984386444092
1695712777237372400,1.545372314453125,-0.5626876950263977,-0.3981494903564453,0.9665189385414124
1695712777247403000,1.555403076171875,0.38435277342796326,-0.18587779998779297,1.5182006359100342
1695712777257435600,1.565435546875,1.0814470052719116,0.3868904113769531,2.0161750316619873
1695712777267462000,1.5754619140625,1.2715513706207275,0.2466745376586914,2.073878049850464
1695712777277494000,1.585493896484375,1.1026197671890259,0.22060775756835938,1.6282920837402344
1695712777287520800,1.595520751953125,0.6668167114257812,0.40749549865722656,0.8436850905418396
1695712777297552100,1.60555224609375,1.1195255517959595,0.8015766143798828,0.26649266481399536
1695712777307597800,1.615597900390625,1.6636624336242676,0.9640207290649414,-0.3306507468223572
1695712777317630700,1.625630615234375,1.8655877113342285,1.0631322860717773,-1.049416184425354
1695712777327644000,1.635643798828125,1.891980528831482,1.075967788696289,-1.8039734363555908
1695712777337674800,1.6456748046875,1.5178645849227905,0.8705539703369141,-2.4836010932922363
1695712777347695000,1.655695068359375,0.7579754590988159,0.6390838623046875,-2.538825035095215
1695712777357725000,1.665724853515625,-0.003048732876777649,0.1864004135131836,-2.516296863555908
1695712777367777500,1.675777587890625,-0.8096025586128235,-0.7939138412475586,-2.4418065547943115
1695712777377809700,1.6858095703125,-1.3007928133010864,-0.5496234893798828,-0.7607446312904358
1695712777387837000,1.6958369140625,-0.10582999885082245,-0.6279182434082031,-0.8982813358306885
1695712777397868500,1.70586865234375,2.14013409614563,-1.1772985458374023,-1.840757966041565
1695712777407897000,1.71589697265625,1.6920692920684814,-0.9047374725341797,-1.2047157287597656
1695712777417928400,1.725928466796875,0.6635634303092957,-0.5819234848022461,-1.0078365802764893
1695712777427955200,1.735955078125,0.32310134172439575,0.09027862548828125,-0.8839297294616699
1695712777437986000,1.745986083984375,0.46138453483581543,0.4623289108276367,-0.9484236240386963
1695712777448030700,1.75603076171875,0.4994400143623352,0.4652891159057617,-1.1856719255447388
1695712777458063000,1.76606298828125,0.398995965719223,0.6634254455566406,-1.1770156621932983
1695712777468088000,1.776088134765625,0.2716505229473114,0.6795902252197266,-1.1989890336990356
1695712777478119400,1.786119384765625,0.346730500459671,0.8671417236328125,-1.0934185981750488
1695712777488148500,1.7961484375,0.4764270484447479,1.0529975891113281,-0.632683515548706
1695712777498179600,1.8061796875,0.5743422508239746,1.0887832641601562,-0.41455382108688354
1695712777508215000,1.816215087890625,0.734018087387085,0.438629150390625,-1.0149123668670654
1695712777518246700,1.82624658203125,0.3205409348011017,0.36861228942871094,-0.5513622164726257
1695712777528306400,1.836306396484375,0.01700320839881897,0.6786642074584961,0.1978616714477539
1695712777538340900,1.8463408203125,-0.05915999412536621,0.8566083908081055,-0.12511837482452393
1695712777548374300,1.856374267578125,3.106978178024292,3.387162208557129,-3.33206844329834
1695712777558408700,1.86640869140625,-4.030257701873779,1.9209957122802734,-2.428455114364624
1695712777568442400,1.8764423828125,-1.769089698791504,0.12217426300048828,-0.9146639108657837
1695712777578476500,1.8864765625,-0.3510063886642456,-0.536839485168457,0.026610255241394043
1695712777588480000,1.89647998046875,-0.2510784864425659,-1.442580223083496,1.9867764711380005
1695712777598511000,1.906510986328125,-0.6146933436393738,-1.8200016021728516,3.153137683868408
1695712777608572200,1.916572265625,0.060585200786590576,-1.4769535064697266,3.1237549781799316
1695712777618606300,1.9266064453125,0.9203228950500488,-1.0540399551391602,2.647566318511963
1695712777628643000,1.93664306640625,1.075820803642273,-0.6424903869628906,2.098578929901123
1695712777638677500,1.946677490234375,0.8432075381278992,-0.219482421875,1.9048928022384644
1695712777648650800,1.956650634765625,0.454373836517334,0.09009456634521484,1.770169734954834
1695712777658678800,1.9666787109375,0.26633867621421814,0.6395149230957031,1.3953121900558472
1695712777668748800,1.976748779296875,-0.26352518796920776,1.0756235122680664,1.2349445819854736
1695712777678781200,1.98678125,-0.705829381942749,1.166646957397461,1.305681586265564
1695712777688824600,1.996824462890625,-1.1820778846740723,1.105607032775879,1.2516567707061768
1695712777698858000,2.00685791015625,-1.4630022048950195,0.9452133178710938,0.8344712257385254
1695712777708852500,2.0168525390625,-1.4614801406860352,1.0896329879760742,0.05092573165893555
1695712777718882000,2.026882080078125,-1.4222640991210938,0.9517955780029297,-0.7490233182907104
1695712777728921300,2.03692138671875,-1.0074737071990967,0.8115816116333008,-0.9713258743286133
1695712777738951700,2.04695166015625,-0.8326435089111328,0.4131278991699219,-0.8718366622924805
1695712777748973800,2.056973876953125,-0.4835260510444641,0.09119033813476562,-0.5990411043167114
1695712777759003400,2.06700341796875,-0.2405177354812622,-0.12197589874267578,-0.2069103717803955
1695712777769074700,2.07707470703125,-0.13418108224868774,-0.30422210693359375,0.12857770919799805
1695712777779108600,2.087108642578125,0.06904870271682739,-0.39043331146240234,0.19129180908203125
1695712777789138700,2.097138671875,0.22105979919433594,-0.2722969055175781,0.040830135345458984
1695712777799172400,2.10717236328125,0.5718010663986206,0.05390739440917969,-0.03258943557739258
1695712777809195300,2.1171953125,0.450457900762558,0.20166683197021484,0.052336692810058594
1695712777819227600,2.1272275390625,0.11211585998535156,0.11474609375,-0.06704461574554443
1695712777829260800,2.1372607421875,0.19548654556274414,0.14721965789794922,0.10447871685028076
1695712777839293200,2.147293212890625,0.5056862831115723,0.23217010498046875,0.2636430263519287
1695712777849326600,2.15732666015625,0.10423141717910767,0.41337108612060547,-0.007151603698730469
1695712777859359200,2.167359130859375,0.30959075689315796,0.07428550720214844,-0.6457169055938721
1695712777869378000,2.1773779296875,0.27450501918792725,-0.025728225708007812,-1.2712620496749878
1695712777879409200,2.1874091796875,-0.09819328784942627,0.055207252502441406,-1.5795929431915283
1695712777889443600,2.197443603515625,-0.21882760524749756,0.08241653442382812,-1.5565834045410156
1695712777899475000,2.207474853515625,-0.532397985458374,0.824244499206543,-1.1831068992614746
1695712777909508600,2.217508544921875,-0.8690478801727295,0.7772703170776367,-1.5661609172821045
1695712777919540200,2.227540283203125,-0.834040641784668,0.3690166473388672,-0.9533719420433044
1695712777929560000,2.23756005859375,-0.6409715414047241,0.23017215728759766,-0.6618025302886963
1695712777939590400,2.24759033203125,-0.431662917137146,0.22113418579101562,-0.9230210185050964
1695712777949658600,2.25765869140625,0.04923439025878906,0.13634490966796875,-0.9302564263343811
1695712777959692800,2.26769287109375,0.14936703443527222,0.5096111297607422,-0.6711711883544922
1695712777969713000,2.277712890625,0.06139516830444336,0.6524038314819336,-0.5667330026626587
1695712777979745800,2.287745849609375,0.1396769881248474,0.7705898284912109,-0.4592934846878052
1695712777989777400,2.29777734375,-0.20621037483215332,1.2309694290161133,-0.4785914421081543
1695712777999810000,2.30781005859375,-0.36922240257263184,1.4787311553955078,-0.6785670518875122
1695712778009828600,2.31782861328125,-0.6771478652954102,1.4200983047485352,-1.0522520542144775
1695712778019860000,2.32785986328125,-0.8989342451095581,1.1535396575927734,-0.4661545753479004
1695712778029925400,2.33792529296875,-1.2134333848953247,0.6658897399902344,0.03148841857910156
1695712778039960000,2.3479599609375,-1.1978133916854858,-0.1997842788696289,0.18722522258758545
1695712778049979600,2.357979736328125,-0.42203831672668457,-1.6028900146484375,0.39643561840057373
1695712778060012800,2.3680126953125,0.18151700496673584,-1.855081558227539,1.2639142274856567
1695712778070025700,2.378025634765625,0.49988096952438354,-1.3830432891845703,1.1713895797729492
1695712778080056800,2.388056884765625,0.4157937169075012,-0.42301177978515625,1.0940417051315308
1695712778090104600,2.3981044921875,-0.17159438133239746,-0.26293182373046875,0.6857137680053711
1695712778100137500,2.408137451171875,-0.48779356479644775,-0.15050125122070312,0.9387726783752441
1695712778110175700,2.41817578125,-0.6517882347106934,0.19518184661865234,0.9817044734954834
1695712778120209200,2.428209228515625,-0.3382260799407959,-0.09403324127197266,0.930208683013916
1695712778130245600,2.43824560546875,-0.039028048515319824,-0.3997678756713867,1.3148863315582275
1695712778140279300,2.448279296875,-0.04775869846343994,-0.44019222259521484,1.569190502166748
1695712778150275800,2.45827587890625,0.45411330461502075,-0.8371944427490234,0.8044992685317993
1695712778160305700,2.4683056640625,0.6988016366958618,0.49950599670410156,0.9966728687286377
1695712778170338600,2.478338623046875,0.4472598433494568,1.4773979187011719,0.101692795753479
1695712778180368600,2.48836865234375,-0.14225667715072632,2.3030128479003906,-0.32232731580734253
1695712778190430000,2.498429931640625,-0.4668446183204651,2.652721405029297,-0.3914376497268677
1695712778200463400,2.50846337890625,-0.7311347126960754,2.395014762878418,-0.5259063243865967
1695712778210477600,2.5184775390625,-1.0546467304229736,1.761129379272461,-0.12208187580108643
1695712778220509000,2.528509033203125,-1.2436201572418213,1.0192975997924805,0.8070651292800903
1695712778230549800,2.5385498046875,-0.9331835508346558,0.3514070510864258,1.664079189300537
1695712778240582100,2.54858203125,-0.6614061594009399,-0.2474994659423828,2.2056872844696045
1695712778250607000,2.558607177734375,-1.261987328529358,-0.7210159301757812,2.6021907329559326
1695712778260638700,2.568638671875,-1.3388417959213257,-0.8267221450805664,3.085672378540039
1695712778270671000,2.578671142578125,-1.252394437789917,-0.5612201690673828,3.3048813343048096
1695712778280702700,2.58870263671875,-1.032826542854309,-0.16416358947753906,3.152602434158325
1695712778290743600,2.59874365234375,-0.6959908604621887,0.14950942993164062,2.936005115509033
1695712778300776200,2.608776123046875,-0.6173109412193298,0.3757057189941406,2.7965893745422363
1695712778310815500,2.6188154296875,-1.0010738372802734,0.4334888458251953,2.556521415710449
1695712778320848600,2.6288486328125,-0.7725807428359985,0.8720874786376953,2.2638726234436035
1695712778330884600,2.638884521484375,-0.7658290863037109,1.0130195617675781,2.076047420501709
1695712778340918000,2.64891796875,-1.2100934982299805,0.7523593902587891,1.8769162893295288
1695712778350954800,2.658954833984375,-1.5252865552902222,0.616023063659668,1.764022946357727
1695712778360988700,2.66898876953125,-1.5923060178756714,0.5938796997070312,1.5586140155792236
1695712778370984000,2.67898388671875,-1.5871542692184448,0.6998796463012695,1.2758020162582397
1695712778381014000,2.689013916015625,-1.9230120182037354,0.5710334777832031,1.1349067687988281
1695712778391068200,2.699068115234375,-2.091041088104248,0.5993814468383789,1.1681711673736572
1695712778401100500,2.7091005859375,-2.6346514225006104,0.28334712982177734,1.3856487274169922
1695712778411145200,2.719145263671875,-2.918395519256592,0.06733512878417969,1.756533145904541
1695712778421179000,2.729178955078125,-2.7950685024261475,-0.3212404251098633,2.132552146911621
1695712778431182800,2.739182861328125,-2.1730148792266846,-0.9487180709838867,2.255455493927002
1695712778441213700,2.749213623046875,-1.4021756649017334,-1.8189620971679688,2.00602126121521
1695712778451272700,2.759272705078125,-1.0641840696334839,-2.6685094833374023,1.682356357574463
1695712778461306400,2.769306396484375,-1.2180787324905396,-3.29733943939209,1.295140266418457
1695712778471340500,2.779340576171875,-1.0499480962753296,-3.526531219482422,0.8864527940750122
1695712778481374200,2.789374267578125,-0.17620515823364258,-3.350200653076172,0.29852843284606934
1695712778491395300,2.799395263671875,1.122756004333496,-2.7183923721313477,-0.49205827713012695
1695712778501427700,2.809427734375,2.6586689949035645,-1.798619270324707,-1.8115873336791992
1695712780718553600,5.0265537109375,-4.8925933837890625,-3.05338191986084,1.9994113445281982
1695712780728582700,5.036582763671875,-4.502703666687012,-2.3864240646362305,3.298172950744629
1695712780738612000,5.046612060546875,-3.791926383972168,-1.5835819244384766,3.2152042388916016
1695712780748643600,5.0566435546875,-2.7663865089416504,-0.8216943740844727,2.2641446590423584
1695712780758675700,5.06667578125,-2.1542396545410156,-0.7930135726928711,0.8588255047798157
1695712780768707800,5.076707763671875,-0.23165956139564514,-1.2079744338989258,-0.3690969944000244
1695712780778740000,5.086739990234375,2.2288529872894287,-1.657160758972168,-1.2016782760620117
1695712780788772000,5.096772216796875,3.4420993328094482,-2.2015132904052734,-1.432168960571289
1695712780798804200,5.10680419921875,3.3030028343200684,-2.618802070617676,-1.4220373630523682
1695712780808836400,5.11683642578125,2.431979179382324,-3.4052915573120117,-1.2197325229644775
1695712780818868200,5.1268681640625,2.01175594329834,-4.159550666809082,-1.1441552639007568
1695712780828900400,5.136900390625,2.2316322326660156,-4.634443283081055,-0.9565947651863098
1695712780838932500,5.146932373046875,2.1754040718078613,-4.44870662689209,-0.5802521705627441
1695712780848964600,5.156964599609375,2.0068531036376953,-3.7509069442749023,-0.44131290912628174
1695712780859001600,5.167001708984375,1.738042950630188,-3.505321502685547,-0.620851993560791
1695712780869073200,5.1770732421875,0.9456222653388977,-3.4754695892333984,-0.9683560132980347
1695712780879144700,5.187144775390625,0.9041876792907715,-3.221342086791992,-1.4863026142120361
1695712780889216300,5.19721630859375,1.8942365646362305,-2.585404396057129,-1.793367862701416
1695712780899287800,5.207287841796875,3.3103435039520264,-1.6929817199707031,-1.48617422580719
1695712780909320200,5.2173203125,4.236811637878418,-0.8108549118041992,-0.7163459062576294
1695712780919336200,5.227336181640625,4.609917640686035,0.4198188781738281,-0.1531122922897339
1695712780929352000,5.23735205078125,4.640695571899414,1.4580211639404297,0.17567408084869385
1695712780939368000,5.247367919921875,5.049160957336426,2.4426259994506836,0.045023202896118164
1695712780949383700,5.2573837890625,5.543301105499268,3.3308072090148926,0.03721034526824951
1695712780959399700,5.267399658203125,6.057826519012451,3.879939556121826,-0.19331109523773193
1695712780969415400,5.27741552734375,6.565616607666016,4.1110053062438965,-0.16045928001403809
1695712780979431400,5.287431396484375,6.276534557342529,3.9642529487609863,-0.10331308841705322
1695712780989447200,5.297447265625,5.785604953765869,3.7075352668762207,-0.022833943367004395
1695712780999463200,5.307463134765625,5.585887908935547,3.665928363800049,-0.09649264812469482
1695712781009479000,5.31747900390625,5.579793453216553,3.56003999710083,-0.15306508541107178
1695712781019511000,5.327510986328125,5.759807586669922,3.660153865814209,-0.3131974935531616
1695712781029541600,5.337541748046875,5.921358585357666,4.222249984741211,-0.34953463077545166
1695712781039572000,5.347572021484375,5.270556449890137,4.631978988647461,-1.5073399543762207
1695712781049602300,5.357602294921875,5.092998027801514,4.870997428894043,-2.0955238342285156
1695712781059633000,5.3676328125,4.669196605682373,4.936788558959961,-2.306896209716797
1695712781069663200,5.377663330078125,4.180255889892578,4.916089057922363,-2.2878174781799316
1695712781079693600,5.387693603515625,3.4602012634277344,4.644386291503906,-2.126997947692871
1695712781089724200,5.39772412109375,2.404214382171631,4.160722255706787,-1.8072211742401123
1695712781099754500,5.40775439453125,0.9108867645263672,3.569601535797119,-1.3595044612884521
1695712781109785000,5.41778515625,-0.7874956130981445,2.9221224784851074,-0.9841749668121338
1695712781119815400,5.4278154296875,-2.1781933307647705,2.255098342895508,-0.918879508972168
1695712781129848600,5.4378486328125,-3.6885952949523926,1.333725929260254,-1.1091573238372803
1695712781139886300,5.44788623046875,-8.587882995605469,-0.9208469390869141,-1.0624139308929443
1695712781149923800,5.457923828125,-13.563045501708984,-3.9413881301879883,-0.8907201290130615
1695712781159961600,5.467961669921875,-12.970098495483398,-6.438346862792969,-1.0196549892425537
1695712781169999400,5.477999267578125,-11.349503517150879,-8.201645851135254,-1.7045626640319824
1695712781180037000,5.488037109375,-9.479196548461914,-8.936609268188477,-1.1795339584350586
1695712781190075000,5.498074951171875,-5.76663875579834,-7.96674919128418,0.5048680305480957
1695712781200112600,5.508112548828125,-2.168494939804077,-6.326006889343262,2.2678263187408447
1695712781210150100,5.518150146484375,-1.4349145889282227,-3.9132347106933594,3.1777429580688477
1695712781220188000,5.52818798828125,-1.1804561614990234,-0.7725992202758789,3.355574131011963
1695712781230220300,5.53822021484375,0.5956754684448242,2.639845371246338,3.208162307739258
1695712781240249900,5.548249755859375,2.2011890411376953,4.514873504638672,1.2956255674362183
1695712781250279200,5.558279052734375,2.0967330932617188,3.2181363105773926,-1.1715338230133057
1695712781260308700,5.568308837890625,1.1258633136749268,1.0415306091308594,-1.419290542602539
1695712781270338000,5.578338134765625,2.0165319442749023,-1.4178638458251953,-0.4789915084838867
1695712781280367600,5.58836767578125,4.111639022827148,-4.398820877075195,0.6541173458099365
1695712781290397000,5.59839697265625,5.347713470458984,-7.447885513305664,1.6174665689468384
1695712781300426500,5.608426513671875,2.9142563343048096,-8.995999336242676,1.1222034692764282
1695712781310455800,5.618455810546875,-0.4010148048400879,-7.124646186828613,-0.9247686862945557
1695712781320485400,5.6284853515625,2.0774967670440674,-2.6254472732543945,-2.65944504737854
1695712781330514700,5.6385146484375,6.812495708465576,1.5318717956542969,-4.202080726623535
1695712781340551400,5.648551513671875,9.04448127746582,4.662907600402832,-5.842960357666016
1695712781350612200,5.6586123046875,8.168319702148438,7.057548999786377,-6.391776084899902
1695712781360673000,5.668673095703125,6.182095527648926,7.852388858795166,-6.0419020652771
1695712781370733800,5.67873388671875,4.357718467712402,7.387795925140381,-4.9055891036987305
1695712781380794600,5.688794677734375,4.040760040283203,5.837588310241699,-3.191016435623169
1695712781390855400,5.69885546875,5.84403133392334,2.7749462127685547,-1.1105823516845703
1695712781400916200,5.708916259765625,6.7089996337890625,-0.8065605163574219,0.6851587295532227
1695712781410948400,5.7189482421875,4.612214088439941,-3.754030227661133,1.9896730184555054
1695712781420963600,5.728963623046875,2.105816602706909,-5.755824089050293,2.192746639251709
1695712781430978600,5.738978515625,1.5058422088623047,-6.300180435180664,1.924012541770935
1695712781440993800,5.748993896484375,2.2163243293762207,-5.743746757507324,2.0960168838500977
1695712781451008800,5.7590087890625,2.5412139892578125,-4.472866058349609,2.127568483352661
1695712781461024000,5.76902392578125,2.8362672328948975,-1.8619356155395508,0.518122673034668
1695712781471039200,5.779039306640625,3.1197547912597656,1.214930534362793,-0.11587214469909668
1695712781481054200,5.78905419921875,2.57155179977417,2.744955062866211,-0.5046210289001465
1695712781491069400,5.7990693359375,1.8107141256332397,2.964570999145508,-0.5943529605865479
1695712781501084400,5.80908447265625,0.8075053095817566,2.7279510498046875,-0.7097809314727783
1695712781511099600,5.819099609375,0.05848771333694458,2.314061164855957,-0.6718132495880127
1695712781521132000,5.829132080078125,-0.47578805685043335,1.724787712097168,-0.32813262939453125
1695712781531166200,5.839166259765625,-0.94077467918396,1.2346124649047852,0.04087042808532715
1695712781541200100,5.8492001953125,-1.7330915927886963,0.9069967269897461,0.030982017517089844
1695712781551234300,5.859234375,-2.5828211307525635,0.584019660949707,0.05817270278930664
1695712781561268200,5.869268310546875,-2.6725845336914062,0.4185457229614258,0.2526348829269409
1695712781571302400,5.879302490234375,-2.1273651123046875,0.35681819915771484,0.3558361530303955
1695712781581336600,5.889336669921875,-1.4330490827560425,0.43621826171875,0.6111583709716797
1695712781591370500,5.89937060546875,-0.3454696536064148,0.5416460037231445,0.8816508054733276
1695712781601404400,5.909404296875,0.6745442152023315,0.6444778442382812,1.1576083898544312
1695712781611438600,5.9194384765625,1.1813123226165771,0.9213190078735352,1.3055529594421387
1695712781621472800,5.92947265625,0.9342736005783081,1.1665382385253906,1.2261673212051392
1695712781631505000,5.9395048828125,0.3255561590194702,1.484971046447754,0.9114023447036743
1695712781641535700,5.94953564453125,-0.41689836978912354,1.2071237564086914,0.5030207633972168
1695712781651566600,5.959566650390625,-1.0529141426086426,0.5869312286376953,-0.016977787017822266
1695712781661597400,5.969597412109375,-1.7823350429534912,-0.0896596908569336,-0.16823458671569824
1695712781671628300,5.979628173828125,-2.9461734294891357,-0.4976205825805664,0.1474766731262207
1695712781681659100,5.9896591796875,-4.306575775146484,-0.8407506942749023,0.9276700019836426
1695712781691690000,5.99968994140625,-5.10975456237793,-1.5007057189941406,2.191088914871216
1695712781701720800,6.009720947265625,-4.698321342468262,-2.6609086990356445,3.307957172393799
1695712781711751700,6.019751708984375,-3.366304397583008,-3.4855995178222656,3.5933446884155273
1695712781721782500,6.029782470703125,-1.863621473312378,-3.276887893676758,3.4544198513031006
1695712781731813400,6.0398134765625,-0.9049592018127441,-2.9936323165893555,3.5707638263702393
1695712781741845800,6.049845703125,-1.1931334733963013,-3.5068016052246094,4.140774250030518
1695712781751879400,6.05987939453125,-2.151688814163208,-4.347903251647949,4.32564115524292
1695712781761913000,6.0699130859375,-3.2041878700256348,-5.035914421081543,3.646608829498291
1695712781771946800,6.07994677734375,-4.362401485443115,-5.584105491638184,2.5714478492736816
1695712781781980400,6.08998046875,-5.215317726135254,-5.649167060852051,1.5831650495529175
1695712781792014000,6.10001416015625,-6.345257759094238,-5.127005577087402,0.831317663192749
1695712781802047700,6.1100478515625,-6.628465175628662,-4.2381086349487305,1.1996325254440308
1695712781812081700,6.12008154296875,-5.185669898986816,-3.976651191711426,2.262272596359253
1695712781822115300,6.130115234375,-3.065720558166504,-3.7503700256347656,2.8258073329925537
1695712781832149000,6.14014892578125,-1.4582078456878662,-2.7517013549804688,2.530055046081543
1695712781842185200,6.150185302734375,-0.954035222530365,-1.6856203079223633,1.5097768306732178
1695712781852240000,6.160239990234375,-1.274038553237915,-1.5213499069213867,-0.0795743465423584
1695712781862294300,6.170294189453125,-0.11503660678863525,-2.1018381118774414,-1.6719987392425537
1695712781872349000,6.180348876953125,1.57515287399292,-2.487184524536133,-3.2097363471984863
1695712781882403600,6.190403564453125,2.3640477657318115,-2.907367706298828,-4.388477802276611
1695712781892458000,6.2004580078125,2.270768404006958,-3.1977643966674805,-5.111546516418457
1695712781902512600,6.2105126953125,1.8847472667694092,-3.156693458557129,-5.585997581481934
1695712781912544500,6.22054443359375,1.9567773342132568,-3.238271713256836,-5.639408111572266
1695712781922560500,6.230560546875,2.6866354942321777,-3.1741790771484375,-5.160301208496094
1695712781932576300,6.240576171875,2.4268674850463867,-2.5106306076049805,-4.114921569824219
1695712781942592000,6.250592041015625,2.3776047229766846,-1.7223663330078125,-3.0738468170166016
1695712781952607700,6.260607666015625,1.8465595245361328,-1.3500661849975586,-2.1579720973968506
1695712781962623500,6.27062353515625,0.6049772500991821,-1.2705497741699219,-0.9093821048736572
1695712781972639200,6.28063916015625,1.019043207168579,-1.1269817352294922,0.1627262830734253
1695712781982655000,6.290655029296875,2.4302282333374023,-0.9992351531982422,1.324635624885559
1695712781992670700,6.300670654296875,3.4801907539367676,-0.7647418975830078,2.170276165008545
1695712782002686500,6.3106865234375,4.435808181762695,-0.46357250213623047,2.6708602905273438
1695712782012702200,6.3207021484375,4.9374284744262695,0.34622764587402344,2.555868625640869
1695712782022734600,6.330734619140625,5.194038391113281,1.4831037521362305,2.0830812454223633
1695712782032767200,6.340767333984375,5.0642828941345215,2.553622245788574,1.3736242055892944
1695712782042800000,6.350800048828125,5.245090484619141,3.689995288848877,0.694237232208252
1695712782052833000,6.3608330078125,5.950484275817871,3.8660216331481934,0.2733347415924072
1695712782062866000,6.370865966796875,6.025996685028076,4.122090816497803,-0.17633056640625
1695712782072898800,6.38089892578125,5.78740930557251,4.340800762176514,-0.537460446357727
1695712782082931500,6.390931396484375,5.558293342590332,4.544783592224121,-0.8964076042175293
1695712782092964400,6.40096435546875,5.3717803955078125,4.642887115478516,-1.1522139310836792
1695712782102997200,6.410997314453125,5.167581558227539,4.798554420471191,-1.1587705612182617
1695712782113030100,6.421030029296875,4.863117694854736,4.8550567626953125,-1.1039549112319946
1695712782123062000,6.43106201171875,4.368150234222412,4.896239280700684,-1.5154805183410645
1695712782133092600,6.441092529296875,4.272344589233398,4.878425598144531,-1.7468719482421875
1695712782143123000,6.451123046875,4.053305149078369,4.524016380310059,-1.8101201057434082
1695712782153153500,6.461153564453125,3.6970367431640625,4.016144275665283,-1.8045439720153809
1695712782163184000,6.47118408203125,3.391463279724121,3.5561537742614746,-1.4535324573516846
1695712782173214500,6.48121435546875,2.8881068229675293,3.3597865104675293,-0.9820523262023926
1695712782183245000,6.4912451171875,2.349665880203247,3.2026686668395996,-0.6031286716461182
1695712782193275600,6.501275634765625,1.42014479637146,3.2005457878112793,-0.5926291942596436
1695712782203306000,6.511305908203125,0.41725611686706543,3.195186138153076,-0.7193100452423096
1695712782213336600,6.521336669921875,-0.6432247161865234,2.9281649589538574,-0.9685308933258057
1695712782223368400,6.531368408203125,-4.555051803588867,1.7567558288574219,-1.4257419109344482
1695712782233399800,6.54139990234375,-11.045225143432617,-1.1192989349365234,-2.4521048069000244
1695712782243431400,6.551431396484375,-16.376699447631836,-5.37827205657959,-3.8493776321411133
1695712782253462800,6.561462890625,-14.075748443603516,-10.299842834472656,-4.424099922180176
1695712782263494100,6.571494140625,-10.983851432800293,-14.25296688079834,-3.872196912765503
1695712782273525800,6.58152587890625,-7.247585296630859,-13.30646800994873,-1.5645580291748047
1695712782283557000,6.59155712890625,-2.5806100368499756,-9.336840629577637,0.5260958671569824
1695712782293588700,6.601588623046875,-0.7916543483734131,-4.462466239929199,1.2039778232574463
1695712782303620000,6.6116201171875,-1.0055887699127197,0.2608327865600586,1.488074541091919
1695712782313651500,6.6216513671875,-1.1505398750305176,3.8912577629089355,0.9923825263977051
1695712782323687400,6.6316875,0.16615796089172363,5.643586158752441,-0.5452609062194824
1695712782333742000,6.6417421875,1.7106177806854248,5.042028427124023,-1.7766101360321045
1695712782343796500,6.65179638671875,3.583534002304077,2.814079761505127,-1.2188725471496582
1695712782353851100,6.66185107421875,5.954852104187012,-0.3926429748535156,-0.43433594703674316
1695712782363905800,6.67190576171875,9.68152141571045,-3.84182071685791,-0.129502534866333
1695712782373960200,6.681960205078125,9.747220993041992,-6.400291442871094,-0.0030972957611083984
1695712782384014800,6.692014892578125,2.4125776290893555,-6.959250450134277,-0.20947027206420898
1695712782394069200,6.7020693359375,0.2563588619232178,-5.160555839538574,-0.6045682430267334
1695712782404124000,6.7121240234375,3.819026470184326,-1.9726600646972656,-1.0622401237487793
1695712782414156000,6.722156005859375,6.682597637176514,1.0913419723510742,-1.8543145656585693
1695712782424172800,6.7321728515625,7.030032634735107,3.8794026374816895,-2.912222385406494
1695712782434189600,6.742189453125,6.3890862464904785,5.717752456665039,-3.5841004848480225
1695712782444206600,6.75220654296875,4.753814220428467,5.881039619445801,-3.3897805213928223
1695712782454223400,6.762223388671875,2.802780866622925,4.64105749130249,-2.3307836055755615
1695712782464240400,6.772240478515625,2.5978057384490967,1.993398666381836,-0.9299240112304688
1695712782474257200,6.782257080078125,3.3208765983581543,-0.8574380874633789,0.16752839088439941
1695712782484274000,6.79227392578125,2.925821304321289,-2.502399444580078,0.7954220771789551
1695712782494291000,6.802291015625,1.6400730609893799,-3.0811033248901367,0.6291913986206055
1695712782504307700,6.8123076171875,1.2123777866363525,-3.294900894165039,0.6055488586425781
1695712782514324500,6.822324462890625,1.3425194025039673,-3.10892391204834,0.7108204364776611
1695712782524356400,6.8323564453125,1.5820014476776123,-2.5743398666381836,0.6961379051208496
1695712782534387200,6.84238720703125,1.4486905336380005,-1.2855949401855469,0.619497537612915
1695712782544418000,6.85241796875,1.7883000373840332,-0.09940338134765625,0.6980204582214355
1695712782554449000,6.862448974609375,1.7185004949569702,0.9080038070678711,0.6763936281204224
1695712782564479700,6.872479736328125,1.733838677406311,1.3785362243652344,0.7632337808609009
1695712782574510600,6.882510498046875,1.6274539232254028,1.7629051208496094,0.8203195333480835
1695712782584541400,6.89254150390625,1.2059820890426636,2.0324831008911133,0.6259819269180298
1695712782594572300,6.902572265625,0.959259569644928,2.153745651245117,0.524207353591919
1695712782604603100,6.91260302734375,0.3670666813850403,2.24173641204834,0.28789615631103516
1695712782614633700,6.9226337890625,-0.426333487033844,1.9103450775146484,0.23637175559997559
1695712782624665600,6.93266552734375,-1.07476806640625,1.4060344696044922,-0.025008440017700195
1695712782634697200,6.942697265625,-1.332674264907837,0.9591922760009766,-0.28458738327026367
1695712782644728800,6.952728759765625,-1.434935450553894,0.5643062591552734,-0.4658820629119873
1695712782654760700,6.9627607421875,-1.0952715873718262,0.4305248260498047,-0.319502592086792
1695712782664792300,6.972792236328125,-0.520321249961853,0.48964500427246094,-0.024065256118774414
1695712782674824000,6.982823974609375,-0.5460851192474365,0.735447883605957,-0.006409645080566406
1695712782684855600,6.99285546875,-0.5327825546264648,1.0433807373046875,0.09602880477905273
1695712782694887400,7.002887451171875,-0.4634740948677063,1.2708749771118164,0.14476752281188965
1695712782704919000,7.0129189453125,-0.3335202932357788,1.2990036010742188,0.13003826141357422
1695712782714950700,7.02295068359375,-0.292904257774353,1.166041374206543,0.06917691230773926
1695712782724982500,7.032982421875,-0.6234512329101562,0.6135129928588867,0.22155427932739258
1695712782735015200,7.04301513671875,-1.4868621826171875,-0.023626327514648438,0.5830113887786865
1695712782745047800,7.0530478515625,-2.510946035385132,-0.768162727355957,1.4843555688858032
1695712782755080400,7.06308056640625,-3.4219396114349365,-1.5921239852905273,2.640958786010742
1695712782765113000,7.073113037109375,-4.197269439697266,-2.5899057388305664,3.666614532470703
1695712782775145500,7.0831455078125,-4.277842998504639,-3.397867202758789,4.379881858825684
1695712782785178000,7.09317822265625,-3.8696956634521484,-3.476186752319336,4.163853168487549
1695712782795210800,7.103210693359375,-3.399474620819092,-3.289836883544922,3.7562813758850098
1695712782805243400,7.113243408203125,-2.9687414169311523,-3.657958984375,3.6797571182250977
1695712782815276000,7.123276123046875,-3.140528678894043,-4.171816825866699,3.4137625694274902
1695712782825312000,7.13331201171875,-4.121814250946045,-4.112854957580566,2.2043256759643555
1695712782835368000,7.143367919921875,-5.414728164672852,-3.2828989028930664,0.7630605697631836
1695712782845423600,7.153423583984375,-6.391331195831299,-3.2462892532348633,-0.21433019638061523
1695712782855479300,7.163479248046875,-6.317686080932617,-3.784353256225586,-0.8825788497924805
1695712782865535000,7.173534912109375,-5.434966564178467,-4.063941955566406,-0.9300339221954346
1695712782875590700,7.183590576171875,-5.366109848022461,-3.7653398513793945,-0.017122983932495117
1695712782885646600,7.193646484375,-4.747954845428467,-3.177384376525879,0.905519962310791
1695712782895702300,7.203702392578125,-2.395883083343506,-2.7608470916748047,1.0548080205917358
1695712782905758000,7.213758056640625,-1.0339593887329102,-2.305818557739258,0.14057707786560059
1695712782915789600,7.22378955078125,-0.6354455351829529,-2.3698434829711914,-1.2051987648010254
1695712782925803800,7.2338037109375,1.0211496353149414,-2.519761085510254,-1.953601360321045
1695712782935818000,7.24381787109375,2.439087390899658,-3.3043556213378906,-2.27915620803833
1695712782945832000,7.25383203125,2.595947265625,-4.060760498046875,-2.585477828979492
1695712782955846000,7.263845947265625,2.0043792724609375,-4.229754447937012,-3.048151969909668
1695712782965860000,7.273860107421875,1.3756039142608643,-4.22898006439209,-2.8723220825195312
1695712782975874000,7.2838740234375,2.2757568359375,-4.149509429931641,-2.57504940032959
1695712782985888300,7.29388818359375,2.9700927734375,-3.79049015045166,-2.1800851821899414
1695712782995902200,7.303902099609375,2.758594512939453,-2.8505325317382812,-1.302515983581543
1695712783005916400,7.31391650390625,2.3830652236938477,-2.199824333190918,-0.7564554214477539
1695712783015930400,7.323930419921875,1.0833649635314941,-1.900761604309082,-0.3795156478881836
1695712783025962000,7.3339619140625,0.690065860748291,-1.6070070266723633,-0.3205866813659668
1695712783035993000,7.3439931640625,1.9734822511672974,-1.1957712173461914,-0.12353456020355225
1695712783046024200,7.354024169921875,3.1305510997772217,-0.4854259490966797,0.4346710443496704
1695712783056055300,7.36405517578125,3.812173366546631,0.18039894104003906,0.823072075843811
1695712783066086700,7.374086669921875,4.376344203948975,0.6563196182250977,1.0799001455307007
1695712783076117800,7.38411767578125,4.58494234085083,1.4858827590942383,1.0853652954101562
1695712783086148900,7.39414892578125,4.58979606628418,2.340486526489258,0.9813181161880493
1695712783096180000,7.404179931640625,4.741362571716309,2.9630274772644043,0.7024168968200684
1695712783106211000,7.414211181640625,5.065316200256348,3.354414463043213,0.5935617685317993
1695712783116242200,7.4242421875,5.4664225578308105,3.835775852203369,0.6743273735046387
1695712783126274300,7.4342744140625,5.644121170043945,4.240027904510498,0.7064865827560425
1695712783136308200,7.44430810546875,5.621220111846924,4.549245834350586,0.6296079158782959
1695712783146342400,7.45434228515625,5.663253307342529,4.67971134185791,0.6181564331054688
1695712783156376300,7.464376220703125,5.543123245239258,4.6872100830078125,0.4940875768661499
1695712783166410200,7.47441015625,5.501550674438477,4.5760908126831055,0.34949398040771484
1695712783176444400,7.4844443359375,5.367267608642578,4.504201889038086,0.25243163108825684
1695712783186478300,7.494478271484375,5.17662239074707,4.570775985717773,0.19496023654937744
1695712783196512500,7.504512451171875,4.772825241088867,4.642799377441406,-0.5094687938690186
1695712783206546400,7.51454638671875,4.612708568572998,4.677158355712891,-0.8896918296813965
1695712783216580600,7.52458056640625,4.1073455810546875,4.500868797302246,-0.9292802810668945
1695712783226612200,7.5346123046875,3.3904547691345215,4.321743011474609,-0.7591910362243652
1695712783236642000,7.54464208984375,2.456631898880005,4.136788845062256,-0.3903007507324219
1695712783246672100,7.554672119140625,0.9591877460479736,3.841505527496338,-0.10531234741210938
1695712783256702000,7.564701904296875,-1.044175148010254,3.356968402862549,-0.02992701530456543
1695712783266732000,7.57473193359375,-2.4403414726257324,2.742485523223877,-0.10639381408691406
1695712783276761900,7.584761962890625,-3.8037352561950684,1.8209352493286133,-0.6202993392944336
1695712783286791700,7.594791748046875,-9.422943115234375,-0.2038402557373047,-1.6520512104034424
1695712783296821800,7.60482177734375,-15.646453857421875,-3.5095996856689453,-3.0178239345550537
1695712783306851600,7.6148515625,-14.341739654541016,-7.366633415222168,-4.150117874145508
1695712783316881400,7.62488134765625,-11.831621170043945,-11.193306922912598,-4.496067047119141
1695712783326918400,7.63491845703125,-9.368337631225586,-12.662378311157227,-3.127936840057373
1695712783336979000,7.64497900390625,-5.219715118408203,-10.32868480682373,-0.6978988647460938
1695712783347039700,7.655039794921875,-2.136803150177002,-6.77066707611084,1.299941062927246
1695712783357100300,7.665100341796875,-1.6263713836669922,-2.905524253845215,1.9542628526687622
1695712783367161000,7.6751611328125,-1.594818115234375,0.056572914123535156,1.6765273809432983
1695712783377222000,7.685221923828125,-0.8610379695892334,1.7980518341064453,-0.3509066104888916
1695712783387282400,7.695282470703125,-0.6181008815765381,2.1563491821289062,-2.509840250015259
1695712783397343200,7.70534326171875,-0.27813243865966797,0.8434839248657227,-2.622516632080078
1695712783407403800,7.71540380859375,1.1403861045837402,-1.8759527206420898,-1.4434974193572998
1695712783417417200,7.725417236328125,7.300956726074219,-4.202020645141602,0.6154074668884277
1695712783427430700,7.7354306640625,10.357222557067871,-4.727816581726074,1.3674061298370361
1695712783437443800,7.74544384765625,9.405508995056152,-3.6479692459106445,0.7903549671173096
1695712783447457300,7.755457275390625,9.357091903686523,-1.3019237518310547,0.5999648571014404
1695712783457470700,7.765470703125,8.532322883605957,1.5955686569213867,-0.4369680881500244
1695712783467484000,7.77548388671875,5.311776638031006,3.730919361114502,-2.5047028064727783
1695712783477497300,7.785497314453125,3.59271240234375,4.818539619445801,-4.252573013305664
1695712783487510800,7.7955107421875,5.014909744262695,4.892073631286621,-4.50007438659668
1695712783497524000,7.80552392578125,6.278131484985352,3.9862542152404785,-3.9974825382232666
1695712783507537400,7.815537353515625,6.225399971008301,2.302884101867676,-3.144418954849243
1695712783517550800,7.82555078125,4.751653671264648,-0.03418731689453125,-2.1653428077697754
1695712783527582200,7.835582275390625,3.191420555114746,-2.2735443115234375,-0.9148497581481934
1695712783537611500,7.845611572265625,2.56137752532959,-3.4602251052856445,0.05084061622619629
1695712783547640800,7.855640869140625,2.721708059310913,-3.66593074798584,0.479248046875
1695712783557670100,7.865670166015625,2.647219181060791,-3.258810043334961,0.6881042718887329
1695712783567699500,7.875699462890625,2.771345853805542,-2.578242301940918,1.1698750257492065
1695712783577728800,7.885728759765625,2.321554183959961,-1.7813501358032227,1.1909860372543335
1695712783587758000,7.895758056640625,1.7718758583068848,-0.833470344543457,0.7887563705444336
1695712783597787400,7.905787353515625,1.4019370079040527,0.15718364715576172,0.5618118047714233
1695712783607817000,7.91581689453125,1.4439958333969116,0.60797119140625,0.8034300804138184
1695712783617846300,7.92584619140625,1.4005361795425415,0.8036975860595703,1.0420972108840942
1695712783627878100,7.935878173828125,1.5387463569641113,0.7795209884643555,1.0480719804763794
1695712783637912300,7.945912353515625,1.339292049407959,1.0804967880249023,0.8775043487548828
1695712783647946800,7.95594677734375,1.0285532474517822,1.5805673599243164,0.8434877395629883
1695712783657981200,7.965981201171875,0.2240581512451172,1.8736915588378906,0.9845503568649292
1695712783668015600,7.976015625,-0.8664559721946716,1.9910945892333984,1.0033329725265503
1695712783678050000,7.986050048828125,-1.9037835597991943,1.7054195404052734,0.7768852710723877
1695712783688084200,7.996084228515625,-2.3435068130493164,1.1327085494995117,0.7007319927215576
1695712783698118700,8.00611865234375,-2.1344804763793945,0.6457328796386719,0.7830526828765869
1695712783708153000,8.016153076171875,-1.7809500694274902,0.22442913055419922,0.9706969261169434
1695712783718187500,8.0261875,-1.1129423379898071,0.1835927963256836,1.1215883493423462
1695712783728220000,8.036219970703126,-0.13402223587036133,0.5602893829345703,1.1125754117965698
1695712783738255400,8.04625537109375,0.5483863353729248,1.2761998176574707,0.9703390598297119
1695712783748290600,8.05629052734375,0.6350163221359253,1.942826271057129,0.6977229118347168
1695712783758326000,8.066325927734376,0.28093671798706055,2.0437135696411133,0.2829701900482178
1695712783768361500,8.076361572265625,-0.22735297679901123,1.5277814865112305,-0.13695049285888672
1695712783778396700,8.086396728515625,-0.8876398801803589,0.750493049621582,-0.480853796005249
1695712783788432100,8.09643212890625,-1.7617812156677246,-0.21162128448486328,-0.42264246940612793
1695712783798467300,8.10646728515625,-3.117520332336426,-1.229294776916504,0.22585487365722656
1695712783808502800,8.116502685546875,-4.917507171630859,-2.319936752319336,1.2667269706726074
1695712783818538000,8.1265380859375,-6.190632343292236,-3.409663200378418,2.4330384731292725
1695712783828577000,8.136576904296875,-6.2134294509887695,-4.669782638549805,3.494457244873047
1695712783838672400,8.14667236328125,-5.1720967292785645,-5.4155378341674805,3.6341490745544434
1695712783848768000,8.15676806640625,-3.8420217037200928,-5.031519889831543,3.2445547580718994
1695712783858807000,8.16680712890625,-2.979509115219116,-4.494439125061035,2.77471661567688
1695712783868840700,8.1768408203125,-2.3312854766845703,-3.932506561279297,2.712231397628784
1695712783878874600,8.18687451171875,-2.610748529434204,-3.40738582611084,2.5124688148498535
1695712783888749600,8.19674951171875,-3.543951988220215,-2.899142265319824,1.3466298580169678
1695712783898774500,8.2067744140625,-4.971750259399414,-2.638352394104004,0.358065128326416
1695712783908774000,8.21677392578125,-6.390451908111572,-2.97036075592041,-0.5336673259735107
1695712783918796500,8.226796630859376,-5.726776123046875,-4.280365943908691,-1.232529640197754
1695712783928863500,8.236863525390625,-4.034006595611572,-4.968227386474609,-1.2704198360443115
1695712783938890500,8.246890380859375,-3.685228109359741,-4.674647331237793,-0.017058134078979492
1695712783948930300,8.256930419921876,-4.765569686889648,-3.9757871627807617,1.9003552198410034
1695712783958958600,8.26695849609375,-5.2489519119262695,-3.3630685806274414,3.426114320755005
1695712783968984800,8.27698486328125,-4.416116714477539,-2.504270553588867,3.7096505165100098
1695712783979012900,8.287012939453126,-2.9592227935791016,-1.3408918380737305,2.9287214279174805
1695712783989066800,8.297066650390626,-0.7433863878250122,-0.7236843109130859,1.5222045183181763
1695712783999097300,8.307097412109375,2.868645429611206,-1.3473892211914062,0.08094453811645508
1695712784009134000,8.317134033203125,5.031997203826904,-2.9308738708496094,-0.8589110374450684
1695712784019165200,8.327165283203126,5.4732666015625,-4.36781120300293,-1.1709885597229004
1695712784029204500,8.33720458984375,6.354531288146973,-5.057945251464844,-1.2067759037017822
1695712784039236600,8.347236572265626,5.837002754211426,-5.346979141235352,-1.250497817993164
1695712784049414000,8.357413818359374,3.1711504459381104,-4.7175703048706055,-1.0726909637451172
1695712784059413800,8.367413818359376,1.9418842792510986,-3.6340560913085938,-0.787320613861084
1695712784069446000,8.37744580078125,2.4430699348449707,-3.104315757751465,-0.25179290771484375
1695712784079504000,8.38750390625,2.463075637817383,-2.9030017852783203,0.32041430473327637
1695712784089557500,8.3975576171875,2.378086805343628,-2.5689258575439453,0.38346409797668457
1695712784099589600,8.407589599609375,2.179689645767212,-2.299375534057617,0.03952789306640625
1695712784109594600,8.4175947265625,2.503718137741089,-2.0121421813964844,-0.10192513465881348
1695712784119655000,8.427655029296876,3.4582486152648926,-1.2333011627197266,0.12783074378967285
1695712784129686800,8.437686767578125,4.322573661804199,-0.3023033142089844,0.5910594463348389
1695712784139694800,8.44769482421875,4.709345817565918,0.7896404266357422,1.0666731595993042
1695712784149723000,8.457722900390625,4.977768898010254,1.8656291961669922,1.2697033882141113
1695712784159754800,8.467754638671876,5.132512092590332,3.1112351417541504,1.342580795288086
1695712784169787000,8.477786865234375,5.673612117767334,3.8169960975646973,1.2187683582305908
1695712784179816200,8.487816162109375,5.79619836807251,4.248525142669678,1.1656732559204102
1695712784189831200,8.4978310546875,5.572213649749756,4.474092483520508,1.018597960472107
1695712784199846000,8.507845947265626,5.405518054962158,4.4418182373046875,0.7923939228057861
1695712784209860900,8.51786083984375,5.422150611877441,4.3253374099731445,0.36746764183044434
1695712784219875800,8.527875732421874,5.4113945960998535,4.059346675872803,0.06182587146759033
1695712784229890600,8.537890625,5.363882064819336,4.152005195617676,-0.35802435874938965
1695712784239905500,8.547905517578124,5.612618923187256,4.102336883544922,-0.4912559986114502
1695712784249920500,8.55792041015625,5.400308132171631,4.109189987182617,-0.7543039321899414
1695712784259935500,8.567935546875,5.292216777801514,4.3015947341918945,-1.3484275341033936
1695712784269950200,8.5779501953125,5.166062355041504,4.555516242980957,-1.634962797164917
1695712784279980000,8.58797998046875,4.877391815185547,4.727389335632324,-1.6806578636169434
1695712784290012000,8.598011962890626,4.545133113861084,4.769496917724609,-1.501408338546753
1695712784300043800,8.608043701171875,4.0502166748046875,4.805567741394043,-1.195288896560669
1695712784310075600,8.61807568359375,3.009594440460205,4.761599540710449,-0.8081865310668945
1695712784320107500,8.628107421875,1.6070940494537354,4.419321060180664,-0.38030362129211426
1695712784330139400,8.638139404296876,-0.018830299377441406,3.7146353721618652,0.15480613708496094
1695712784340171300,8.648171142578125,-2.0280473232269287,2.3536901473999023,0.4663963317871094
1695712784350203100,8.658203125,-6.342089653015137,0.582573413848877,0.09726190567016602
1695712784360235000,8.668235107421875,-13.68781852722168,-1.592097282409668,-1.18487548828125
1695712784370267000,8.678266845703124,-17.234603881835938,-4.747865676879883,-3.2811338901519775
1695712784380298800,8.688298828125,-15.719371795654297,-9.499334335327148,-5.647407531738281
1695712784390341000,8.698341064453125,-12.508044242858887,-15.109359741210938,-6.787468910217285
1695712784400547600,8.708547607421876,-5.9514617919921875,-15.139068603515625,-2.985956907272339
1695712784410560800,8.718560791015625,-2.595571279525757,-10.246273040771484,0.7723736763000488
1695712784420574000,8.728573974609375,-2.376033306121826,-5.023714065551758,3.288917064666748
1695712784430587100,8.738587158203124,-1.8542358875274658,0.7365150451660156,4.753891468048096
1695712784440600600,8.7486005859375,0.23186087608337402,4.450099945068359,4.064406394958496
1695712784450613800,8.75861376953125,2.145724296569824,4.520157814025879,1.3393797874450684
1695712784460627000,8.768626953125,2.6870923042297363,2.6392054557800293,-0.10797810554504395
1695712784470640000,8.77864013671875,3.8985233306884766,0.46350717544555664,-0.08439874649047852
1695712784480653300,8.7886533203125,6.59909725189209,-2.332545280456543,0.2793562412261963
1695712784490666800,8.798666748046875,9.13419246673584,-4.744626045227051,-0.048951148986816406
1695712784500680000,8.808679931640626,5.9787678718566895,-5.5952301025390625,-1.4264099597930908
1695712784510716200,8.818716064453126,2.0688421726226807,-4.491433143615723,-2.4424943923950195
1695712784520751900,8.828751953125,3.8314568996429443,-1.7792901992797852,-3.574955940246582
1695712784530787800,8.838787841796876,6.621823310852051,0.7274341583251953,-4.856571674346924
1695712784540823800,8.84882373046875,7.271239280700684,2.577880859375,-5.74623966217041
1695712784550859500,8.858859619140626,7.192812919616699,4.381288051605225,-6.023732662200928
1695712784560895500,8.8688955078125,6.553269863128662,5.5419464111328125,-5.122822284698486
1695712784570931500,8.878931396484376,4.812944412231445,5.168604850769043,-3.6223299503326416
1695712784580967400,8.888967529296876,4.435494899749756,3.626613140106201,-1.8791754245758057
1695712784591003100,8.899003173828126,5.479825019836426,1.1481070518493652,-0.18881988525390625
1695712784601039000,8.9090390625,4.715459823608398,-1.4112157821655273,1.2357101440429688
1695712784611075000,8.919074951171876,2.685856819152832,-3.059856414794922,1.80958890914917
1695712784621110500,8.929110595703126,1.7281341552734375,-3.6935644149780273,1.6289960145950317
1695712784631142100,8.93914208984375,1.700352430343628,-3.769458770751953,1.5740605592727661
1695712784641173800,8.949173828125,2.8826651573181152,-3.8129892349243164,1.8568732738494873
1695712784651205400,8.959205322265625,3.2713940143585205,-3.1096601486206055,1.9698338508605957
1695712784661237000,8.969237060546876,2.6933767795562744,-1.4608488082885742,2.067826986312866
1695712784671268600,8.9792685546875,1.7428741455078125,0.4619874954223633,1.7833402156829834
1695712784681300500,8.989300537109376,1.0194098949432373,1.5912504196166992,1.4831712245941162
1695712784691332000,8.99933203125,0.3257439136505127,2.2723865509033203,1.1363922357559204
1695712784701363700,9.00936376953125,-0.014122545719146729,2.4403305053710938,0.5912096500396729
1695712784711395300,9.019395263671875,-0.43532219529151917,2.412398338317871,0.055756330490112305
1695712784721430300,9.02943017578125,-0.992689847946167,2.260317802429199,-0.42800474166870117
1695712784731462700,9.039462646484376,-1.8355029821395874,1.7510433197021484,-0.3214128017425537
1695712784741495000,9.0494951171875,-2.343867778778076,1.344688892364502,0.015579938888549805
1695712784751527400,9.05952734375,-2.3314881324768066,0.9688482284545898,0.42738819122314453
1695712784761559800,9.069559814453125,-1.3764947652816772,0.791346549987793,1.119264006614685
1695712784771592400,9.079592529296875,-0.29519009590148926,0.7402286529541016,1.3510371446609497
1695712784781624800,9.089624755859376,0.4430142641067505,0.6577587127685547,1.5699520111083984
1695712784791657200,9.0996572265625,0.7677935361862183,1.0130157470703125,1.7595844268798828
1695712784801689600,9.109689697265624,0.4452472925186157,1.1835427284240723,1.5826178789138794
1695712784811722000,9.119721923828125,-0.10607433319091797,0.8913555145263672,1.1670663356781006
1695712784821759200,9.12975927734375,-0.7753562927246094,0.05994606018066406,0.6825768947601318
1695712784831806500,9.139806396484374,-1.6613681316375732,-1.1702356338500977,0.6405787467956543
1695712784841853700,9.149853759765625,-3.144008159637451,-2.04190731048584,1.241077184677124
1695712784851901000,9.15990087890625,-5.26412296295166,-2.396493911743164,2.0109832286834717
1695712784861948200,9.1699482421875,-6.983366012573242,-2.614034652709961,3.0276284217834473
1695712784871995400,9.179995361328125,-6.823258399963379,-3.228069305419922,4.064630508422852
1695712784882043000,9.19004296875,-4.986736297607422,-3.996988296508789,4.482227325439453
1695712784892090000,9.200090087890626,-2.6426939964294434,-4.0115156173706055,3.957171678543091
1695712784902137300,9.210137451171875,-1.1033120155334473,-2.969515800476074,2.93167781829834
1695712784912170500,9.22017041015625,-0.9009801149368286,-2.1768436431884766,2.2043111324310303
1695712784922188500,9.2301884765625,-1.4992245435714722,-2.634493827819824,2.3078322410583496
1695712784932206800,9.240206787109376,-2.375948667526245,-3.6039371490478516,2.236292600631714
1695712784942225000,9.250224853515626,-3.18542742729187,-4.421875953674316,1.7437607049942017
1695712784952243200,9.2602431640625,-4.291393280029297,-4.858612060546875,0.9386703968048096
1695712784962261200,9.27026123046875,-5.575486660003662,-5.105160713195801,-0.08384227752685547
1695712784972279600,9.280279541015625,-6.65659236907959,-4.730170249938965,0.21181440353393555
1695712784982297600,9.290297607421875,-6.603014945983887,-4.248658180236816,1.9319543838500977
1695712784992316000,9.30031591796875,-5.7047600746154785,-4.104265213012695,3.435879707336426
1695712785002334000,9.310333984375,-4.461477279663086,-3.773160934448242,4.151516437530518
1695712785012352300,9.320352294921875,-3.4843344688415527,-2.7400646209716797,3.720109462738037
1695712785022388000,9.330387939453125,-2.7925033569335938,-1.8731002807617188,1.9756944179534912
1695712785032437500,9.3404375,-0.25771117210388184,-1.742055892944336,-0.03487968444824219
1695712785042487300,9.3504873046875,2.765807628631592,-2.289674758911133,-2.0333127975463867
1695712785052537000,9.360537109375,3.6333303451538086,-3.184453010559082,-3.3363208770751953
1695712785062587000,9.3705869140625,2.976914882659912,-4.1301679611206055,-4.200152397155762
1695712785072636400,9.380636474609375,1.9709763526916504,-4.14069938659668,-4.63392448425293
1695712785082686200,9.390686279296874,0.778089165687561,-4.125637054443359,-4.53640079498291
1695712785092736000,9.400736083984375,1.5750491619110107,-3.9514427185058594,-3.9450736045837402
1695712785102785800,9.410785888671874,3.787036180496216,-3.335857391357422,-3.174370288848877
1695712785112835600,9.420835693359376,4.125483989715576,-2.6567888259887695,-2.5905508995056152
1695712785122871300,9.430871337890625,3.181187629699707,-2.4022979736328125,-1.899397611618042
1695712785132906500,9.440906494140625,0.4933268427848816,-2.377812385559082,-0.8677815198898315
1695712785142941700,9.450941650390625,0.18371176719665527,-2.204465866088867,-0.09110283851623535
1695712785152834600,9.46083447265625,2.084362745285034,-1.7725152969360352,0.8349589109420776
1695712785162857200,9.470857177734375,3.4981155395507812,-1.1058635711669922,1.8940365314483643
1695712785173039000,9.4810390625,4.225818157196045,-0.2590770721435547,2.302635669708252
1695712785183059000,9.491058837890625,4.873769760131836,0.6973628997802734,2.6041762828826904
1695712785193081300,9.501081298828124,5.539506912231445,1.823629379272461,2.4227805137634277
1695712785203146800,9.511146728515625,5.571803569793701,2.964857578277588,2.110680103302002
1695712785213169200,9.521169189453126,5.459964752197266,3.7222189903259277,1.6514314413070679
1695712785223211800,9.531211669921875,5.858062744140625,4.535245418548584,1.2189075946807861
1695712785233246200,9.54124609375,6.146288871765137,5.141809463500977,0.8155546188354492
1695712785243268600,9.5512685546875,6.333317756652832,5.446290969848633,0.3589012622833252
1695712785253279500,9.561279541015624,6.5691728591918945,5.384238243103027,0.060599565505981445
1695712785263318500,9.571318603515625,6.253993034362793,5.088658332824707,-0.24377381801605225
1695712785273341200,9.581341064453126,5.897256374359131,4.795405387878418,-0.451019287109375
1695712785283368400,9.591368408203126,5.667357921600342,4.659022331237793,-0.5840845108032227
1695712785293393000,9.601392822265625,5.503631591796875,4.635122299194336,-0.9422178268432617
1695712785303441400,9.61144140625,5.26527214050293,4.652528762817383,-1.4727590084075928
1695712785313465900,9.6214658203125,5.037988662719727,4.653594970703125,-1.7677009105682373
1695712785323496400,9.631496337890624,4.568141460418701,4.699862480163574,-1.7652509212493896
1695712785333526800,9.64152685546875,3.8815808296203613,4.665851593017578,-1.5647392272949219
1695712785343437300,9.651437255859374,3.0531978607177734,4.606598854064941,-1.2884817123413086
1695712785353601000,9.66160107421875,1.6962742805480957,4.4375715255737305,-1.071333885192871
1695712785363654700,9.671654541015625,-0.0850987434387207,3.9974751472473145,-0.7807681560516357
1695712785373668900,9.6816689453125,-1.9081294536590576,3.182253360748291,-0.6059086322784424
1695712785383711700,9.691711669921874,-6.457602500915527,1.6729564666748047,-1.0312893390655518
1695712785393765000,9.70176513671875,-15.000515937805176,-1.1006546020507812,-2.9823105335235596
1695712785403779000,9.711779052734375,-17.5480899810791,-4.533292770385742,-5.762167453765869
1695712785413800400,9.721800537109376,-14.587061882019043,-10.344027519226074,-7.118895530700684
1695712785423849000,9.731848876953125,-13.220695495605469,-16.416702270507812,-7.508465766906738
1695712785433863200,9.74186328125,-8.35572624206543,-16.40410614013672,-4.0148606300354
1695712785443893200,9.751893310546874,-2.3193624019622803,-10.997960090637207,-0.3482487201690674
1695712785453910500,9.76191064453125,-1.1059603691101074,-4.713422775268555,1.9791561365127563
1695712785463924700,9.7719248046875,-1.2826595306396484,1.4396448135375977,3.7984819412231445
1695712785473942500,9.781942626953125,-1.3446612358093262,6.237744331359863,4.371173858642578
1695712785483993000,9.7919931640625,0.11528849601745605,8.067148208618164,2.5342047214508057
1695712785494043400,9.80204345703125,1.7657551765441895,6.240011215209961,0.28888511657714844
1695712785504061200,9.812061279296875,3.988258123397827,2.944662570953369,0.08580970764160156
1695712785514062000,9.82206201171875,8.1876220703125,-0.4836254119873047,-0.13167119026184082
1695712785523982000,9.831982177734375,11.571537017822266,-3.9348297119140625,-0.9350876808166504
1695712785533990000,9.841989990234374,8.598539352416992,-6.8008317947387695,-2.2030417919158936
1695712785544039400,9.852039306640625,2.000157117843628,-7.9752092361450195,-2.488617181777954
1695712785554051300,9.86205126953125,3.43363618850708,-5.872611999511719,-3.252079963684082
1695712785564105000,9.87210498046875,7.144503116607666,-2.514606475830078,-3.336656093597412
1695712785574121000,9.882120849609375,7.654679298400879,0.7280721664428711,-3.0637803077697754
1695712785584189200,9.892189208984375,6.769465446472168,3.4043145179748535,-3.0604259967803955
1695712785594210600,9.90221044921875,6.084124565124512,4.639248847961426,-3.0091159343719482
1695712785604259000,9.912259033203124,5.118592262268066,4.232700824737549,-2.468724489212036
1695712785614283000,9.922282958984376,5.626030921936035,3.038891315460205,-2.1709485054016113
1695712785624294100,9.932294189453126,5.858252048492432,1.144442081451416,-0.9273300170898438
1695712785634317000,9.942317138671875,3.2656307220458984,-1.1726436614990234,0.5055587291717529
1695712785644391700,9.9523916015625,1.2267816066741943,-2.4786911010742188,1.0384516716003418
1695712785654419700,9.962419677734376,1.6983840465545654,-2.749662399291992,0.32770633697509766
1695712785664448500,9.972448486328124,2.426609516143799,-2.4197120666503906,1.053720474243164
1695712785674476800,9.982476806640625,3.8219799995422363,-2.4750518798828125,1.8535096645355225
1695712785684513800,9.992513671875,4.481541156768799,-2.456460952758789,2.118696451187134
1695712785694542600,10.00254248046875,3.115335464477539,-1.7001829147338867,1.9061038494110107
1695712785704579300,10.012579345703125,1.5938524007797241,-0.15709686279296875,1.7418370246887207
1695712785714609200,10.022609130859376,0.9741523265838623,1.4393467903137207,1.7480676174163818
1695712785724791000,10.032791015625,0.43444764614105225,2.439535140991211,1.5698094367980957
1695712785734837000,10.0428369140625,0.18492722511291504,2.7984209060668945,1.0560070276260376
1695712785744866800,10.05286669921875,-0.27609819173812866,2.6474037170410156,0.13062310218811035
1695712785754907400,10.062907470703125,-1.3987230062484741,2.2026453018188477,-0.584073543548584
1695712785764952600,10.07295263671875,-2.06078839302063,1.551243782043457,-0.8201491832733154
1695712785774982400,10.082982421875,-2.6342267990112305,0.9743833541870117,-0.9429702758789062
1695712785785001200,10.093001220703124,-2.6672604084014893,0.6507730484008789,-0.35152673721313477
1695712785795017000,10.103016845703126,-1.8330694437026978,0.5138282775878906,0.5090028047561646
1695712785805046800,10.113046875,-0.7198570966720581,0.6610288619995117,1.0416536331176758
1695712785815089700,10.123089599609376,-0.11485779285430908,1.1220417022705078,1.2473422288894653
1695712785825120000,10.1331201171875,-0.13506317138671875,1.6769037246704102,1.2954753637313843
1695712785835152600,10.143152587890626,-0.47225797176361084,1.745558738708496,1.2218481302261353
1695712785845185300,10.153185302734375,-0.7964663505554199,1.0305652618408203,1.1771981716156006
1695712785855218000,10.163218017578124,-1.3810803890228271,-0.37252044677734375,1.2930021286010742
1695712785865250600,10.17325048828125,-2.466062545776367,-1.5713310241699219,1.7967640161514282
1695712785875283200,10.183283203125,-3.702542543411255,-2.028902053833008,2.3075714111328125
1695712785885315800,10.19331591796875,-4.923340797424316,-2.2614641189575195,2.990018367767334
1695712785895348500,10.203348388671875,-5.67355489730835,-2.5767030715942383,3.9633114337921143
1695712785905381000,10.213381103515625,-5.5197649002075195,-3.3981504440307617,4.918766975402832
1695712785915411500,10.223411376953125,-4.33847188949585,-4.177889823913574,5.410575866699219
1695712785925432300,10.233432373046876,-2.3741705417633057,-4.369876861572266,5.0767717361450195
1695712785935303400,10.243303466796876,-1.2683262825012207,-3.3714113235473633,3.826808214187622
1695712785945317400,10.2533173828125,-1.2478132247924805,-2.509615898132324,2.6265127658843994
1695712785955444000,10.26344384765625,-1.9791579246520996,-2.9784841537475586,2.207904815673828
1695712785965570600,10.273570556640625,-2.851640462875366,-3.952761650085449,1.6766704320907593
1695712785975637200,10.28363720703125,-3.939014196395874,-4.630670547485352,0.9790472984313965
1695712785985651500,10.2936513671875,-4.807294845581055,-4.944546699523926,0.3003048896789551
1695712785995682600,10.3036826171875,-5.416748046875,-4.928497314453125,-0.44075870513916016
1695712786005722600,10.31372265625,-6.187262535095215,-4.22551155090332,-0.36107730865478516
1695712786015736800,10.32373681640625,-5.896498680114746,-3.661709785461426,1.6329926252365112
1695712786025782000,10.333781982421876,-4.477813720703125,-3.5958633422851562,3.487139940261841
1695712786035821600,10.343821533203124,-3.168087959289551,-3.6001663208007812,4.091486930847168
1695712786045835800,10.353835693359375,-2.4427099227905273,-3.0590906143188477,3.2310991287231445
1695712786055833300,10.363833251953125,-1.9522838592529297,-2.6675796508789062,1.5846233367919922
1695712786065853200,10.373853271484375,-0.3368702530860901,-2.532001495361328,-0.2693328857421875
1695712786075935500,10.383935546875,1.842439889907837,-2.8257179260253906,-2.029900550842285
1695712786085955600,10.39395556640625,2.5806169509887695,-4.017683029174805,-3.6106417179107666
1695712786095980300,10.403980224609375,2.252013683319092,-4.856179237365723,-4.499281406402588
1695712786105874700,10.413874755859375,1.531050682067871,-4.647133827209473,-4.980915546417236
1695712786115881500,10.423881591796874,0.6791712045669556,-4.174782752990723,-5.069886684417725
1695712786126081300,10.434081298828126,1.3312314748764038,-3.6164093017578125,-5.06245231628418
1695712786136088000,10.444088134765625,3.1059410572052,-2.881410598754883,-4.444502830505371
1695712786146164000,10.4541640625,3.684969425201416,-1.7270851135253906,-4.031802177429199
1695712786156203800,10.464203857421875,2.909327268600464,-1.034316062927246,-3.2062275409698486
1695712786166210600,10.47421044921875,1.2675940990447998,-0.6552114486694336,-2.2189228534698486
1695712786176245500,10.48424560546875,0.41349756717681885,-0.5210056304931641,-0.9481439590454102
1695712786186292500,10.49429248046875,1.5571625232696533,-0.4518909454345703,0.10066211223602295
1695712786196299000,10.504299072265624,2.982182264328003,-0.2640342712402344,1.383788824081421
1695712786206347500,10.514347412109375,3.8601675033569336,-0.03073883056640625,2.3527779579162598
1695712786216366300,10.524366455078125,4.472660541534424,0.5881185531616211,2.8932700157165527
1695712786226375700,10.534375732421875,4.992959022521973,1.620347023010254,2.863912343978882
1695712786236395800,10.544395751953125,5.593328475952148,2.5423946380615234,2.7922892570495605
1695712786246415600,10.55441552734375,5.662458419799805,3.090747356414795,2.4601566791534424
1695712786256435700,10.564435791015624,5.97376012802124,3.306978702545166,2.140348434448242
1695712786266455800,10.574455810546874,6.662044525146484,3.636216640472412,2.071626663208008
1695712786276476000,10.584475830078125,6.65766716003418,3.8579001426696777,1.710761547088623
1695712786286495700,10.594495849609375,6.407660484313965,3.859750270843506,1.3558093309402466
1695712786296515800,10.604515869140625,6.233892440795898,3.800149440765381,0.9452507495880127
1695712786306536000,10.614535888671876,6.058374404907227,3.675839900970459,0.7408055067062378
1695712786316556000,10.62455615234375,5.841203212738037,3.809323787689209,0.5300328731536865
1695712786326605300,10.634605224609375,5.707679271697998,4.2233428955078125,0.1626873016357422
1695712786336654600,10.644654541015624,5.529780864715576,4.77121639251709,-0.22007417678833008
1695712786346704100,10.6547041015625,5.1398701667785645,5.218733787536621,-0.4648289680480957
1695712786356753400,10.66475341796875,4.659739971160889,5.306642532348633,-0.5581259727478027
1695712786366802700,10.674802734375,3.9473142623901367,5.071569442749023,-0.5230209827423096
1695712786376852200,10.684852294921875,3.169485092163086,4.667946815490723,-0.2930564880371094
1695712786386901500,10.694901611328126,2.2024319171905518,4.297040939331055,0.06893205642700195
1695712786396950800,10.70495068359375,0.6688177585601807,3.9901089668273926,0.2589852809906006
1695712786407000300,10.715000244140626,-1.1580801010131836,3.4504923820495605,0.12308740615844727
1695712786417016800,10.725016845703125,-4.228405952453613,2.4694504737854004,-0.5243144035339355
1695712786427030500,10.735030517578124,-11.12902545928955,0.22548675537109375,-2.0954842567443848
1695712786437044200,10.745044189453125,-16.694665908813477,-3.7109737396240234,-4.3812336921691895
1695712786447058000,10.755057861328124,-14.946011543273926,-9.290980339050293,-6.064375877380371
1695712786457071600,10.765071533203125,-13.543076515197754,-14.882959365844727,-6.860949516296387
1695712786467085300,10.775085205078126,-10.253836631774902,-14.779536247253418,-5.314975738525391
1695712786477099000,10.78509912109375,-4.505002975463867,-10.262858390808105,-3.0671608448028564
1695712786487112700,10.79511279296875,-2.0390584468841553,-5.996540069580078,-2.005324125289917
1695712786497126400,10.80512646484375,-1.5597710609436035,-2.381917953491211,-1.0907728672027588
1695712786507140000,10.81514013671875,-2.176131248474121,0.6078939437866211,-0.39108967781066895
1695712786517160700,10.82516064453125,-3.705718994140625,2.743985652923584,-1.7076809406280518
1695712786527198000,10.835197998046874,-3.9593005180358887,2.583805561065674,-3.5668396949768066
1695712786537235200,10.845235107421875,-1.289902687072754,0.13351202011108398,-3.5970544815063477
1695712786547272400,10.8552724609375,6.625330924987793,-2.2847890853881836,-0.07568907737731934
1695712786557309700,10.865309814453125,11.48444938659668,-3.1928911209106445,3.6704916954040527
1695712786567347000,10.875346923828126,14.374311447143555,-2.3593978881835938,5.387630939483643
1695712786577384200,10.88538427734375,16.090030670166016,-0.9015178680419922,5.800015449523926
1695712786587421400,10.89542138671875,11.986555099487305,0.8817005157470703,4.02886962890625
1695712786597458700,10.905458740234375,3.9158170223236084,2.190023422241211,1.8791477680206299
1695712786607496000,10.915495849609375,0.2542874813079834,2.587062358856201,-0.6221535205841064
1695712786617533200,10.925533203125,3.6081082820892334,1.8529014587402344,-2.862154722213745
1695712786627555800,10.935555908203124,7.398865699768066,0.9937753677368164,-4.187939643859863
1695712786637588700,10.945588623046875,7.815757751464844,0.3084077835083008,-4.531866073608398
1695712786647621400,10.955621337890625,5.315215110778809,-1.0143756866455078,-3.7310633659362793
1695712786657654000,10.965654052734376,2.48507022857666,-2.393827438354492,-2.0745298862457275
1695712786667686700,10.975686767578125,1.8416228294372559,-2.7919301986694336,-0.35260605812072754
1695712786677719600,10.985719482421874,2.374272346496582,-2.3901023864746094,1.1539864540100098
1695712786687752200,10.995752197265626,2.7715909481048584,-1.7704534530639648,2.3407065868377686
1695712786697784800,11.005784912109375,2.5475308895111084,-1.4201107025146484,2.8816449642181396
1695712786707817500,11.0158173828125,2.0045528411865234,-1.2178716659545898,2.4796154499053955
1695712786717850000,11.02585009765625,1.5007808208465576,-0.48290348052978516,2.059854745864868
1695712786727874300,11.035874267578125,1.2020795345306396,-0.7089138031005859,2.2925620079040527
1695712786737905400,11.045905517578126,1.2315483093261719,-0.13442230224609375,1.3359227180480957
1695712786747936300,11.055936279296875,1.284942626953125,0.5144596099853516,1.4688369035720825
1695712786757967400,11.06596728515625,1.4011825323104858,0.3675041198730469,1.2726285457611084
1695712786767998200,11.075998291015624,1.007850170135498,0.566899299621582,1.2484138011932373
1695712786778029000,11.086029052734375,0.5913077592849731,0.9588451385498047,1.18837308883667
1695712786788060200,11.09606005859375,-0.047110170125961304,1.3539748191833496,0.843132495880127
1695712786798091000,11.106091064453125,-1.157904863357544,1.6820669174194336,0.2998950481414795
1695712786808121900,11.116121826171875,-2.317112684249878,1.6630620956420898,-0.04842877388000488
1695712786818153000,11.126153076171875,-3.2258529663085938,1.5048646926879883,-0.30161356925964355
1695712786828182500,11.1361826171875,-3.1782290935516357,1.4802331924438477,-0.2842533588409424
1695712786838239200,11.1462392578125,-2.9347150325775146,1.3286409378051758,-0.2787599563598633
1695712786848295700,11.156295654296875,-2.1863839626312256,1.0582427978515625,0.25179266929626465
1695712786858352400,11.166352294921875,-1.2888379096984863,0.7939090728759766,0.6328165531158447
1695712786868408800,11.176408935546876,-0.5236420631408691,0.6848249435424805,1.0070769786834717
1695712786878465500,11.186465576171875,0.07376933097839355,0.6173620223999023,1.3386470079421997
1695712786888522000,11.19652197265625,0.41542792320251465,0.6811704635620117,1.4631532430648804
1695712786898578700,11.20657861328125,0.40049898624420166,0.5440654754638672,1.6143239736557007
1695712786908605000,11.21660498046875,0.40173840522766113,0.05750560760498047,1.9027336835861206
1695712786918617300,11.226617431640625,-0.1759713888168335,-0.8586282730102539,2.0886244773864746
1695712786928630000,11.236630126953125,-1.5996980667114258,-1.7326650619506836,2.42448353767395
1695712786938642400,11.246642333984376,-3.3542819023132324,-1.9318695068359375,2.8246328830718994
1695712786948655000,11.256655029296875,-5.371287822723389,-2.0393009185791016,3.261909008026123
1695712786958667800,11.266667724609375,-6.879384994506836,-2.41953182220459,3.580801248550415
1695712786968680200,11.27668017578125,-6.511993408203125,-3.0993080139160156,3.971884250640869
1695712786978692900,11.28669287109375,-4.517977714538574,-3.513418197631836,3.8970627784729004
1695712786988705300,11.296705322265625,-2.755556106567383,-3.330493927001953,3.3576698303222656
1695712786998718000,11.306718017578126,-1.5884491205215454,-3.1038856506347656,3.031139612197876
1695712787008745500,11.316745361328126,-1.1780445575714111,-3.6550512313842773,3.25079083442688
1695712787018779600,11.326779541015625,-1.631872534751892,-4.745641708374023,3.0823869705200195
1695712787028813600,11.3368134765625,-2.4150259494781494,-5.191483497619629,2.2442588806152344
1695712787038847700,11.34684765625,-3.990657329559326,-5.3752946853637695,1.1125657558441162
1695712787048881700,11.356881591796874,-5.892370700836182,-5.425005912780762,-0.3665487766265869
1695712787058915800,11.366915771484376,-7.098793029785156,-4.634213447570801,-0.761939287185669
1695712787068950000,11.376949951171875,-7.000769138336182,-3.711986541748047,1.0276626348495483
1695712787078984000,11.38698388671875,-5.521109580993652,-3.4927873611450195,2.8742949962615967
1695712787089018000,11.39701806640625,-3.980050802230835,-3.389179229736328,3.705068826675415
1695712787099052000,11.407052001953126,-2.910998821258545,-2.750765800476074,3.332707405090332
1695712787109080600,11.41708056640625,-1.7729525566101074,-2.1488494873046875,1.8609931468963623
1695712787119112700,11.42711279296875,0.11371690034866333,-2.2680015563964844,-0.0184171199798584
1695712787129144800,11.437144775390625,2.364954710006714,-2.5471677780151367,-1.7337489128112793
1695712787139177000,11.447177001953126,3.373596429824829,-3.426093101501465,-3.07281494140625
1695712787149209000,11.457208984375,3.3311307430267334,-4.112729072570801,-4.001333236694336
1695712787159241200,11.4672412109375,2.9135773181915283,-4.027838706970215,-4.4709625244140625
1695712787169273300,11.4772734375,2.3072080612182617,-3.7602367401123047,-4.50947380065918
1695712787179305200,11.48730517578125,2.5757369995117188,-3.5106124877929688,-4.500513553619385
1695712787189337300,11.49733740234375,3.4366748332977295,-3.107114791870117,-3.8690075874328613
1695712787199369500,11.507369384765624,2.5735630989074707,-2.622030258178711,-3.2248637676239014
1695712787209401600,11.517401611328125,2.2158114910125732,-2.209282875061035,-2.5842697620391846
1695712787219431700,11.527431640625,0.6871955394744873,-2.1036033630371094,-1.8609583377838135
1695712787229468700,11.53746875,-0.21325981616973877,-2.067445755004883,-0.8781118392944336
1695712787239505700,11.547505615234375,1.7235198020935059,-1.5142822265625,0.13476073741912842
1695712787249543000,11.55754296875,3.2618472576141357,-0.8962783813476562,1.3495068550109863
1695712787259580000,11.567579833984375,4.53041410446167,-0.4350910186767578,2.3463966846466064
1695712787269617000,11.577616943359375,5.020219802856445,0.07218456268310547,2.7956061363220215
1695712787279654000,11.58765380859375,5.254126071929932,0.8462238311767578,2.553152561187744
1695712787289691100,11.597691162109374,5.090846061706543,2.0305213928222656,1.9171710014343262
1695712787299728100,11.60772802734375,5.467716693878174,3.3819146156311035,1.3500614166259766
1695712787309765000,11.61776513671875,5.95564079284668,4.343275547027588,0.8037968277931213
1695712787319798300,11.62779833984375,6.296228408813477,4.907997131347656,0.4258478879928589
1695712787329845500,11.637845458984375,6.306084632873535,4.8099365234375,-0.03820371627807617
1695712787339893000,11.64789306640625,6.16729736328125,4.916664123535156,-0.45600879192352295
1695712787349940500,11.6579404296875,5.969396591186523,4.972039222717285,-0.6115577220916748
1695712787359988000,11.667988037109374,5.834189414978027,4.898978233337402,-0.6572015285491943
1695712787370035500,11.678035400390625,5.538819789886475,4.7693986892700195,-0.6788091659545898
1695712787380082700,11.688082763671876,5.215648174285889,4.8262529373168945,-1.0571117401123047
1695712787390130200,11.698130126953124,4.962815761566162,5.02445125579834,-1.447145938873291
1695712787400177700,11.708177734375,4.566694259643555,5.284327507019043,-1.7486865520477295
1695712787410207700,11.718207763671876,4.036421298980713,5.366429328918457,-1.8420789241790771
1695712787420227300,11.728227294921876,3.4087014198303223,5.224780082702637,-1.7217812538146973
1695712787430247000,11.738246826171874,2.8103387355804443,5.000261306762695,-1.3365402221679688
1695712787440266500,11.7482666015625,1.9725090265274048,4.826936721801758,-0.9284958839416504
1695712787450286000,11.7582861328125,0.7931265830993652,4.692845344543457,-0.7219123840332031
1695712787460305700,11.7683056640625,-0.3457350730895996,4.460555076599121,-0.5726573467254639
1695712787470325200,11.7783251953125,-2.7707996368408203,3.801826000213623,-0.5267062187194824
1695712787480344800,11.7883447265625,-10.29898452758789,1.5261735916137695,-1.0356242656707764
1695712787490364400,11.798364501953126,-19.264541625976562,-2.276073455810547,-2.5651872158050537
1695712787500384300,11.80838427734375,-17.779823303222656,-7.663541793823242,-3.738677740097046
1695712787510403800,11.81840380859375,-14.389081954956055,-15.316495895385742,-3.679462432861328
1695712787520433700,11.82843359375,-10.970195770263672,-19.038986206054688,-2.9068775177001953
1695712787530462700,11.838462646484375,-4.687499046325684,-14.104460716247559,-1.464505910873413
1695712787540491800,11.84849169921875,-0.4827706813812256,-7.782001495361328,-0.29483532905578613
1695712787550520800,11.858520751953124,0.39855360984802246,-1.7164487838745117,0.5764269828796387
1695712787560550000,11.8685498046875,-0.4473276138305664,4.079461574554443,1.09047532081604
1695712787570579000,11.878578857421875,-1.1989943981170654,7.608963966369629,0.22851085662841797
1695712787580608300,11.888608154296875,-0.3174264430999756,7.423035144805908,-2.065565586090088
1695712787590637300,11.89863720703125,1.2411227226257324,4.340646743774414,-3.429269313812256
1695712787600666400,11.908666259765624,3.8985161781311035,0.8133659362792969,-2.4420032501220703
1695712787610695400,11.9186953125,7.9859747886657715,-2.4439220428466797,-0.7260544300079346
1695712787620724500,11.928724365234375,10.965689659118652,-5.25370979309082,0.01827549934387207
1695712787630755000,11.938755126953126,10.147034645080566,-6.973288536071777,0.9447305202484131
1695712787640788000,11.9487880859375,3.8774452209472656,-7.340327262878418,1.4513875246047974
1695712787650821000,11.958821044921875,1.598010778427124,-5.575628280639648,-0.10179519653320312
1695712787660854300,11.968854248046876,5.309006690979004,-2.847013473510742,-1.190943717956543
1695712787670887400,11.978887451171875,7.765861511230469,-0.3359861373901367,-1.2566089630126953
1695712787680920600,11.988920654296875,8.232943534851074,1.9546585083007812,-1.6491358280181885
1695712787690953500,11.998953369140626,7.687159538269043,4.201313495635986,-2.4838621616363525
1695712787700986600,12.008986572265625,6.34681510925293,5.234087944030762,-2.8154826164245605
1695712787711019800,12.019019775390625,5.204868316650391,4.74973201751709,-1.9352569580078125
1695712787721053000,12.029052978515624,4.449965476989746,2.753978729248047,-0.302142858505249
1695712787731085800,12.0390859375,3.6320011615753174,0.21527481079101562,0.8924412727355957
1695712787741120000,12.0491201171875,2.7663002014160156,-2.1188125610351562,1.6962262392044067
1695712787751174100,12.059174072265625,1.6264595985412598,-3.760260581970215,1.7532204389572144
1695712787761228300,12.069228271484375,1.0397453308105469,-4.209501266479492,1.8823460340499878
1695712787771282400,12.079282470703125,0.7910672426223755,-4.094057083129883,1.9512372016906738
1695712787781336600,12.089336669921876,1.0244011878967285,-2.376816749572754,1.9408578872680664
1695712787791390500,12.099390380859376,1.1621723175048828,-0.6870479583740234,1.8142776489257812
1695712787801444600,12.109444580078126,0.7425423860549927,0.610072135925293,1.9422202110290527
1695712787811498800,12.119498779296874,0.6883200407028198,1.4115948677062988,2.1280505657196045
1695712787821552600,12.129552734375,0.6972888112068176,1.7587575912475586,1.7223293781280518
1695712787831586800,12.1395869140625,0.6155508756637573,1.8957691192626953,0.7757716178894043
1695712787841602600,12.1496025390625,-0.039259523153305054,1.9697198867797852,0.019829511642456055
1695712787851636700,12.15963671875,-1.1264264583587646,1.8235406875610352,-0.38008737564086914
1695712787861534200,12.1695341796875,-1.6777386665344238,1.6644659042358398,-0.24167513847351074
1695712787871557600,12.1795576171875,-1.906424641609192,1.4933156967163086,0.053383827209472656
1695712787881733400,12.1897333984375,-2.00321102142334,1.1568374633789062,0.3568534851074219
1695712787891766500,12.1997666015625,-1.812242031097412,0.7280893325805664,0.7399716377258301
1695712787901789700,12.209789794921875,-1.195863962173462,0.3752756118774414,1.0259387493133545
1695712787911835400,12.21983544921875,-0.20292174816131592,0.3227825164794922,1.2540959119796753
1695712787921866800,12.22986669921875,0.41669225692749023,0.45023250579833984,1.2808951139450073
1695712787931890200,12.23989013671875,0.48367154598236084,0.5749483108520508,1.260558009147644
1695712787941926000,12.24992578125,0.37165796756744385,0.7051563262939453,1.1611320972442627
1695712787951961600,12.259961669921875,-0.020467519760131836,0.4526214599609375,1.0255944728851318
1695712787961984800,12.26998486328125,-0.6277561187744141,-0.1241598129272461,0.9504413604736328
1695712787971986200,12.279986083984374,-1.5432631969451904,-0.7980146408081055,0.9724676609039307
1695712787982050000,12.290050048828125,-2.8565444946289062,-1.2943859100341797,1.0975675582885742
1695712787992077600,12.30007763671875,-4.521173477172852,-1.3829851150512695,1.207198143005371
1695712788002109400,12.310109375,-5.889481544494629,-1.3422460556030273,1.4759714603424072
1695712788012141300,12.320141357421875,-6.3907647132873535,-1.8488826751708984,2.1866512298583984
1695712788022169000,12.330169189453125,-5.258551120758057,-2.947296142578125,3.0454466342926025
1695712788032197400,12.340197265625,-3.2160444259643555,-3.617818832397461,3.170588731765747
1695712788042246000,12.350245849609376,-1.2671785354614258,-3.266416549682617,2.8226523399353027
1695712788052273700,12.360273681640624,-0.4423501491546631,-2.328876495361328,2.4803860187530518
1695712788062322000,12.370322021484375,-0.8179061412811279,-2.3593082427978516,2.9163339138031006
1695712788072348400,12.380348388671875,-1.8029215335845947,-3.127760887145996,3.2873330116271973
1695712788082376200,12.390376220703125,-2.7605724334716797,-3.864577293395996,2.645172357559204
1695712788092403000,12.40040283203125,-3.5553972721099854,-4.010374069213867,1.6660717725753784
1695712788102442200,12.410442138671876,-4.614637851715088,-4.373822212219238,0.7798173427581787
1695712788112470000,12.420469970703126,-5.469454765319824,-5.0966339111328125,-0.13937926292419434
1695712788122502000,12.430501953125,-5.755805492401123,-4.979135513305664,0.43752145767211914
1695712788132527400,12.44052734375,-6.190900802612305,-4.093802452087402,2.1178901195526123
1695712788142543400,12.45054345703125,-6.122627258300781,-3.176525115966797,3.4781899452209473
1695712788152559600,12.4605595703125,-4.620004653930664,-2.3343687057495117,4.033757209777832
1695712788162576000,12.470575927734375,-2.619235038757324,-1.343581199645996,3.4528398513793945
1695712788172591900,12.480591796875,-1.4939472675323486,-1.085219383239746,1.8435578346252441
1695712788182608100,12.490608154296876,0.8062030076980591,-1.2441978454589844,0.03076910972595215
1695712788192624000,12.5006240234375,3.060955762863159,-2.0713186264038086,-1.4305777549743652
1695712788202640400,12.510640380859375,3.55029034614563,-3.003419876098633,-2.1533119678497314
1695712788212656600,12.52065673828125,3.174470901489258,-4.13663387298584,-2.295377492904663
1695712788222672600,12.530672607421875,2.866445541381836,-4.651460647583008,-2.5776305198669434
1695712788232689000,12.54068896484375,2.476114273071289,-4.800251007080078,-2.673121213912964
1695712788242715400,12.55071533203125,3.7877559661865234,-4.719062805175781,-2.0285894870758057
1695712788252747000,12.5607470703125,3.172264575958252,-4.167567253112793,-1.1382699012756348
1695712788262779000,12.57077880859375,2.9959535598754883,-3.4610958099365234,-0.38614916801452637
1695712788272810800,12.580810791015624,2.0675458908081055,-3.296346664428711,0.2103135585784912
1695712788282842600,12.590842529296875,0.33117008209228516,-3.0144453048706055,0.7894078493118286
1695712788292874200,12.600874267578124,1.1726038455963135,-2.5140037536621094,1.1058183908462524
1695712788302906000,12.610906005859375,2.3395190238952637,-1.7386713027954102,1.2686080932617188
1695712788312938000,12.62093798828125,3.4384260177612305,-1.074859619140625,1.6924136877059937
1695712788322969900,12.630969970703125,4.668884754180908,-0.38649845123291016,2.0074691772460938
1695712788333001500,12.64100146484375,5.009204864501953,0.72930908203125,2.089029550552368
1695712788343034000,12.6510341796875,5.047633171081543,1.8475980758666992,1.6453086137771606
1695712788353097000,12.661096923828126,5.065629959106445,3.027270793914795,1.0660436153411865
1695712788363159600,12.67115966796875,5.3721442222595215,3.807182788848877,0.7229963541030884
1695712788373222100,12.68122216796875,5.858190536499023,4.2913994789123535,0.5583244562149048
1695712788383284700,12.69128466796875,5.989206314086914,4.53346061706543,0.28818249702453613
1695712788393347300,12.701347412109374,5.8782525062561035,4.800860404968262,0.18232381343841553
1695712788403410200,12.71141015625,5.787698268890381,4.940518379211426,0.1832277774810791
1695712788413439700,12.721439697265625,5.701345920562744,4.926569938659668,0.20944428443908691
1695712788423456800,12.731456787109375,5.586807727813721,4.75833797454834,0.2892594337463379
1695712788433474000,12.74147412109375,5.391331672668457,4.39848518371582,0.33898091316223145
1695712788443491300,12.7514912109375,5.017558574676514,4.091188430786133,-0.033733367919921875
1695712788453508600,12.761508544921876,4.784912109375,3.96759033203125,-0.7122049331665039
1695712788463526000,12.77152587890625,4.4902215003967285,4.013792037963867,-1.379377841949463
1695712788473543200,12.781543212890625,4.11238956451416,4.1335859298706055,-1.8993234634399414
1695712788483560400,12.791560546875,3.5659501552581787,4.105014801025391,-2.0175366401672363
1695712788493577700,12.80157763671875,2.878917694091797,4.0631585121154785,-1.9446017742156982
1695712788503595000,12.811594970703124,2.0555591583251953,3.984497547149658,-1.7650277614593506
1695712788513612000,12.821612060546874,0.80246901512146,3.8534979820251465,-1.6238024234771729
1695712788523641600,12.8316416015625,-0.2585563659667969,3.658381938934326,-1.4332423210144043
1695712788533671200,12.841671142578125,-2.269594192504883,3.1099495887756348,-1.2065722942352295
1695712788543700500,12.851700439453126,-7.734590530395508,1.0129928588867188,-1.2855653762817383
1695712788553730000,12.86172998046875,-15.225358963012695,-2.1494569778442383,-1.775325059890747
1695712788563759400,12.87175927734375,-17.185380935668945,-5.97666072845459,-2.253783702850342
1695712788573788700,12.88178857421875,-13.573975563049316,-11.164072036743164,-2.1463727951049805
1695712788583818200,12.891818359375,-11.184873580932617,-15.566545486450195,-1.4134559631347656
1695712788593847600,12.90184765625,-7.169961929321289,-14.359399795532227,-0.3947560787200928
1695712788603877000,12.911877197265625,-2.939094066619873,-9.040594100952148,0.1990034580230713
1695712788613906400,12.921906494140625,-1.7425563335418701,-3.5276222229003906,0.947540283203125
1695712788623936300,12.931936279296876,-1.9158546924591064,1.5252313613891602,1.9935654401779175
1695712788633966000,12.941966064453124,-1.2271945476531982,4.870125770568848,2.2589428424835205
1695712788643996200,12.95199609375,0.31056809425354004,5.282318115234375,0.725593090057373
1695712788654026200,12.962026123046876,1.1402292251586914,3.9052271842956543,-0.13998913764953613
1695712788664056300,12.972056396484374,2.3711342811584473,1.1974267959594727,0.4763450622558594
1695712788674086400,12.98208642578125,7.205589771270752,-1.980198860168457,1.708648681640625
1695712788684116200,12.9921162109375,11.767560958862305,-4.293887138366699,2.035393714904785
1695712788694146300,13.002146240234374,11.175793647766113,-5.066707611083984,1.3602426052093506
1695712788704176400,13.01217626953125,6.150655269622803,-4.593094825744629,0.7710084915161133
1695712788714206500,13.02220654296875,0.9743639230728149,-2.827939987182617,-0.6220223903656006
1695712788724237800,13.03223779296875,1.2019425630569458,-0.8403682708740234,-3.090268611907959
1695712788734276600,13.042276611328125,5.044988632202148,1.075566291809082,-5.224047660827637
1695712788744315400,13.0523154296875,7.48148250579834,3.222085475921631,-5.840422630310059
1695712788754354400,13.0623544921875,7.548153877258301,4.540439128875732,-5.980930328369141
1695712788764393500,13.0723935546875,5.350086212158203,4.82044792175293,-6.0704450607299805
1695712788774432300,13.082432373046874,2.5058679580688477,4.45558500289917,-5.282190799713135
1695712788784471300,13.09247119140625,2.7333836555480957,2.899515151977539,-2.829766273498535
1695712788794510000,13.102510009765625,4.424579620361328,0.28952503204345703,-0.2713761329650879
1695712788804549000,13.112549072265624,4.258286952972412,-1.9657182693481445,1.4591232538223267
1695712788814588000,13.122587890625,2.6429827213287354,-3.4866456985473633,2.304619550704956
1695712788824622600,13.13262255859375,1.150348424911499,-4.221380233764648,2.406972885131836
1695712788834674000,13.142673828125,0.7695924639701843,-3.991957664489746,2.4081878662109375
1695712788844725200,13.152725341796875,1.4084111452102661,-3.2966394424438477,2.5442659854888916
1695712788854776600,13.162776611328125,1.8963170051574707,-1.7097711563110352,2.2796759605407715
1695712788864828000,13.172827880859375,1.605151653289795,-0.47608280181884766,1.7880055904388428
1695712788874879200,13.182879150390624,1.1495354175567627,0.6763324737548828,1.5213496685028076
1695712788884930600,13.1929306640625,0.8335593938827515,1.7570428848266602,1.406854271888733
1695712788894982000,13.20298193359375,0.8915745615959167,2.5327377319335938,1.53639817237854
1695712788905016600,13.2130166015625,1.2315683364868164,2.8518505096435547,1.6086170673370361
1695712788915044600,13.223044677734375,1.0213916301727295,2.769113540649414,1.3717433214187622
1695712788925072600,13.23307275390625,-0.07386964559555054,2.2051029205322266,1.0113822221755981
1695712788934946300,13.2429462890625,-1.228212833404541,1.6879091262817383,0.896613597869873
1695712788944967200,13.25296728515625,-2.2367138862609863,0.9883079528808594,1.0094009637832642
1695712788954998000,13.262998046875,-2.7008705139160156,0.28908443450927734,1.072851538658142
1695712788965020000,13.27302001953125,-2.0845844745635986,-0.16225147247314453,1.4879604578018188
1695712788975062000,13.28306201171875,-1.262380838394165,-0.36733055114746094,1.7102441787719727
1695712788985086000,13.2930859375,-0.5602837204933167,-0.20825958251953125,1.662381649017334
1695712788995131100,13.303131103515625,-0.06742894649505615,0.05522632598876953,1.507896065711975
1695712789005157000,13.3131572265625,-0.06285512447357178,0.48564720153808594,1.4728974103927612
1695712789015193600,13.323193603515625,-0.41248297691345215,0.6446380615234375,1.454652190208435
1695712789025220600,13.333220703125,-1.190537452697754,0.6400289535522461,1.2761138677597046
1695712789035255000,13.343255126953125,-2.280301570892334,0.5449972152709961,0.8273847103118896
1695712789045283000,13.353282958984375,-3.196666717529297,0.36405277252197266,0.6024835109710693
1695712789055323100,13.3633232421875,-3.960247039794922,0.17748165130615234,0.38962364196777344
1695712789065352200,13.373352294921874,-5.226397514343262,-0.4262237548828125,0.5325014591217041
1695712789075383000,13.383383056640625,-5.040434837341309,-1.2999601364135742,1.1581225395202637
1695712789085412000,13.393412109375,-3.7376036643981934,-2.6080617904663086,2.061832904815674
1695712789095484700,13.403484619140626,-2.594700336456299,-3.4529294967651367,2.601855754852295
1695712789105518300,13.413518310546875,-2.0214221477508545,-3.690305709838867,3.0385549068450928
1695712789115547600,13.423547607421876,-2.0182011127471924,-4.094578742980957,3.607569694519043
1695712789125581000,13.4335810546875,-3.0656778812408447,-5.08528995513916,4.164798736572266
1695712789135611000,13.44361083984375,-4.60420560836792,-5.716789245605469,4.178167819976807
1695712789145643500,13.4536435546875,-5.920231342315674,-5.765804290771484,3.358962059020996
1695712789155671300,13.46367138671875,-6.918540000915527,-6.484235763549805,1.5469526052474976
1695712789406633500,13.714633544921876,5.4054036140441895,3.920226573944092,1.2767667770385742
1695712789416648000,13.72464794921875,5.449103355407715,4.533415794372559,0.8081815242767334
1695712789426662400,13.734662353515626,5.774299621582031,5.096403121948242,0.5708521604537964
1695712789436676900,13.7446767578125,6.287832260131836,5.284236907958984,0.384418249130249
1695712789446691300,13.75469140625,6.29727029800415,5.231426239013672,0.18693161010742188
1695712789456705800,13.764705810546875,6.182506561279297,5.032261848449707,0.01292729377746582
1695712789466720300,13.77472021484375,6.051230430603027,4.754936218261719,0.0392146110534668
1695712789476734500,13.784734375,5.85206413269043,4.411838531494141,0.19743704795837402
1695712789486749000,13.7947490234375,5.514246940612793,4.405502796173096,0.30309486389160156
1695712789496763400,13.804763427734375,5.252575874328613,4.553123474121094,0.22829794883728027
1695712789506797600,13.814797607421875,4.924117565155029,4.798843860626221,0.12688660621643066
1695712789516827600,13.82482763671875,4.687976360321045,4.812539100646973,0.06908011436462402
1695712789526857700,13.834857666015624,4.324134349822998,4.603384971618652,0.09304618835449219
1695712789536887800,13.8448876953125,3.647733211517334,4.107154846191406,0.29479551315307617
1695712789546918000,13.85491796875,2.7707037925720215,3.6448493003845215,0.7489302158355713
1695712789556948000,13.864947998046874,1.10878324508667,3.505462169647217,1.017134428024292
1695712789566978000,13.87497802734375,-0.9527921676635742,3.386568546295166,1.1224300861358643
1695712789577007900,13.8850078125,-3.2590112686157227,2.8246712684631348,0.9819049835205078
1695712789587038000,13.895037841796874,-8.257511138916016,1.4581995010375977,0.2017967700958252
1695712789597068000,13.905068115234375,-16.592140197753906,-0.9269723892211914,-2.255122184753418
1695712789607098000,13.91509814453125,-15.544610977172852,-4.384621620178223,-5.029489040374756
1695712789617132300,13.92513232421875,-14.143145561218262,-10.359865188598633,-7.6355485916137695
1695712789627167000,13.9351669921875,-13.848489761352539,-16.749692916870117,-7.810144424438477
1695712789637201400,13.945201416015625,-7.120128631591797,-15.952092170715332,-3.883474111557007
1695712789647236000,13.955236083984374,-2.1430935859680176,-10.749396324157715,-0.5496912002563477
1695712789657270500,13.9652705078125,-1.2153875827789307,-5.276462554931641,1.0351133346557617
1695712789667305000,13.975304931640625,-1.3739173412322998,-0.3359651565551758,1.3972082138061523
1695712789677339600,13.985339599609375,-1.7929248809814453,3.002800464630127,0.5547308921813965
1695712789687374000,13.9953740234375,-1.1659424304962158,4.381172180175781,-0.67391037940979
1695712789697408500,14.005408447265625,-0.876492977142334,3.7424798011779785,-1.239638090133667
1695712789707443200,14.015443115234374,-1.1792690753936768,0.6355352401733398,-0.5933389663696289
1695712789717477600,14.0254775390625,0.30133891105651855,-3.3748531341552734,0.9880664348602295
1695712789727511600,14.035511474609375,6.726639747619629,-6.4830827713012695,3.043947458267212
1695712789737544200,14.045544189453125,10.185593605041504,-6.527529716491699,3.9936130046844482
1695712789747576800,14.055576904296874,10.459623336791992,-3.5925846099853516,3.440523147583008
1695712789757609200,14.065609130859375,10.441088676452637,0.8361415863037109,1.680227279663086
1695712789767641900,14.075641845703124,8.989567756652832,4.25433874130249,-1.110626459121704
1695712789777674200,14.08567431640625,4.620473861694336,5.756893157958984,-4.057060718536377
1695712789787707000,14.095706787109375,1.8330090045928955,6.620823860168457,-6.14366340637207
1695712789797739500,14.105739501953124,3.6942431926727295,6.069293022155762,-5.614706039428711
1695712789807772000,14.11577197265625,5.8738179206848145,4.244494915008545,-3.778790235519409
1695712789817804500,14.125804443359375,6.604296684265137,1.4272346496582031,-1.8586299419403076
1695712789827841000,14.135841064453125,5.393744468688965,-1.631998062133789,-0.16599798202514648
1695712789837889800,14.145889892578126,3.4983901977539062,-4.070564270019531,1.4268033504486084
1695712789847938300,14.155938232421875,2.1569249629974365,-4.713295936584473,1.9208096265792847
1695712789857986800,14.16598681640625,2.1676383018493652,-4.38720703125,1.9065638780593872
1695712789868035600,14.17603564453125,1.9391412734985352,-3.9043664932250977,2.177596092224121
1695712789878084000,14.186083984375,2.0333826541900635,-3.3778324127197266,2.591761827468872
1695712789888132600,14.196132568359374,2.2510738372802734,-2.584536552429199,2.480513334274292
1695712789898181000,14.20618115234375,2.2135887145996094,-1.5537910461425781,1.9802457094192505
1695712789908230000,14.21622998046875,2.009312629699707,-0.3633413314819336,1.7463701963424683
1695712789918262500,14.226262451171875,1.932998776435852,0.4372682571411133,1.7618168592453003
1695712789928279800,14.23627978515625,1.6466350555419922,1.1895103454589844,1.823517918586731
1695712789938296800,14.246296875,1.1520557403564453,1.7353849411010742,1.5857659578323364
1695712789948313900,14.25631396484375,0.48009324073791504,1.8874902725219727,1.4572418928146362
1695712789958331000,14.266330810546876,-0.07157853245735168,1.9628849029541016,1.2791385650634766
1695712789968348000,14.276347900390626,-1.0813865661621094,2.043832778930664,0.8114204406738281
1695712789978365000,14.286364990234375,-1.919666051864624,1.8589839935302734,0.6019628047943115
1695712789988382200,14.29638232421875,-2.5514779090881348,1.6164684295654297,0.41899752616882324
1695712789998399200,14.306399169921875,-2.832157611846924,1.264453411102295,0.14070463180541992
1695712790008416300,14.316416259765624,-2.504727363586426,1.035353660583496,0.18223929405212402
1695712790018433300,14.326433349609376,-1.847821593284607,1.1322393417358398,0.4864490032196045
1695712790028466200,14.336466064453125,-1.2292852401733398,1.1765170097351074,0.7887759208679199
1695712790038499000,14.3464990234375,-0.8931027054786682,1.3942241668701172,0.9227317571640015
1695712790048532000,14.356531982421876,-0.6269762516021729,1.499619483947754,0.9278222322463989
1695712790058564600,14.366564697265625,-0.46148133277893066,1.2489213943481445,0.5290317535400391
1695712790068597500,14.376597412109374,-0.38729631900787354,0.565185546875,0.055590152740478516
1695712790078630400,14.38663037109375,-0.3994770050048828,-0.5465898513793945,-0.23693156242370605
1695712790088663300,14.396663330078125,-1.0520719289779663,-1.7501602172851562,-0.16364407539367676
1695712790098696200,14.4066962890625,-2.5179004669189453,-2.479982376098633,0.302844762802124
1695712790108729000,14.41672900390625,-4.710542678833008,-2.5731287002563477,1.0884966850280762
1695712790118762000,14.426761962890625,-6.694520950317383,-2.6920089721679688,2.2584762573242188
1695712790128795000,14.436794921875,-7.257871627807617,-3.040926933288574,3.450425863265991
1695712790138827300,14.4468271484375,-6.356893539428711,-3.451909065246582,4.131007194519043
1695712790148857900,14.45685791015625,-4.651674747467041,-3.4761877059936523,4.178389549255371
1695712790158888200,14.46688818359375,-2.7508037090301514,-3.5929641723632812,4.270524024963379
1695712790168918800,14.476918701171876,-1.7145283222198486,-4.207009315490723,4.583503246307373
1695712790178949000,14.48694921875,-2.1904823780059814,-5.440631866455078,4.609299182891846
1695712790188979700,14.496979736328125,-2.7964515686035156,-6.332928657531738,3.2646851539611816
1695712790199010300,14.50701025390625,-3.442702293395996,-6.710268020629883,1.3130764961242676
1695712790209040600,14.51704052734375,-4.768730163574219,-6.117914199829102,0.0131988525390625
1695712790219071200,14.5270712890625,-6.724078178405762,-4.9100141525268555,0.41379427909851074
1695712790229101800,14.537101806640624,-7.139407157897949,-4.256653785705566,2.2578208446502686
1695712790239132200,14.547132080078125,-5.292527675628662,-3.6337947845458984,3.2040395736694336
1695712790249164800,14.557164794921874,-3.2115063667297363,-2.8283300399780273,2.885615110397339
1695712790259197700,14.56719775390625,-2.464477062225342,-2.163498878479004,0.9308109283447266
1695712790269230800,14.57723095703125,-1.6907885074615479,-1.7856273651123047,-1.3614695072174072
1695712790279264000,14.587263916015624,0.47461557388305664,-1.8626079559326172,-3.1927037239074707
1695712790289297200,14.597297119140626,2.797271966934204,-2.5716609954833984,-4.297623157501221
1695712790299330300,14.607330322265625,3.519782543182373,-3.677400588989258,-4.899694919586182
1695712790309363200,14.61736328125,3.260441541671753,-4.295721054077148,-5.677754878997803
1695712790319396400,14.627396240234376,2.9552419185638428,-4.3365020751953125,-6.139178276062012
1695712790329429500,14.637429443359375,2.864739418029785,-4.572073936462402,-6.360141754150391
1695712790339462700,14.647462646484374,3.717352867126465,-4.615213394165039,-5.413678169250488
1695712790349495600,14.65749560546875,3.2639660835266113,-3.8717594146728516,-4.117184638977051
1695712790359534000,14.6675341796875,3.283987522125244,-3.0543346405029297,-2.788627862930298
1695712790369611000,14.677611083984376,1.1753956079483032,-2.805893898010254,-1.3799304962158203
1695712790379687700,14.687687744140625,0.296947717666626,-2.4467668533325195,0.033484458923339844
1695712790389764400,14.697764404296874,1.6067057847976685,-1.726888656616211,1.237398624420166
1695712790399841300,14.70784130859375,3.1349427700042725,-0.5630149841308594,1.5045628547668457
1695712790409856000,14.71785595703125,3.879122734069824,0.6809959411621094,1.8194953203201294
1695712790419871000,14.72787109375,4.614503860473633,1.726980209350586,2.1960442066192627
1695712790429885700,14.7378857421875,5.051452159881592,2.8605728149414062,2.2269961833953857
1695712790439900400,14.747900390625,5.013874053955078,3.9514565467834473,1.8286678791046143
1695712790449915100,14.7579150390625,4.933462142944336,4.555180549621582,1.283696174621582
1695712790459930000,14.76793017578125,5.213940620422363,4.949509620666504,0.7959593534469604
1695712790469944800,14.77794482421875,5.544119834899902,5.259642601013184,0.43485450744628906
1695712790479959600,14.78795947265625,5.886852264404297,5.359198570251465,0.10129690170288086
1695712790489974300,14.797974365234374,5.957016944885254,5.2885942459106445,-0.03118610382080078
1695712790499989000,14.807989013671875,5.862755298614502,5.2603864669799805,-0.06920647621154785
1695712790510004000,14.81800390625,5.6784491539001465,5.090482711791992,0.0519404411315918
1695712790520036900,14.828036865234376,5.267411231994629,5.108371734619141,0.13388824462890625
1695712790530070000,14.838070068359375,5.009857654571533,4.9482526779174805,0.21677660942077637
1695712790540103000,14.84810302734375,4.668034553527832,4.940365791320801,0.006967782974243164
1695712790550136000,14.858135986328126,4.340287208557129,5.100892066955566,-0.20544886589050293
1695712790560169200,14.868169189453125,3.813917636871338,5.279644966125488,-0.43482160568237305
1695712790570202400,14.878202392578125,3.563145160675049,5.271658897399902,-0.331892728805542
1695712790580235300,14.8882353515625,3.0373921394348145,4.938072204589844,-0.12774205207824707
1695712790590268400,14.898268310546875,2.111478805541992,4.5297346115112305,0.34839367866516113
1695712790600301600,14.908301513671875,0.890164852142334,3.9595437049865723,0.9294600486755371
1695712790610334700,14.918334716796876,-0.5155518054962158,3.407017230987549,1.4088358879089355
1695712790620367600,14.92836767578125,-2.495453357696533,2.7121338844299316,1.692271113395691
1695712790630400800,14.93840087890625,-7.357969760894775,1.4063844680786133,1.5262908935546875
1695712790640433700,14.94843359375,-14.716809272766113,-0.7361717224121094,-0.10661125183105469
1695712790650466600,14.958466552734375,-16.856670379638672,-3.5087623596191406,-3.003779888153076
1695712790660499500,14.96849951171875,-14.890119552612305,-8.807496070861816,-6.285983562469482
1695712790670532400,14.978532470703126,-13.103862762451172,-15.951315879821777,-7.333683013916016
1695712790680565200,14.988565185546875,-6.986025333404541,-17.78357696533203,-4.400297164916992
1695712790690598100,14.99859814453125,-1.112882137298584,-13.072168350219727,-1.03995943069458
1695712790700631000,15.008631103515626,-0.1355886459350586,-6.681672096252441,1.0695343017578125
1695712790710664000,15.018663818359375,-0.538790225982666,0.03399658203125,2.8719258308410645
1695712790720696800,15.02869677734375,-0.9289095401763916,5.095849990844727,3.5187668800354004
1695712790730729700,15.038729736328126,-0.28272318840026855,7.286316394805908,2.2381811141967773
1695712790740762400,15.048762451171875,0.15718698501586914,5.652117729187012,-0.373065710067749
1695712790750793200,15.058793212890626,1.7251412868499756,1.9593572616577148,-1.866441011428833
1695712790760823800,15.06882373046875,5.826641082763672,-1.8881025314331055,-2.029067277908325
1695712790770854700,15.078854736328125,9.757054328918457,-5.687972068786621,-2.176692008972168
1695712790780885500,15.088885498046874,7.179699420928955,-7.864675521850586,-2.8380720615386963
1695712790790916000,15.098916015625,1.8758960962295532,-7.950462341308594,-2.7870395183563232
1695712790800947000,15.108947021484376,3.4039320945739746,-4.946155548095703,-2.037708044052124
1695712790810977800,15.118977783203125,6.84088134765625,-0.8710460662841797,-1.957730770111084
1695712790821008400,15.12900830078125,7.987736701965332,2.400527000427246,-2.5436367988586426
1695712790831039200,15.139039306640624,7.824812889099121,4.550503730773926,-2.4368162155151367
1695712790841076500,15.149076416015625,7.294493675231934,5.6218061447143555,-1.7321248054504395
1695712790851137800,15.1591376953125,6.184762954711914,5.606813430786133,-1.2409334182739258
1695712790861198800,15.16919873046875,5.424765586853027,4.580963134765625,-0.43451595306396484
1695712790871260200,15.17926025390625,4.720953941345215,1.9822912216186523,0.5989720821380615
1695712790881321500,15.189321533203126,3.313512086868286,-1.2172470092773438,1.4729273319244385
1695712790891382500,15.199382568359376,2.247042655944824,-3.6669254302978516,1.952229619026184
1695712790901443800,15.20944384765625,1.9915056228637695,-5.160082817077637,1.8282312154769897
1695712790911476500,15.2194765625,2.0199697017669678,-6.380278587341309,1.4983890056610107
1695712790921491500,15.229491455078126,2.190617084503174,-6.527947425842285,2.2651450634002686
1695712790931506400,15.23950634765625,1.7986586093902588,-5.280848503112793,2.5148208141326904
