time,seconds_elapsed,z,y,x
1695712775882990800,0.190990966796875,8.571688652038574,3.923630952835083,-1.7222341299057007
1695712775893015000,0.20101513671875,8.979066848754883,3.837489366531372,-1.9286150932312012
1695712775903209200,0.211209228515625,9.462417602539062,4.143770694732666,-1.8664016723632812
1695712775913109800,0.22110986328125,10.0612211227417,4.61276388168335,-1.6600207090377808
1695712775923078100,0.231078125,10.338788032531738,4.814359188079834,-1.2149556875228882
1695712775933144300,0.241144287109375,10.094720840454102,4.685146808624268,-0.46779683232307434
1695712775943154200,0.251154296875,9.76391315460205,4.454837322235107,-0.017946170642971992
1695712775953218300,0.26121826171875,9.591629981994629,4.469194412231445,0.015553346835076809
1695712775963251000,0.2712509765625,9.266205787658691,4.607978343963623,-0.41994038224220276
1695712775973289200,0.281289306640625,8.9312105178833,4.704289436340332,-0.9278169870376587
1695712775983324200,0.29132421875,8.772686004638672,4.862215518951416,-1.4063814878463745
1695712775993371000,0.301370849609375,8.657830238342285,4.910071849822998,-1.1766705513000488
1695712776003411000,0.311410888671875,8.921639442443848,4.7234320640563965,-0.6687939167022705
1695712776013386800,0.32138671875,9.232706069946289,4.838287353515625,-0.12801600992679596
1695712776023399400,0.3313994140625,9.89850902557373,4.9292144775390625,0.4707878530025482
1695712776033475000,0.34147509765625,9.840482711791992,4.73300313949585,1.0211371183395386
1695712776043514400,0.351514404296875,9.739984512329102,4.646263599395752,1.2843475341796875
1695712776053546500,0.36154638671875,9.66819953918457,4.7712883949279785,1.3567304611206055
1695712776063582500,0.37158251953125,9.562915802001953,4.814359188079834,0.9876375198364258
1695712776073583600,0.38158349609375,9.347561836242676,4.450051784515381,0.40378883481025696
1695712776083605000,0.39160498046875,8.840283393859863,4.450051784515381,0.039481572806835175
1695712776093683000,0.401682861328125,8.370692253112793,4.670191764831543,-0.25722843408584595
1695712776103728400,0.411728271484375,7.968697547912598,4.665405750274658,0.06819544732570648
1695712776113747700,0.421747802734375,7.906484127044678,4.215555191040039,0.6574280261993408
1695712776123782000,0.431781982421875,7.436892986297607,3.9284164905548096,0.7100701332092285
1695712776133794600,0.441794677734375,6.900900363922119,3.7704901695251465,0.6430711150169373
1695712776143819800,0.45181982421875,6.479165554046631,3.813561201095581,0.7244270443916321
1695712776153878000,0.4618779296875,5.967101573944092,3.8470606803894043,0.9445667266845703
1695712776163917300,0.471917236328125,6.058028697967529,3.8949170112609863,1.179063320159912
1695712776173960200,0.481960205078125,6.120242118835449,3.851846218109131,1.236491084098816
1695712776184001000,0.4920009765625,6.172883987426758,3.7704901695251465,1.4524433612823486
1695712776193994800,0.501994873046875,5.708676815032959,4.406980991363525,1.0354939699172974
1695712776204015600,0.512015625,5.186442852020264,3.7322051525115967,1.466800332069397
1695712776214089000,0.5220888671875,4.511068820953369,3.3343982696533203,2.1367905139923096
1695712776224131800,0.5321318359375,3.778865098953247,2.6596224308013916,3.008376359939575
1695712776234132500,0.542132568359375,3.290131092071533,2.166102647781372,3.6358940601348877
1695712776244171300,0.552171142578125,2.950350284576416,1.7784653902053833,4.052245140075684
1695712776254191000,0.562191162109375,3.1130621433258057,1.1365907192230225,4.617549419403076
1695712776264227800,0.572227783203125,3.6735808849334717,0.4707878530025482,4.96211576461792
1695712776274259500,0.582259521484375,4.396213531494141,-0.09391828626394272,4.6510491371154785
1695712776284295700,0.592295654296875,5.598008632659912,-0.8745766878128052,3.7459638118743896
1695712776294312200,0.602312255859375,7.015756130218506,-1.7413766384124756,2.6398816108703613
1695712776304346400,0.612346435546875,7.911269664764404,-2.5980072021484375,1.0737791061401367
1695712776314403800,0.62240380859375,7.992625713348389,-3.311666488647461,-0.6640082597732544
1695712776324440600,0.632440673828125,7.159325122833252,-4.278964996337891,-1.6456637382507324
1695712776334469600,0.6424697265625,5.492724418640137,-5.447260856628418,-1.3872389793395996
1695712776344505300,0.65250537109375,3.2614171504974365,-6.759724140167236,-0.8273184299468994
1695712776354523400,0.6625234375,1.5182459354400635,-7.692924976348877,-0.08015955984592438
1695712776364557600,0.6725576171875,0.776470959186554,-9.527023315429688,0.6430711150169373
1695712776374591700,0.682591796875,1.4321043491363525,-10.37946605682373,0.9397810697555542
1695712776384626000,0.6926259765625,3.404986619949341,-10.427323341369629,0.6909275650978088
1695712776394660000,0.70266015625,5.708676815032959,-11.37069320678711,1.8975083827972412
1695712776404694300,0.7126943359375,6.335596084594727,-12.2135648727417,3.7842490673065186
1695712776414724000,0.72272412109375,5.373083114624023,-12.2135648727417,5.42153787612915
1695712776424757800,0.7327578125,3.7980077266693115,-12.218350410461426,9.357730865478516
1695712776434783000,0.742782958984375,3.1130621433258057,-11.160124778747559,14.591432571411133
1695712776444816000,0.75281591796875,4.094717979431152,-10.274182319641113,19.595422744750977
1695712776454849800,0.762849853515625,7.6043901443481445,-9.751948356628418,22.707887649536133
1695712776464882700,0.772882568359375,11.765508651733398,-8.770293235778809,25.461427688598633
1695712776474916900,0.782916748046875,14.892330169677734,-7.755138397216797,26.423940658569336
1695712776484950000,0.792949951171875,15.787843704223633,-5.912066459655762,25.7437801361084
1695712776494967000,0.802967041015625,13.810175895690918,-5.136193752288818,23.402402877807617
1695712776504998400,0.812998291015625,10.64507007598877,-5.399404525756836,21.338594436645508
1695712776515051500,0.823051513671875,6.752545356750488,-4.77248477935791,19.892133712768555
1695712776525085000,0.8330849609375,2.744567632675171,-3.1824541091918945,18.3314151763916
1695712776535109600,0.843109619140625,-0.1621137410402298,-1.5397813320159912,17.416757583618164
1695712776545296000,0.8532958984375,-2.599203586578369,-0.9176474809646606,16.774883270263672
1695712776555331000,0.8633310546875,-4.428516387939453,-1.2526426315307617,16.707883834838867
1695712776565364000,0.873364013671875,-6.276971817016602,-1.2957134246826172,17.488542556762695
1695712776575396900,0.88339697265625,-7.886145114898682,-1.0947163105010986,18.393627166748047
1695712776585281000,0.893281005859375,-10.313663482666016,-0.2470589429140091,19.25564193725586
1695712776595301600,0.903301513671875,-24.683759689331055,1.4859428405761719,17.75653839111328
1695712776605335600,0.91333544921875,-32.6034049987793,3.851846218109131,15.199807167053223
1695712776615357400,0.923357421875,-5.056034088134766,1.6253247261047363,18.101703643798828
1695712776625411300,0.933411376953125,0.7046862840652466,-2.1098713874816895,15.128023147583008
1695712776635436300,0.943436279296875,-1.2681959867477417,-2.8426733016967773,8.10807991027832
1695712776645473500,0.9534736328125,-1.28255295753479,-2.215155601501465,2.582453727722168
1695712776655499800,0.963499755859375,-2.1302103996276855,-2.0715861320495605,4.804189682006836
1695712776665524700,0.973524658203125,-0.06640082597732544,-1.9471594095230103,8.26121997833252
1695712776675550700,0.98355078125,0.43130627274513245,-1.5589239597320557,9.434301376342773
1695712776685598000,0.993597900390625,1.4464613199234009,-2.3156540393829346,8.414361000061035
1695712776695626200,1.003626220703125,2.217548370361328,-2.6273193359375,7.198208808898926
1695712776705664000,1.0136640625,2.0452651977539062,-3.652045488357544,7.21735143661499
1695712776715693300,1.023693359375,1.4656038284301758,-4.13060998916626,6.643074035644531
1695712776725721900,1.033721923828125,1.317248821258545,-5.4520463943481445,7.701299667358398
1695712776735751000,1.0437509765625,0.019740786403417587,-4.499104976654053,6.168696880340576
1695712776745796000,1.053796142578125,1.4368900060653687,-6.481558322906494,5.42153787612915
1695712776755826700,1.06382666015625,1.1066805124282837,-8.066802978515625,3.793820381164551
1695712776765854700,1.073854736328125,0.5030909776687622,-8.35872745513916,2.874378204345703
1695712776775885300,1.08388525390625,-1.8574285507202148,-8.306085586547852,3.1998021602630615
1695712776785916200,1.093916259765625,-2.9730820655822754,-9.21117115020752,5.292325496673584
1695712776795946800,1.10394677734375,-2.283350944519043,-10.843673706054688,7.389634609222412
1695712776805989000,1.113989013671875,-0.9188438653945923,-11.514262199401855,8.562715530395508
1695712776816021000,1.12402099609375,-0.8757730722427368,-11.868400573730469,9.712467193603516
1695712776826024200,1.134024169921875,-0.9284151792526245,-11.069197654724121,9.233304023742676
1695712776836053200,1.14405322265625,-0.607776939868927,-9.010173797607422,8.94137954711914
1695712776846106600,1.154106689453125,-0.19561325013637543,-6.500700950622559,7.5433735847473145
1695712776856138000,1.164137939453125,-0.1621137410402298,-4.810770034790039,5.9676995277404785
1695712776866176000,1.174176025390625,0.005383851006627083,-3.8673996925354004,5.196612358093262
1695712776876208000,1.1842080078125,-0.22911277413368225,-2.794816732406616,4.952544689178467
1695712776886241000,1.194240966796875,1.1162517070770264,-1.9902302026748657,4.660620212554932
1695712776896273200,1.204273193359375,2.303689956665039,-2.54536509513855,3.8943188190460205
1695712776906292000,1.2142919921875,3.160918712615967,-3.201596736907959,4.588835716247559
1695712776916322800,1.22432275390625,3.4911282062530518,-3.6323046684265137,5.388038158416748
1695712776926376000,1.2343759765625,2.878565549850464,-3.738187074661255,5.747560024261475
1695712776936409000,1.2444091796875,1.5906288623809814,-4.121038913726807,6.958926677703857
1695712776946440400,1.2544404296875,0.5611169338226318,-5.73978328704834,7.940581798553467
1695712776956473000,1.26447314453125,-0.8997012972831726,-7.41535758972168,8.711668968200684
1695712776966498600,1.27449853515625,-1.0001999139785767,-8.578866958618164,9.070592880249023
1695712776976530700,1.28453076171875,-0.3678964674472809,-8.473583221435547,8.45743179321289
1695712776986564000,1.294564208984375,0.8721838593482971,-8.105088233947754,7.016354084014893
1695712776996596200,1.30459619140625,1.058824062347412,-7.94716215133667,6.149554252624512
1695712777006601000,1.31460107421875,0.5850451588630676,-7.755138397216797,4.933402061462402
1695712777016630500,1.324630615234375,0.8099704384803772,-7.085147857666016,3.923032760620117
1695712777026690800,1.33469091796875,1.0109676122665405,-6.591628074645996,3.1615169048309326
1695712777036723500,1.344723388671875,0.8291130661964417,-6.352345943450928,2.630310297012329
1695712777046728400,1.354728515625,1.073180913925171,-6.184848308563232,1.9166508913040161
1695712777056758300,1.36475830078125,1.6241283416748047,-6.33798885345459,1.31365966796875
1695712777066818300,1.374818359375,2.145763635635376,-6.922435760498047,0.7052844762802124
1695712777076851200,1.384851318359375,3.1034910678863525,-15.498311996459961,4.05703067779541
1695712777086889200,1.39488916015625,2.830709218978882,-26.818157196044922,6.149554252624512
1695712777096922600,1.404922607421875,0.8721838593482971,-29.657840728759766,3.9565322399139404
1695712777106951400,1.414951416015625,-0.10468599200248718,-21.354745864868164,1.0929217338562012
1695712777116984300,1.424984375,-1.215553879737854,-13.721641540527344,0.4420739710330963
1695712777127015700,1.435015625,-2.0967109203338623,-9.675378799438477,-0.013160524889826775
1695712777137048300,1.44504833984375,-1.3112667798995972,-8.00937557220459,-0.2715853750705719
1695712777147079400,1.455079345703125,0.11545369029045105,-8.057231903076172,-0.2667997181415558
1695712777157111800,1.46511181640625,1.0636097192764282,-8.741579055786133,-0.46779683232307434
1695712777167146000,1.47514599609375,0.9152546525001526,-9.871589660644531,-0.6544370055198669
1695712777177178600,1.4851787109375,0.32123643159866333,-11.284551620483398,-0.875174880027771
1695712777187188700,1.495188720703125,0.41216370463371277,-12.103495597839355,-1.277169108390808
1695712777197219000,1.505218994140625,0.9678967595100403,-11.203195571899414,-1.0378868579864502
1695712777207268400,1.515268310546875,0.8434699773788452,-9.953543663024902,-0.6113662123680115
1695712777217300500,1.525300537109375,-0.30568310618400574,-9.972686767578125,0.19740787148475647
1695712777227339500,1.535339599609375,-0.18125630915164948,-10.130613327026367,1.1024930477142334
1695712777237372400,1.545372314453125,-0.052043892443180084,-10.341180801391602,1.7539390325546265
1695712777247403000,1.555403076171875,0.8721838593482971,-10.130613327026367,2.328216314315796
1695712777257435600,1.565435546875,1.5326029062271118,-9.555737495422363,2.8552355766296387
1695712777267462000,1.5754619140625,1.6863417625427246,-9.694520950317383,2.9461629390716553
1695712777277494000,1.585493896484375,1.4895321130752563,-9.718449592590332,2.534597396850586
1695712777287520800,1.595520751953125,1.0301101207733154,-9.527023315429688,1.7874385118484497
1695712777297552100,1.60555224609375,1.4608181715011597,-9.125029563903809,1.2508480548858643
1695712777307597800,1.615597900390625,1.9878374338150024,-8.952746391296387,0.6957131624221802
1695712777317630700,1.625630615234375,2.1744775772094727,-8.842676162719727,0.015553346835076809
1695712777327644000,1.635643798828125,2.1888344287872314,-8.81814956665039,-0.7070791125297546
1695712777337674800,1.6456748046875,1.8059829473495483,-9.014959335327148,-1.3680963516235352
1695712777347695000,1.655695068359375,1.0348957777023315,-9.239884376525879,-1.4159528017044067
1695712777357725000,1.665724853515625,0.24945175647735596,-9.689735412597656,-1.3920245170593262
1695712777367777500,1.675777587890625,-0.5982056856155396,-10.676176071166992,-1.334596872329712
1695712777377809700,1.6858095703125,-1.1389836072921753,-10.436894416809082,0.3367897868156433
1695712777387837000,1.6958369140625,0.005383851006627083,-10.518250465393066,0.2069791555404663
1695712777397868500,1.70586865234375,2.217548370361328,-11.073983192443848,-0.7310073375701904
1695712777407897000,1.71589697265625,1.7389838695526123,-10.805388450622559,-0.08973085135221481
1695712777417928400,1.725928466796875,0.6711867451667786,-10.484750747680664,0.11605189740657806
1695712777427955200,1.735955078125,0.2877369225025177,-9.80937671661377,0.2548356056213379
1695712777437986000,1.745986083984375,0.388235479593277,-9.431310653686523,0.21176479756832123
1695712777448030700,1.75603076171875,0.3930211067199707,-9.42173957824707,-0.003589233849197626
1695712777458063000,1.76606298828125,0.2590230405330658,-9.215956687927246,0.02512463741004467
1695712777468088000,1.776088134765625,0.09152546525001526,-9.192028045654297,0.020338991656899452
1695712777478119400,1.786119384765625,0.12023933976888657,-8.995817184448242,0.13998012244701385
1695712777488148500,1.7961484375,0.19680966436862946,-8.799007415771484,0.6191428303718567
1695712777498179600,1.8061796875,0.2350948303937912,-8.751151084899902,0.8632107973098755
1695712777508215000,1.816215087890625,0.3355933725833893,-9.393025398254395,0.2841476798057556
1695712777518246700,1.82624658203125,-0.1333998590707779,-9.455238342285156,0.7674978375434875
1695712777528306400,1.836306396484375,-0.49232324957847595,-9.134600639343262,1.5481562614440918
1695712777538340900,1.8463408203125,-0.6221339106559753,-8.943174362182617,1.2652050256729126
1695712777548374300,1.856374267578125,2.5573291778564453,-6.38584566116333,-1.9142581224441528
1695712777558408700,1.86640869140625,-4.5338006019592285,-7.837092399597168,-0.9708877801895142
1695712777568442400,1.8764423828125,-2.283350944519043,-9.627521514892578,0.5856433510780334
1695712777578476500,1.8864765625,-0.9044869542121887,-10.283753395080566,1.552941918373108
1695712777588480000,1.89647998046875,-0.8327022790908813,-11.193624496459961,3.5401811599731445
1695712777598511000,1.906510986328125,-1.2011969089508057,-11.576476097106934,4.751547336578369
1695712777608572200,1.916572265625,-0.511465847492218,-11.236695289611816,4.775475978851318
1695712777618606300,1.9266064453125,0.3690928816795349,-10.814960479736328,4.344169616699219
1695712777628643000,1.93664306640625,0.5419743061065674,-10.40339469909668,3.8321053981781006
1695712777638677500,1.946677490234375,0.3164508044719696,-9.977472305297852,3.6741790771484375
1695712777648650800,1.956650634765625,-0.08075776696205139,-9.66102123260498,3.5784661769866943
1695712777658678800,1.9666787109375,-0.2913261651992798,-9.10110092163086,3.242872953414917
1695712777668748800,1.976748779296875,-0.851844847202301,-8.650651931762695,3.1232316493988037
1695712777678781200,1.98678125,-1.3256237506866455,-8.545368194580078,3.2333016395568848
1695712777688824600,1.996824462890625,-1.8335003852844238,-8.59322452545166,3.2141590118408203
1695712777698858000,2.00685791015625,-2.14935302734375,-8.741579055786133,2.826521635055542
1695712777708852500,2.0168525390625,-2.1876380443573,-8.583653450012207,2.069791555404663
1695712777718882000,2.026882080078125,-2.1876380443573,-8.70807933807373,1.2939188480377197
1695712777728921300,2.03692138671875,-1.8047864437103271,-8.837292671203613,1.088136076927185
1695712777738951700,2.04695166015625,-1.6516457796096802,-9.230313301086426,1.1934202909469604
1695712777748973800,2.056973876953125,-1.3160524368286133,-9.550951957702637,1.4620146751403809
1695712777759003400,2.06700341796875,-1.0863415002822876,-9.766305923461914,1.8400806188583374
1695712777769074700,2.07707470703125,-0.9954141974449158,-9.953543663024902,2.155933141708374
1695712777779108600,2.087108642578125,-0.8087740540504456,-10.04447078704834,2.1990039348602295
1695712777789138700,2.097138671875,-0.6747759580612183,-9.92961597442627,2.0315065383911133
1695712777799172400,2.10717236328125,-0.33918261528015137,-9.603593826293945,1.9453648328781128
1695712777809195300,2.1171953125,-0.4731806814670563,-9.455238342285156,2.021935224533081
1695712777819227600,2.1272275390625,-0.8231309652328491,-9.541379928588867,1.8975083827972412
1695712777829260800,2.1372607421875,-0.7513462901115417,-9.507881164550781,2.0650060176849365
1695712777839293200,2.147293212890625,-0.4540380835533142,-9.42173957824707,2.218146562576294
1695712777849326600,2.15732666015625,-0.8757730722427368,-9.239884376525879,1.9310078620910645
1695712777859359200,2.167359130859375,-0.6939185857772827,-9.579665184020996,1.2699905633926392
1695712777869378000,2.1773779296875,-0.7513462901115417,-9.680164337158203,0.6239284873008728
1695712777879409200,2.1874091796875,-1.1437692642211914,-9.598808288574219,0.29850462079048157
1695712777889443600,2.197443603515625,-1.277767300605774,-9.570094108581543,0.3128615617752075
1695712777899475000,2.207474853515625,-1.6037893295288086,-8.822935104370117,0.6813562512397766
1695712777909508600,2.217508544921875,-1.9579271078109741,-8.86660385131836,0.2841476798057556
1695712777919540200,2.227540283203125,-1.9387845993041992,-9.273384094238281,0.8823533654212952
1695712777929560000,2.23756005859375,-1.7569299936294556,-9.4121675491333,1.1599208116531372
1695712777939590400,2.24759033203125,-1.5553346872329712,-9.42173957824707,0.8823533654212952
1695712777949658600,2.25765869140625,-1.0767701864242554,-9.507881164550781,0.8584251403808594
1695712777959692800,2.26769287109375,-0.9762716293334961,-9.134600639343262,1.1024930477142334
1695712777969713000,2.277712890625,-1.062413215637207,-8.9910306930542,1.1934202909469604
1695712777979745800,2.287745849609375,-0.9810572862625122,-8.871390342712402,1.2891331911087036
1695712777989777400,2.29777734375,-1.3256237506866455,-8.406583786010742,1.2604193687438965
1695712777999810000,2.30781005859375,-1.4883357286453247,-8.152944564819336,1.0546365976333618
1695712778009828600,2.31782861328125,-1.795215129852295,-8.205587387084961,0.6765705943107605
1695712778019860000,2.32785986328125,-2.0105693340301514,-8.46879768371582,1.2556337118148804
1695712778029925400,2.33792529296875,-2.3120648860931396,-8.957531929016113,1.7443677186965942
1695712778039960000,2.3479599609375,-2.2785654067993164,-9.828518867492676,1.887937068939209
1695712778049979600,2.357979736328125,-1.4787644147872925,-11.24626636505127,2.0745773315429688
1695712778060012800,2.3680126953125,-0.851844847202301,-11.514262199401855,2.9174489974975586
1695712778070025700,2.378025634765625,-0.5162515044212341,-11.054841041564941,2.802593469619751
1695712778080056800,2.388056884765625,-0.5934200286865234,-10.101899147033691,2.7020950317382812
1695712778090104600,2.3981044921875,-1.1820544004440308,-9.948758125305176,2.2612173557281494
1695712778100137500,2.408137451171875,-1.5026925802230835,-9.842875480651855,2.4771697521209717
1695712778110175700,2.41817578125,-1.6707884073257446,-9.503094673156738,2.4819552898406982
1695712778120209200,2.428209228515625,-1.3591232299804688,-9.7998046875,2.386242389678955
1695712778130245600,2.43824560546875,-1.062413215637207,-10.116255760192871,2.71645188331604
1695712778140279300,2.448279296875,-1.0719845294952393,-10.16889762878418,2.9030921459198
1695712778150275800,2.45827587890625,-0.5647061467170715,-10.580463409423828,2.060220241546631
1695712778160305700,2.4683056640625,-0.30568310618400574,-9.254241943359375,2.1655044555664062
1695712778170338600,2.478338623046875,-0.5407779216766357,-8.282156944274902,1.179063320159912
1695712778180368600,2.48836865234375,-1.1102696657180786,-7.458428382873535,0.6622136831283569
1695712778190430000,2.498429931640625,-1.4069796800613403,-7.109076023101807,0.5042873620986938
1695712778200463400,2.50846337890625,-1.6325032711029053,-7.3675007820129395,0.28893333673477173
1695712778210477600,2.5184775390625,-1.9100706577301025,-8.004590034484863,0.6191428303718567
1695712778220509000,2.528509033203125,-2.053640127182007,-8.751151084899902,1.4811571836471558
1695712778230549800,2.5385498046875,-1.6947166919708252,-9.426525115966797,2.2755744457244873
1695712778240582100,2.54858203125,-1.368694543838501,-10.034899711608887,2.7595226764678955
1695712778250607000,2.558607177734375,-1.9196419715881348,-10.518250465393066,3.1040892601013184
1695712778260638700,2.568638671875,-1.953141450881958,-10.633105278015137,3.544966697692871
1695712778270671000,2.578671142578125,-1.8287147283554077,-10.374680519104004,3.731606960296631
1695712778280702700,2.58870263671875,-1.5750755071640015,-9.982257843017578,3.5545380115509033
1695712778290743600,2.59874365234375,-1.2059825658798218,-9.670592308044434,3.3194432258605957
1695712778300776200,2.608776123046875,-1.0959128141403198,-9.445667266845703,3.1663026809692383
1695712778310815500,2.6188154296875,-1.454836130142212,-9.388239860534668,2.9174489974975586
1695712778320848600,2.6288486328125,-1.2059825658798218,-8.947959899902344,2.620738983154297
1695712778330884600,2.638884521484375,-1.1820544004440308,-8.803792953491211,2.4293131828308105
1695712778340918000,2.64891796875,-1.618146300315857,-9.06281566619873,2.227717876434326
1695712778350954800,2.658954833984375,-1.9387845993041992,-9.196813583374023,2.117648124694824
1695712778360988700,2.66898876953125,-2.02492618560791,-9.215956687927246,1.9214365482330322
1695712778370984000,2.67898388671875,-2.048854351043701,-9.105886459350586,1.6534404754638672
1695712778381014000,2.689013916015625,-2.4221346378326416,-9.230313301086426,1.5337992906570435
1695712778391068200,2.699068115234375,-2.633301258087158,-9.196813583374023,1.5960127115249634
1695712778401100500,2.7091005859375,-3.2267212867736816,-9.507881164550781,1.8496519327163696
1695712778411145200,2.719145263671875,-3.5712878704071045,-9.718449592590332,2.266003131866455
1695712778421179000,2.729178955078125,-3.518645763397217,-10.101899147033691,2.6973092555999756
1695712778431182800,2.739182861328125,-2.9730820655822754,-10.72403335571289,2.8839495182037354
1695712778441213700,2.749213623046875,-2.2785654067993164,-11.590832710266113,2.706880569458008
1695712778451272700,2.759272705078125,-2.015354871749878,-12.43848991394043,2.462812662124634
1695712778461306400,2.769306396484375,-2.245065927505493,-13.066007614135742,2.1607189178466797
1695712778471340500,2.779340576171875,-2.163709878921509,-13.290933609008789,1.8448662757873535
1695712778481374200,2.789374267578125,-1.397408366203308,-13.104292869567871,1.3567304611206055
1695712778491395300,2.799395263671875,-0.22911277413368225,-12.452847480773926,0.666999340057373
1695712778501427700,2.809427734375,1.1593226194381714,-11.504691123962402,-0.5635097622871399
1695712778511580000,2.819579833984375,2.002194404602051,-10.62831974029541,-1.5978072881698608
1695712778521638700,2.829638671875,1.9160526990890503,-9.991828918457031,-2.2540390491485596
1695712778531671000,2.839671142578125,0.3116651475429535,-9.598808288574219,-2.541177749633789
1695712778541720300,2.84972021484375,-1.7377874851226807,-9.713663101196289,-2.4837498664855957
1695712778551752700,2.859752685546875,-2.565704107284546,-9.862018585205078,-2.5124638080596924
1695712778561802200,2.86980224609375,-2.7912275791168213,-9.910472869873047,-2.68953275680542
1695712778571803400,2.879803466796875,-2.0201404094696045,-9.881759643554688,-2.383251428604126
1695712778581835800,2.889835693359375,-1.2681959867477417,-9.708877563476562,-1.7126628160476685
1695712778591865600,2.899865478515625,-0.8470591902732849,-9.531808853149414,-0.9469595551490784
1695712778601891800,2.909891845703125,-0.7561319470405579,-9.148957252502441,-0.381655216217041
1695712778611924200,2.91992431640625,-0.7513462901115417,-8.74636459350586,0.16869398951530457
1695712778621961500,2.92996142578125,-0.7800601720809937,-8.24387264251709,0.40378883481025696
1695712778631990500,2.939990478515625,-0.7465606927871704,-7.861020565032959,0.5808576941490173
1695712778642005500,2.950005615234375,-0.6460621356964111,-7.458428382873535,0.4995017349720001
1695712778652020500,2.9600205078125,-0.7082754969596863,-7.046862602233887,0.3320041298866272
1695712778662035700,2.97003564453125,-1.2203395366668701,-6.7932233810424805,0.1256231814622879
1695712778672050700,2.98005078125,-1.7569299936294556,-6.774080753326416,0.11605189740657806
1695712778682066000,2.99006591796875,-1.9148563146591187,-6.836294174194336,-0.003589233849197626
1695712778692081000,3.000080810546875,-2.2546372413635254,-6.893722057342529,-0.013160524889826775
1695712778702096000,3.010095947265625,-2.8247270584106445,-7.109076023101807,-0.013160524889826775
1695712778712111000,3.020111083984375,-3.370290756225586,-7.51585578918457,0.039481572806835175
1695712778722126000,3.0301259765625,-3.835096597671509,-7.918448448181152,0.1543370634317398
1695712778732141300,3.040141357421875,-4.261018753051758,-8.205587387084961,0.3367897868156433
1695712778742171400,3.05017138671875,-4.6199421882629395,-8.416155815124512,0.48514479398727417
1695712778752207600,3.06020751953125,-4.686941146850586,-8.459226608276367,0.5042873620986938
1695712778762243600,3.07024365234375,-4.672584533691406,-8.248658180236816,0.4181457459926605
1695712778772279800,3.08027978515625,-4.275375843048096,-7.980661869049072,0.5760720372200012
1695712778782316000,3.09031591796875,-4.1078782081604,-7.568498134613037,0.6143572330474854
1695712778792352300,3.100352294921875,-4.016951084136963,-7.295716285705566,0.7435696125030518
1695712778802388500,3.110388427734375,-3.782454490661621,-7.008577346801758,0.7052844762802124
1695712778812424700,3.1204248046875,-4.217947959899902,-7.113861560821533,0.9302098155021667
1695712778822460700,3.130460693359375,-4.270590305328369,-7.2574310302734375,1.0211371183395386
1695712778832497000,3.140496826171875,-4.48115873336792,-7.616354465484619,1.150349497795105
1695712778842531000,3.150531005859375,-4.792823791503906,-7.94716215133667,1.179063320159912
1695712778852584200,3.160584228515625,-5.237888813018799,-8.248658180236816,1.4763715267181396
1695712778862637600,3.170637451171875,-5.501099109649658,-8.554939270019531,1.2029916048049927
1695712778872690700,3.180690673828125,-6.056832313537598,-9.072386741638184,0.8057830333709717
1695712778882743800,3.190743896484375,-5.989833354949951,-9.345169067382812,0.600000262260437
1695712778892797200,3.200797119140625,-5.702096462249756,-9.32602596282959,0.5904290080070496
1695712778902850300,3.210850341796875,-5.731408596038818,-9.196813583374023,0.8536394834518433
1695712778912881400,3.22088134765625,-5.760122299194336,-8.981459617614746,1.0546365976333618
1695712778922899700,3.230899658203125,-5.736194133758545,-8.631509780883789,0.877567708492279
1695712778932918000,3.24091796875,-5.711667537689209,-8.0955171585083,0.494716078042984
1695712778942936300,3.250936279296875,-5.333601474761963,-7.937591075897217,-0.07537391036748886
1695712778952954600,3.26095458984375,-4.807180881500244,-9.254241943359375,-1.4111671447753906
1695712778962973000,3.270972900390625,-4.8502516746521,-11.810972213745117,-3.503690481185913
1695712778972991200,3.2809912109375,-5.419743061065674,-14.114662170410156,-5.007579803466797
1695712778983009800,3.291009765625,-6.056832313537598,-15.479169845581055,-5.758925914764404
1695712778993028000,3.301028076171875,-6.343971252441406,-15.110674858093262,-4.762913703918457
1695712779003046400,3.31104638671875,-6.7076802253723145,-13.290933609008789,-3.2165517807006836
1695712779013077800,3.321077880859375,-6.420541286468506,-12.156137466430664,-1.44945228099823
1695712779023110700,3.331110595703125,-5.400600910186768,-11.533405303955078,0.19262222945690155
1695712779033143600,3.3411435546875,-4.686941146850586,-10.192826271057129,1.2939188480377197
1695712779043176400,3.351176513671875,-2.527418851852417,-8.502297401428223,1.4333007335662842
1695712779053209600,3.361209716796875,1.1353943347930908,-6.711269378662109,0.8919246196746826
1695712779063242500,3.371242431640625,3.841078519821167,-5.4951171875,-0.12323036789894104
1695712779073275400,3.381275390625,4.511068820953369,-5.179264545440674,-1.2149556875228882
1695712779083308300,3.391308349609375,3.586841106414795,-5.490331649780273,-1.8807586431503296
1695712779093341200,3.401341064453125,1.7629120349884033,-6.443273067474365,-1.832902193069458
1695712779103374000,3.4113740234375,0.45523449778556824,-8.267800331115723,-0.4295116662979126
1695712779113407000,3.421406982421875,0.9343972206115723,-10.451251029968262,1.576870083808899
1695712779123438000,3.43143798828125,1.8490537405014038,-11.600403785705566,2.1990039348602295
1695712779133467600,3.441467529296875,1.815554141998291,-11.44247817993164,1.8735800981521606
1695712779143497000,3.4514970703125,1.3028919696807861,-10.618748664855957,1.7491533756256104
1695712779153526500,3.461526611328125,0.9583254456520081,-9.896116256713867,1.490728497505188
1695712779163556000,3.47155615234375,0.3403790295124054,-9.345169067382812,0.8392825126647949
1695712779173585400,3.48158544921875,-0.11904292553663254,-9.024530410766602,0.13040883839130402
1695712779183615000,3.491614990234375,-0.11425728350877762,-8.924032211303711,-0.4342973232269287
1695712779193644300,3.501644287109375,0.024526432156562805,-8.789435386657715,-0.99481600522995
1695712779203673900,3.511673828125,0.373878538608551,-8.765507698059082,-1.4159528017044067
1695712779213703200,3.521703125,0.6376872062683105,-8.947959899902344,-1.5690934658050537
1695712779223734800,3.53173486328125,0.9104689955711365,-9.364311218261719,-1.2293126583099365
1695712779233767700,3.541767578125,1.3028919696807861,-9.632308006286621,-0.8991031050682068
1695712779243800600,3.551800537109375,1.537388563156128,-9.852447509765625,-0.49651068449020386
1695712779253833500,3.56183349609375,1.6959130764007568,-9.967901229858398,0.010767702013254166
1695712779263866400,3.571866455078125,1.5038890838623047,-9.670592308044434,0.5186443328857422
1695712779273899300,3.581899169921875,1.1066805124282837,-9.455238342285156,1.0019944906234741
1695712779283932200,3.59193212890625,1.2023934125900269,-9.120243072509766,1.404586911201477
1695712779293965000,3.601965087890625,1.2502498626708984,-8.755936622619629,1.3567304611206055
1695712779303998000,3.611998046875,1.0444670915603638,-8.684151649475098,1.1647064685821533
1695712779314030800,3.62203076171875,0.7381857633590698,-8.775078773498535,1.0402796268463135
1695712779324065800,3.632065673828125,0.48873403668403625,-8.928817749023438,0.9828519225120544
1695712779334117400,3.642117431640625,0.5180460810661316,-9.038887977600098,1.0259226560592651
1695712779344169000,3.6521689453125,0.5946164131164551,-9.287740707397461,1.150349497795105
1695712779354220500,3.662220458984375,0.6807580590248108,-9.589237213134766,1.2987045049667358
1695712779364272000,3.672272216796875,0.8530412912368774,-9.589237213134766,1.3232308626174927
1695712779374323700,3.68232373046875,0.7525427341461182,-9.522237777709961,1.2939188480377197
1695712779384375300,3.692375244140625,0.3595215976238251,-9.383454322814941,1.2699905633926392
1695712779394427000,3.702427001953125,0.0005982056609354913,-9.21117115020752,1.2891331911087036
1695712779404478500,3.712478515625,-0.15254244208335876,-8.924032211303711,1.212562918663025
1695712779414509600,3.722509521484375,-0.41096729040145874,-8.909674644470215,1.1120643615722656
1695712779424525600,3.732525634765625,-0.3439682424068451,-8.952746391296387,1.0450652837753296
1695712779434541600,3.74254150390625,-0.20997019112110138,-9.153742790222168,0.997208833694458
1695712779444557300,3.752557373046875,0.11066804826259613,-9.402596473693848,0.8297112584114075
1695712779454573300,3.7625732421875,0.5228317379951477,-9.613164901733398,0.6622136831283569
1695712779464589000,3.772589111328125,0.5030909776687622,-9.90568733215332,0.4612165689468384
1695712779474605000,3.78260498046875,0.30209386348724365,-10.164112091064453,0.4133601188659668
1695712779484621000,3.79262109375,-0.12861421704292297,-10.384251594543457,0.5282155871391296
1695712779494636800,3.80263671875,-0.35832518339157104,-10.570892333984375,1.0929217338562012
1695712779504652800,3.81265283203125,-0.24825534224510193,-10.848459243774414,1.8161523342132568
1695712779514668500,3.82266845703125,-0.20997019112110138,-11.322836875915527,2.558525562286377
1695712779524700200,3.8327001953125,-0.3535395562648773,-11.80618667602539,2.850450038909912
1695712779534733800,3.84273388671875,-0.49710890650749207,-11.820544242858887,2.5010979175567627
1695712779544767200,3.852767333984375,-0.36311084032058716,-11.059626579284668,1.801795482635498
1695712779554801000,3.86280078125,0.19680966436862946,-10.350752830505371,1.4428720474243164
1695712779564834300,3.872834228515625,0.8721838593482971,-10.164112091064453,1.4859428405761719
1695712779574868000,3.882867919921875,0.8386843204498291,-10.59960651397705,1.4859428405761719
1695712779584901600,3.892901611328125,0.4743770956993103,-11.643474578857422,1.3854442834854126
1695712779594935000,3.90293505859375,-0.14775680005550385,-12.999009132385254,1.3806586265563965
1695712779604968700,3.91296875,-1.0815558433532715,-13.735998153686523,1.4763715267181396
1695712779615002000,3.923002197265625,-1.77607262134552,-13.329218864440918,2.1128623485565186
1695712779625033700,3.93303369140625,-2.101496458053589,-12.787842750549316,3.022733211517334
1695712779635066400,3.94306640625,-1.7904295921325684,-12.92184066772461,4.147958278656006
1695712779645098800,3.9530986328125,-1.1581261157989502,-13.070794105529785,4.828117847442627
1695712779655131000,3.963130859375,-1.038485050201416,-12.696915626525879,4.310669898986816
1695712779665163300,3.973163330078125,-1.5409778356552124,-12.055638313293457,3.3003005981445312
1695712779675196000,3.98319580078125,-1.430907964706421,-11.313265800476074,2.3234307765960693
1695712779685228300,3.993228271484375,-0.30568310618400574,-11.0835542678833,1.2699905633926392
1695712779695260700,4.0032607421875,1.8442680835723877,-11.241480827331543,-0.25244277715682983
1695712779705292800,4.013292724609375,3.38105845451355,-11.873186111450195,-1.4015958309173584
1695712779715325200,4.0233251953125,3.817150354385376,-12.40977668762207,-2.225325107574463
1695712779725357000,4.033357177734375,3.19441819190979,-12.486347198486328,-2.3401806354522705
1695712779735388700,4.043388671875,2.466402053833008,-12.486347198486328,-1.784447431564331
1695712779745420300,4.053420166015625,2.222334146499634,-12.266206741333008,-1.454237937927246
1695712779755452000,4.063451904296875,1.9830517768859863,-11.653046607971191,-0.8799605369567871
1695712779765483500,4.0734833984375,1.5326029062271118,-10.99741268157959,-0.4773681163787842
1695712779775515100,4.08351513671875,0.8195417523384094,-10.96869945526123,0.16390834748744965
1695712779785546800,4.093546630859375,-0.24825534224510193,-11.504691123962402,0.5904290080070496
1695712779795578400,4.103578369140625,-0.8087740540504456,-12.007781982421875,0.9397810697555542
1695712779805610200,4.1136103515625,-0.5066801905632019,-12.65863037109375,1.0019944906234741
1695712779815641900,4.123641845703125,0.4169493317604065,-12.275778770446777,0.8679963946342468
1695712779825677300,4.13367724609375,1.2598211765289307,-11.423335075378418,0.6717849373817444
1695712779835731000,4.14373095703125,1.8011972904205322,-10.350752830505371,0.5473581552505493
1695712779845784600,4.15378466796875,1.700698733329773,-9.129815101623535,0.28893333673477173
1695712779855838200,4.163838134765625,1.552343726158142,-7.803592681884766,-0.037088751792907715
1695712779865891800,4.173891845703125,1.4464613199234009,-6.6729841232299805,-0.44386860728263855
1695712779875945500,4.183945556640625,1.5134602785110474,-6.017350673675537,-0.5491527915000916
1695712779885999000,4.1939990234375,1.700698733329773,-5.614758491516113,-0.5395814776420593
1695712779896052700,4.204052734375,1.6049858331680298,-5.590830326080322,-0.5395814776420593
1695712779906106400,4.2141064453125,1.1593226194381714,-5.61954402923584,-0.6400800347328186
1695712779916138000,4.224137939453125,0.5611169338226318,-5.720640659332275,-0.778863787651062
1695712779926152700,4.234152587890625,0.46480581164360046,-5.921638011932373,-0.99481600522995
1695712779936167400,4.24416748046875,0.24945175647735596,-6.026922225952148,-1.2245270013809204
1695712779946182100,4.25418212890625,0.1824527233839035,-5.931209087371826,-1.7222341299057007
1695712779956197000,4.264197021484375,0.08195417374372482,-5.55733060836792,-2.368894338607788
1695712779966211800,4.2742119140625,0.11545369029045105,-5.02133846282959,-3.0251259803771973
1695712779976226600,4.2842265625,-0.18125630915164948,-4.700700283050537,-3.3649067878723145
1695712779986241500,4.294241455078125,-0.2961117923259735,-4.298107624053955,-3.5324044227600098
1695712779996256300,4.30425634765625,-0.5407779216766357,-4.010969161987305,-3.6089746952056885
1695712780006271000,4.31427099609375,-0.885344386100769,-3.9152560234069824,-3.2452657222747803
1695712780016286000,4.324285888671875,-1.2346965074539185,-3.8865420818328857,-2.7661030292510986
1695712780026317800,4.33431787109375,-2.259422779083252,-3.910470485687256,-2.234896421432495
1695712780036352300,4.344352294921875,-3.3655049800872803,-4.221537113189697,-1.607378602027893
1695712780046387000,4.354386962890625,-4.342374801635742,-5.016552448272705,-0.8129615187644958
1695712780056421400,4.36442138671875,-6.775277137756348,-6.692126750946045,0.010767702013254166
1695712780066455800,4.374455810546875,-11.48674488067627,-9.168100357055664,0.3032902777194977
1695712780076490200,4.384490234375,-18.281763076782227,-12.558131217956543,0.3798605799674988
1695712780086525000,4.39452490234375,-20.92463493347168,-17.6817626953125,1.1216355562210083
1695712780096559400,4.404559326171875,-17.141582489013672,-24.193830490112305,1.150349497795105
1695712780106593800,4.41459375,-11.414960861206055,-26.861228942871094,2.572882652282715
1695712780116628500,4.42462841796875,-5.371886730194092,-22.12044906616211,4.147958278656006
1695712780126660400,4.434660400390625,-4.48115873336792,-16.192829132080078,4.7611188888549805
1695712780136693000,4.44469287109375,-4.8502516746521,-9.479166984558105,4.353740692138672
1695712780146725400,4.454725341796875,-4.318446636199951,-3.1202406883239746,3.6358940601348877
1695712780156757800,4.4647578125,-3.040081262588501,-0.1944168359041214,1.8783657550811768
1695712780166790100,4.4747900390625,-0.3487538993358612,-1.5690934658050537,-0.2667997181415558
1695712780176822500,4.484822509765625,2.902493953704834,-4.872983455657959,-1.2245270013809204
1695712780186855200,4.494855224609375,4.755734920501709,-7.64028263092041,-2.210968017578125
1695712780196887600,4.504887451171875,5.306084156036377,-11.212766647338867,-3.077768087387085
1695712780206920000,4.514919921875,1.7533408403396606,-16.58525276184082,-2.958127021789551
1695712780216952300,4.524952392578125,-5.90369176864624,-20.799013137817383,-2.60339093208313
1695712780226984200,4.534984130859375,-5.793622016906738,-19.874784469604492,-2.723032236099243
1695712780237014300,4.54501416015625,1.6671991348266602,-14.602798461914062,-3.273979663848877
1695712780247044000,4.555044189453125,5.511867046356201,-9.402596473693848,-4.537988185882568
1695712780257074200,4.56507421875,4.880161762237549,-5.523830890655518,-6.008377552032471
1695712780267104300,4.575104248046875,3.280559778213501,-2.9479575157165527,-6.788437843322754
1695712780277134300,4.58513427734375,2.1170499324798584,-2.5740790367126465,-6.372086524963379
1695712780287164400,4.595164306640625,2.2366909980773926,-3.617947816848755,-5.242076396942139
1695712780297194500,4.605194580078125,4.113860130310059,-5.629115104675293,-3.6424741744995117
1695712780307224600,4.615224609375,5.770890235900879,-8.124231338500977,-1.7078771591186523
1695712780317254700,4.625254638671875,5.071587562561035,-10.886744499206543,-0.017946170642971992
1695712780327289900,4.635289794921875,1.815554141998291,-12.845270156860352,1.7204394340515137
1695712780337341000,4.6453408203125,0.053240302950143814,-13.941781044006348,2.7020950317382812
1695712780347392300,4.655392333984375,0.776470959186554,-13.903495788574219,2.376671075820923
1695712780357443300,4.665443359375,1.968694806098938,-12.400205612182617,1.5385849475860596
1695712780367494700,4.67549462890625,2.6297121047973633,-11.241480827331543,1.576870083808899
1695712780377545700,4.685545654296875,2.5525436401367188,-10.111470222473145,0.5138586759567261
1695712780387596800,4.6955966796875,2.7972097396850586,-8.559724807739258,-0.46779683232307434
1695712780397648100,4.705648193359375,1.5954145193099976,-7.597211837768555,-1.4638092517852783
1695712780407699200,4.71569921875,0.3690928816795349,-7.080362319946289,-2.210968017578125
1695712780417731300,4.7257314453125,-0.6843472719192505,-7.037291526794434,-2.2301106452941895
1695712780427751000,4.7357509765625,-1.4452649354934692,-7.520641803741455,-1.9381862878799438
1695712780437770200,4.745770263671875,-1.9627127647399902,-8.172087669372559,-1.3106685876846313
1695712780447789800,4.755789794921875,-1.9004993438720703,-8.847461700439453,-0.7022934556007385
1695712780457809200,4.76580908203125,-1.3926228284835815,-9.603593826293945,-0.13280165195465088
1695712780467828700,4.775828857421875,-0.5647061467170715,-10.034899711608887,0.4181457459926605
1695712780477848000,4.78584814453125,0.41216370463371277,-9.828518867492676,0.7483552694320679
1695712780487867600,4.79586767578125,1.140179991722107,-9.364311218261719,0.8919246196746826
1695712780497887000,4.805886962890625,1.5954145193099976,-9.024530410766602,1.059422254562378
1695712780507906600,4.815906494140625,1.6289139986038208,-8.650651931762695,1.1264212131500244
1695712780517926100,4.825926025390625,1.140179991722107,-8.200801849365234,0.8392825126647949
1695712780527958300,4.835958251953125,0.6807580590248108,-8.200801849365234,0.48514479398727417
1695712780537991200,4.8459912109375,0.47916272282600403,-8.736793518066406,0.0011964113218709826
1695712780548024300,4.8560244140625,0.3595215976238251,-9.42173957824707,-0.381655216217041
1695712780558057200,4.86605712890625,-0.0568295381963253,-9.90568733215332,-0.486939400434494
1695712780568090000,4.876090087890625,-0.6556333899497986,-10.322038650512695,-0.381655216217041
1695712780578123000,4.886123046875,-1.397408366203308,-10.408180236816406,-0.3242274820804596
1695712780588156200,4.89615625,-1.9914265871047974,-10.446465492248535,0.010767702013254166
1695712780598189000,4.90618896484375,-2.0344974994659424,-10.89153003692627,0.6287141442298889
1695712780608222000,4.916221923828125,-1.0480563640594482,-11.557332992553711,1.2747762203216553
1695712780618255000,4.926255126953125,-0.1621137410402298,-12.117852210998535,1.2699905633926392
1695712780628288000,4.9362880859375,0.4504488706588745,-11.791830062866211,0.7579265832901001
1695712780638319600,4.946319580078125,0.8386843204498291,-10.87717342376709,0.32243284583091736
1695712780648349000,4.956348876953125,1.2885349988937378,-10.795817375183105,0.8823533654212952
1695712780658378000,4.9663779296875,0.9296116232872009,-11.385049819946289,1.2699905633926392
1695712780668407300,4.9764072265625,-0.33918261528015137,-11.84447193145752,0.6622136831283569
1695712780678436600,4.9864365234375,-1.933998942375183,-12.333206176757812,-0.1902294009923935
1695712780688465700,4.996465576171875,-3.3894333839416504,-13.075579643249512,-0.8703892230987549
1695712780698495000,5.006494873046875,-3.9595232009887695,-14.133805274963379,-1.033101201057434
1695712780708524300,5.016524169921875,-3.542573928833008,-13.822139739990234,-0.46779683232307434
1695712780718553600,5.0265537109375,-3.1166515350341797,-12.577274322509766,0.7244270443916321
1695712780728582700,5.036582763671875,-2.9204399585723877,-11.95454216003418,2.0793628692626953
1695712780738612000,5.046612060546875,-2.4460630416870117,-11.198410034179688,2.0650060176849365
1695712780748643600,5.0566435546875,-1.689931035041809,-10.479965209960938,1.1934202909469604
1695712780758675700,5.06667578125,-1.368694543838501,-10.48953628540039,-0.12801600992679596
1695712780768707800,5.076707763671875,0.25423741340637207,-10.935199737548828,-1.277169108390808
1695712780778740000,5.086739990234375,2.4329023361206055,-11.404192924499512,-2.0482561588287354
1695712780788772000,5.096772216796875,3.3954153060913086,-11.959925651550293,-2.2396819591522217
1695712780798804200,5.10680419921875,3.0317063331604004,-12.381062507629395,-2.2157537937164307
1695712780808836400,5.11683642578125,1.944766640663147,-13.16650676727295,-2.029113531112671
1695712780818868200,5.1268681640625,1.3028919696807861,-13.913066864013672,-2.0003998279571533
1695712780828900400,5.136900390625,1.293320655822754,-14.373087882995605,-1.8903298377990723
1695712780838932500,5.146932373046875,1.0013962984085083,-14.162519454956055,-1.6121642589569092
1695712780848964600,5.156964599609375,0.5946164131164551,-13.429717063903809,-1.578664779663086
1695712780859001600,5.167001708984375,0.08673982322216034,-13.142578125,-1.856830358505249
1695712780869073200,5.1770732421875,-0.9523434042930603,-13.066007614135742,-2.2779672145843506
1695712780879144700,5.187144775390625,-1.2538390159606934,-12.75912857055664,-2.833101987838745
1695712780889216300,5.19721630859375,-0.5306084156036377,-12.065210342407227,-3.139981508255005
1695712780899287800,5.207287841796875,0.623330295085907,-11.10748291015625,-2.809173822402954
1695712780909320200,5.2173203125,1.3028919696807861,-10.154541015625,-2.0099709033966064
1695712780919336200,5.227336181640625,1.4464613199234009,-8.847461700439453,-1.4207384586334229
1695712780929352000,5.23735205078125,1.2598211765289307,-7.726424217224121,-1.0713863372802734
1695712780939368000,5.247367919921875,1.4608181715011597,-6.653841495513916,-1.186241865158081
1695712780949383700,5.2573837890625,1.7581263780593872,-5.672185897827148,-1.186241865158081
1695712780959399700,5.267399658203125,2.0883359909057617,-5.026124000549316,-1.425524115562439
1695712780969415400,5.27741552734375,2.428116798400879,-4.695914268493652,-1.425524115562439
1695712780979431400,5.287431396484375,1.9878374338150024,-4.743771076202393,-1.425524115562439
1695712780989447200,5.297447265625,1.3651052713394165,-4.906482696533203,-1.4159528017044067
1695712780999463200,5.307463134765625,1.058824062347412,-4.863411903381348,-1.5643078088760376
1695712781009479000,5.31747900390625,0.9726824164390564,-4.89691162109375,-1.693520188331604
1695712781019511000,5.327510986328125,1.1018948554992676,-4.738985061645508,-1.923829436302185
1695712781029541600,5.337541748046875,1.2454642057418823,-4.135395526885986,-2.0243279933929443
1695712781039572000,5.347572021484375,0.6041877269744873,-3.699902057647705,-3.2452657222747803
1695712781049602300,5.357602294921875,0.46480581164360046,-3.4504501819610596,-3.896113395690918
1695712781059633000,5.3676328125,0.11066804826259613,-3.3930225372314453,-4.164707660675049
1695712781069663200,5.377663330078125,-0.27696922421455383,-3.4408788681030273,-4.193421840667725
1695712781079693600,5.387693603515625,-0.8662018179893494,-3.7573297023773193,-4.073780536651611
1695712781089724200,5.39772412109375,-1.7665013074874878,-4.298107624053955,-3.7908291816711426
1695712781099754500,5.40775439453125,-3.087937593460083,-4.954339504241943,-3.3792638778686523
1695712781109785000,5.41778515625,-4.610371112823486,-5.667400360107422,-3.039483070373535
1695712781119815400,5.4278154296875,-5.831906795501709,-6.395416736602783,-3.015554666519165
1695712781129848600,5.4378486328125,-7.186842918395996,-7.3675007820129395,-3.2644083499908447
1695712781139886300,5.44788623046875,-11.980264663696289,-9.656235694885254,-3.2931220531463623
1695712781149923800,5.457923828125,-16.950157165527344,-12.682558059692383,-3.197409152984619
1695712781159961600,5.467961669921875,-16.438093185424805,-15.158531188964844,-3.3984062671661377
1695712781169999400,5.477999267578125,-14.929418563842773,-16.886747360229492,-4.164707660675049
1695712781180037000,5.488037109375,-13.182060241699219,-17.576478958129883,-3.7334015369415283
1695712781190075000,5.498074951171875,-9.595218658447266,-16.5517520904541,-2.1343977451324463
1695712781200112600,5.508112548828125,-6.109474182128906,-14.861223220825195,-0.41994038224220276
1695712781210150100,5.518150146484375,-5.467599868774414,-12.414562225341797,0.4899304509162903
1695712781220188000,5.52818798828125,-5.290530681610107,-9.249456405639648,0.7052844762802124
1695712781230220300,5.53822021484375,-3.566502094268799,-5.816353797912598,0.6047859191894531
1695712781240249900,5.548249755859375,-1.9674984216690063,-3.929612874984741,-1.2867404222488403
1695712781250279200,5.558279052734375,-2.0201404094696045,-5.231906890869141,-3.786043643951416
1695712781260308700,5.568308837890625,-2.906083106994629,-7.429714202880859,-4.088137626647949
1695712781270338000,5.578338134765625,-1.9196419715881348,-9.924830436706543,-3.1830523014068604
1695712781280367600,5.58836767578125,0.2925225794315338,-12.964911460876465,-2.0482561588287354
1695712781290397000,5.59839697265625,1.6767704486846924,-16.106088638305664,-1.033101201057434
1695712781300426500,5.608426513671875,-0.6173482537269592,-17.763118743896484,-1.4207384586334229
1695712781310455800,5.618455810546875,-3.868596076965332,-15.976877212524414,-3.321835994720459
1695712781320485400,5.6284853515625,-1.397408366203308,-11.519047737121582,-4.911268711090088
1695712781330514700,5.6385146484375,3.3236305713653564,-7.372286796569824,-6.357729911804199
1695712781340551400,5.648551513671875,5.5932230949401855,-4.2454657554626465,-7.971090316772461
1695712781350612200,5.6586123046875,4.832305431365967,-1.8658034801483154,-8.550751686096191
1695712781360673000,5.668673095703125,3.036491870880127,-1.1042876243591309,-8.258827209472656
1695712781370733800,5.67873388671875,1.4464613199234009,-1.6169499158859253,-7.1718878746032715
1695712781380794600,5.688794677734375,1.3746765851974487,-3.2207393646240234,-5.481358528137207
1695712781390855400,5.69885546875,3.428914785385132,-6.342774391174316,-3.4031920433044434
1695712781400916200,5.708916259765625,4.563711166381836,-9.991828918457031,-1.5978072881698608
1695712781410948400,5.7189482421875,2.744567632675171,-13.008580207824707,-0.28115665912628174
1695712781420963600,5.728963623046875,0.49351966381073,-15.071791648864746,-0.07058826833963394
1695712781430978600,5.738978515625,0.12023933976888657,-15.665809631347656,-0.3433700501918793
1695712781440993800,5.748993896484375,1.0348957777023315,-15.14896011352539,-0.17587246000766754
1695712781451008800,5.7590087890625,1.542174220085144,-13.913066864013672,-0.12323036789894104
1695712781461024000,5.76902392578125,2.002194404602051,-11.33240795135498,-1.688734531402588
1695712781471039200,5.779039306640625,2.4472594261169434,-8.277371406555176,-2.2683959007263184
1695712781481054200,5.78905419921875,2.0644078254699707,-6.759724140167236,-2.6177480220794678
1695712781491069400,5.7990693359375,1.470389485359192,-6.543771743774414,-2.68953275680542
1695712781501084400,5.80908447265625,0.6281159520149231,-6.778866767883301,-2.8043880462646484
1695712781511099600,5.819099609375,0.029312077909708023,-7.1856465339660645,-2.7804598808288574
1695712781521132000,5.829132080078125,-0.36311084032058716,-7.76470947265625,-2.4598217010498047
1695712781531166200,5.839166259765625,-0.6891329288482666,-8.24387264251709,-2.115255117416382
1695712781541200100,5.8492001953125,-1.3399807214736938,-8.559724807739258,-2.1439690589904785
1695712781551234300,5.859234375,-2.048854351043701,-8.871390342712402,-2.1296122074127197
1695712781561268200,5.869268310546875,-2.000998020172119,-9.024530410766602,-1.94297194480896
1695712781571302400,5.879302490234375,-1.3208380937576294,-9.072386741638184,-1.8472590446472168
1695712781581336600,5.889336669921875,-0.49710890650749207,-8.97667407989502,-1.602592945098877
1695712781591370500,5.89937060546875,0.714257538318634,-8.85224723815918,-1.3489537239074707
1695712781601404400,5.909404296875,1.85383939743042,-8.727222442626953,-1.095314621925354
1695712781611438600,5.9194384765625,2.475973129272461,-8.425726890563965,-0.9756734371185303
1695712781621472800,5.92947265625,2.3371894359588623,-8.152944564819336,-1.090528964996338
1695712781631505000,5.9395048828125,1.8299111127853394,-7.803592681884766,-1.44945228099823
1695712781641535700,5.94953564453125,1.1880364418029785,-8.047660827636719,-1.9094724655151367
1695712781651566600,5.959566650390625,0.6616154313087463,-8.631509780883789,-2.4837498664855957
1695712781661597400,5.969597412109375,0.05802594870328903,-9.268598556518555,-2.68953275680542
1695712781671628300,5.979628173828125,-0.9667003750801086,-9.632308006286621,-2.4263222217559814
1695712781681659100,5.9896591796875,-2.1924238204956055,-9.92961597442627,-1.6983058452606201
1695712781691690000,5.99968994140625,-2.8869404792785645,-10.546963691711426,-0.486939400434494
1695712781701720800,6.009720947265625,-2.4029922485351562,-11.676974296569824,0.5856433510780334
1695712781711751700,6.019751708984375,-1.0336993932724,-12.486347198486328,0.8392825126647949
1695712781721782500,6.029782470703125,0.48873403668403625,-12.270992279052734,0.6813562512397766
1695712781731813400,6.0398134765625,1.4656038284301758,-11.983854293823242,0.786640465259552
1695712781741845800,6.049845703125,1.1928220987319946,-12.495918273925781,1.3519448041915894
1695712781751879400,6.05987939453125,0.2350948303937912,-13.343575477600098,1.5385849475860596
1695712781761913000,6.0699130859375,-0.8327022790908813,-14.047663688659668,0.8727820515632629
1695712781771946800,6.07994677734375,-2.0201404094696045,-14.621940612792969,-0.17108681797981262
1695712781781980400,6.08998046875,-2.915654420852661,-14.722439765930176,-1.1096714735031128
1695712781792014000,6.10001416015625,-4.112663745880127,-14.243874549865723,-1.7988044023513794
1695712781802047700,6.1100478515625,-4.5098724365234375,-13.40578842163086,-1.3680963516235352
1695712781812081700,6.12008154296875,-3.236292600631714,-13.204792022705078,-0.24287149310112
1695712781822115300,6.130115234375,-1.3304094076156616,-13.046865463256836,0.39421752095222473
1695712781832149000,6.14014892578125,0.03409772366285324,-12.117852210998535,0.18783657252788544
1695712781842185200,6.150185302734375,0.27816563844680786,-11.117053985595703,-0.7310073375701904
1695712781852240000,6.160239990234375,-0.3200400173664093,-11.011770248413086,-2.2205393314361572
1695712781862294300,6.170294189453125,0.5467599630355835,-11.643474578857422,-3.7190446853637695
1695712781872349000,6.180348876953125,1.949552297592163,-12.069995880126953,-5.175076961517334
1695712781882403600,6.190403564453125,2.466402053833008,-12.519845962524414,-6.285944938659668
1695712781892458000,6.2004580078125,2.1170499324798584,-12.830913543701172,-6.951149940490723
1695712781902512600,6.2105126953125,1.4847464561462402,-12.802199363708496,-7.3776702880859375
1695712781912544500,6.22054443359375,1.317248821258545,-12.888340950012207,-7.392027378082275
1695712781922560500,6.230560546875,1.8203397989273071,-12.821341514587402,-6.884150981903076
1695712781932576300,6.240576171875,1.3411771059036255,-12.146566390991211,-5.821139335632324
1695712781942592000,6.250592041015625,1.073180913925171,-11.337193489074707,-4.77248477935791
1695712781952607700,6.260607666015625,0.3164508044719696,-10.935199737548828,-3.857828378677368
1695712781962623500,6.27062353515625,-1.1772687435150146,-10.814960479736328,-2.6081767082214355
1695712781972639200,6.28063916015625,-1.0480563640594482,-10.618748664855957,-1.5212370157241821
1695712781982655000,6.290655029296875,0.06281159073114395,-10.427323341369629,-0.3242274820804596
1695712781992670700,6.300670654296875,0.8147560954093933,-10.121041297912598,0.5760720372200012
1695712782002686500,6.3106865234375,1.4895321130752563,-9.742377281188965,1.1407781839370728
1695712782012702200,6.3207021484375,1.7389838695526123,-8.85224723815918,1.083350419998169
1695712782022734600,6.330734619140625,1.7724833488464355,-7.630711555480957,0.6478567123413086
1695712782032767200,6.340767333984375,1.4416756629943848,-6.471987247467041,-0.05144568532705307
1695712782042800000,6.350800048828125,1.4368900060653687,-5.241477966308594,-0.745364248752594
1695712782052833000,6.3608330078125,1.973480463027954,-4.968696117401123,-1.205384373664856
1695712782062866000,6.370865966796875,1.8969101905822754,-4.613960266113281,-1.7174484729766846
1695712782072898800,6.38089892578125,1.5230315923690796,-4.298107624053955,-2.1583259105682373
1695712782082931500,6.390931396484375,1.1784651279449463,-4.001397609710693,-2.60339093208313
1695712782092964400,6.40096435546875,0.900897741317749,-3.8195431232452393,-2.9485557079315186
1695712782102997200,6.410997314453125,0.6376872062683105,-3.594019651412964,-3.0442686080932617
1695712782113030100,6.421030029296875,0.3116651475429535,-3.4887354373931885,-3.0729825496673584
1695712782123062000,6.43106201171875,-0.16689938306808472,-3.421736478805542,-3.556332588195801
1695712782133092600,6.441092529296875,-0.20997019112110138,-3.436093330383301,-3.848257064819336
1695712782143123000,6.451123046875,-0.33918261528015137,-3.809971809387207,-3.9637107849121094
1695712782153153500,6.461153564453125,-0.5742774605751038,-4.355535507202148,-4.001996040344238
1695712782163184000,6.47118408203125,-0.7322037220001221,-4.868197441101074,-3.685544967651367
1695712782173214500,6.48121435546875,-1.0671988725662231,-5.126622676849365,-3.2404799461364746
1695712782183245000,6.4912451171875,-1.4213366508483887,-5.351547718048096,-2.881556749343872
1695712782193275600,6.501275634765625,-2.1541385650634766,-5.423332691192627,-2.8911280632019043
1695712782203306000,6.511305908203125,-2.953939437866211,-5.4951171875,-3.0442686080932617
1695712782213336600,6.521336669921875,-3.8111681938171387,-5.821139335632324,-3.336193084716797
1695712782223368400,6.531368408203125,-7.545766353607178,-7.037291526794434,-3.857828378677368
1695712782233399800,6.54139990234375,-13.942977905273438,-9.934401512145996,-4.969294548034668
1695712782243431400,6.551431396484375,-19.325632095336914,-14.176876068115234,-6.467799663543701
1695712782253462800,6.561462890625,-17.17568016052246,-19.051055908203125,-7.16231632232666
1695712782263494100,6.571494140625,-14.254642486572266,-22.948963165283203,-6.740581512451172
1695712782273525800,6.58152587890625,-10.686944007873535,-21.94338035583496,-4.537988185882568
1695712782283557000,6.59155712890625,-6.171687602996826,-17.916259765625,-2.5076780319213867
1695712782293588700,6.601588623046875,-4.4955153465271,-12.999009132385254,-1.8472590446472168
1695712782303620000,6.6116201171875,-4.783252239227295,-8.248658180236816,-1.5451651811599731
1695712782313651500,6.6216513671875,-4.969892501831055,-4.604389190673828,-2.0003998279571533
1695712782323687400,6.6316875,-3.6675989627838135,-2.847458839416504,-3.494119167327881
1695712782333742000,6.6417421875,-2.1158533096313477,-3.445664644241333,-4.705485820770264
1695712782343796500,6.65179638671875,-0.2147558331489563,-5.676971912384033,-4.145565032958984
1695712782353851100,6.66185107421875,2.217548370361328,-8.909674644470215,-3.3505499362945557
1695712782363905800,6.67190576171875,6.062814235687256,-12.419347763061523,-3.015554666519165
1695712782373960200,6.681960205078125,6.302096843719482,-15.071791648864746,-2.837887763977051
1695712782384014800,6.692014892578125,-0.885344386100769,-15.728023529052734,-2.967698335647583
1695712782394069200,6.7020693359375,-2.9826533794403076,-13.994422912597656,-3.2644083499908447
1695712782404124000,6.7121240234375,0.5946164131164551,-10.838888168334961,-3.637688636779785
1695712782414156000,6.722156005859375,3.486342668533325,-7.793423175811768,-4.3752760887146
1695712782424172800,6.7321728515625,3.9080774784088135,-5.026124000549316,-5.404788017272949
1695712782434189600,6.742189453125,3.404986619949341,-3.2207393646240234,-6.065805435180664
1695712782444206600,6.75220654296875,1.968694806098938,-3.105883836746216,-5.868995666503906
1695712782454223400,6.762223388671875,0.24466611444950104,-4.4033918380737305,-4.801198482513428
1695712782464240400,6.772240478515625,0.27337998151779175,-7.113861560821533,-3.3792638778686523
1695712782474257200,6.782257080078125,1.23589289188385,-10.03011417388916,-2.2540390491485596
1695712782484274000,6.79227392578125,1.0827522277832031,-11.739188194274902,-1.5930216312408447
1695712782494291000,6.802291015625,0.029312077909708023,-12.376276969909668,-1.7270197868347168
1695712782504307700,6.8123076171875,-0.18125630915164948,-12.639487266540527,-1.7222341299057007
1695712782514324500,6.822324462890625,0.1537388563156128,-12.495918273925781,-1.5882359743118286
1695712782524356400,6.8323564453125,0.589830756187439,-11.998210906982422,-1.5690934658050537
1695712782534387200,6.84238720703125,0.6424728631973267,-10.73838996887207,-1.607378602027893
1695712782544418000,6.85241796875,1.1593226194381714,-9.57487964630127,-1.4877375364303589
1695712782554449000,6.862448974609375,1.2598211765289307,-8.583653450012207,-1.4685949087142944
1695712782564479700,6.872479736328125,1.4368900060653687,-8.124231338500977,-1.3441680669784546
1695712782574510600,6.882510498046875,1.4847464561462402,-7.7455668449401855,-1.2532408237457275
1695712782584541400,6.89254150390625,1.207179069519043,-7.477570533752441,-1.4207384586334229
1695712782594572300,6.902572265625,1.0923235416412354,-7.35314416885376,-1.5068800449371338
1695712782604603100,6.91260302734375,0.6185446381568909,-7.2574310302734375,-1.7413766384124756
1695712782614633700,6.9226337890625,-0.07118647545576096,-7.57806921005249,-1.8035900592803955
1695712782624665600,6.93266552734375,-0.6269195079803467,-8.071588516235352,-2.0817556381225586
1695712782634697200,6.942697265625,-0.794417142868042,-8.50708293914795,-2.359323024749756
1695712782644728800,6.952728759765625,-0.7992027401924133,-8.890532493591309,-2.5603201389312744
1695712782654760700,6.9627607421875,-0.3487538993358612,-9.010173797607422,-2.4358935356140137
1695712782664792300,6.972792236328125,0.35473597049713135,-8.933603286743164,-2.163111686706543
1695712782674824000,6.982823974609375,0.4695914387702942,-8.665008544921875,-2.172683000564575
1695712782684855600,6.99285546875,0.623330295085907,-8.3300142288208,-2.1056840419769287
1695712782694887400,7.002887451171875,0.8243274092674255,-8.071588516235352,-2.100898265838623
1695712782704919000,7.0129189453125,1.077966570854187,-8.00937557220459,-2.1678972244262695
1695712782714950700,7.02295068359375,1.2406785488128662,-8.105088233947754,-2.287538528442383
1695712782724982500,7.032982421875,1.0396814346313477,-8.617152214050293,-2.196611166000366
1695712782735015200,7.04301513671875,0.3164508044719696,-9.21117115020752,-1.8951154947280884
1695712782745047800,7.0530478515625,-0.5599204897880554,-9.910472869873047,-1.0474581718444824
1695712782755080400,7.06308056640625,-1.3256237506866455,-10.690533638000488,0.06819544732570648
1695712782765113000,7.073113037109375,-1.9770697355270386,-11.653046607971191,1.0689935684204102
1695712782775145500,7.0831455078125,-1.9674984216690063,-12.43848991394043,1.7730815410614014
1695712782785178000,7.09317822265625,-1.5026925802230835,-12.505489349365234,1.557727575302124
1695712782795210800,7.103210693359375,-1.0001999139785767,-12.31406307220459,1.150349497795105
1695712782805243400,7.113243408203125,-0.5551348328590393,-12.682558059692383,1.0737791061401367
1695712782815276000,7.123276123046875,-0.7322037220001221,-13.204792022705078,0.8105686902999878
1695712782825312000,7.13331201171875,-1.7425731420516968,-13.161721229553223,-0.39122650027275085
1695712782835368000,7.143367919921875,-3.0831520557403564,-12.352348327636719,-1.8179470300674438
1695712782845423600,7.153423583984375,-4.122235298156738,-12.342777252197266,-2.770888566970825
1695712782855479300,7.163479248046875,-4.136591911315918,-12.917055130004883,-3.40797758102417
1695712782865535000,7.173534912109375,-3.379862070083618,-13.243077278137207,-3.422334671020508
1695712782875590700,7.183590576171875,-3.48993182182312,-12.999009132385254,-2.4741785526275635
1695712782885646600,7.193646484375,-3.111865758895874,-12.471989631652832,-1.51166570186615
1695712782895702300,7.203702392578125,-1.038485050201416,-12.117852210998535,-1.3154542446136475
1695712782905758000,7.213758056640625,0.029312077909708023,-11.72004508972168,-2.172683000564575
1695712782915789600,7.22378955078125,0.12502498924732208,-11.834900856018066,-3.455834150314331
1695712782925803800,7.2338037109375,1.4847464561462402,-12.026925086975098,-4.140779495239258
1695712782935818000,7.24381787109375,2.6297121047973633,-12.845270156860352,-4.399204254150391
1695712782945832000,7.25383203125,2.538186550140381,-13.630714416503906,-4.633700847625732
1695712782955846000,7.263845947265625,1.7150555849075317,-13.822139739990234,-5.026721954345703
1695712782965860000,7.273860107421875,0.8578268885612488,-13.83649730682373,-4.786841869354248
1695712782975874000,7.2838740234375,1.5326029062271118,-13.7647123336792,-4.432703971862793
1695712782985888300,7.29388818359375,2.0165512561798096,-13.40578842163086,-3.992424488067627
1695712782995902200,7.303902099609375,1.6049858331680298,-12.457633018493652,-3.077768087387085
1695712783005916400,7.31391650390625,1.0301101207733154,-11.791830062866211,-2.4981069564819336
1695712783015930400,7.323930419921875,-0.4827519655227661,-11.47119140625,-2.0865414142608643
1695712783025962000,7.3339619140625,-1.1198409795761108,-11.145768165588379,-1.9860427379608154
1695712783035993000,7.3439931640625,-0.09990034252405167,-10.690533638000488,-1.7413766384124756
1695712783046024200,7.354024169921875,0.7860422134399414,-9.924830436706543,-1.1335997581481934
1695712783056055300,7.36405517578125,1.1976077556610107,-9.192028045654297,-0.6975077986717224
1695712783066086700,7.374086669921875,1.5038890838623047,-8.641080856323242,-0.4007977843284607
1695712783076117800,7.38411767578125,1.475175142288208,-7.731209754943848,-0.36729827523231506
1695712783086148900,7.39414892578125,1.2646067142486572,-6.7932233810424805,-0.4582255482673645
1695712783096180000,7.404179931640625,1.2215359210968018,-6.084349632263184,-0.7405785918235779
1695712783106211000,7.414211181640625,1.3698909282684326,-5.605186939239502,-0.8703892230987549
1695712783116242200,7.4242421875,1.6145570278167725,-5.0356950759887695,-0.8273184299468994
1695712783126274300,7.4342744140625,1.6528422832489014,-4.542175769805908,-0.8512466549873352
1695712783136308200,7.44430810546875,1.5086746215820312,-4.144967079162598,-1.0043872594833374
1695712783146342400,7.45434228515625,1.451246976852417,-3.929612874984741,-1.1096714735031128
1695712783156376300,7.464376220703125,1.2550355195999146,-3.8434712886810303,-1.339382529258728
1695712783166410200,7.47441015625,1.164108157157898,-3.8865420818328857,-1.5930216312408447
1695712783176444400,7.4844443359375,1.0109676122665405,-3.90568470954895,-1.7940187454223633
1695712783186478300,7.494478271484375,0.833898663520813,-3.8051862716674805,-1.94297194480896
1695712783196512500,7.504512451171875,0.4743770956993103,-3.7190446853637695,-2.723032236099243
1695712783206546400,7.51454638671875,0.3930211067199707,-3.690330743789673,-3.1686954498291016
1695712783216580600,7.52458056640625,0.0005982056609354913,-3.8913278579711914,-3.2644083499908447
1695712783226612200,7.5346123046875,-0.5742774605751038,-4.111467361450195,-3.139981508255005
1695712783236642000,7.54464208984375,-1.3399807214736938,-4.350749969482422,-2.8043880462646484
1695712783246672100,7.554672119140625,-2.6524438858032227,-4.71027135848999,-2.541177749633789
1695712783256702000,7.564701904296875,-4.466801643371582,-5.260620594024658,-2.478964328765869
1695712783266732000,7.57473193359375,-5.682953834533691,-5.935994625091553,-2.5698914527893066
1695712783276761900,7.584761962890625,-6.880561351776123,-6.908079147338867,-3.116053342819214
1695712783286791700,7.594791748046875,-12.382259368896484,-8.967103004455566,-4.202992916107178
1695712783296821800,7.60482177734375,-18.602401733398438,-12.275778770446777,-5.644070625305176
1695712783306851600,7.6148515625,-17.39582061767578,-16.101303100585938,-6.879364967346191
1695712783316881400,7.62488134765625,-15.020345687866211,-19.87957000732422,-7.358527660369873
1695712783326918400,7.63491845703125,-12.702897071838379,-21.291934967041016,-6.123233318328857
1695712783336979000,7.64497900390625,-8.69491958618164,-18.89791488647461,-3.7956149578094482
1695712783347039700,7.655039794921875,-5.726024627685547,-15.28774356842041,-1.8616160154342651
1695712783357100300,7.665100341796875,-5.304887771606445,-11.385049819946289,-1.2245270013809204
1695712783367161000,7.6751611328125,-5.352744102478027,-8.397012710571289,-1.4781662225723267
1695712783377222000,7.685221923828125,-4.686941146850586,-6.634698867797852,-3.47019100189209
1695712783387282400,7.695282470703125,-4.500301361083984,-6.251847267150879,-5.620141983032227
1695712783397343200,7.70534326171875,-4.208376884460449,-7.534998416900635,-5.754140377044678
1695712783407403800,7.71540380859375,-2.819941520690918,-10.235897064208984,-4.600201606750488
1695712783417417200,7.725417236328125,3.366701364517212,-12.577274322509766,-2.5363919734954834
1695712783427430700,7.7354306640625,6.51745080947876,-13.161721229553223,-1.7413766384124756
1695712783437443800,7.74544384765625,5.698507308959961,-12.16092300415039,-2.258824586868286
1695712783447457300,7.755457275390625,5.7996039390563965,-9.896116256713867,-2.3784656524658203
1695712783457470700,7.765470703125,5.1290154457092285,-7.0755767822265625,-3.336193084716797
1695712783467484000,7.77548388671875,2.050050735473633,-5.006981372833252,-5.32821798324585
1695712783477497300,7.785497314453125,0.45523449778556824,-3.972683906555176,-7.013363361358643
1695712783487510800,7.7955107421875,2.0165512561798096,-3.9487555027008057,-7.214958667755127
1695712783497524000,7.80552392578125,3.4576287269592285,-4.911268711090088,-6.678368091583252
1695712783507537400,7.815537353515625,3.620340585708618,-6.658627033233643,-5.80199670791626
1695712783517550800,7.82555078125,2.3802602291107178,-9.06281566619873,-4.810770034790039
1695712783527582200,7.835582275390625,1.054038405418396,-11.365907669067383,-3.556332588195801
1695712783537611500,7.845611572265625,0.6520441770553589,-12.610773086547852,-2.589034080505371
1695712783547640800,7.855640869140625,1.0396814346313477,-12.8691987991333,-2.1583259105682373
1695712783557670100,7.865670166015625,1.1976077556610107,-12.510274887084961,-1.94297194480896
1695712783567699500,7.875699462890625,1.5619150400161743,-11.873186111450195,-1.4446666240692139
1695712783577728800,7.885728759765625,1.3555340766906738,-11.117053985595703,-1.3920245170593262
1695712783587758000,7.895758056640625,1.0444670915603638,-10.202397346496582,-1.755733609199524
1695712783597787400,7.905787353515625,0.900897741317749,-9.235098838806152,-1.947757601737976
1695712783607817000,7.91581689453125,1.1545369625091553,-8.799007415771484,-1.674377679824829
1695712783617846300,7.92584619140625,1.3076776266098022,-8.612366676330566,-1.4063814878463745
1695712783627878100,7.935878173828125,1.6289139986038208,-8.641080856323242,-1.3728820085525513
1695712783637912300,7.945912353515625,1.6002001762390137,-8.339585304260254,-1.5212370157241821
1695712783647946800,7.95594677734375,1.4464613199234009,-7.832306861877441,-1.5451651811599731
1695712783657981200,7.965981201171875,0.7860422134399414,-7.525427341461182,-1.4063814878463745
1695712783668015600,7.976015625,-0.17647066712379456,-7.3914289474487305,-1.3968101739883423
1695712783678050000,7.986050048828125,-1.100698471069336,-7.659425258636475,-1.6360924243927002
1695712783688084200,7.996084228515625,-1.435693621635437,-8.215158462524414,-1.7270197868347168
1695712783698118700,8.00611865234375,-1.1198409795761108,-8.684151649475098,-1.6600207090377808
1695712783708153000,8.016153076171875,-0.6508477330207825,-9.08674430847168,-1.4877375364303589
1695712783718187500,8.0261875,0.13938191533088684,-9.105886459350586,-1.3537393808364868
1695712783728220000,8.036219970703126,1.2454642057418823,-8.703293800354004,-1.3824533224105835
1695712783738255400,8.04625537109375,2.059622049331665,-7.956733703613281,-1.5499508380889893
1695712783748290600,8.05629052734375,2.279761791229248,-7.252645492553711,-1.856830358505249
1695712783758326000,8.066325927734376,2.059622049331665,-7.109076023101807,-2.3162522315979004
1695712783768361500,8.076361572265625,1.6863417625427246,-7.57806921005249,-2.7900311946868896
1695712783778396700,8.086396728515625,1.164108157157898,-8.306085586547852,-3.1926236152648926
1695712783788432100,8.09643212890625,0.43609192967414856,-9.215956687927246,-3.1926236152648926
1695712783798467300,8.10646728515625,-0.7657032608985901,-10.17846965789795,-2.5986053943634033
1695712783808502800,8.116502685546875,-2.417349100112915,-11.212766647338867,-1.6121642589569092
1695712783818538000,8.1265380859375,-3.5712878704071045,-12.251850128173828,-0.50129634141922
1695712783828577000,8.136576904296875,-3.518645763397217,-13.47757339477539,0.5138586759567261
1695712783838672400,8.14667236328125,-2.441277265548706,-14.210375785827637,0.6287141442298889
1695712783848768000,8.15676806640625,-1.0959128141403198,-13.826925277709961,0.2356930375099182
1695712783858807000,8.16680712890625,-0.22432711720466614,-13.295719146728516,-0.22851456701755524
1695712783868840700,8.1768408203125,0.4265206456184387,-12.739986419677734,-0.28594231605529785
1695712783878874600,8.18687451171875,0.13938191533088684,-12.223135948181152,-0.4821537733078003
1695712783888749600,8.19674951171875,-0.8135597109794617,-11.724830627441406,-1.6456637382507324
1695712783898774500,8.2067744140625,-2.268994092941284,-11.475976943969727,-2.6321048736572266
1695712783908774000,8.21677392578125,-3.73459792137146,-11.825329780578613,-3.5228331089019775
1695712783918796500,8.226796630859376,-3.1549365520477295,-13.16650676727295,-4.226921081542969
1695712783928863500,8.236863525390625,-1.5894324779510498,-13.898710250854492,-4.269991874694824
1695712783938890500,8.246890380859375,-1.4021940231323242,-13.659427642822266,-3.0107691287994385
1695712783948930300,8.256930419921876,-2.685943365097046,-13.022936820983887,-1.0713863372802734
1695712783958958600,8.26695849609375,-3.4277184009552,-12.481560707092285,0.494716078042984
1695712783968984800,8.27698486328125,-2.9108686447143555,-11.700902938842773,0.8392825126647949
1695712783979012900,8.287012939453126,-1.8095721006393433,-10.61396312713623,0.13998012244701385
1695712783989066800,8.297066650390626,0.03888336941599846,-10.063613891601562,-1.1718848943710327
1695712783999097300,8.307097412109375,3.314059257507324,-10.73838996887207,-2.5220351219177246
1695712784009134000,8.317134033203125,5.196014404296875,-12.361920356750488,-3.3792638778686523
1695712784019165200,8.327165283203126,5.401797294616699,-13.831710815429688,-3.613760471343994
1695712784029204500,8.33720458984375,6.08195686340332,-14.550156593322754,-3.5754752159118652
1695712784039236600,8.347236572265626,5.387440204620361,-14.861223220825195,-3.556332588195801
1695712784049414000,8.357413818359374,2.538186550140381,-14.243874549865723,-3.336193084716797
1695712784059413800,8.367413818359376,1.0971091985702515,-13.156935691833496,-3.0346972942352295
1695712784069446000,8.37744580078125,1.3651052713394165,-12.610773086547852,-2.4981069564819336
1695712784079504000,8.38750390625,1.1353943347930908,-12.385848045349121,-1.919043779373169
1695712784089557500,8.3975576171875,0.7812566161155701,-12.022139549255371,-1.828116536140442
1695712784099589600,8.407589599609375,0.2925225794315338,-11.715259552001953,-2.1200408935546875
1695712784109594600,8.4175947265625,0.3068794906139374,-11.380264282226562,-2.1918256282806396
1695712784119655000,8.427655029296876,0.9391828775405884,-10.537392616271973,-1.8855443000793457
1695712784129686800,8.437686767578125,1.4847464561462402,-9.527023315429688,-1.3489537239074707
1695712784139694800,8.44769482421875,1.571486234664917,-8.34437084197998,-0.8081758618354797
1695712784149723000,8.457722900390625,1.5667005777359009,-7.171289443969727,-0.5491527915000916
1695712784159754800,8.467754638671876,1.4799607992172241,-5.825924873352051,-0.4342973232269287
1695712784169787000,8.477786865234375,1.815554141998291,-5.02133846282959,-0.534795880317688
1695712784179816200,8.487816162109375,1.7676976919174194,-4.494318962097168,-0.592223584651947
1695712784189831200,8.4978310546875,1.4033905267715454,-4.178466320037842,-0.7692924737930298
1695712784199846000,8.507845947265626,1.1210373640060425,-4.125824451446533,-1.0426725149154663
1695712784209860900,8.51786083984375,1.0444670915603638,-4.164109706878662,-1.5260226726531982
1695712784219875800,8.527875732421874,0.9631111025810242,-4.360321044921875,-1.8999011516571045
1695712784229890600,8.537890625,0.867398202419281,-4.207180500030518,-2.392822742462158
1695712784239905500,8.547905517578124,1.0923235416412354,-4.207180500030518,-2.60339093208313
1695712784249920500,8.55792041015625,0.8817551732063293,-4.164109706878662,-2.943770170211792
1695712784259935500,8.567935546875,0.8003991842269897,-3.9487555027008057,-3.613760471343994
1695712784269950200,8.5779501953125,0.7286145091056824,-3.685544967651367,-3.978067636489868
1695712784279980000,8.58797998046875,0.5228317379951477,-3.517449378967285,-4.102494239807129
1695712784290012000,8.598011962890626,0.30209386348724365,-3.493520975112915,-4.001996040344238
1695712784300043800,8.608043701171875,-0.052043892443180084,-3.4887354373931885,-3.7716867923736572
1695712784310075600,8.61807568359375,-0.9284151792526245,-3.5748770236968994,-3.455834150314331
1695712784320107500,8.628107421875,-2.14935302734375,-3.96789813041687,-3.092125177383423
1695712784330139400,8.638139404296876,-3.5808591842651367,-4.729413986206055,-2.612962245941162
1695712784340171300,8.648171142578125,-5.391029357910156,-6.15134859085083,-2.3497519493103027
1695712784350203100,8.658203125,-9.528220176696777,-7.980661869049072,-2.761317253112793
1695712784360235000,8.668235107421875,-16.777873992919922,-10.192826271057129,-4.088137626647949
1695712784370267000,8.678266845703124,-20.340787887573242,-13.35314655303955,-6.2428741455078125
1695712784380298800,8.688298828125,-18.908681869506836,-18.083757400512695,-8.703892707824707
1695712784390341000,8.698341064453125,-15.824932098388672,-23.653051376342773,-9.977472305297852
1695712784400547600,8.708547607421876,-9.403793334960938,-23.633909225463867,-6.285944938659668
1695712784410560800,8.718560791015625,-6.162116527557373,-18.70648956298828,-2.56510591506958
1695712784420574000,8.728573974609375,-6.0472612380981445,-13.463216781616211,-0.017946170642971992
1695712784430587100,8.738587158203124,-5.615954875946045,-7.688138961791992,1.5242279767990112
1695712784440600600,8.7486005859375,-3.576073408126831,-3.96789813041687,0.9110672473907471
1695712784450613800,8.75861376953125,-1.6468602418899536,-3.9008991718292236,-1.784447431564331
1695712784460627000,8.768626953125,-1.057627558708191,-5.792425632476807,-3.235694408416748
1695712784470640000,8.77864013671875,0.21595224738121033,-7.990232944488525,-3.211766242980957
1695712784480653300,8.7886533203125,3.0077781677246094,-10.834102630615234,-2.8187451362609863
1695712784490666800,8.798666748046875,5.684150218963623,-13.329218864440918,-3.087339401245117
1695712784500680000,8.808679931640626,2.691925525665283,-14.277374267578125,-4.394418716430664
1695712784510716200,8.818716064453126,-1.1102696657180786,-13.25264835357666,-5.32821798324585
1695712784520751900,8.828751953125,0.6999006271362305,-10.585248947143555,-6.386443614959717
1695712784530787800,8.838787841796876,3.524627685546875,-8.100302696228027,-7.626523971557617
1695712784540823800,8.84882373046875,4.233501434326172,-6.266204357147217,-8.50289535522461
1695712784550859500,8.858859619140626,4.271786689758301,-4.489533424377441,-8.780462265014648
1695712784560895500,8.8688955078125,3.826721668243408,-3.373879909515381,-7.88494873046875
1695712784570931500,8.878931396484376,2.3324038982391357,-3.8051862716674805,-6.386443614959717
1695712784580967400,8.888967529296876,2.222334146499634,-5.408975601196289,-4.633700847625732
1695712784591003100,8.899003173828126,3.5533416271209717,-7.9519476890563965,-2.929413080215454
1695712784601039000,8.9090390625,3.0939197540283203,-10.575677871704102,-1.4877375364303589
1695712784611075000,8.919074951171876,1.3651052713394165,-12.28534984588623,-0.8895317912101746
1695712784621110500,8.929110595703126,0.6855437159538269,-12.969696998596191,-1.0426725149154663
1695712784631142100,8.93914208984375,0.9104689955711365,-13.085150718688965,-1.0761719942092896
1695712784641173800,8.949173828125,2.3324038982391357,-13.161721229553223,-0.7645068168640137
1695712784651205400,8.959205322265625,2.9551360607147217,-12.486347198486328,-0.6113662123680115
1695712784661237000,8.969237060546876,2.59621262550354,-10.858031272888184,-0.4630111753940582
1695712784671268600,8.9792685546875,1.8394824266433716,-8.947959899902344,-0.6927221417427063
1695712784681300500,8.989300537109376,1.2837493419647217,-7.82273530960083,-0.9469595551490784
1695712784691332000,8.99933203125,0.7334001660346985,-7.137789726257324,-1.2628121376037598
1695712784701363700,9.00936376953125,0.5180460810661316,-6.960721015930176,-1.7940187454223633
1695712784711395300,9.019395263671875,0.2111666053533554,-6.975078105926514,-2.3306093215942383
1695712784721430300,9.02943017578125,-0.22911277413368225,-7.109076023101807,-2.8283164501190186
1695712784731462700,9.039462646484376,-0.9475577473640442,-7.597211837768555,-2.7421748638153076
1695712784741495000,9.0494951171875,-1.3208380937576294,-7.980661869049072,-2.4263222217559814
1695712784751527400,9.05952734375,-1.1676974296569824,-8.3300142288208,-2.038684844970703
1695712784761559800,9.069559814453125,-0.07118647545576096,-8.478368759155273,-1.3728820085525513
1695712784771592400,9.079592529296875,1.1497513055801392,-8.497511863708496,-1.1718848943710327
1695712784781624800,9.089624755859376,2.0213370323181152,-8.545368194580078,-0.9900303483009338
1695712784791657200,9.0996572265625,2.4711875915527344,-8.152944564819336,-0.841675341129303
1695712784801689600,9.109689697265624,2.2654049396514893,-7.942376613616943,-1.0666006803512573
1695712784811722000,9.119721923828125,1.8251254558563232,-8.191229820251465,-1.540379524230957
1695712784821759200,9.12975927734375,1.2693923711776733,-8.97667407989502,-2.091326951980591
1695712784831806500,9.139806396484374,0.5078766345977783,-10.159326553344727,-2.196611166000366
1695712784841853700,9.149853759765625,-0.8374879360198975,-10.98305606842041,-1.6456637382507324
1695712784851901000,9.15990087890625,-2.819941520690918,-11.289337158203125,-0.9134600162506104
1695712784861948200,9.1699482421875,-4.423730850219727,-11.461620330810547,0.06819544732570648
1695712784871995400,9.179995361328125,-4.189234256744385,-12.041281700134277,1.0689935684204102
1695712784882043000,9.19004296875,-2.321636199951172,-12.792628288269043,1.4572290182113647
1695712784892090000,9.200090087890626,0.019740786403417587,-12.806984901428223,0.9158528447151184
1695712784902137300,9.210137451171875,1.542174220085144,-11.772686958312988,-0.1136590763926506
1695712784912170500,9.22017041015625,1.72941255569458,-10.987841606140137,-0.841675341129303
1695712784922188500,9.2301884765625,1.1162517070770264,-11.452049255371094,-0.7405785918235779
1695712784932206800,9.240206787109376,0.21595224738121033,-12.433704376220703,-0.8129615187644958
1695712784942225000,9.250224853515626,-0.6269195079803467,-13.271790504455566,-1.296311616897583
1695712784952243200,9.2602431640625,-1.771286964416504,-13.735998153686523,-2.076970100402832
1695712784962261200,9.27026123046875,-3.102294445037842,-14.018351554870605,-3.0586254596710205
1695712784972279600,9.280279541015625,-4.261018753051758,-13.688141822814941,-2.713460922241211
1695712784982297600,9.290297607421875,-4.337589263916016,-13.262219429016113,-0.9421738982200623
1695712784992316000,9.30031591796875,-3.6287155151367188,-13.185648918151855,0.6191428303718567
1695712785002334000,9.310333984375,-2.6285157203674316,-12.931411743164062,1.404586911201477
1695712785012352300,9.320352294921875,-1.933998942375183,-11.979068756103516,1.059422254562378
1695712785022388000,9.330387939453125,-1.5553346872329712,-11.188838958740234,-0.5874379873275757
1695712785032437500,9.3404375,0.6520441770553589,-11.126625061035156,-2.4981069564819336
1695712785042487300,9.3504873046875,3.3714871406555176,-11.729616165161133,-4.403990268707275
1695712785052537000,9.360537109375,3.975076675415039,-12.668201446533203,-5.624927997589111
1695712785062587000,9.3705869140625,3.084348440170288,-13.649856567382812,-6.415157318115234
1695712785072636400,9.380636474609375,1.8586249351501465,-13.688141822814941,-6.783652305603027
1695712785082686200,9.390686279296874,0.4408775866031647,-13.692927360534668,-6.63051176071167
1695712785092736000,9.400736083984375,1.0013962984085083,-13.5302152633667,-5.989234924316406
1695712785102785800,9.410785888671874,2.9934210777282715,-12.917055130004883,-5.175076961517334
1695712785112835600,9.420835693359376,3.13220477104187,-12.232707977294922,-4.561916351318359
1695712785122871300,9.430871337890625,1.9926230907440186,-11.96471118927002,-3.857828378677368
1695712785132906500,9.440906494140625,-0.9236295223236084,-11.91625690460205,-2.8187451362609863
1695712785142941700,9.450941650390625,-1.5170495510101318,-11.7056884765625,-2.0243279933929443
1695712785152834600,9.46083447265625,0.06759724020957947,-11.22233772277832,-1.0618150234222412
1695712785162857200,9.470857177734375,1.1497513055801392,-10.48953628540039,0.05383851006627083
1695712785173039000,9.4810390625,1.552343726158142,-9.565308570861816,0.5330012440681458
1695712785183059000,9.491058837890625,1.8921245336532593,-8.521439552307129,0.906281590461731
1695712785193081300,9.501081298828124,2.279761791229248,-7.300501823425293,0.7818548083305359
1695712785203146800,9.511146728515625,2.0691933631896973,-6.060421466827393,0.4995017349720001
1695712785213169200,9.521169189453126,1.7485551834106445,-5.203192710876465,0.039481572806835175
1695712785223211800,9.531211669921875,1.9639091491699219,-4.288536548614502,-0.41994038224220276
1695712785233246200,9.54124609375,2.0931215286254883,-3.579662561416626,-0.875174880027771
1695712785243268600,9.5512685546875,2.1409780979156494,-3.1728827953338623,-1.4063814878463745
1695712785253279500,9.561279541015624,2.2606191635131836,-3.1345977783203125,-1.8035900592803955
1695712785263318500,9.571318603515625,1.85383939743042,-3.335594654083252,-2.225325107574463
1695712785273341200,9.581341064453126,1.4321043491363525,-3.5461630821228027,-2.550748825073242
1695712785283368400,9.591368408203126,1.168893814086914,-3.617947816848755,-2.7900311946868896
1695712785293393000,9.601392822265625,1.0061819553375244,-3.5988051891326904,-3.2404799461364746
1695712785303441400,9.61144140625,0.8051848411560059,-3.5605201721191406,-3.8530426025390625
1695712785313465900,9.6214658203125,0.6520441770553589,-3.5605201721191406,-4.222135543823242
1695712785323496400,9.631496337890624,0.2925225794315338,-3.5365917682647705,-4.284348964691162
1695712785333526800,9.64152685546875,-0.24825534224510193,-3.6131622791290283,-4.135993957519531
1695712785343437300,9.651437255859374,-0.8997012972831726,-3.7334015369415283,-3.896113395690918
1695712785353601000,9.66160107421875,-2.048854351043701,-3.9774694442749023,-3.7046875953674316
1695712785363654700,9.671654541015625,-3.6047873497009277,-4.499104976654053,-3.43190598487854
1695712785373668900,9.6816689453125,-5.19960355758667,-5.394618511199951,-3.273979663848877
1695712785383711700,9.691711669921874,-9.547362327575684,-6.975078105926514,-3.7190446853637695
1695712785393765000,9.70176513671875,-17.99402618408203,-9.790233612060547,-5.701498031616211
1695712785403779000,9.711779052734375,-20.59442710876465,-13.214363098144531,-8.550751686096191
1695712785413800400,9.721800537109376,-17.75952911376953,-18.979270935058594,-10.04447078704834
1695712785423849000,9.731848876953125,-16.5577335357666,-24.988845825195312,-10.60977554321289
1695712785433863200,9.74186328125,-11.874382019042969,-24.907489776611328,-7.248457908630371
1695712785443893200,9.751893310546874,-5.989833354949951,-19.444076538085938,-3.6424741744995117
1695712785453910500,9.76191064453125,-4.878965377807617,-13.123435974121094,-1.3202399015426636
1695712785463924700,9.7719248046875,-5.1182475090026855,-6.951149940490723,0.5377869009971619
1695712785473942500,9.781942626953125,-5.218746185302734,-2.1433708667755127,1.179063320159912
1695712785483993000,9.7919931640625,-3.772883176803589,-0.30927231907844543,-0.592223584651947
1695712785494043400,9.80204345703125,-2.1158533096313477,-2.1337995529174805,-2.8043880462646484
1695712785504061200,9.812061279296875,0.13459627330303192,-5.437689304351807,-2.9868409633636475
1695712785514062000,9.82206201171875,4.415356159210205,-8.904889106750488,-3.178266763687134
1695712785523982000,9.831982177734375,7.9591264724731445,-12.433704376220703,-3.954139471054077
1695712785533990000,9.841989990234374,5.191228866577148,-15.402599334716797,-5.199005603790283
1695712785544039400,9.852039306640625,-1.2681959867477417,-16.666608810424805,-5.438287734985352
1695712785554051300,9.86205126953125,0.21595224738121033,-14.617155075073242,-6.142375946044922
1695712785564105000,9.87210498046875,3.960719585418701,-11.284551620483398,-6.1950178146362305
1695712785574121000,9.882120849609375,4.53499698638916,-8.062017440795898,-5.912066459655762
1695712785584189200,9.892189208984375,3.769293785095215,-5.418546676635742,-5.897709846496582
1695712785594210600,9.90221044921875,3.2757742404937744,-4.240679740905762,-5.821139335632324
1695712785604259000,9.912259033203124,2.562114953994751,-4.724628448486328,-5.237290382385254
1695712785614283000,9.922282958984376,3.3571300506591797,-6.002993583679199,-4.882554531097412
1695712785624294100,9.932294189453126,3.9080774784088135,-7.980661869049072,-3.589832067489624
1695712785634317000,9.942317138671875,1.6432709693908691,-10.374680519104004,-2.115255117416382
1695712785644391700,9.9523916015625,-0.08554340898990631,-11.743973731994629,-1.5499508380889893
1695712785654419700,9.962419677734376,0.6807580590248108,-12.0604248046875,-2.2540390491485596
1695712785664448500,9.972448486328124,1.6959130764007568,-11.758330345153809,-1.540379524230957
1695712785674476800,9.982476806640625,3.38105845451355,-11.834900856018066,-0.745364248752594
1695712785684513800,9.992513671875,4.338785648345947,-11.834900856018066,-0.4630111753940582
1695712785694542600,10.00254248046875,3.25663161277771,-11.093125343322754,-0.6352944374084473
1695712785704579300,10.012579345703125,1.973480463027954,-9.555737495422363,-0.7501499056816101
1695712785714609200,10.022609130859376,1.537388563156128,-7.956733703613281,-0.7022934556007385
1695712785724791000,10.032791015625,1.140179991722107,-6.946363925933838,-0.8560323119163513
1695712785734837000,10.0428369140625,0.9966106414794922,-6.572485446929932,-1.363310694694519
1695712785744866800,10.05286669921875,0.623330295085907,-6.706483840942383,-2.297109842300415
1695712785754907400,10.062907470703125,-0.41575294733047485,-7.133004188537598,-3.029911756515503
1695712785764952600,10.07295263671875,-0.9810572862625122,-7.76470947265625,-3.283550977706909
1695712785774982400,10.082982421875,-1.4261223077774048,-8.320442199707031,-3.417548894882202
1695712785785001200,10.093001220703124,-1.306481122970581,-8.617152214050293,-2.837887763977051
1695712785795017000,10.103016845703126,-0.3152543902397156,-8.722436904907227,-1.9956140518188477
1695712785805046800,10.113046875,0.9439685344696045,-8.540582656860352,-1.4877375364303589
1695712785815089700,10.123089599609376,1.6767704486846924,-8.042875289916992,-1.3154542446136475
1695712785825120000,10.1331201171875,1.7629120349884033,-7.448856830596924,-1.3106685876846313
1695712785835152600,10.143152587890626,1.5182459354400635,-7.338787078857422,-1.4398809671401978
1695712785845185300,10.153185302734375,1.2885349988937378,-8.00937557220459,-1.5499508380889893
1695712785855218000,10.163218017578124,0.8147560954093933,-9.364311218261719,-1.5020943880081177
1695712785865250600,10.17325048828125,-0.14297115802764893,-10.51346492767334,-1.057029366493225
1695712785875283200,10.183283203125,-1.2442678213119507,-10.920842170715332,-0.592223584651947
1695712785885315800,10.19331591796875,-2.3359930515289307,-11.102697372436523,0.04905286431312561
1695712785895348500,10.203348388671875,-2.977867841720581,-11.37069320678711,0.9828519225120544
1695712785905381000,10.213381103515625,-2.748156785964966,-12.156137466430664,1.9022940397262573
1695712785915411500,10.223411376953125,-1.5314065217971802,-12.917055130004883,2.3670997619628906
1695712785925432300,10.233432373046876,0.43609192967414856,-13.109078407287598,2.021935224533081
1695712785935303400,10.243303466796876,1.537388563156128,-12.117852210998535,0.7770691514015198
1695712785945317400,10.2533173828125,1.5619150400161743,-11.26062297821045,-0.41515472531318665
1695712785955444000,10.26344384765625,0.833898663520813,-11.734402656555176,-0.8273184299468994
1695712785965570600,10.273570556640625,-0.047258246690034866,-12.720843315124512,-1.3489537239074707
1695712785975637200,10.28363720703125,-1.1581261157989502,-13.420145988464355,-2.029113531112671
1695712785985651500,10.2936513671875,-2.063211441040039,-13.7647123336792,-2.675175666809082
1695712785995682600,10.3036826171875,-2.724228620529175,-13.788640022277832,-3.36969256401062
1695712786005722600,10.31372265625,-3.576073408126831,-13.133007049560547,-3.2404799461364746
1695712786015736800,10.32373681640625,-3.418147087097168,-12.625130653381348,-1.2005987167358398
1695712786025782000,10.333781982421876,-2.1924238204956055,-12.629916191101074,0.7052844762802124
1695712786035821600,10.343821533203124,-1.124626636505127,-12.716057777404785,1.3758729696273804
1695712786045835800,10.353835693359375,-0.6747759580612183,-12.261421203613281,0.600000262260437
1695712786055833300,10.363833251953125,-0.4827519655227661,-11.95454216003418,-0.9469595551490784
1695712786065853200,10.373853271484375,0.8243274092674255,-11.897113800048828,-2.6943182945251465
1695712786075935500,10.383935546875,2.7110681533813477,-12.256635665893555,-4.356133460998535
1695712786085955600,10.39395556640625,3.184846878051758,-13.50150203704834,-5.854638576507568
1695712786095980300,10.403980224609375,2.610569477081299,-14.382658958435059,-6.678368091583252
1695712786105874700,10.413874755859375,1.6528422832489014,-14.20559024810791,-7.109674453735352
1695712786115881500,10.423881591796874,0.5563312768936157,-13.755141258239746,-7.157530784606934
1695712786126081300,10.434081298828126,0.9487541913986206,-13.209577560424805,-7.114459991455078
1695712786136088000,10.444088134765625,2.4807589054107666,-12.476775169372559,-6.467799663543701
1695712786146164000,10.4541640625,2.830709218978882,-11.313265800476074,-6.041877269744873
1695712786156203800,10.464203857421875,1.8299111127853394,-10.59960651397705,-5.222933769226074
1695712786166210600,10.47421044921875,-0.0568295381963253,-10.188040733337402,-4.2556352615356445
1695712786176245500,10.48424560546875,-1.2011969089508057,-10.006186485290527,-3.005983352661133
1695712786186292500,10.49429248046875,-0.38703906536102295,-9.871589660644531,-1.9716858863830566
1695712786196299000,10.504299072265624,0.6951149702072144,-9.603593826293945,-0.6927221417427063
1695712786206347500,10.514347412109375,1.23589289188385,-9.278169631958008,0.2793620526790619
1695712786216366300,10.524366455078125,1.537388563156128,-8.559724807739258,0.8249256014823914
1695712786226375700,10.534375732421875,1.7868403196334839,-7.424928665161133,0.7914260625839233
1695712786236395800,10.544395751953125,2.160120725631714,-6.40020227432251,0.6957131624221802
1695712786246415600,10.55441552734375,2.035693883895874,-5.749354839324951,0.31764721870422363
1695712786256435700,10.564435791015624,2.1744775772094727,-5.4281182289123535,-0.06580262631177902
1695712786266455800,10.574455810546874,2.7110681533813477,-4.992624282836914,-0.21415762603282928
1695712786276476000,10.584475830078125,2.571686029434204,-4.661816596984863,-0.6735795736312866
1695712786286495700,10.594495849609375,2.2031915187835693,-4.551746845245361,-1.1383854150772095
1695712786296515800,10.604515869140625,1.9304096698760986,-4.508676052093506,-1.6600207090377808
1695712786306536000,10.614535888671876,1.6815561056137085,-4.542175769805908,-1.9716858863830566
1695712786316556000,10.62455615234375,1.4225330352783203,-4.336392879486084,-2.2779672145843506
1695712786326605300,10.634605224609375,1.2837493419647217,-3.872185230255127,-2.7278177738189697
1695712786336654600,10.644654541015624,1.140179991722107,-3.297309637069702,-3.1830523014068604
1695712786346704100,10.6547041015625,0.8243274092674255,-2.847458839416504,-3.4893336296081543
1695712786356753400,10.66475341796875,0.45523449778556824,-2.7804598808288574,-3.6329028606414795
1695712786366802700,10.674802734375,-0.1094716340303421,-3.0580272674560547,-3.637688636779785
1695712786376852200,10.684852294921875,-0.7082754969596863,-3.5222349166870117,-3.4366915225982666
1695712786386901500,10.694901611328126,-1.4691931009292603,-3.96789813041687,-3.092125177383423
1695712786396950800,10.70495068359375,-2.781656265258789,-4.355535507202148,-2.9102704524993896
1695712786407000300,10.715000244140626,-4.385445594787598,-4.97348165512085,-3.053839921951294
1695712786417016800,10.725016845703125,-7.249056339263916,-6.022136211395264,-3.7190446853637695
1695712786427030500,10.735030517578124,-14.009976387023926,-8.310871124267578,-5.32821798324585
1695712786437044200,10.745044189453125,-19.56491470336914,-12.251850128173828,-7.6839518547058105
1695712786447058000,10.755057861328124,-17.898313522338867,-17.80140495300293,-9.479764938354492
1695712786457071600,10.765071533203125,-16.615161895751953,-23.3509578704834,-10.41356372833252
1695712786467085300,10.775085205078126,-13.469198226928711,-23.197816848754883,-8.981459617614746
1695712786477099000,10.78509912109375,-7.871788501739502,-18.625133514404297,-6.802794933319092
1695712786487112700,10.79511279296875,-5.544169902801514,-14.310873985290527,-5.763711452484131
1695712786497126400,10.80512646484375,-5.1804609298706055,-10.661819458007812,-4.83469820022583
1695712786507140000,10.81514013671875,-5.894120216369629,-7.645068168640137,-4.102494239807129
1695712786517160700,10.82516064453125,-7.53140926361084,-5.4759745597839355,-5.380859851837158
1695712786527198000,10.835197998046874,-7.914859294891357,-5.5860443115234375,-7.2197442054748535
1695712786537235200,10.845235107421875,-5.371886730194092,-7.9758758544921875,-7.258029460906982
1695712786547272400,10.8552724609375,2.499901533126831,-10.355538368225098,-3.7669010162353516
1695712786557309700,10.865309814453125,7.427321434020996,-11.284551620483398,-0.02751746028661728
1695712786567347000,10.875346923828126,10.491929054260254,-10.532607078552246,1.7204394340515137
1695712786577384200,10.88538427734375,12.474382400512695,-9.20159912109375,2.194218397140503
1695712786587421400,10.89542138671875,8.672187805175781,-7.558926582336426,0.5042873620986938
1695712786597458700,10.905458740234375,0.8434699773788452,-6.371488571166992,-1.5451651811599731
1695712786607496000,10.915495849609375,-2.685943365097046,-6.060421466827393,-3.930211305618286
1695712786617533200,10.925533203125,0.747757077217102,-6.8554368019104,-6.065805435180664
1695712786627555800,10.935555908203124,4.6402812004089355,-7.76470947265625,-7.3298139572143555
1695712786637588700,10.945588623046875,5.210371494293213,-8.497511863708496,-7.664809226989746
1695712786647621400,10.955621337890625,2.8977081775665283,-9.866804122924805,-6.888936519622803
1695712786657654000,10.965654052734376,0.2638086974620819,-11.294122695922852,-5.261219024658203
1695712786667686700,10.975686767578125,-0.18125630915164948,-11.739188194274902,-3.556332588195801
1695712786677719600,10.985719482421874,0.5611169338226318,-11.385049819946289,-2.053041934967041
1695712786687752200,10.995752197265626,1.1880364418029785,-10.814960479736328,-0.8512466549873352
1695712786697784800,11.005784912109375,1.211964726448059,-10.518250465393066,-0.2715853750705719
1695712786707817500,11.0158173828125,0.9248259663581848,-10.369894981384277,-0.6161518096923828
1695712786717850000,11.02585009765625,0.6711867451667786,-9.680164337158203,-0.9756734371185303
1695712786727874300,11.035874267578125,0.6089733839035034,-9.94397258758545,-0.6831508874893188
1695712786737905400,11.045905517578126,0.8578268885612488,-9.397810935974121,-1.583450436592102
1695712786747936300,11.055936279296875,1.1066805124282837,-8.770293235778809,-1.3920245170593262
1695712786757967400,11.06596728515625,1.3986048698425293,-8.933603286743164,-1.5355939865112305
1695712786767998200,11.075998291015624,1.168893814086914,-8.741579055786133,-1.5212370157241821
1695712786778029000,11.086029052734375,0.9056833982467651,-8.349156379699707,-1.5595221519470215
1695712786788060200,11.09606005859375,0.41216370463371277,-7.94716215133667,-1.8951154947280884
1695712786798091000,11.106091064453125,-0.5599204897880554,-7.606783390045166,-2.4358935356140137
1695712786808121900,11.116121826171875,-1.5894324779510498,-7.611568927764893,-2.785245656967163
1695712786818153000,11.126153076171875,-2.379063844680786,-7.755138397216797,-3.039483070373535
1695712786828182500,11.1361826171875,-2.2163519859313965,-7.76470947265625,-3.0203404426574707
1695712786838239200,11.1462392578125,-1.8526428937911987,-7.899305820465088,-3.015554666519165
1695712786848295700,11.156295654296875,-0.9810572862625122,-8.14815902709961,-2.493321180343628
1695712786858352400,11.166352294921875,0.03888336941599846,-8.387441635131836,-2.1296122074127197
1695712786868408800,11.176408935546876,0.9200403094291687,-8.46879768371582,-1.7796618938446045
1695712786878465500,11.186465576171875,1.6241283416748047,-8.50708293914795,-1.4781662225723267
1695712786888522000,11.19652197265625,2.0644078254699707,-8.411369323730469,-1.3920245170593262
1695712786898578700,11.20657861328125,2.145763635635376,-8.511868476867676,-1.2915260791778564
1695712786908605000,11.21660498046875,2.2510478496551514,-8.957531929016113,-1.0618150234222412
1695712786918617300,11.226617431640625,1.7964116334915161,-9.828518867492676,-0.9326026439666748
1695712786928630000,11.236630126953125,0.5132604837417603,-10.657033920288086,-0.6400800347328186
1695712786938642400,11.246642333984376,-1.0911271572113037,-10.810174942016602,-0.2667997181415558
1695712786948655000,11.256655029296875,-2.963510751724243,-10.872387886047363,0.1543370634317398
1695712786958667800,11.266667724609375,-4.35673189163208,-11.212766647338867,0.45643091201782227
1695712786968680200,11.27668017578125,-3.9212381839752197,-11.863615036010742,0.8249256014823914
1695712786978692900,11.28669287109375,-1.9004993438720703,-12.266206741333008,0.7339983582496643
1695712786988705300,11.296705322265625,-0.1381855010986328,-12.084352493286133,0.18783657252788544
1695712786998718000,11.306718017578126,1.0157532691955566,-11.863615036010742,-0.1423729509115219
1695712787008745500,11.316745361328126,1.4081761837005615,-12.42413330078125,0.0729810893535614
1695712787018779600,11.326779541015625,0.9296116232872009,-13.5302152633667,-0.09451649338006973
1695712787028813600,11.3368134765625,0.11545369029045105,-13.999208450317383,-0.9182456731796265
1695712787038847700,11.34684765625,-1.4931213855743408,-14.215161323547363,-2.014756679534912
1695712787048881700,11.356881591796874,-3.442075490951538,-14.3060884475708,-3.441477060317993
1695712787058915800,11.366915771484376,-4.730610370635986,-13.563714981079102,-3.7812578678131104
1695712787068950000,11.376949951171875,-4.768895626068115,-12.696915626525879,-1.94297194480896
1695712787078984000,11.38698388671875,-3.4851462841033936,-12.543774604797363,-0.04666004329919815
1695712787089018000,11.39701806640625,-2.1924238204956055,-12.515060424804688,0.844068169593811
1695712787099052000,11.407052001953126,-1.4117653369903564,-11.95454216003418,0.5473581552505493
1695712787109080600,11.41708056640625,-0.5886343717575073,-11.428120613098145,-0.8368897438049316
1695712787119112700,11.42711279296875,0.9774680733680725,-11.614761352539062,-2.6225335597991943
1695712787129144800,11.437144775390625,2.926422119140625,-11.949756622314453,-4.246063709259033
1695712787139177000,11.447177001953126,3.6640095710754395,-12.873984336853027,-5.5005011558532715
1695712787149209000,11.457208984375,3.376272678375244,-13.597214698791504,-6.3529438972473145
1695712787159241200,11.4672412109375,2.730210542678833,-13.539787292480469,-6.754938125610352
1695712787169273300,11.4772734375,1.9016958475112915,-13.290933609008789,-6.735795974731445
1695712787179305200,11.48730517578125,1.949552297592163,-13.051651000976562,-6.678368091583252
1695712787189337300,11.49733740234375,2.6057839393615723,-12.64905834197998,-6.013163089752197
1695712787199369500,11.507369384765624,1.542174220085144,-12.156137466430664,-5.352146148681641
1695712787209401600,11.517401611328125,0.9774680733680725,-11.724830627441406,-4.71027135848999
1695712787219431700,11.527431640625,-0.7848458290100098,-11.590832710266113,-3.992424488067627
1695712787229468700,11.53746875,-1.9674984216690063,-11.514262199401855,-3.0011978149414062
1695712787239505700,11.547505615234375,-0.3487538993358612,-10.905887603759766,-1.9573289155960083
1695712787249543000,11.55754296875,0.8626125454902649,-10.221540451049805,-0.6879364848136902
1695712787259580000,11.567579833984375,1.815554141998291,-9.68494987487793,0.3798605799674988
1695712787269617000,11.577616943359375,2.011765718460083,-9.096315383911133,0.9014959335327148
1695712787279654000,11.58765380859375,1.9782661199569702,-8.23430061340332,0.719641387462616
1695712787289691100,11.597691162109374,1.571486234664917,-6.955935478210449,0.1256231814622879
1695712787299728100,11.60772802734375,1.72941255569458,-5.504688262939453,-0.41994038224220276
1695712787309765000,11.61776513671875,2.026122570037842,-4.441677093505859,-0.9708877801895142
1695712787319798300,11.62779833984375,2.2031915187835693,-3.776472330093384,-1.3776676654815674
1695712787329845500,11.637845458984375,2.073979139328003,-3.776472330093384,-1.8951154947280884
1695712787339893000,11.64789306640625,1.8203397989273071,-3.5748770236968994,-2.3880369663238525
1695712787349940500,11.6579404296875,1.5326029062271118,-3.431307554244995,-2.6368906497955322
1695712787359988000,11.667988037109374,1.3363914489746094,-3.4265220165252686,-2.785245656967163
1695712787370035500,11.678035400390625,1.0109676122665405,-3.493520975112915,-2.9102704524993896
1695712787380082700,11.688082763671876,0.6903293132781982,-3.3930225372314453,-3.384049415588379
1695712787390130200,11.698130126953124,0.4743770956993103,-3.1728827953338623,-3.857828378677368
1695712787400177700,11.708177734375,0.1537388563156128,-2.9144580364227295,-4.231706619262695
1695712787410207700,11.718207763671876,-0.2626122832298279,-2.857030153274536,-4.384847640991211
1695712787420227300,11.728227294921876,-0.7417750358581543,-3.043670415878296,-4.31306266784668
1695712787430247000,11.738246826171874,-1.1581261157989502,-3.3308091163635254,-3.9637107849121094
1695712787440266500,11.7482666015625,-1.7856439352035522,-3.579662561416626,-3.580260992050171
1695712787450286000,11.7582861328125,-2.733799934387207,-3.7956149578094482,-3.393620729446411
1695712787460305700,11.7683056640625,-3.6287155151367188,-4.106681823730469,-3.2691938877105713
1695712787470325200,11.7783251953125,-5.812764644622803,-4.83469820022583,-3.2644083499908447
1695712787480344800,11.7883447265625,-13.162917137145996,-7.156932353973389,-3.833899974822998
1695712787490364400,11.798364501953126,-22.116859436035156,-10.959127426147461,-5.447858810424805
1695712787500384300,11.80838427734375,-20.776281356811523,-16.29332733154297,-6.745367050170898
1695712787510403800,11.81840380859375,-17.57288932800293,-23.87797737121582,-6.8410797119140625
1695712787520433700,11.82843359375,-14.331212997436523,-27.545576095581055,-6.1950178146362305
1695712787530462700,11.838462646484375,-8.197212219238281,-22.566112518310547,-4.820341110229492
1695712787540491800,11.84849169921875,-4.103092670440674,-16.207185745239258,-3.675973892211914
1695712787550520800,11.858520751953124,-3.298506021499634,-10.111470222473145,-2.8043880462646484
1695712787560550000,11.8685498046875,-4.194019794464111,-4.283750534057617,-2.287538528442383
1695712787570579000,11.878578857421875,-4.979464054107666,-0.7214360237121582,-3.149552822113037
1695712787580608300,11.888608154296875,-4.117449760437012,-0.8745766878128052,-5.462215900421143
1695712787590637300,11.89863720703125,-2.565704107284546,-3.9248273372650146,-6.874579429626465
1695712787600666400,11.908666259765624,0.11545369029045105,-7.434499740600586,-5.945566177368164
1695712787610695400,11.9186953125,4.290929317474365,-10.714461326599121,-4.265206336975098
1695712787620724500,11.928724365234375,7.427321434020996,-13.597214698791504,-3.5132617950439453
1695712787630755000,11.938755126953126,6.819544315338135,-15.426527976989746,-2.5459632873535156
1695712787640788000,11.9487880859375,0.7334001660346985,-15.90987777709961,-1.9573289155960083
1695712787650821000,11.958821044921875,-1.4452649354934692,-14.23430347442627,-3.40797758102417
1695712787660854300,11.968854248046876,2.32761812210083,-11.562119483947754,-4.4135613441467285
1695712787670887400,11.978887451171875,4.865804672241211,-9.096315383911133,-4.418346881866455
1695712787680920600,11.988920654296875,5.459224700927734,-6.8554368019104,-4.758127689361572
1695712787690953500,11.998953369140626,5.095515727996826,-4.66660213470459,-5.543571949005127
1695712787700986600,12.008986572265625,3.9846479892730713,-3.6951162815093994,-5.840281963348389
1695712787711019800,12.019019775390625,3.1034910678863525,-4.235894203186035,-4.945366382598877
1695712787721053000,12.029052978515624,2.6297121047973633,-6.285346984863281,-3.3074791431427
1695712787731085800,12.0390859375,2.1026928424835205,-8.876175880432129,-2.1104695796966553
1695712787741120000,12.0491201171875,1.5278172492980957,-11.26062297821045,-1.296311616897583
1695712787751174100,12.059174072265625,0.6664010882377625,-12.950553894042969,-1.2149556875228882
1695712787761228300,12.069228271484375,0.33080771565437317,-13.444073677062988,-1.0474581718444824
1695712787771282400,12.079282470703125,0.30209386348724365,-13.367504119873047,-0.9278169870376587
1695712787781336600,12.089336669921876,0.7238288521766663,-11.68175983428955,-0.875174880027771
1695712787791390500,12.099390380859376,1.0253244638442993,-10.01575756072998,-0.9373882412910461
1695712787801444600,12.109444580078126,0.747757077217102,-8.73200798034668,-0.7549355626106262
1695712787811498800,12.119498779296874,0.8195417523384094,-7.937591075897217,-0.5252245664596558
1695712787821552600,12.129552734375,0.9487541913986206,-7.592426300048828,-0.8943174481391907
1695712787831586800,12.1395869140625,0.9918249845504761,-7.45364236831665,-1.8131613731384277
1695712787841602600,12.1496025390625,0.4695914387702942,-7.372286796569824,-2.555534601211548
1695712787851636700,12.15963671875,-0.4827519655227661,-7.506284713745117,-2.953341245651245
1695712787861534200,12.1695341796875,-0.9044869542121887,-7.6498541831970215,-2.8187451362609863
1695712787871557600,12.1795576171875,-1.0049854516983032,-7.803592681884766,-2.531606435775757
1695712787881733400,12.1897333984375,-0.97148597240448,-8.11944580078125,-2.2396819591522217
1695712787891766500,12.1997666015625,-0.6556333899497986,-8.526225090026855,-1.8711873292922974
1695712787901789700,12.209789794921875,0.0771685317158699,-8.857032775878906,-1.602592945098877
1695712787911835400,12.21983544921875,1.1784651279449463,-8.885746955871582,-1.3968101739883423
1695712787921866800,12.22986669921875,1.9016958475112915,-8.73200798034668,-1.3968101739883423
1695712787931890200,12.23989013671875,2.0691933631896973,-8.578866958618164,-1.44945228099823
1695712787941926000,12.24992578125,2.059622049331665,-8.416155815124512,-1.5882359743118286
1695712787951961600,12.259961669921875,1.7772690057754517,-8.631509780883789,-1.7700905799865723
1695712787961984800,12.26998486328125,1.2885349988937378,-9.168100357055664,-1.8951154947280884
1695712787971986200,12.279986083984374,0.4983053207397461,-9.7998046875,-1.919043779373169
1695712787982050000,12.290050048828125,-0.6891329288482666,-10.25503921508789,-1.832902193069458
1695712787992077600,12.30007763671875,-2.235494613647461,-10.302896499633789,-1.755733609199524
1695712788002109400,12.310109375,-3.4995031356811523,-10.221540451049805,-1.5212370157241821
1695712788012141300,12.320141357421875,-3.9212381839752197,-10.690533638000488,-0.8512466549873352
1695712788022169000,12.330169189453125,-2.7433712482452393,-11.763115882873535,-0.0323031060397625
1695712788032197400,12.340197265625,-0.6891329288482666,-12.42413330078125,0.06340979784727097
1695712788042246000,12.350245849609376,1.2502498626708984,-12.07478141784668,-0.3002992272377014
1695712788052273700,12.360273681640624,2.0644078254699707,-11.140982627868652,-0.6496513485908508
1695712788062322000,12.370322021484375,1.6815561056137085,-11.174481391906738,-0.2189432680606842
1695712788072348400,12.380348388671875,0.6807580590248108,-11.949756622314453,0.1495514214038849
1695712788082376200,12.390376220703125,-0.31046873331069946,-12.701701164245605,-0.49172505736351013
1695712788092403000,12.40040283203125,-1.153340458869934,-12.8691987991333,-1.4638092517852783
1695712788102442200,12.410442138671876,-2.268994092941284,-13.262219429016113,-2.3306093215942383
1695712788112470000,12.420469970703126,-3.198007345199585,-14.023137092590332,-3.2213375568389893
1695712788122502000,12.430501953125,-3.59043025970459,-13.9513521194458,-2.612962245941162
1695712788132527400,12.44052734375,-4.179663181304932,-13.118650436401367,-0.8991031050682068
1695712788142543400,12.45054345703125,-4.3280181884765625,-12.261421203613281,0.4995017349720001
1695712788152559600,12.4605595703125,-3.102294445037842,-11.485548973083496,1.1024930477142334
1695712788162576000,12.470575927734375,-1.4165509939193726,-10.561321258544922,0.5856433510780334
1695712788172591900,12.480591796875,-0.6269195079803467,-10.36510944366455,-0.9469595551490784
1695712788182608100,12.490608154296876,1.3411771059036255,-10.575677871704102,-2.6799614429473877
1695712788192624000,12.5006240234375,3.294916868209839,-11.44247817993164,-4.068994998931885
1695712788202640400,12.510640380859375,3.5198421478271484,-12.404991149902344,-4.724628448486328
1695712788212656600,12.52065673828125,2.9072794914245605,-13.563714981079102,-4.801198482513428
1695712788222672600,12.530672607421875,2.375474691390991,-14.100305557250977,-5.01715087890625
1695712788232689000,12.54068896484375,1.7676976919174194,-14.263017654418945,-5.055436134338379
1695712788242715400,12.55071533203125,2.8737800121307373,-14.186447143554688,-4.370490550994873
1695712788252747000,12.5607470703125,2.0691933631896973,-13.630714416503906,-3.455834150314331
1695712788262779000,12.57077880859375,1.7102699279785156,-12.912269592285156,-2.68953275680542
1695712788272810800,12.580810791015624,0.5946164131164551,-12.730414390563965,-2.0817556381225586
1695712788282842600,12.590842529296875,-1.3639088869094849,-12.42413330078125,-1.4781662225723267
1695712788292874200,12.600874267578124,-0.7800601720809937,-11.887542724609375,-1.1240284442901611
1695712788302906000,12.610906005859375,0.11066804826259613,-11.064412117004395,-0.9134600162506104
1695712788312938000,12.62093798828125,0.9296116232872009,-10.341180801391602,-0.4342973232269287
1695712788322969900,12.630969970703125,1.8921245336532593,-9.584450721740723,-0.06580262631177902
1695712788333001500,12.64100146484375,1.9830517768859863,-8.392227172851562,0.058624155819416046
1695712788343034000,12.6510341796875,1.7916259765625,-7.190432071685791,-0.3577269911766052
1695712788353097000,12.661096923828126,1.6002001762390137,-5.921638011932373,-0.9278169870376587
1695712788363159600,12.67115966796875,1.7198412418365479,-5.050052165985107,-1.277169108390808
1695712788373222100,12.68122216796875,2.0452651977539062,-4.4751763343811035,-1.4638092517852783
1695712788383284700,12.69128466796875,2.0404794216156006,-4.144967079162598,-1.7748762369155884
1695712788393347300,12.701347412109374,1.815554141998291,-3.7908291816711426,-1.94297194480896
1695712788403410200,12.71141015625,1.6289139986038208,-3.565305709838867,-2.0195422172546387
1695712788413439700,12.721439697265625,1.4656038284301758,-3.4983067512512207,-2.0817556381225586
1695712788423456800,12.731456787109375,1.29810631275177,-3.594019651412964,-2.0961127281188965
1695712788433474000,12.74147412109375,1.077966570854187,-3.896113395690918,-2.139183521270752
1695712788443491300,12.7514912109375,0.7094719409942627,-4.164109706878662,-2.5938198566436768
1695712788453508600,12.761508544921876,0.5132604837417603,-4.2693939208984375,-3.3409786224365234
1695712788463526000,12.77152587890625,0.2877369225025177,-4.226323127746582,-4.064209461212158
1695712788473543200,12.781543212890625,0.014955141581594944,-4.13060998916626,-4.628915309906006
1695712788483560400,12.791560546875,-0.39182472229003906,-4.202394962310791,-4.782055854797363
1695712788493577700,12.80157763671875,-0.9092726111412048,-4.302893161773682,-4.734199523925781
1695712788503595000,12.811594970703124,-1.5361921787261963,-4.4512481689453125,-4.5714874267578125
1695712788513612000,12.821612060546874,-2.575275421142578,-4.657031059265137,-4.442275047302246
1695712788523641600,12.8316416015625,-3.4133615493774414,-4.925625324249268,-4.265206336975098
1695712788533671200,12.841671142578125,-5.2043890953063965,-5.5381879806518555,-4.064209461212158
1695712788543700500,12.851700439453126,-10.495518684387207,-7.683353424072266,-4.183850288391113
