time,seconds_elapsed,z,y,x
1696082322313130500,0.311130615234375,9.024045944213867,3.0142998695373535,-0.1412578970193863
1696082322323130600,0.321130615234375,9.071929931640625,2.9759926795959473,-0.2513911724090576
1696082322333130500,0.331130615234375,9.07911205291748,2.9089550971984863,-0.7110779285430908
1696082322343130600,0.341130615234375,9.028834342956543,3.359065055847168,-0.9289502501487732
1696082322353130500,0.351130615234375,8.961795806884766,3.050212860107422,-1.1180921792984009
1696082322363130600,0.361130615234375,9.062353134155273,3.093308687210083,-1.2330138683319092
1696082322373130500,0.371130615234375,8.935460090637207,3.2632968425750732,-1.5610195398330688
1696082322383130600,0.381130615234375,8.277054786682129,2.7222073078155518,-1.9129672050476074
1696082322393130500,0.391130615234375,8.032846450805664,2.341529369354248,-2.169146776199341
1696082322403130600,0.401130615234375,7.67850399017334,2.367865562438965,-1.4652514457702637
1696082322413130500,0.411130615234375,7.436689853668213,2.4636335372924805,-0.7038952708244324
1696082322423130600,0.421130615234375,7.419930458068848,2.5474305152893066,-0.12210428714752197
1696082322433130500,0.431130615234375,7.465420246124268,2.626439332962036,0.6224924325942993
1696082322443130600,0.441130615234375,7.654561996459961,2.717418909072876,1.4053963422775269
1696082322453130500,0.451130615234375,7.8867998123168945,2.8658595085144043,1.8698714971542358
1696082322463130600,0.461130615234375,7.9753851890563965,2.999934673309326,1.9560627937316895
1696082322473130500,0.471130615234375,7.8006086349487305,3.050212860107422,2.229001760482788
1696082322483130600,0.481130615234375,7.19248104095459,3.045424461364746,2.432508945465088
1696082322493130500,0.491130615234375,6.43351936340332,3.1244332790374756,2.741360902786255
1696082322503130600,0.501130615234375,5.724835395812988,3.2297780513763428,3.2824504375457764
1696082322513130500,0.511130615234375,5.0376996994018555,3.292027235031128,3.4524388313293457
1696082322523130600,0.521130615234375,4.027047157287598,3.4979286193847656,3.97916316986084
1696082322533130500,0.531130615234375,3.6535518169403076,4.120420932769775,4.742913722991943
1696082322543130600,0.541130615234375,4.335899353027344,4.412513732910156,4.98742151260376
1696082322553130500,0.551130615234375,4.5825018882751465,3.6583402156829834,4.261679172515869
1696082322563130600,0.561130615234375,-0.5746083855628967,2.6168625354766846,5.363311290740967
1696082322573130200,0.571130126953125,4.913201332092285,2.27209734916687,5.822998046875
1696082322583130000,0.581130126953125,5.873276233673096,3.6535518169403076,3.5936968326568604
1696082322593130200,0.591130126953125,4.879383087158203,3.8307228088378906,4.477157115936279
1696082322603130000,0.601130126953125,3.667917013168335,3.756502389907837,3.9887399673461914
1696082322613130200,0.611130126953125,2.22660756111145,3.531447410583496,2.626439332962036
1696082322623129900,0.6211298828125,0.8451532125473022,3.4620156288146973,0.7110779285430908
1696082322633130000,0.6311298828125,0.043095629662275314,1.4293384552001953,0.7134721279144287
1696082322643129900,0.6411298828125,-1.2186486721038818,-0.9050082564353943,1.599326729774475
1696082322653130000,0.6511298828125,-1.965639591217041,-2.365471363067627,2.408566951751709
1696082322663129900,0.6611298828125,-2.049436569213867,-3.134010076522827,2.650381326675415
1696082322673130000,0.6711298828125,-1.292868971824646,-3.952826976776123,2.80361008644104
1696082322683129900,0.6811298828125,0.12928688526153564,-5.040093898773193,3.00711727142334
1696082322693130000,0.6911298828125,2.2577321529388428,-6.340145587921143,3.134010076522827
1696082322703129900,0.7011298828125,4.331110954284668,-7.331345081329346,3.7876269817352295
1696082322713130000,0.7111298828125,5.633855819702148,-7.6425909996032715,4.331110954284668
1696082322723129900,0.7211298828125,5.585971832275391,-8.044816970825195,4.479551315307617
1696082322733130000,0.7311298828125,4.592078685760498,-8.032846450805664,4.395754337310791
1696082322743129900,0.7411298828125,3.6176388263702393,-7.10150146484375,5.150227069854736
1696082322753130000,0.7511298828125,2.956839084625244,-5.995380401611328,7.501333236694336
1696082322763129900,0.7611298828125,2.9496564865112305,-5.600337028503418,11.099818229675293
1696082322773130000,0.7711298828125,3.5625722408294678,-6.179733753204346,14.897321701049805
1696082322783129900,0.7811298828125,4.644751071929932,-7.161356449127197,17.77275848388672
1696082322793130000,0.7911298828125,5.743988990783691,-7.1350202560424805,19.951480865478516
1696082322803129900,0.8011298828125,6.622661113739014,-6.593930721282959,22.381595611572266
1696082322813130000,0.8111298828125,7.819762229919434,-5.832574844360352,25.977985382080078
1696082322823129900,0.8211298828125,9.593865394592285,-5.011363506317139,30.04094696044922
1696082322833130000,0.8311298828125,11.389516830444336,-4.469974517822266,32.72005844116211
1696082322843129900,0.8411298828125,11.851597785949707,-3.7708675861358643,33.30903244018555
1696082322853130000,0.8511298828125,11.063905715942383,-2.7437551021575928,32.080806732177734
1696082322863129900,0.8611298828125,10.333673477172852,-1.357512354850769,30.95313835144043
1696082322873130200,0.871130126953125,9.725546836853027,-0.2513911724090576,30.23727035522461
1696082322883130400,0.88113037109375,9.478943824768066,-0.22026655077934265,28.429649353027344
1696082322893130200,0.891130126953125,8.595483779907227,0.44532153010368347,28.365005493164062
1696082322903130400,0.90113037109375,8.078335762023926,0.8427590131759644,27.98432731628418
1696082322913130200,0.911130126953125,7.369652271270752,-1.2306196689605713,24.136545181274414
1696082322923131400,0.92113134765625,5.147832870483398,-1.886630892753601,21.411943435668945
1696082322933131300,0.93113134765625,1.5203180313110352,-1.3096283674240112,20.22442054748535
1696082322943131400,0.94113134765625,-0.7613561153411865,-1.4844050407409668,17.473482131958008
1696082322953131300,0.95113134765625,-2.96162748336792,-1.1994950771331787,15.131953239440918
1696082322963131400,0.96113134765625,-4.065354347229004,-1.3910311460494995,12.093412399291992
1696082322973131300,0.97113134765625,-4.479551315307617,-1.4772224426269531,8.839692115783691
1696082322983131100,0.981131103515625,-4.467580318450928,-1.6065093278884888,6.081571578979492
1696082322993131300,0.99113134765625,-3.8546648025512695,-1.0821791887283325,4.046200752258301
1696082323003131100,1.001131103515625,-3.3446998596191406,-0.8619126081466675,2.054224967956543
1696082323013131300,1.01113134765625,-2.492363929748535,-0.26336219906806946,0.011971008032560349
1696082323023131000,1.021130859375,-1.50355863571167,0.646434485912323,-2.142810583114624
1696082323033130800,1.031130859375,-0.5339069962501526,1.2761094570159912,-4.371812343597412
1696082323043131000,1.041130859375,0.6272808313369751,1.6903064250946045,-5.981015205383301
1696082323053130800,1.051130859375,1.8363527059555054,1.9345149993896484,-7.051223278045654
1696082323063131000,1.061130859375,2.760514497756958,1.9728221893310547,-8.035240173339844
1696082323073130800,1.071130859375,3.138798475265503,1.6519991159439087,-8.494926452636719
1696082323083131000,1.081130859375,3.114856481552124,1.314416766166687,-8.159738540649414
1696082323093130800,1.091130859375,2.691082715988159,1.2449848651885986,-7.362469673156738
1696082323103131000,1.101130859375,2.1140801906585693,1.455674648284912,-6.404788970947266
1696082323113130800,1.111130859375,1.5107412338256836,1.522712230682373,-5.104737281799316
1696082323123131000,1.121130859375,0.6631938815116882,0.6440402865409851,-3.670311212539673
1696082323133130000,1.1311298828125,-1.2234370708465576,-0.17238251864910126,-2.4684219360351562
1696082323143129900,1.1411298828125,-1.5682021379470825,0.751779317855835,1.1803414821624756
1696082323153130000,1.1511298828125,-2.252943754196167,0.8667010068893433,5.035305500030518
1696082323163129900,1.1611298828125,-3.1435868740081787,-0.26096799969673157,7.721599578857422
1696082323173130000,1.1711298828125,-4.376600742340088,-1.5658079385757446,9.172486305236816
1696082323183131100,1.181131103515625,-6.122272968292236,-2.561795711517334,10.185233116149902
1696082323193131000,1.191131103515625,-7.731176376342773,-2.985569477081299,11.358391761779785
1696082323203131100,1.201131103515625,-9.624990463256836,-2.782062292098999,14.164396286010742
1696082323213131000,1.211131103515625,-10.360010147094727,-2.7509377002716064,16.52058982849121
1696082323223130400,1.22113037109375,-10.113407135009766,-2.873042106628418,18.51256561279297
1696082323233129700,1.231129638671875,-9.862015724182129,-3.4596214294433594,19.06562614440918
1696082323243129900,1.2411298828125,-9.184456825256348,-4.043806552886963,17.329830169677734
1696082323253129700,1.251129638671875,-8.284236907958984,-3.976768970489502,15.048155784606934
1696082323263129900,1.2611298828125,-7.3600754737854,-3.7181951999664307,12.545916557312012
1696082323273130000,1.2711298828125,-6.3209919929504395,-3.1076738834381104,10.817302703857422
1696082323283130000,1.281130126953125,-4.910807132720947,-2.6886885166168213,9.83807373046875
1696082323293130200,1.291130126953125,-3.9264907836914062,-2.5330653190612793,9.040804862976074
1696082323303130000,1.301130126953125,-3.426102638244629,-2.2577321529388428,8.736741065979004
1696082323313130200,1.311130126953125,0.7206547260284424,-2.382230758666992,8.356062889099121
1696082323323130600,1.321130615234375,10.771812438964844,-3.845088005065918,18.055273056030273
1696082323333130200,1.331130126953125,10.144532203674316,-3.315969467163086,24.280197143554688
1696082323343130000,1.341130126953125,3.598485231399536,-3.646369218826294,23.274633407592773
1696082323353130200,1.351130126953125,-1.601720929145813,-4.199429988861084,18.76156234741211
1696082323363130000,1.361130126953125,-0.7829039692878723,-4.37420654296875,13.089400291442871
1696082323373130200,1.371130126953125,0.3734954595565796,-4.084507942199707,9.842862129211426
1696082323383130000,1.381130126953125,0.4884171485900879,-3.4404678344726562,6.768707275390625
1696082323393130200,1.391130126953125,0.26575639843940735,-2.5522189140319824,6.2276177406311035
1696082323403130000,1.401130126953125,-0.05027823522686958,-2.5953147411346436,6.0504469871521
1696082323413130200,1.411130126953125,-0.7637503147125244,-3.24414324760437,6.634632110595703
1696082323423130000,1.421130126953125,-1.6519991159439087,-3.7038300037384033,7.46302604675293
1696082323433130800,1.431130859375,-1.9560627937316895,-2.542642116546631,5.8780646324157715
1696082323443130600,1.441130615234375,-2.5689783096313477,-2.075772762298584,2.75812029838562
1696082323456734200,1.454734130859375,-1.335964560508728,-2.229001760482788,1.6496049165725708
1696082323466734000,1.464734130859375,2.315192937850952,3.780444383621216,-11.602601051330566
1696082323476734200,1.474734130859375,-5.77990198135376,2.2912509441375732,-7.130231857299805
1696082323486733000,1.484733154296875,-5.444714069366455,-3.507505416870117,6.929119110107422
1696082323496733000,1.49473291015625,-10.221146583557129,-4.9491143226623535,16.45355224609375
1696082323506733000,1.504733154296875,-13.833996772766113,-4.932354927062988,23.837270736694336
1696082323516733000,1.51473291015625,-11.6337251663208,-2.051830768585205,21.11985206604004
1696082323526733000,1.524733154296875,-5.272331237792969,1.3024457693099976,17.681777954101562
1696082323536733400,1.5347333984375,2.6384103298187256,4.194641590118408,18.163013458251953
1696082323546733300,1.5447333984375,7.041646480560303,6.998550891876221,17.456722259521484
1696082323556733400,1.5547333984375,7.376834869384766,7.202057838439941,14.494796752929688
1696082323566733300,1.5647333984375,5.4782328605651855,7.7287821769714355,16.001049041748047
1696082323576733400,1.5747333984375,3.2824504375457764,6.045658588409424,17.320253372192383
1696082323586733000,1.584733154296875,3.892971992492676,5.104737281799316,19.905990600585938
1696082323596733200,1.594733154296875,5.681739807128906,4.3861775398254395,19.216461181640625
1696082323606733000,1.604733154296875,6.218040943145752,2.9544448852539062,15.900491714477539
1696082323616733200,1.614733154296875,5.073612689971924,1.5634137392044067,11.284172058105469
1696082323626733000,1.624733154296875,1.0007762908935547,-1.944091796875,7.436689853668213
1696082323636733400,1.6347333984375,-2.4636335372924805,-6.728005886077881,7.568370819091797
1696082323646733600,1.644733642578125,-13.309666633605957,-8.43507194519043,7.8652520179748535
1696082323656733400,1.6547333984375,-18.435951232910156,-7.460631847381592,6.945878505706787
1696082323666733600,1.664733642578125,-14.830284118652344,-9.378387451171875,-1.9105730056762695
1696082323676733400,1.6747333984375,-10.764630317687988,-7.9945387840271,-9.52922248840332
1696082323686733600,1.684733642578125,-2.2697031497955322,-7.391200065612793,-10.690409660339355
1696082323696733400,1.6947333984375,4.6950297355651855,-6.718429088592529,-8.226776123046875
1696082323706733600,1.704733642578125,8.50210952758789,-6.452672958374023,-4.961085319519043
1696082323716733400,1.7147333984375,8.607454299926758,-7.829339027404785,-5.559635639190674
1696082323726733600,1.724733642578125,7.039252281188965,-6.275501728057861,-7.115866661071777
1696082323736734000,1.73473388671875,6.842927932739258,-7.362469673156738,-6.105513572692871
1696082323746733800,1.74473388671875,7.235576629638672,-9.287407875061035,-5.825392246246338
1696082323756734200,1.754734130859375,5.68892240524292,-9.251494407653809,-6.912359714508057
1696082323766734000,1.764734130859375,2.7006595134735107,-11.739069938659668,-3.047818660736084
1696082323776734200,1.774734130859375,1.2713210582733154,-12.80927848815918,0.730231523513794
1696082323786734000,1.784734130859375,0.05746084079146385,-13.69273853302002,4.23773717880249
1696082323796734200,1.794734130859375,-1.7860745191574097,-14.250587463378906,6.78546667098999
1696082323806734000,1.804734130859375,-2.782062292098999,-15.352219581604004,10.374375343322754
1696082323816734200,1.814734130859375,-5.107131481170654,-17.212514877319336,12.701539039611816
1696082323826734000,1.824734130859375,-5.2771196365356445,-19.05844497680664,17.193361282348633
1696082323836734200,1.834734130859375,-4.110844135284424,-21.775863647460938,26.447250366210938
1696082323846734000,1.844734130859375,-2.3798365592956543,-20.76072120666504,29.07847785949707
1696082323856734200,1.854734130859375,-0.6560112833976746,-18.914791107177734,30.239665985107422
1696082323866734000,1.864734130859375,3.5194764137268066,-17.348983764648438,28.35782241821289
1696082323876734200,1.874734130859375,5.38246488571167,-16.910844802856445,24.733001708984375
1696082323886734000,1.884734130859375,5.806238174438477,-13.786112785339355,17.91401481628418
1696082323896734200,1.894734130859375,5.885247230529785,-10.80772590637207,14.185944557189941
1696082323906734000,1.904734130859375,6.1174845695495605,-8.473379135131836,10.539575576782227
1696082323916734200,1.914734130859375,5.751171588897705,-7.491756439208984,6.567594528198242
1696082323926734000,1.924734130859375,5.514145851135254,-6.390423774719238,1.1779472827911377
1696082323936734200,1.934734130859375,3.1962592601776123,-5.155015468597412,-3.043030261993408
1696082323946734000,1.944734130859375,0.1604115068912506,-4.242525577545166,-4.627991676330566
1696082323956734200,1.954734130859375,-2.3032219409942627,-3.6128504276275635,-4.24970817565918
1696082323966734300,1.964734375,-2.717418909072876,-3.5721490383148193,-2.762908697128296
1696082323976734200,1.974734130859375,-3.778050184249878,-3.8163576126098633,-0.26815059781074524
1696082323986734300,1.984734375,-3.931279182434082,-4.436455726623535,1.3120225667953491
1696082323996734200,1.994734130859375,-2.3726539611816406,-5.143044471740723,3.4763808250427246
1696082324006734300,2.004734375,-2.2888567447662354,-6.701669692993164,3.7421371936798096
1696082324016734200,2.014734130859375,-2.7533318996429443,-7.182904243469238,1.7860745191574097
1696082324026734300,2.024734375,-3.423708438873291,-6.5388641357421875,1.4700398445129395
1696082324036734200,2.034734130859375,-2.655169725418091,-6.395212173461914,1.678335428237915
1696082324046734300,2.044734375,-1.8291701078414917,-6.510133743286133,1.7573440074920654
1696082324056734200,2.054734130859375,-0.19153612852096558,-6.397606372833252,1.4173674583435059
1696082324066734300,2.064734375,4.771644115447998,-6.40000057220459,1.1180921792984009
1696082324076734200,2.074734130859375,7.652167797088623,-6.179733753204346,0.6823474764823914
1696082324086734300,2.084734375,5.56442403793335,-5.432743072509766,0.363918662071228
1696082324096734200,2.094734130859375,2.9520506858825684,-4.994604110717773,0.031124621629714966
1696082324106734300,2.104734375,0.13168109953403473,-4.381389141082764,-0.09816227108240128
1696082324116734200,2.114734130859375,-1.1659762859344482,-3.7660791873931885,-0.3902548849582672
1696082324126734300,2.124734375,-2.188300371170044,-3.5482068061828613,-0.7924807667732239
1696082324136734200,2.134734130859375,-3.6152446269989014,-4.58968448638916,-0.9552865028381348
1696082324146734300,2.144734375,-2.8131868839263916,-12.598588943481445,3.095702886581421
1696082324156734200,2.154734130859375,-1.8938134908676147,-18.182167053222656,4.288015365600586
1696082324166734300,2.164734375,-0.9050082564353943,-23.178865432739258,5.042488098144531
1696082324176734200,2.174734130859375,-1.9297266006469727,-28.16389274597168,4.728548526763916
1696082324186734300,2.184734375,-1.115697979927063,-30.491056442260742,3.1220390796661377
1696082324196734200,2.194734130859375,-0.608127236366272,-29.26283073425293,0.47165772318840027
1696082324206734300,2.204734375,0.5793967843055725,-22.441452026367188,-1.335964560508728
1696082324216734200,2.214734130859375,0.49799394607543945,-14.602535247802734,-0.4668693244457245
1696082324226734300,2.224734375,0.33039984107017517,-9.40951156616211,0.768538773059845
1696082324236734200,2.234734130859375,0.7948749661445618,-6.431125164031982,1.3910311460494995
1696082324246734300,2.244734375,0.9768342971801758,-5.06643009185791,2.027888774871826
1696082324256734200,2.254734130859375,1.3024457693099976,-4.838681697845459,2.5306711196899414
1696082324266734300,2.264734375,1.1324573755264282,-5.540482044219971,2.3487119674682617
1696082324276734200,2.274734130859375,0.4357447028160095,-7.527669429779053,2.1595699787139893
1696082324286734300,2.284734375,-0.2346317619085312,-9.344868659973145,2.1954829692840576
1696082324296734200,2.294734130859375,-0.8020575642585754,-10.419864654541016,1.8770540952682495
1696082324306734300,2.304734375,-1.158793568611145,-10.714351654052734,1.522712230682373
1696082324316734200,2.314734130859375,-1.4748282432556152,-10.494085311889648,1.534683346748352
1696082324326734300,2.324734375,-1.6687586307525635,-9.976937294006348,1.680729627609253
1696082324336734200,2.334734130859375,-1.7142484188079834,-9.452607154846191,1.9033904075622559
1696082324346734300,2.344734375,-1.8124107122421265,-9.174880027770996,2.0853497982025146
1696082324356734200,2.354734130859375,-1.7980455160140991,-9.122207641601562,2.276885747909546
1696082324366734300,2.364734375,-1.5490485429763794,-9.268254280090332,2.4133553504943848
1696082324376734200,2.374734130859375,-1.2258312702178955,-9.541193008422852,2.559401512145996
1696082324386734300,2.384734375,-1.0869675874710083,-9.723152160644531,2.5474305152893066
1696082324396734200,2.394734130859375,-1.1085153818130493,-9.543587684631348,2.3535003662109375
1696082324406734300,2.404734375,-1.2306196689605713,-9.22755241394043,2.1930887699127197
1696082324416734200,2.414734130859375,-1.37906014919281,-9.038411140441895,2.0254945755004883
1696082324426734300,2.424734375,-1.3623007535934448,-9.059958457946777,1.8962076902389526
1696082324436734200,2.434734130859375,-1.094150185585022,-9.354445457458496,1.8818424940109253
1696082324446734300,2.444734375,-0.8834604024887085,-9.651326179504395,1.699883222579956
1696082324456734200,2.454734130859375,-0.8954314589500427,-9.76864242553711,1.3718775510787964
1696082324466734300,2.464734375,-0.9744400978088379,-9.754277229309082,0.9959878921508789
1696082324476734200,2.474734130859375,-1.036689281463623,-9.658509254455566,0.6871358752250671
1696082324486734300,2.484734375,-1.072602391242981,-9.560346603393555,0.5961562395095825
1696082324496734200,2.494734130859375,-0.9983820915222168,-9.483732223510742,0.5506663918495178
1696082324506734300,2.504734375,-0.7805097699165344,-9.569923400878906,0.6512228846549988
1696082324516734200,2.514734130859375,-0.5530605912208557,-9.818920135498047,0.8619126081466675
1696082324526734000,2.524734130859375,-0.3974374830722809,-10.111013412475586,1.072602391242981
1696082324536734200,2.534734130859375,-0.3974374830722809,-10.211569786071777,1.2330138683319092
1696082324546734000,2.544734130859375,-0.49559974670410156,-10.07270622253418,1.3287819623947144
1696082324556734200,2.554734130859375,-0.6655880808830261,-9.799766540527344,1.5107412338256836
1696082324566734000,2.564734130859375,-0.8020575642585754,-9.593865394592285,1.742978811264038
1696082324576734200,2.574734130859375,-1.0007762908935547,-9.464578628540039,2.1045033931732178
1696082324586734000,2.584734130859375,-1.2401964664459229,-9.438241958618164,2.4588451385498047
1696082324596734200,2.594734130859375,-1.525106430053711,-9.455001831054688,2.7437551021575928
1696082324606734000,2.604734130859375,-1.800439715385437,-9.40711784362793,2.760514497756958
1696082324616734200,2.614734130859375,-2.078166961669922,-9.543587684631348,2.762908697128296
1696082324626734000,2.624734130859375,-2.0661959648132324,-9.840468406677246,2.6791117191314697
1696082324636734200,2.634734130859375,-1.7381904125213623,-10.099041938781738,2.449268341064453
1696082324646734000,2.644734130859375,-1.41257905960083,-10.352827072143555,2.27209734916687
1696082324656734200,2.654734130859375,-1.2330138683319092,-10.400711059570312,2.0853497982025146
1696082324666734000,2.664734130859375,-1.2665326595306396,-10.204386711120605,1.7525556087493896
1696082324676734200,2.674734130859375,-1.4269442558288574,-10.079888343811035,1.3742717504501343
1696082324686734000,2.684734130859375,-1.5538369417190552,-10.242693901062012,1.0582371950149536
1696082324696734200,2.694734130859375,-1.50355863571167,-10.565911293029785,0.9050082564353943
1696082324706734000,2.704734130859375,-1.3024457693099976,-10.812514305114746,0.8212111592292786
1696082324716734200,2.714734130859375,-1.0079588890075684,-10.829273223876953,0.7206547260284424
1696082324726734000,2.724734130859375,-0.5530605912208557,-10.582671165466309,0.6177040338516235
1696082324736734200,2.734734130859375,-0.13168109953403473,-10.228328704833984,0.5770025849342346
1696082324746734000,2.744734130859375,0.09816227108240128,-9.830891609191895,0.6057330369949341
1696082324756734200,2.754734130859375,0.10773907601833344,-9.644144058227539,0.7086837291717529
1696082324766734000,2.764734130859375,-0.10534487664699554,-9.519645690917969,0.8810662031173706
1696082324776734200,2.774734130859375,-0.507570743560791,-9.445425033569336,1.0845733880996704
1696082324786734000,2.784734130859375,-1.0342950820922852,-9.3735990524292,1.316810965538025
1696082324796734200,2.794734130859375,-1.5131354331970215,-9.201216697692871,1.479616641998291
1696082324806734000,2.804734130859375,-1.9584569931030273,-9.016862869262695,1.5610195398330688
1696082324816734200,2.814734130859375,-2.1954829692840576,-8.854057312011719,1.6184803247451782
1696082324826734000,2.824734130859375,-2.1739351749420166,-8.734347343444824,1.766920804977417
1696082324836734200,2.834734130859375,-1.9847931861877441,-8.657732963562012,1.8267759084701538
1696082324846734000,2.844734130859375,-1.6687586307525635,-8.576330184936523,1.7884687185287476
1696082324856734200,2.854734130859375,-1.2880805730819702,-8.52605152130127,1.6831238269805908
1696082324866734000,2.864734130859375,-0.8403648138046265,-8.43746566772461,1.5275006294250488
1696082324876734200,2.874734130859375,-0.45489832758903503,-8.492532730102539,1.5203180313110352
1696082324886734000,2.884734130859375,-0.28969839215278625,-8.688857078552246,1.5634137392044067
1696082324896734200,2.894734130859375,-0.35673606395721436,-8.916306495666504,1.5849615335464478
1696082324906734000,2.904734130859375,-0.4836287498474121,-9.143755912780762,1.5610195398330688
1696082324916734200,2.914734130859375,-0.6153098344802856,-9.244312286376953,1.479616641998291
1696082324926734000,2.924734130859375,-0.6847416758537292,-9.330503463745117,1.5682021379470825
1696082324936734200,2.934734130859375,-0.6033388376235962,-9.438241958618164,1.6424223184585571
1696082324946734000,2.944734130859375,-0.3758896589279175,-9.603442192077637,1.8267759084701538
1696082324956734200,2.954734130859375,0.047884032130241394,-9.888352394104004,2.0638017654418945
1696082324966734300,2.964734375,0.6392518281936646,-10.14213752746582,2.2002713680267334
1696082324976734200,2.974734130859375,1.3958195447921753,-10.312126159667969,2.255337953567505
1696082324986734300,2.984734375,2.1164743900299072,-10.300154685974121,2.2625205516815186
1696082324996734200,2.994734130859375,2.652775526046753,-10.182839393615723,2.2840683460235596
1696082325006734300,3.004734375,3.050212860107422,-10.089465141296387,2.3965959548950195
1696082325016734200,3.014734130859375,3.292027235031128,-10.242693901062012,2.63362193107605
1696082325026734300,3.024734375,3.3231520652770996,-10.65210247039795,3.1220390796661377
1696082325036734200,3.034734130859375,2.935291290283203,-11.44218921661377,3.8810009956359863
1696082325046734300,3.044734375,2.2625205516815186,-12.385504722595215,4.922778129577637
1696082325056734200,3.054734130859375,1.359906554222107,-13.132495880126953,5.91397762298584
1696082325066734300,3.064734375,0.5674257874488831,-13.561058044433594,6.608295917510986
1696082325076734000,3.07473388671875,0.12449848651885986,-13.218687057495117,6.737582683563232
1696082325086733800,3.08473388671875,0.4165911078453064,-12.383110046386719,6.313809394836426
1696082325096734000,3.09473388671875,1.5298948287963867,-11.02320384979248,5.119102478027344
1696082325106733800,3.10473388671875,3.224989652633667,-9.897929191589355,3.6152446269989014
1696082325116734000,3.11473388671875,4.41969633102417,-9.596260070800781,2.4684219360351562
1696082325126733800,3.12473388671875,4.795586109161377,-10.302549362182617,1.4437036514282227
1696082325136734000,3.13473388671875,4.2329487800598145,-11.856386184692383,0.629675030708313
1696082325146733800,3.14473388671875,2.9065608978271484,-13.50838565826416,0.3758896589279175
1696082325156733700,3.154733642578125,0.33279404044151306,-14.69830322265625,0.27054479718208313
1696082325166733800,3.16473388671875,-1.8962076902389526,-15.10561752319336,-0.07900865375995636
1696082325176733700,3.174733642578125,-3.2417490482330322,-14.827889442443848,-0.2944868206977844
1696082325186733800,3.18473388671875,-3.603273630142212,-14.169184684753418,-0.5123591423034668
1696082325196733700,3.194733642578125,-3.141192674636841,-13.381492614746094,-0.7541735172271729
1696082325206733800,3.20473388671875,-2.1332337856292725,-12.701539039611816,-0.751779317855835
1696082325216733700,3.214733642578125,-1.259350061416626,-12.292130470275879,-0.363918662071228
1696082325226733800,3.22473388671875,-1.2665326595306396,-12.023980140686035,0.4405331015586853
1696082325236733700,3.234733642578125,-0.19871874153614044,-11.62414836883545,0.8571242094039917
1696082325246733800,3.24473388671875,0.4884171485900879,-11.315296173095703,1.414973258972168
1696082325256733700,3.254733642578125,-0.023942016065120697,-11.181221008300781,1.5155296325683594
1696082325266733600,3.264733642578125,0.090979665517807,-11.018415451049805,1.802833914756775
1696082325276733700,3.274733642578125,0.608127236366272,-10.601824760437012,1.766920804977417
1696082325286733600,3.284733642578125,0.2106897532939911,-10.374375343322754,1.3192051649093628
1696082325296733700,3.294733642578125,-0.15801730751991272,-10.032004356384277,0.8571242094039917
1696082325306733600,3.304733642578125,-0.0694318488240242,-9.65611457824707,0.3663128614425659
1696082325316733700,3.314733642578125,0.12928688526153564,-9.299378395080566,0.08379705995321274
1696082325326733800,3.32473388671875,0.2298433631658554,-8.873210906982422,-0.07422025501728058
1696082325336733700,3.334733642578125,0.1628057211637497,-8.487744331359863,-0.3447650372982025
1696082325346733800,3.34473388671875,-0.2298433631658554,-8.183680534362793,-0.4812345504760742
1696082325356733700,3.354733642578125,-0.6655880808830261,-7.968202590942383,-0.4668693244457245
1696082325366733800,3.36473388671875,-0.706289529800415,-7.831733226776123,-0.4429273009300232
1696082325376734200,3.374734130859375,-0.5506663918495178,-7.652167797088623,-0.5147533416748047
1696082325386734000,3.384734130859375,-0.586579442024231,-7.503727436065674,-0.5363011956214905
1696082325396734500,3.394734375,-0.7015010714530945,-7.376834869384766,-0.37828385829925537
1696082325406734600,3.404734619140625,-0.8331822156906128,-7.276278018951416,-0.11013327538967133
1696082325416734500,3.414734375,-0.9911994934082031,-7.309797286987305,0.26815059781074524
1696082325426734600,3.424734619140625,-1.2473790645599365,-7.410353660583496,0.5817909836769104
1696082325436734500,3.434734375,-1.4101848602294922,-7.32655668258667,0.6177040338516235
1696082325446734600,3.444734619140625,-1.5442601442337036,-7.039252281188965,0.44771572947502136
1696082325456734700,3.454734619140625,-1.6543933153152466,-6.716034889221191,0.10055647045373917
1696082325466734600,3.464734619140625,-1.7860745191574097,-6.2946553230285645,-0.3208230137825012
1696082325476734700,3.474734619140625,-1.7166426181793213,-5.8349690437316895,-0.7086837291717529
1696082325486734600,3.484734619140625,-1.479616641998291,-5.401618480682373,-0.8834604024887085
1696082325496734700,3.494734619140625,-1.1348515748977661,-4.982633113861084,-1.0007762908935547
1696082325506734600,3.504734619140625,-0.5985504388809204,-4.671087741851807,-0.9217676520347595
1696082325516734700,3.514734619140625,0.031124621629714966,-4.51067590713501,-0.524330198764801
1696082325526734600,3.524734619140625,0.8978256583213806,-4.565742492675781,0.3734954595565796
1696082325536734700,3.534734619140625,2.056619167327881,-4.8482584953308105,1.9081788063049316
1696082325546734600,3.544734619140625,3.2106244564056396,-5.356128692626953,3.598485231399536
1696082325556734700,3.554734619140625,4.711789131164551,-6.258742332458496,5.023334503173828
1696082325566734600,3.564734619140625,6.464643955230713,-7.494150638580322,6.70645809173584
1696082325576734700,3.574734619140625,7.958625793457031,-8.89954662322998,8.734347343444824
1696082325586734600,3.584734619140625,8.825326919555664,-10.190021514892578,10.424653053283691
1696082325596734700,3.594734619140625,9.80216121673584,-11.305719375610352,11.590629577636719
1696082325606734600,3.604734619140625,10.709563255310059,-12.244246482849121,12.407052040100098
1696082325616734700,3.614734619140625,10.194809913635254,-12.996026039123535,12.337620735168457
1696082325626734600,3.624734619140625,9.648932456970215,-13.496414184570312,11.174038887023926
1696082325636734700,3.634734619140625,8.971372604370117,-13.465290069580078,8.652944564819336
1696082325646734600,3.644734619140625,7.173327445983887,-12.459725379943848,5.5021748542785645
1696082325656734700,3.654734619140625,5.351340293884277,-10.556334495544434,2.6575639247894287
1696082325666734600,3.664734619140625,4.58968448638916,-9.368810653686523,0.646434485912323
1696082325676734700,3.674734619140625,3.799597978591919,-10.489296913146973,-0.7469909191131592
1696082325686734600,3.684734619140625,3.0861260890960693,-12.703933715820312,-2.183511972427368
1696082325696734200,3.694734130859375,1.9057846069335938,-14.8374662399292,-3.8331170082092285
1696082325706734300,3.704734375,0.3208230137825012,-16.14230728149414,-4.884171485900879
1696082325716733700,3.714733642578125,-0.5554547905921936,-17.337013244628906,-4.874594688415527
1696082325726733600,3.724733642578125,0.7637503147125244,-17.30828285217285,-2.650381326675415
1696082325736733700,3.734733642578125,0.7374141216278076,-13.379097938537598,-0.7876923680305481
1696082325746733600,3.744733642578125,-1.5610195398330688,-9.543587684631348,-0.2346317619085312
1696082325756733200,3.754733154296875,-3.9193081855773926,-6.210858345031738,-0.6009446382522583
1696082325766733300,3.7647333984375,-4.8937482833862305,-3.56017804145813,-1.048660397529602
1696082325776733200,3.774733154296875,-5.320215225219727,-2.7485435009002686,-1.3503297567367554
1696082325786733300,3.7847333984375,-5.825392246246338,-3.2585084438323975,-1.5466543436050415
1696082325796733700,3.794733642578125,-6.148609161376953,-4.917989730834961,-1.292868971824646
1696082325806733800,3.80473388671875,-6.230011940002441,-7.23797082901001,-1.0654197931289673
1696082325816733700,3.814733642578125,-5.585971832275391,-9.5531644821167,-0.9672574996948242
1696082325826733800,3.82473388671875,-5.0376996994018555,-11.760618209838867,-0.15801730751991272
1696082325836733700,3.834733642578125,-4.786009311676025,-13.381492614746094,0.6440402865409851
1696082325846733800,3.84473388671875,-4.141968727111816,-13.8746976852417,1.580173134803772
1696082325856733700,3.854733642578125,-3.0406360626220703,-13.201927185058594,2.4205379486083984
1696082325866733800,3.86473388671875,-1.5418659448623657,-11.846809387207031,2.9161376953125
1696082325876733700,3.874733642578125,0.19393034279346466,-10.410287857055664,3.220201253890991
1696082325886733800,3.88473388671875,2.0925323963165283,-9.431059837341309,3.6080620288848877
1696082325896733700,3.894733642578125,3.488351821899414,-9.01207447052002,3.9025487899780273
1696082325906733800,3.90473388671875,4.28322696685791,-8.83011531829834,3.756502389907837
1696082325916733700,3.914733642578125,3.8091750144958496,-8.751106262207031,3.066972494125366
1696082325926733800,3.92473388671875,2.434903144836426,-8.660126686096191,2.231395959854126
1696082325936733700,3.934733642578125,0.8475474119186401,-8.779836654663086,1.623268723487854
1696082325946733800,3.94473388671875,-0.6847416758537292,-8.906729698181152,1.2880805730819702
1696082325956733700,3.954733642578125,-1.702277421951294,-8.894758224487305,1.1276689767837524
1696082325966733800,3.96473388671875,-2.078166961669922,-8.86602783203125,1.0223240852355957
1696082325976733700,3.974733642578125,-2.1308395862579346,-8.892364501953125,0.9864110946655273
1696082325986733800,3.98473388671875,-2.078166961669922,-8.961795806884766,1.0654197931289673
1696082325996733700,3.994733642578125,-1.5897499322891235,-8.882787704467773,1.0223240852355957
1696082326006733800,4.00473388671875,-1.1971008777618408,-8.89954662322998,0.9552865028381348
1696082326016734500,4.014734375,-0.8212111592292786,-9.153332710266113,0.8834604024887085
1696082326026734300,4.024734375,-0.6057330369949341,-9.313743591308594,1.0582371950149536
1696082326036734500,4.034734375,-0.45250412821769714,-9.277831077575684,1.0773907899856567
1696082326046734300,4.044734375,0.002394201699644327,-9.162909507751465,1.1109095811843872
1696082326056734700,4.054734619140625,0.5793967843055725,-9.337685585021973,1.3551181554794312
1696082326066734800,4.06473486328125,0.8595184087753296,-9.766247749328613,1.7525556087493896
1696082326076734700,4.074734619140625,0.8379706144332886,-10.101436614990234,2.126051187515259
1696082326086734800,4.08473486328125,0.7230489253997803,-10.192416191101074,2.4372973442077637
1696082326096734200,4.094734130859375,0.3232172429561615,-9.988908767700195,2.7030537128448486
1696082326106734300,4.104734375,-0.23942017555236816,-9.557952880859375,2.937685489654541
1696082326116734000,4.11473388671875,-0.6799532771110535,-9.16769790649414,2.8826189041137695
1696082326126733800,4.12473388671875,-0.8834604024887085,-9.105448722839355,2.497152328491211
1696082326136734000,4.13473388671875,-0.569819986820221,-9.459790229797363,1.8986018896102905
1696082326146733800,4.14473388671875,0.36152446269989014,-10.111013412475586,1.1683704853057861
1696082326156734000,4.15473388671875,1.680729627609253,-10.869975090026855,0.7134721279144287
1696082326166733800,4.16473388671875,3.043030261993408,-11.344026565551758,0.5339069962501526
1696082326176734000,4.17473388671875,4.132391929626465,-11.303325653076172,0.6488286852836609
1696082326186733800,4.18473388671875,4.486733913421631,-11.013627052307129,1.280897855758667
1696082326196733700,4.194733642578125,3.8498764038085938,-10.71914005279541,2.274491548538208
1696082326206733800,4.20473388671875,2.410961151123047,-10.532392501831055,3.445256233215332
1696082326216734000,4.21473388671875,0.8044517636299133,-10.37916374206543,4.371812343597412
1696082326226733800,4.22473388671875,-0.28730419278144836,-10.429441452026367,5.056853294372559
1696082326236734000,4.23473388671875,-0.7565677165985107,-10.575488090515137,5.600337028503418
1696082326246733800,4.24473388671875,-0.8259995579719543,-10.750265121459961,6.062417984008789
1696082326256733700,4.254733642578125,-0.6919242739677429,-10.927435874938965,6.553229331970215
1696082326266733800,4.26473388671875,-0.3902548849582672,-11.231499671936035,6.986579895019531
1696082326276733700,4.274733642578125,0.12210428714752197,-11.693580627441406,7.376834869384766
1696082326286733800,4.28473388671875,0.751779317855835,-12.165238380432129,7.429507255554199
1696082326296733700,4.294733642578125,1.4867992401123047,-12.316072463989258,7.029675483703613
1696082326306733800,4.30473388671875,2.1116859912872314,-12.306495666503906,6.395212173461914
1696082326316733700,4.314733642578125,2.765302896499634,-12.378321647644043,5.748777389526367
1696082326326733800,4.32473388671875,3.2345664501190186,-12.557887077331543,5.147832870483398
1696082326336733700,4.334733642578125,3.3734302520751953,-12.615347862243652,4.223371982574463
1696082326346733800,4.34473388671875,3.6320040225982666,-12.203545570373535,2.540247917175293
1696082326356733700,4.354733642578125,4.189853191375732,-11.96173095703125,0.8140285611152649
1696082326366733800,4.36473388671875,4.434061527252197,-12.225092887878418,-0.45010992884635925
1696082326376733700,4.374733642578125,3.7469255924224854,-12.9026517868042,-1.1492167711257935
1696082326386733800,4.38473388671875,1.8746598958969116,-13.795689582824707,-1.6687586307525635
1696082326396733700,4.394733642578125,0.1628057211637497,-14.566622734069824,-2.470816135406494
1696082326406733800,4.40473388671875,-1.482010841369629,-15.13913631439209,-2.2625205516815186
1696082326416734200,4.414734130859375,-3.004723072052002,-15.361796379089355,-1.6400281190872192
1696082326426734000,4.424734130859375,-4.335899353027344,-15.048155784606934,-2.078166961669922
1696082326436734200,4.434734130859375,-4.937143325805664,-14.092570304870605,-2.691082715988159
1696082326446734000,4.444734130859375,-4.953902721405029,-12.940959930419922,-2.4684219360351562
1696082326456734200,4.454734130859375,-4.309563159942627,-12.251429557800293,-1.2114660739898682
1696082326466734300,4.464734375,-3.205836057662964,-11.684003829956055,0.3878606855869293
1696082326476734200,4.474734130859375,-1.1851298809051514,-11.056722640991211,1.5442601442337036
1696082326486734300,4.484734375,1.0271124839782715,-10.704774856567383,2.410961151123047
1696082326496734200,4.494734130859375,2.456450939178467,-10.343250274658203,3.4404678344726562
1696082326506734300,4.504734375,2.1499931812286377,-10.03918743133545,3.711012601852417
1696082326516734200,4.514734130859375,1.0534487962722778,-9.58668327331543,3.4189200401306152
1696082326526734300,4.524734375,-0.12449848651885986,-9.229947090148926,2.6647465229034424
1696082326536734200,4.534734130859375,-1.0223240852355957,-8.873210906982422,2.118868589401245
1696082326546734300,4.544734375,-1.290474772453308,-8.480561256408691,1.5155296325683594
1696082326556734200,4.554734130859375,-1.3287819623947144,-8.12861442565918,0.9385270476341248
1696082326566734300,4.564734375,-0.9433154463768005,-7.7527241706848145,0.30885201692581177
1696082326576734200,4.574734130859375,-0.9792284965515137,-7.486968040466309,-0.24420857429504395
1696082326586734300,4.584734375,-1.1228805780410767,-7.28346061706543,-0.7445967197418213
1696082326596734000,4.59473388671875,-1.2210428714752197,-7.034463882446289,-1.2042834758758545
1696082326606734000,4.604734130859375,-1.3215993642807007,-6.8285627365112305,-1.3503297567367554
1696082326616734000,4.61473388671875,-1.3215993642807007,-6.78546667098999,-1.2856862545013428
1696082326626734000,4.624734130859375,-1.3048399686813354,-6.818985939025879,-1.036689281463623
1696082326636734000,4.63473388671875,-1.3551181554794312,-6.833351135253906,-0.7469909191131592
1696082326646734000,4.644734130859375,-1.436521053314209,-6.823774337768555,-0.5003881454467773
1696082326656734000,4.65473388671875,-1.4676456451416016,-6.699275493621826,-0.3663128614425659
1696082326666734000,4.664734130859375,-1.5131354331970215,-6.555623531341553,-0.4596867263317108
1696082326676734000,4.67473388671875,-1.53707754611969,-6.323386192321777,-0.9265560507774353
1696082326686734000,4.684734130859375,-1.4963760375976562,-6.036081790924072,-1.601720929145813
1696082326696734000,4.69473388671875,-1.436521053314209,-5.758354187011719,-2.1595699787139893
1696082326706734000,4.704734130859375,-1.2665326595306396,-5.404012680053711,-2.449268341064453
1696082326716734000,4.71473388671875,-0.8379706144332886,-4.9706621170043945,-2.559401512145996
1696082326726733800,4.72473388671875,-0.24420857429504395,-4.479551315307617,-2.607285737991333
1696082326736734000,4.73473388671875,0.28969839215278625,-4.218583583831787,-2.499546527862549
1696082326746733800,4.74473388671875,0.6727706789970398,-4.383783340454102,-1.6903064250946045
1696082326756734000,4.75473388671875,1.5155296325683594,-4.920383930206299,0.19393034279346466
1696082326766733800,4.76473388671875,3.3638534545898438,-5.973832607269287,2.9257144927978516
1696082326776734000,4.77473388671875,6.325780391693115,-7.4678144454956055,6.110301971435547
1696082326786733800,4.78473388671875,8.837297439575195,-9.431059837341309,9.313743591308594
1696082326796734000,4.79473388671875,9.514857292175293,-11.53316879272461,11.370363235473633
1696082326806733800,4.80473388671875,10.920252799987793,-13.496414184570312,12.533945083618164
1696082326816734000,4.81473388671875,13.122919082641602,-15.270816802978516,13.494020462036133
1696082326826733800,4.82473388671875,13.156437873840332,-16.740856170654297,14.104541778564453
1696082326836734000,4.83473388671875,10.778995513916016,-17.389684677124023,12.943353652954102
1696082326846733800,4.84473388671875,9.026439666748047,-16.654664993286133,8.724770545959473
1696082326856734000,4.85473388671875,6.933907508850098,-14.274529457092285,4.716577529907227
1696082326866733800,4.86473388671875,5.313032627105713,-10.95616626739502,2.011129379272461
1696082326876734000,4.87473388671875,3.7205893993377686,-7.309797286987305,0.8307880163192749
1696082326886733800,4.88473388671875,2.8826189041137695,-4.168305397033691,0.30885201692581177
1696082326896734000,4.89473388671875,2.9328970909118652,-2.542642116546631,-0.44532153010368347
1696082326906734000,4.904734130859375,1.9823989868164062,-3.950432777404785,-1.2282254695892334
1696082326916733700,4.914733642578125,-1.3766659498214722,-7.697657585144043,-0.3711012601852417
1696082326926733600,4.924733642578125,-4.000710964202881,-11.231499671936035,0.21547815203666687
1696082326936733700,4.934733642578125,-4.175487995147705,-13.606547355651855,1.1324573755264282
1696082326946733600,4.944733642578125,-2.8610711097717285,-14.928445816040039,3.6343982219696045
1696082326956733700,4.954733642578125,1.5298948287963867,-15.294758796691895,5.9642558097839355
1696082326966733600,4.964733642578125,7.312191486358643,-15.974712371826172,5.791872978210449
1696082326976733700,4.974733642578125,7.905953407287598,-14.990694999694824,2.6144683361053467
1696082326986733600,4.984733642578125,3.023876667022705,-11.832444190979004,-0.8738836050033569
1696082326996733700,4.994733642578125,-2.346317768096924,-9.13657283782959,-2.983175277709961
1696082327006733600,5.004733642578125,-5.703287601470947,-7.273883819580078,-4.752490520477295
1696082327016733700,5.014733642578125,-7.525275230407715,-6.203675746917725,-6.127061367034912
1696082327026733800,5.02473388671875,-8.190863609313965,-6.476614952087402,-5.705681800842285
1696082327036733700,5.034733642578125,-7.597101211547852,-7.565976619720459,-4.97545051574707
1696082327046733800,5.04473388671875,-6.340145587921143,-9.064746856689453,-4.812345504760742
1696082327056733700,5.054733642578125,-5.418377876281738,-10.948983192443848,-3.1651346683502197
1696082327066733800,5.06473388671875,-4.8051629066467285,-12.035951614379883,-1.4724340438842773
1696082327076733700,5.074733642578125,-4.259284973144531,-12.215516090393066,-0.29209262132644653
1696082327086733800,5.08473388671875,-3.600879430770874,-11.846809387207031,0.5817909836769104
1696082327096733700,5.094733642578125,-2.4660277366638184,-11.140520095825195,1.1755530834197998
1696082327106733800,5.10473388671875,-0.8690952062606812,-10.484508514404297,1.8363527059555054
1696082327116733700,5.114733642578125,0.993593692779541,-10.036792755126953,2.477998733520508
1696082327126733800,5.12473388671875,2.516305923461914,-9.852438926696777,3.1747114658355713
1696082327136733700,5.134733642578125,3.2776620388031006,-9.651326179504395,3.8355112075805664
1696082327146733800,5.14473388671875,3.1651346683502197,-9.40711784362793,4.259284973144531
1696082327156733700,5.154733642578125,2.3080103397369385,-9.004891395568848,4.230554580688477
1696082327166733800,5.16473388671875,1.161187767982483,-8.652944564819336,3.9240965843200684
1696082327176733700,5.174733642578125,0.17238251864910126,-8.451830863952637,3.4356794357299805
1696082327186733800,5.18473388671875,-0.43095630407333374,-8.332120895385742,2.7940332889556885
1696082327196734200,5.194734130859375,-0.7637503147125244,-8.248324394226074,2.121262788772583
1696082327206734300,5.204734375,-0.8738836050033569,-8.370428085327148,1.723825216293335
1696082327216734700,5.214734619140625,-0.8954314589500427,-8.612242698669434,1.522712230682373
1696082327226734800,5.22473486328125,-1.1061211824417114,-8.810961723327637,1.2210428714752197
1696082327236734700,5.234734619140625,-1.5059528350830078,-8.734347343444824,1.0678139925003052
1696082327246734800,5.24473486328125,-1.4293384552001953,-8.698433876037598,0.9385270476341248
1696082327256734700,5.254734619140625,-0.8164227604866028,-8.937853813171387,1.2545616626739502
1696082327266734600,5.264734619140625,0.0071826050989329815,-9.466972351074219,1.7884687185287476
1696082327276734700,5.274734619140625,0.7445967197418213,-9.909899711608887,2.31758713722229
1696082327286734600,5.284734619140625,1.194706678390503,-10.283395767211914,2.7485435009002686
1696082327296734700,5.294734619140625,1.2689268589019775,-10.333673477172852,3.0861260890960693
1696082327306734600,5.304734619140625,0.9241618514060974,-10.118195533752441,3.313575267791748
1696082327316734700,5.314734619140625,0.38067805767059326,-9.816526412963867,3.3925838470458984
1696082327326734600,5.324734619140625,-0.2322375625371933,-9.648932456970215,3.114856481552124
1696082327336734700,5.334734619140625,-0.6536170840263367,-9.720758438110352,2.4181437492370605
1696082327346734600,5.344734619140625,-0.6967126727104187,-9.919476509094238,1.5969325304031372
1696082327356734700,5.354734619140625,-0.15083470940589905,-10.25466537475586,0.8547300100326538
1696082327366734600,5.364734619140625,0.9959878921508789,-10.604218482971191,0.3232172429561615
1696082327376734700,5.374734619140625,2.5330653190612793,-10.790966033935547,0.21308395266532898
1696082327386734600,5.384734619140625,4.019864559173584,-10.781389236450195,0.5674257874488831
1696082327396734700,5.394734619140625,4.958691120147705,-10.678439140319824,1.2976573705673218
1696082327406734600,5.404734619140625,4.973056316375732,-10.436624526977539,2.255337953567505
1696082327416734700,5.414734619140625,3.97916316986084,-9.993697166442871,3.184288263320923
1696082327426734600,5.424734619140625,2.3750481605529785,-9.596260070800781,3.9624037742614746
1696082327436734700,5.434734619140625,0.811634361743927,-9.617807388305664,4.644751071929932
1696082327446734600,5.444734619140625,-0.4884171485900879,-9.98412036895752,5.344157695770264
1696082327456734700,5.454734619140625,-1.3910311460494995,-10.364798545837402,6.012139797210693
1696082327466734600,5.464734619140625,-1.5298948287963867,-10.64970874786377,6.684910297393799
1696082327476734700,5.474734619140625,-0.9696516990661621,-10.64970874786377,7.228394031524658
1696082327486734600,5.484734619140625,0.4165911078453064,-10.532392501831055,7.144597053527832
1696082327496734200,5.494734130859375,2.3702597618103027,-10.477325439453125,6.562806129455566
1696082327506734300,5.504734375,3.9911341667175293,-10.98729133605957,5.892429828643799
1696082327516734200,5.514734130859375,4.937143325805664,-11.856386184692383,5.284302234649658
1696082327526734300,5.524734375,5.243600845336914,-12.438177108764648,4.54419469833374
1696082327536734200,5.534734130859375,5.087977886199951,-12.770971298217773,3.7852327823638916
1696082327546734300,5.544734375,4.4723687171936035,-12.768576622009277,3.0813376903533936
1696082327556734200,5.554734130859375,3.117250680923462,-12.679991722106934,2.8658595085144043
1696082327566734300,5.564734375,1.889025092124939,-12.66323184967041,3.114856481552124
1696082327576734200,5.574734130859375,0.9145850539207458,-12.897863388061523,3.246537446975708
1696082327586734300,5.584734375,-0.17238251864910126,-13.60175895690918,2.7557260990142822
1696082327596734200,5.594734130859375,-0.5195417404174805,-14.724939346313477,1.556231141090393
1696082327606734300,5.604734375,-0.17477671802043915,-16.21413230895996,-0.021547814831137657
1696082327616734200,5.614734130859375,-0.6177040338516235,-17.688961029052734,-1.2880805730819702
1696082327626734300,5.624734375,-2.4229321479797363,-18.742408752441406,-2.0661959648132324
1696082327636734200,5.634734130859375,-4.797980308532715,-18.658613204956055,-2.5282769203186035
1696082327646734300,5.644734375,-6.191704750061035,-17.025766372680664,-2.942473888397217
1696082327656734200,5.654734130859375,-5.511751651763916,-14.657602310180664,-3.2154128551483154
1696082327666734300,5.664734375,-2.142810583114624,-12.648866653442383,-2.806004285812378
1696082327676734200,5.674734130859375,-0.08619125932455063,-11.607389450073242,-0.933738648891449
1696082327686734300,5.684734375,1.6831238269805908,-11.016021728515625,0.9289502501487732
1696082327696734200,5.694734130859375,3.399766445159912,-10.44620132446289,2.3295583724975586
1696082327706734300,5.704734375,2.999934673309326,-10.060734748840332,2.5067291259765625
1696082327716734200,5.714734130859375,1.0031704902648926,-9.778219223022461,2.4851813316345215
1696082327726734300,5.724734375,-0.7254431247711182,-9.47654914855957,2.2026655673980713
1696082327736734200,5.734734130859375,-2.0039467811584473,-9.131784439086914,2.0039467811584473
1696082327746734300,5.744734375,-2.233790159225464,-8.439860343933105,1.8076223134994507
1696082327756734200,5.754734130859375,-1.7190368175506592,-7.671321392059326,1.4437036514282227
1696082327766734000,5.764734130859375,-0.9600749015808105,-6.897994518280029,0.8667010068893433
1696082327776734200,5.774734130859375,-0.5410895943641663,-6.416759967803955,0.2106897532939911
1696082327786734000,5.784734130859375,-0.6033388376235962,-6.167762756347656,-0.43095630407333374
1696082327796734200,5.794734130859375,-0.9193734526634216,-6.069600582122803,-1.1348515748977661
1696082327806734000,5.804734130859375,-1.3407529592514038,-6.107907772064209,-1.601720929145813
1696082327816734200,5.814734130859375,-1.5131354331970215,-6.232406139373779,-1.7693150043487549
1696082327826734000,5.824734130859375,-1.5897499322891235,-6.347328186035156,-1.6735470294952393
1696082327836734200,5.834734130859375,-1.5322890281677246,-6.392817974090576,-1.4508862495422363
1696082327846734000,5.844734130859375,-1.4221558570861816,-6.380846977233887,-1.3048399686813354
1696082327856734200,5.854734130859375,-1.4317326545715332,-6.361693382263184,-1.0965443849563599
1696082327866734000,5.864734130859375,-1.6376339197158813,-6.232406139373779,-0.9600749015808105
1696082327876734200,5.874734130859375,-1.889025092124939,-6.093542575836182,-1.0223240852355957
1696082327886734000,5.884734130859375,-2.0925323963165283,-5.887641429901123,-1.290474772453308
1696082327896734200,5.894734130859375,-2.1930887699127197,-5.602731227874756,-1.6759412288665771
1696082327906734000,5.904734130859375,-2.027888774871826,-5.260360240936279,-2.0638017654418945
1696082327916734200,5.914734130859375,-1.5394717454910278,-4.812345504760742,-2.4420857429504395
1696082327926734000,5.924734130859375,-0.9002198576927185,-4.304774761199951,-2.736572504043579
1696082327936734200,5.934734130859375,-0.3064578175544739,-3.909731388092041,-2.8634653091430664
1696082327946734000,5.944734130859375,0.019153613597154617,-3.9240965843200684,-2.33913516998291
1696082327956734200,5.954734130859375,0.23702596127986908,-4.383783340454102,-0.8307880163192749
1696082327966734300,5.964734375,1.2449848651885986,-5.3226094245910645,1.414973258972168
1696082327976734200,5.974734130859375,3.892971992492676,-6.744765281677246,4.2951979637146
1696082327986734300,5.984734375,7.9322896003723145,-8.65054988861084,7.592312812805176
1696082327996734200,5.994734130859375,11.628936767578125,-10.98968505859375,10.980108261108398
1696082328006734300,6.004734375,13.975255012512207,-13.63288402557373,13.623307228088379
1696082328016734200,6.014734130859375,15.359402656555176,-16.422428131103516,15.541361808776855
1696082328026734300,6.024734375,15.53657341003418,-18.857330322265625,16.93478775024414
1696082328036734200,6.034734130859375,12.459725379943848,-20.059221267700195,16.5062255859375
1696082328046734300,6.044734375,8.894758224487305,-19.022531509399414,12.385504722595215
1696082328056734200,6.054734130859375,6.335357189178467,-15.907674789428711,7.034463882446289
1696082328066734300,6.064734375,4.134786128997803,-11.636119842529297,2.7700912952423096
1696082328076734200,6.074734130859375,3.141192674636841,-7.67850399017334,0.16759411990642548
1696082328086733300,6.0847333984375,2.5067291259765625,-5.638644218444824,-1.7477672100067139
1696082328096733400,6.0947333984375,2.1739351749420166,-6.859687328338623,-3.1914708614349365
1696082328106733300,6.1047333984375,2.786850690841675,-9.433453559875488,-4.223371982574463
1696082328116733400,6.1147333984375,3.3638534545898438,-11.528380393981934,-5.5021748542785645
1696082328126733300,6.1247333984375,4.235342979431152,-13.075035095214844,-4.72376012802124
1696082328136733400,6.1347333984375,4.821922302246094,-13.60175895690918,-0.7374141216278076
1696082328146733300,6.1447333984375,-2.6431987285614014,-11.458948135375977,1.4724340438842773
1696082328156733400,6.1547333984375,-5.3704938888549805,-8.662521362304688,2.942473888397217
1696082328166733300,6.1647333984375,-6.584353923797607,-5.918766021728516,2.9017724990844727
1696082328176733400,6.1747333984375,-5.748777389526367,-3.892971992492676,2.2673089504241943
1696082328186733300,6.1847333984375,-4.537012100219727,-4.570530891418457,1.9584569931030273
1696082328196733400,6.1947333984375,-4.062960147857666,-7.436689853668213,1.599326729774475
1696082328206733300,6.2047333984375,-3.9193081855773926,-10.216358184814453,0.5171475410461426
1696082328216733400,6.2147333984375,-4.242525577545166,-11.921029090881348,-0.3423708379268646
1696082328226733300,6.2247333984375,-5.207687854766846,-13.11334228515625,-0.4692635238170624
1696082328236733400,6.2347333984375,-5.686528205871582,-13.735834121704102,-0.1628057211637497
1696082328246733300,6.2447333984375,-5.257966041564941,-13.486837387084961,-0.12210428714752197
1696082328256733400,6.2547333984375,-4.288015365600586,-12.773365020751953,-0.2059013396501541
1696082328266733300,6.2647333984375,-3.1052796840667725,-11.604994773864746,-0.14844051003456116
1696082328276733200,6.274733154296875,-1.6400281190872192,-10.333673477172852,0.2801215946674347
1696082328286733300,6.2847333984375,0.3471592366695404,-9.361627578735352,0.6631938815116882
1696082328296733200,6.294733154296875,2.293645143508911,-8.961795806884766,0.8738836050033569
1696082328306733300,6.3047333984375,3.4620156288146973,-8.894758224487305,0.9361328482627869
1696082328316733200,6.314733154296875,3.4955344200134277,-8.992920875549316,0.9145850539207458
1696082328326733300,6.3247333984375,2.561795711517334,-9.124602317810059,0.9768342971801758
1696082328336733200,6.334733154296875,1.0869675874710083,-9.19163990020752,1.091755986213684
1696082328346733300,6.3447333984375,-0.24899697303771973,-9.172486305236816,1.3431471586227417
1696082328356733200,6.354733154296875,-1.1779472827911377,-9.01207447052002,1.5322890281677246
1696082328366733300,6.3647333984375,-1.4484920501708984,-8.777442932128906,1.6352397203445435
1696082328376733200,6.374733154296875,-1.4460978507995605,-8.5595703125,1.6855180263519287
1696082328386734000,6.384734130859375,-1.2880805730819702,-8.324938774108887,1.381454348564148
1696082328396734200,6.394734130859375,-0.9720458984375,-8.3800048828125,1.522712230682373
1696082328406734000,6.404734130859375,-0.6871358752250671,-8.540416717529297,1.7118542194366455
1696082328416734200,6.414734130859375,-0.4189853072166443,-8.626607894897461,1.6519991159439087
1696082328426734000,6.424734130859375,-0.5554547905921936,-8.640973091125488,1.5179238319396973
1696082328436734200,6.434734130859375,-0.5626373887062073,-8.679280281066895,1.4844050407409668
1696082328446734000,6.444734130859375,-0.47884035110473633,-8.89954662322998,1.4676456451416016
1696082328456734200,6.454734130859375,-0.3208230137825012,-9.469367027282715,1.5394717454910278
1696082328466734300,6.464734375,0.5530605912208557,-10.012850761413574,1.766920804977417
1696082328476734200,6.474734130859375,1.4748282432556152,-10.376769065856934,2.032677173614502
1696082328486734300,6.484734375,1.9369091987609863,-10.453383445739746,2.1595699787139893
1696082328496734200,6.494734130859375,1.7381904125213623,-10.35522174835205,2.2840683460235596
1696082328506734300,6.504734375,1.1827356815338135,-10.178050994873047,2.363077163696289
1696082328516734200,6.514734130859375,0.31364041566848755,-9.850045204162598,2.1571757793426514
1696082328526734000,6.524734130859375,-0.27054479718208313,-9.646537780761719,1.678335428237915
1696082328536734200,6.534734130859375,-0.47165772318840027,-9.687239646911621,1.1683704853057861
1696082328546734000,6.544734130859375,-0.2585737705230713,-9.957783699035645,1.036689281463623
1696082328556734200,6.554734130859375,0.3758896589279175,-10.271424293518066,1.0989385843276978
1696082328566734000,6.564734130859375,1.256955862045288,-10.364798545837402,1.3048399686813354
1696082328576734200,6.574734130859375,1.9345149993896484,-10.336068153381348,1.8914192914962769
1696082328586734000,6.584734130859375,2.2673089504241943,-10.350433349609375,2.7940332889556885
1696082328596734200,6.594734130859375,2.250549554824829,-10.407894134521484,3.8594532012939453
1696082328606734000,6.604734130859375,1.9943699836730957,-10.338461875915527,4.683058738708496
1696082328616734200,6.614734130859375,1.4676456451416016,-10.058341026306152,5.1238908767700195
1696082328626734000,6.624734130859375,0.8978256583213806,-9.811738014221191,5.24838924407959
1696082328636734200,6.634734130859375,0.2944868206977844,-9.850045204162598,5.29387903213501
1696082328646734000,6.644734130859375,-0.16759411990642548,-10.089465141296387,5.301061630249023
1696082328656734200,6.654734130859375,-0.38067805767059326,-10.295366287231445,5.29387903213501
1696082328666734000,6.664734130859375,-0.17717093229293823,-10.23311710357666,5.2124762535095215
1696082328676734200,6.674734130859375,0.6320692300796509,-9.905111312866211,4.996998310089111
1696082328686734000,6.684734130859375,1.845929503440857,-9.536404609680176,4.651933670043945
1696082328696734200,6.694734130859375,3.0406360626220703,-9.421483039855957,4.223371982574463
1696082328706734000,6.704734130859375,3.8953661918640137,-9.873987197875977,3.869029998779297
1696082328716734200,6.714734130859375,4.079719543457031,-10.95616626739502,3.732560396194458
1696082328726734000,6.724734130859375,3.754108190536499,-12.44536018371582,3.995922565460205
1696082328736734200,6.734734130859375,3.665522813796997,-13.417405128479004,4.280832767486572
1696082328746734000,6.744734130859375,3.907337188720703,-13.498808860778809,4.2329487800598145
1696082328756734200,6.754734130859375,4.309563159942627,-12.737452507019043,3.885789394378662
1696082328766734000,6.764734130859375,4.558559894561768,-11.667243957519531,3.485957622528076
1696082328776734200,6.774734130859375,3.737348794937134,-11.446977615356445,3.248931646347046
1696082328786734000,6.784734130859375,1.2689268589019775,-12.215516090393066,3.5003228187561035
1696082328796734200,6.794734130859375,-0.8810662031173706,-13.259387969970703,2.956839084625244
1696082328806734000,6.804734130859375,-1.9321208000183105,-14.751275062561035,1.920149803161621
1696082328816734200,6.814734130859375,-1.7501614093780518,-16.819866180419922,0.5099649429321289
1696082328826734000,6.824734130859375,-2.0446481704711914,-18.536508560180664,-0.7661445140838623
1696082328836734200,6.834734130859375,-3.1028854846954346,-19.43433380126953,-1.381454348564148
1696082328846734000,6.844734130859375,-4.10366153717041,-19.53489112854004,-1.5634137392044067
1696082328856734200,6.854734130859375,-5.210082054138184,-17.904438018798828,-1.4748282432556152
1696082328866734000,6.864734130859375,-4.644751071929932,-15.402498245239258,-1.6974890232086182
1696082328876734200,6.874734130859375,-3.2537200450897217,-13.415011405944824,-0.9576807022094727
1696082328886734000,6.884734130859375,-0.689530074596405,-12.031163215637207,0.0694318488240242
1696082328896734200,6.894734130859375,2.4588451385498047,-11.355998039245605,0.8451532125473022
1696082328906734000,6.904734130859375,2.8179752826690674,-11.037569046020508,1.3910311460494995
1696082328916734200,6.914734130859375,1.6496049165725708,-10.503662109375,1.8076223134994507
1696082328926734000,6.924734130859375,0.5650315880775452,-9.943418502807617,1.5729905366897583
1696082328936734200,6.934734130859375,-0.019153613597154617,-9.328108787536621,1.0893617868423462
1696082328946734000,6.944734130859375,-0.3423708379268646,-8.449437141418457,0.40462008118629456
1696082328956734200,6.954734130859375,-0.4668693244457245,-7.537246227264404,-0.3280056416988373
1696082328966734300,6.964734375,-0.5434837937355042,-6.854898929595947,-0.9600749015808105
1696082328976734200,6.974734130859375,-0.790086567401886,-6.376058578491211,-1.3670891523361206
1696082328986734300,6.984734375,-1.113303780555725,-5.973832607269287,-1.721431016921997
1696082328996734200,6.994734130859375,-0.9792284965515137,-5.729623794555664,-1.922544002532959
1696082329006734300,7.004734375,-0.6320692300796509,-5.612308025360107,-1.9991583824157715
1696082329016734200,7.014734130859375,-0.5386953949928284,-5.600337028503418,-1.9800047874450684
1696082329026734300,7.024734375,-0.7876923680305481,-5.638644218444824,-1.920149803161621
1696082329036734200,7.034734130859375,-1.0749965906143188,-5.806238174438477,-1.5658079385757446
1696082329046734300,7.044734375,-1.2856862545013428,-6.08396577835083,-1.0031704902648926
1696082329056734200,7.054734130859375,-1.3551181554794312,-6.2491655349731445,-0.33758243918418884
1696082329066734300,7.064734375,-1.455674648284912,-6.325780391693115,0.15322890877723694
1696082329076734200,7.074734130859375,-1.4891934394836426,-6.332962989807129,0.3878606855869293
1696082329086734300,7.084734375,-1.5203180313110352,-6.191704750061035,0.33518823981285095
1696082329096734200,7.094734130859375,-1.6687586307525635,-5.961861610412598,-0.24660277366638184
1696082329106734300,7.104734375,-1.821987509727478,-5.557241439819336,-0.9672574996948242
1696082329116734200,7.114734130859375,-1.745373010635376,-5.1693806648254395,-1.5155296325683594
1696082329126734300,7.124734375,-1.3742717504501343,-4.726154327392578,-1.9177556037902832
1696082329136734200,7.134734130859375,-0.8403648138046265,-4.333505153656006,-2.1811177730560303
1696082329146734300,7.144734375,-0.19871874153614044,-4.333505153656006,-2.1116859912872314
1696082329156734200,7.154734130859375,0.4620809257030487,-4.965873718261719,-1.1324573755264282
1696082329166734300,7.164734375,1.7717092037200928,-6.103119373321533,1.3024457693099976
1696082329176734200,7.174734130859375,3.780444383621216,-7.427113056182861,4.58968448638916
1696082329186734300,7.184734375,6.304232120513916,-9.028834342956543,8.703222274780273
1696082329196734200,7.194734130859375,6.373664379119873,-10.060734748840332,11.825261116027832
1696082329206734300,7.204734375,6.778284072875977,-10.829273223876953,13.199533462524414
1696082329216734200,7.214734130859375,8.729558944702148,-11.521198272705078,13.50838565826416
1696082329226734300,7.224734375,12.055105209350586,-12.871527671813965,13.99680233001709
1696082329236734200,7.234734130859375,14.12130069732666,-14.84704303741455,14.8374662399292
1696082329246734300,7.244734375,13.769352912902832,-16.499042510986328,14.202703475952148
1696082329256734200,7.254734130859375,10.731111526489258,-16.542137145996094,10.733505249023438
1696082329266734000,7.264734130859375,7.154173851013184,-12.730269432067871,5.104737281799316
1696082329276734200,7.274734130859375,4.821922302246094,-7.551611423492432,0.8906430602073669
1696082329286734000,7.284734130859375,4.46518611907959,-4.067748546600342,-2.1595699787139893
1696082329296734200,7.294734130859375,4.697423934936523,-3.179499864578247,-4.60165548324585
1696082329306734000,7.304734130859375,2.185906171798706,-5.672163009643555,-5.437531471252441
1696082329316734200,7.314734130859375,1.237802267074585,-9.914688110351562,-6.1845221519470215
1696082329326734000,7.324734130859375,1.3479355573654175,-12.91222858428955,-6.96503210067749
1696082329336734200,7.334734130859375,0.8020575642585754,-14.075811386108398,-7.635408401489258
1696082329346734000,7.344734130859375,0.05267243832349777,-14.988301277160645,-6.366481781005859
1696082329356734200,7.354734130859375,-0.24660277366638184,-16.228498458862305,-3.050212860107422
1696082329366734000,7.364734130859375,0.4381389021873474,-17.624317169189453,0.019153613597154617
1696082329376734200,7.374734130859375,-0.689530074596405,-17.36095428466797,2.698265314102173
1696082329386734000,7.384734130859375,-3.9049429893493652,-14.655207633972168,3.5913026332855225
1696082329396734000,7.39473388671875,-5.717652797698975,-11.23868179321289,2.410961151123047
1696082329406733800,7.40473388671875,-6.6489973068237305,-8.207622528076172,1.41257905960083
1696082329416734000,7.41473388671875,-7.087136268615723,-6.469432353973389,0.7565677165985107
1696082329426733800,7.42473388671875,-7.740753173828125,-6.203675746917725,0.689530074596405
1696082329436734000,7.43473388671875,-7.977779388427734,-7.328950881958008,0.9672574996948242
1696082329446733800,7.44473388671875,-6.972214698791504,-9.069535255432129,1.1085153818130493
1696082329456734000,7.45473388671875,-5.176563262939453,-10.759841918945312,1.6352397203445435
1696082329466734000,7.464734130859375,-4.290409564971924,-11.990461349487305,2.1547815799713135
1696082329476734000,7.47473388671875,-3.8762125968933105,-12.486061096191406,3.095702886581421
1696082329486734000,7.484734130859375,-3.066972494125366,-12.253823280334473,3.799597978591919
1696082329496734000,7.49473388671875,-2.0661959648132324,-11.523591995239258,3.9815573692321777
1696082329506734000,7.504734130859375,-1.0869675874710083,-10.489296913146973,3.670311212539673
1696082329516734000,7.51473388671875,0.4189853072166443,-9.287407875061035,3.0573954582214355
1696082329526733800,7.52473388671875,1.9800047874450684,-8.432677268981934,2.499546527862549
1696082329536734000,7.53473388671875,3.4141316413879395,-7.961019992828369,1.7357962131500244
1696082329546877700,7.544877685546875,4.311957359313965,-7.771877765655518,0.8643068075180054
1696082329556877300,7.554877197265625,4.443638324737549,-7.817368030548096,-0.05027823522686958
1696082329566877200,7.564877197265625,3.7181951999664307,-7.992144584655762,-0.9026140570640564
1696082329576877300,7.574877197265625,2.4205379486083984,-8.332120895385742,-1.259350061416626
1696082329586877200,7.584877197265625,1.0127472877502441,-8.59308910369873,-0.9672574996948242
1696082329596877300,7.594877197265625,-0.05746084079146385,-8.89954662322998,-0.2753331959247589
1696082329606877200,7.604877197265625,-0.9074024558067322,-9.174880027770996,0.7613561153411865
1696082329616877300,7.614877197265625,-1.5466543436050415,-9.483732223510742,1.455674648284912
1696082329626877200,7.624877197265625,-2.1068975925445557,-9.737517356872559,1.6855180263519287
1696082329636877300,7.634877197265625,-2.078166961669922,-9.536404609680176,2.054224967956543
1696082329646877200,7.644877197265625,-1.8938134908676147,-9.038411140441895,2.513911724090576
1696082329656877300,7.654877197265625,-1.7501614093780518,-8.535628318786621,2.410961151123047
1696082329666877200,7.664877197265625,-0.7876923680305481,-8.444648742675781,2.3942017555236816
1696082329676877300,7.674877197265625,1.580173134803772,-9.229947090148926,2.719813108444214
1696082329686877200,7.684877197265625,3.7014358043670654,-10.64970874786377,3.265691041946411
1696082329696877600,7.694877685546875,4.683058738708496,-11.446977615356445,3.6966474056243896
1696082329706877400,7.70487744140625,4.060565948486328,-11.071087837219238,4.077325344085693
1696082329716877600,7.714877685546875,1.8602946996688843,-9.976937294006348,4.199429988861084
1696082329726877400,7.72487744140625,-0.6488286852836609,-8.86363410949707,3.6080620288848877
1696082329736877600,7.734877685546875,-2.274491548538208,-8.28902530670166,2.741360902786255
1696082329746877400,7.74487744140625,-2.7269957065582275,-8.55717658996582,1.8770540952682495
1696082329756877000,7.754876953125,-1.821987509727478,-9.555558204650879,1.158793568611145
1696082329766877200,7.764877197265625,-0.1412578970193863,-10.575488090515137,0.7158663272857666
1696082329776877000,7.774876953125,1.577778935432434,-11.209951400756836,0.5913678407669067
1696082329786877200,7.784877197265625,2.779668092727661,-11.42064094543457,0.9864110946655273
1696082329796877000,7.794876953125,3.3854012489318848,-11.075876235961914,1.6663644313812256
1696082329806877200,7.804877197265625,3.203441858291626,-10.391134262084961,2.140416383743286
1696082329816877000,7.814876953125,2.516305923461914,-9.85962200164795,2.164358377456665
1696082329826877200,7.824877197265625,1.580173134803772,-9.842862129211426,2.454056739807129
1696082329836877000,7.834876953125,0.35913026332855225,-10.182839393615723,3.1699230670928955
1696082329846877200,7.844877197265625,-0.727837324142456,-10.565911293029785,4.082113742828369
1696082329856877300,7.854877197265625,-1.4053963422775269,-10.702381134033203,5.001786708831787
1696082329866877400,7.86487744140625,-1.1899182796478271,-10.527604103088379,5.770325183868408
1696082329876877300,7.874877197265625,-0.023942016065120697,-10.1660795211792,6.0959367752075195
1696082329886877400,7.88487744140625,1.6160861253738403,-10.187627792358398,6.079177379608154
1696082329896877300,7.894877197265625,3.134010076522827,-11.118971824645996,6.146214962005615
1696082329906877400,7.90487744140625,4.390965938568115,-12.488455772399902,5.981015205383301
1696082329916877300,7.914877197265625,5.257966041564941,-13.216292381286621,5.4351372718811035
1696082329926877400,7.92487744140625,5.8565168380737305,-13.077428817749023,4.661510944366455
1696082329936877300,7.934877197265625,6.383241176605225,-12.579435348510742,3.93367338180542
1696082329946877400,7.94487744140625,5.533299446105957,-12.047922134399414,3.780444383621216
1696082329956877600,7.954877685546875,3.134010076522827,-12.093412399291992,3.976768970489502
1696082329966877400,7.96487744140625,0.22026655077934265,-12.579435348510742,4.20421838760376
1696082329976877600,7.974877685546875,-1.900996208190918,-13.233052253723145,3.6583402156829834
1696082329986877400,7.98487744140625,-2.166752576828003,-14.013562202453613,2.4875755310058594
1696082329996877600,7.994877685546875,-1.5897499322891235,-15.507843017578125,1.3263877630233765
1696082330006877400,8.00487744140625,-1.4389152526855469,-17.18378448486328,0.14844051003456116
1696082330016877600,8.014877685546875,-2.0254945755004883,-18.048091888427734,-0.6105214357376099
1696082330026877400,8.02487744140625,-3.404554843902588,-18.479047775268555,-1.0342950820922852
1696082330036877600,8.034877685546874,-4.733336925506592,-17.933168411254883,-1.3958195447921753
1696082330046877400,8.04487744140625,-5.344157695770264,-16.08484649658203,-1.8914192914962769
1696082330056877800,8.0548779296875,-4.841075897216797,-13.798083305358887,-2.0374655723571777
1696082330066878000,8.0648779296875,-1.3694833517074585,-12.014403343200684,-2.0398597717285156
1696082330076877800,8.0748779296875,2.741360902786255,-11.157279014587402,-1.0247182846069336
1696082330086878000,8.0848779296875,4.1874589920043945,-10.905887603759766,0.3711012601852417
1696082330096877800,8.0948779296875,2.7246015071868896,-10.403105735778809,0.9864110946655273
1696082330106878000,8.1048779296875,0.8738836050033569,-9.933841705322266,0.8858546018600464
1696082330116877800,8.1148779296875,-0.2346317619085312,-9.325715065002441,0.13168109953403473
1696082330126878000,8.1248779296875,-0.871489405632019,-8.688857078552246,-0.15322890877723694
1696082330136877800,8.1348779296875,-0.828393816947937,-8.075942039489746,-0.10055647045373917
1696082330146878000,8.1448779296875,-0.811634361743927,-7.470208644866943,0.023942016065120697
1696082330156877800,8.1548779296875,-1.1013327836990356,-6.8932061195373535,0.2082955539226532
1696082330166878000,8.1648779296875,-1.4748282432556152,-6.565200328826904,0.45489832758903503
1696082330176877800,8.1748779296875,-1.6831238269805908,-6.3856353759765625,0.4644751250743866
1696082330186878000,8.1848779296875,-1.4053963422775269,-6.280290126800537,0.30885201692581177
1696082330196877800,8.1948779296875,-0.9792284965515137,-6.127061367034912,-0.0071826050989329815
1696082330206878000,8.2048779296875,-0.8571242094039917,-5.976226806640625,-0.33997663855552673
1696082330216877800,8.2148779296875,-1.0199298858642578,-5.961861610412598,-0.5315127968788147
1696082330226878000,8.2248779296875,-1.2210428714752197,-5.99298620223999,-0.6009446382522583
1696082330236877800,8.2348779296875,-1.6112977266311646,-5.9881978034973145,-0.4572925269603729
1696082330246878000,8.2448779296875,-2.078166961669922,-5.997774600982666,-0.272938996553421
1696082330256877800,8.2548779296875,-2.279279947280884,-5.997774600982666,-0.40701428055763245
1696082330266878000,8.2648779296875,-2.300827741622925,-5.95946741104126,-0.9169792532920837
1696082330276877800,8.2748779296875,-2.3319525718688965,-5.839757442474365,-1.5107412338256836
1696082330286878000,8.2848779296875,-2.188300371170044,-5.629067420959473,-2.1284453868865967
1696082330296877800,8.2948779296875,-1.9273324012756348,-5.226841449737549,-2.5737667083740234
1696082330306878000,8.3048779296875,-1.479616641998291,-4.711789131164551,-2.868253707885742
1696082330316877800,8.3148779296875,-0.8236053586006165,-4.173093795776367,-3.1747114658355713
1696082330326878000,8.3248779296875,-0.2322375625371933,-3.955221176147461,-3.1723172664642334
1696082330336877800,8.3348779296875,0.2777273952960968,-4.367023944854736,-2.410961151123047
1696082330346878000,8.3448779296875,0.9361328482627869,-5.214870452880859,-0.5985504388809204
1696082330356877800,8.3548779296875,3.1459810733795166,-6.579565525054932,2.0805611610412598
1696082330366878000,8.3648779296875,8.092700958251953,-8.317755699157715,6.012139797210693
1696082330376877800,8.3748779296875,10.333673477172852,-10.443806648254395,10.204386711120605
1696082330386878000,8.3848779296875,9.972148895263672,-12.648866653442383,12.632107734680176
1696082330396877800,8.3948779296875,10.93222427368164,-14.911686897277832,13.743017196655273
1696082330406878000,8.4048779296875,13.051093101501465,-16.719308853149414,14.071022987365723
1696082330416877800,8.4148779296875,14.564228057861328,-17.67220115661621,14.293683052062988
1696082330426878000,8.4248779296875,12.253823280334473,-16.539743423461914,12.545916557312012
1696082330436877800,8.4348779296875,8.475772857666016,-13.027151107788086,7.680898189544678
1696082330446878000,8.4448779296875,5.684134006500244,-9.397541046142578,4.003105163574219
1696082330456877800,8.4548779296875,4.182670593261719,-6.239588737487793,1.8148049116134644
1696082330466878000,8.4648779296875,3.117250680923462,-4.14915132522583,0.45489832758903503
1696082330476877800,8.4748779296875,2.382230758666992,-5.710470199584961,-0.6751648783683777
1696082330486878000,8.4848779296875,1.1899182796478271,-10.84363842010498,-0.7182605266571045
1696082330496877800,8.4948779296875,-0.1412578970193863,-16.343420028686523,-0.6416460275650024
1696082330506878000,8.5048779296875,-1.8602946996688843,-18.75438117980957,-0.3734954595565796
1696082330516877800,8.5148779296875,-2.58813214302063,-16.99224853515625,0.9959878921508789
1696082330526878000,8.5248779296875,-2.231395959854126,-12.665626525878906,2.9233202934265137
1696082330536877800,8.5348779296875,-0.9193734526634216,-9.455001831054688,3.3231520652770996
1696082330546878000,8.5448779296875,0.6224924325942993,-7.589918613433838,2.7676970958709717
1696082330556877800,8.5548779296875,-0.4668693244457245,-7.412747859954834,1.2425906658172607
1696082330566878000,8.5648779296875,-2.585737943649292,-9.009679794311523,-0.5913678407669067
1696082330576877800,8.5748779296875,-3.552995204925537,-10.443806648254395,-2.2385785579681396
1696082330586878000,8.5848779296875,-4.1611223220825195,-10.881945610046387,-3.5913026332855225
1696082330596877800,8.5948779296875,-5.368099689483643,-10.975319862365723,-4.089296340942383
1696082330606878000,8.6048779296875,-6.347328186035156,-11.188404083251953,-4.094084739685059
1696082330616877800,8.6148779296875,-6.318597793579102,-11.04475212097168,-3.8762125968933105
1696082330626878000,8.6248779296875,-5.3489460945129395,-11.07827091217041,-2.940079689025879
1696082330636877800,8.6348779296875,-5.073612689971924,-10.767024040222168,-1.6687586307525635
1696082330646878000,8.6448779296875,-5.006575107574463,-10.25466537475586,-1.01753568649292
1696082330656877800,8.6548779296875,-4.129997730255127,-9.876380920410156,-0.395043283700943
1696082330666878000,8.6648779296875,-2.980781078338623,-9.6896333694458,0.4644751250743866
1696082330676877800,8.6748779296875,-1.7310078144073486,-9.543587684631348,1.335964560508728
1696082330686878000,8.6848779296875,-0.17956513166427612,-9.44063663482666,2.1715409755706787
1696082330696877800,8.6948779296875,1.5682021379470825,-9.335291862487793,2.964021682739258
1696082330706878000,8.7048779296875,3.0334534645080566,-9.22515869140625,3.7229835987091064
1696082330716877800,8.7148779296875,3.627215623855591,-9.201216697692871,4.144362926483154
1696082330726878000,8.7248779296875,3.318363666534424,-8.985737800598145,3.931279182434082
1696082330736877800,8.7348779296875,2.5689783096313477,-8.693645477294922,3.6343982219696045
1696082330746878000,8.7448779296875,1.8076223134994507,-8.391976356506348,3.2345664501190186
1696082330756877800,8.7548779296875,1.0199298858642578,-8.126219749450684,2.3558945655822754
1696082330766878000,8.7648779296875,0.7254431247711182,-8.233959197998047,1.7310078144073486
1696082330776877800,8.7748779296875,0.6320692300796509,-8.549993515014648,1.314416766166687
1696082330786878000,8.7848779296875,0.5434837937355042,-8.834903717041016,1.0749965906143188
1696082330796877800,8.7948779296875,0.12210428714752197,-9.040804862976074,0.8164227604866028
1696082330806878000,8.8048779296875,-0.7398083209991455,-9.021651268005371,0.6033388376235962
1696082330816877800,8.8148779296875,-1.625662922859192,-9.024045944213867,0.8667010068893433
1696082330826878000,8.8248779296875,-1.9823989868164062,-8.959402084350586,1.01753568649292
1696082330836877800,8.8348779296875,-1.8986018896102905,-8.86363410949707,1.2521674633026123
1696082330846878000,8.8448779296875,-1.0055646896362305,-9.050381660461426,1.6304513216018677
1696082330856877800,8.8548779296875,0.3064578175544739,-9.536404609680176,1.9321208000183105
1696082330866878000,8.8648779296875,1.4245500564575195,-10.058341026306152,2.3535003662109375
1696082330876877800,8.8748779296875,1.6903064250946045,-10.201992988586426,2.9496564865112305
1696082330886878000,8.8848779296875,1.2258312702178955,-9.845256805419922,3.509899616241455
1696082330896877800,8.8948779296875,0.3280056416988373,-9.215581893920898,3.8810009956359863
1696082330906878000,8.9048779296875,-0.6512228846549988,-8.753500938415527,3.797203779220581
1696082330916877800,8.9148779296875,-0.9744400978088379,-8.612242698669434,3.380612850189209
1696082330926878000,8.9248779296875,-0.24420857429504395,-9.141361236572266,2.8658595085144043
1696082330936877800,8.9348779296875,1.4197616577148438,-9.907505989074707,2.1068975925445557
1696082330946878000,8.9448779296875,2.8850131034851074,-10.656890869140625,1.6424223184585571
1696082330956877800,8.9548779296875,3.6774938106536865,-11.061511039733887,1.4915876388549805
1696082330966878000,8.9648779296875,3.426102638244629,-11.154885292053223,1.7118542194366455
1696082330976877800,8.9748779296875,2.2361843585968018,-10.98968505859375,2.341529369354248
1696082330986878000,8.9848779296875,0.9840168952941895,-10.704774856567383,2.8826189041137695
1696082330996877800,8.9948779296875,0.21308395266532898,-10.450989723205566,3.28963303565979
1696082331006878000,9.0048779296875,-0.395043283700943,-10.395922660827637,3.804386615753174
1696082331016877800,9.0148779296875,-0.9528923034667969,-10.520421981811523,4.402936935424805
1696082331026878000,9.0248779296875,-1.2832920551300049,-10.539575576782227,5.001786708831787
1696082331036877800,9.0348779296875,-1.259350061416626,-10.328885078430176,5.387253284454346
1696082331046878000,9.0448779296875,-0.667982280254364,-10.055946350097656,5.621884822845459
1696082331056877800,9.0548779296875,0.7661445140838623,-9.828496932983398,5.514145851135254
1696082331066878000,9.0648779296875,2.7700912952423096,-9.878775596618652,5.11191987991333
1696082331076877800,9.0748779296875,4.587290287017822,-10.68562126159668,4.867412090301514
1696082331086878000,9.0848779296875,5.664980411529541,-12.179603576660156,4.903624534606934
1696082331096877800,9.0948779296875,6.189310550689697,-13.42219352722168,4.759673118591309
1696082331106878000,9.1048779296875,6.52449893951416,-14.071022987365723,4.532223701477051
1696082331116877800,9.1148779296875,6.6920928955078125,-13.60175895690918,4.170699596405029
1696082331126878000,9.1248779296875,5.29387903213501,-12.533945083618164,4.3191399574279785
1696082331136877800,9.1348779296875,2.427720546722412,-11.777377128601074,4.9922099113464355
1696082331146878000,9.1448779296875,-0.9768342971801758,-11.604994773864746,5.700893402099609
1696082331156877800,9.1548779296875,-3.5889084339141846,-12.411840438842773,6.00495719909668
1696082331166878000,9.1648779296875,-3.4739866256713867,-13.56584644317627,4.742913722991943
1696082331176877800,9.1748779296875,-1.5466543436050415,-15.249269485473633,2.801215887069702
1696082331186878000,9.1848779296875,-0.7326257228851318,-17.152660369873047,1.05105459690094
1696082331196877800,9.1948779296875,-1.5873557329177856,-18.5676326751709,-0.4118026793003082
1696082331206878000,9.2048779296875,-3.4572272300720215,-19.518131256103516,-1.0773907899856567
1696082331216877800,9.2148779296875,-5.4351372718811035,-19.278711318969727,-1.173158884048462
1696082331226878000,9.2248779296875,-6.972214698791504,-17.447145462036133,-1.2641384601593018
1696082331236877800,9.2348779296875,-6.301837921142578,-14.933234214782715,-1.946485996246338
1696082331246878000,9.2448779296875,-3.294421434402466,-13.223475456237793,-1.9081788063049316
1696082331256877800,9.2548779296875,2.2026655673980713,-12.038345336914062,-0.8020575642585754
1696082331266878000,9.2648779296875,5.940313816070557,-11.145308494567871,0.2059013396501541
1696082331276877800,9.2748779296875,5.346551895141602,-10.364798545837402,0.9840168952941895
1696082331286878000,9.2848779296875,2.209848165512085,-9.684844970703125,0.9648633003234863
1696082331296877800,9.2948779296875,0.033518824726343155,-9.1940336227417,0.3280056416988373
1696082331306878000,9.3048779296875,-0.7852981686592102,-8.710405349731445,-0.09576806426048279
1696082331316877800,9.3148779296875,-0.9026140570640564,-8.145373344421387,-0.35434186458587646
1696082331326878000,9.3248779296875,-1.6639702320098877,-7.367258071899414,-0.26575639843940735
1696082331336877800,9.3348779296875,-2.094926595687866,-6.572382926940918,-0.28730419278144836
1696082331346878000,9.3448779296875,-2.0183119773864746,-5.949890613555908,-0.2944868206977844
1696082331356877800,9.3548779296875,-1.50355863571167,-5.617096424102783,-0.4572925269603729
1696082331366878000,9.3648779296875,-1.0630255937576294,-5.574000835418701,-0.6344634294509888
1696082331376877800,9.3748779296875,-0.9600749015808105,-5.811026573181152,-0.8355764150619507
1696082331386878000,9.3848779296875,-1.2545616626739502,-6.215646743774414,-0.9576807022094727
1696082331396877800,9.3948779296875,-1.5442601442337036,-6.5388641357421875,-1.0989385843276978
1696082331406878000,9.4048779296875,-1.7621324062347412,-6.902782917022705,-0.9433154463768005
1696082331416877800,9.4148779296875,-1.6615760326385498,-7.017704486846924,-0.6943184733390808
1696082331426878000,9.4248779296875,-1.400607943534851,-6.9602437019348145,-0.6200982332229614
1696082331436877800,9.4348779296875,-1.4245500564575195,-6.668150901794434,-0.7350199222564697
1696082331446878000,9.4448779296875,-1.6687586307525635,-6.2707133293151855,-1.094150185585022
1696082331456877800,9.4548779296875,-1.8986018896102905,-5.90200662612915,-1.6208745241165161
1696082331466878000,9.4648779296875,-2.0039467811584473,-5.535693645477295,-2.322375535964966
1696082331476877800,9.4748779296875,-1.9536685943603516,-5.166986465454102,-3.00711727142334
1696082331486878000,9.4848779296875,-1.6424223184585571,-4.683058738708496,-3.531447410583496
1696082331496877800,9.4948779296875,-1.1971008777618408,-4.197035789489746,-3.754108190536499
1696082331506878000,9.5048779296875,-0.7326257228851318,-3.8163576126098633,-3.7229835987091064
1696082331516877800,9.5148779296875,-0.40940847992897034,-3.892971992492676,-3.1723172664642334
1696082331526878000,9.5248779296875,0.07422025501728058,-4.443638324737549,-1.6304513216018677
1696082331536877800,9.5348779296875,1.53707754611969,-5.377676486968994,0.6775590777397156
1696082331546878000,9.5448779296875,5.296273231506348,-6.716034889221191,3.5625722408294678
1696082331556877800,9.5548779296875,10.93222427368164,-8.827720642089844,6.84053373336792
1696082331566878000,9.5648779296875,12.727875709533691,-11.174038887023926,10.190021514892578
1696082331576877800,9.5748779296875,12.591405868530273,-13.575423240661621,13.29769515991211
1696082331586878000,9.5848779296875,12.486061096191406,-15.881338119506836,15.917251586914062
1696082331596877800,9.5948779296875,12.641684532165527,-17.700931549072266,17.83979606628418
1696082331606878000,9.6048779296875,11.083059310913086,-18.265962600708008,18.493412017822266
1696082331616877800,9.6148779296875,8.09509563446045,-16.594810485839844,15.179837226867676
1696082331626878000,9.6248779296875,5.6434326171875,-13.063063621520996,8.061576843261719
1696082331636877800,9.6348779296875,3.754108190536499,-9.232340812683105,4.07014274597168
1696082331646878000,9.6448779296875,2.671929121017456,-5.612308025360107,2.3726539611816406
1696082331656877800,9.6548779296875,2.2194249629974365,-2.4133553504943848,1.1061211824417114
1696082331666878000,9.6648779296875,4.050989151000977,-0.5171475410461426,-0.13168109953403473
1696082331676877800,9.6748779296875,-0.014365210197865963,-2.626439332962036,-0.3663128614425659
1696082331686878000,9.6848779296875,-3.7014358043670654,-7.40556526184082,-0.38067805767059326
1696082331696877800,9.6948779296875,-4.14915132522583,-11.825261116027832,-0.7829039692878723
1696082331706878000,9.7048779296875,-4.788403511047363,-14.51634407043457,-0.9552865028381348
1696082331716877800,9.7148779296875,-4.793191909790039,-16.38890838623047,-0.7206547260284424
1696082331726878000,9.7248779296875,-1.170764684677124,-17.272369384765625,0.304063618183136
1696082331736877800,9.7348779296875,4.185064792633057,-19.12308692932129,1.9847931861877441
1696082331746878000,9.7448779296875,6.610690116882324,-18.39285659790039,2.3989901542663574
1696082331756877800,9.7548779296875,4.285621166229248,-16.02259635925293,1.1468225717544556
1696082331766878000,9.7648779296875,0.6440402865409851,-12.732664108276367,-1.0414776802062988
1696082331776877800,9.7748779296875,-1.9800047874450684,-9.10305404663086,-3.7205893993377686
1696082331786878000,9.7848779296875,-4.003105163574219,-6.459855556488037,-5.935525417327881
1696082331796877800,9.7948779296875,-5.222053050994873,-6.201281547546387,-6.84053373336792
1696082331806877700,9.804877685546876,-5.183745861053467,-7.05601167678833,-6.25395393371582
1696082331816877600,9.814877685546875,-5.3226094245910645,-8.573935508728027,-4.4077253341674805
1696082331826877700,9.824877685546875,-6.007351398468018,-9.92665958404541,-2.612074136734009
1696082331836877600,9.834877685546875,-6.641814708709717,-10.656890869140625,-1.525106430053711
1696082331846877700,9.844877685546875,-6.66096830368042,-11.209951400756836,-0.2753331959247589
1696082331856877600,9.854877685546874,-6.804620742797852,-11.300930976867676,0.7613561153411865
1696082331866877700,9.864877685546874,-6.256348133087158,-11.095029830932617,1.1635819673538208
1696082331876877600,9.874877685546876,-4.438849925994873,-10.659285545349121,1.338358759880066
1696082331886877700,9.884877685546876,-2.250549554824829,-10.237905502319336,1.7741034030914307
1696082331896877600,9.894877685546875,0.016759412363171577,-9.845256805419922,2.5737667083740234
1696082331906877700,9.904877685546875,2.3056161403656006,-9.584288597106934,3.6607344150543213
1696082331916877600,9.914877685546875,4.228160381317139,-9.292196273803711,4.714183330535889
1696082331926877700,9.924877685546875,5.55245304107666,-8.851662635803223,4.9922099113464355
1696082331936877600,9.934877685546875,5.736806392669678,-8.339303970336914,4.505887508392334
1696082331946877700,9.944877685546874,4.460397720336914,-8.068758964538574,3.6822822093963623
1696082331956877600,9.954877685546874,2.6192567348480225,-8.229170799255371,2.6024973392486572
1696082331966877700,9.964877685546876,0.7350199222564697,-8.540416717529297,2.0231003761291504
1696082331976877600,9.974877685546875,-0.7589619159698486,-8.669703483581543,1.580173134803772
1696082331986877700,9.984877685546875,-1.6855180263519287,-8.904335021972656,1.3623007535934448
1696082331996877600,9.994877685546875,-2.473210334777832,-8.875604629516602,0.9169792532920837
1696082332006877700,10.004877685546875,-3.134010076522827,-8.662521362304688,0.7613561153411865
1696082332016877600,10.014877685546875,-2.8826189041137695,-8.700828552246094,0.9672574996948242
1696082332026877700,10.024877685546874,-1.6184803247451782,-9.10305404663086,1.115697979927063
1696082332036877600,10.034877685546874,-0.5410895943641663,-9.682451248168945,1.414973258972168
1696082332046877700,10.044877685546876,0.22266076505184174,-10.13974380493164,2.166752576828003
1696082332056877600,10.054877685546876,0.7733271718025208,-10.41507625579834,3.0526070594787598
1696082332066877700,10.064877685546875,1.1324573755264282,-10.398317337036133,3.706224203109741
1696082332076877600,10.074877685546875,1.292868971824646,-10.240300178527832,3.8115692138671875
1696082332086877700,10.084877685546875,1.4197616577148438,-9.98412036895752,3.0190882682800293
1696082332096877600,10.094877685546875,2.0039467811584473,-9.850045204162598,1.6663644313812256
1696082332106878000,10.1048779296875,2.734178304672241,-9.83568000793457,0.5482721924781799
1696082332116877800,10.1148779296875,3.4955344200134277,-9.888352394104004,-0.12210428714752197
1696082332126878000,10.1248779296875,3.9624037742614746,-10.010457038879395,-0.14844051003456116
1696082332136877800,10.1348779296875,3.8067808151245117,-10.26663589477539,0.42616790533065796
1696082332146878000,10.1448779296875,2.7964274883270264,-10.573094367980957,1.400607943534851
1696082332156877800,10.1548779296875,1.558625340461731,-10.697592735290527,2.4444799423217773
1696082332166878000,10.1648779296875,0.23942017555236816,-10.462960243225098,3.179499864578247
1696082332176877800,10.1748779296875,-0.5602431893348694,-10.089465141296387,3.9432501792907715
1696082332186878000,10.1848779296875,-0.8212111592292786,-9.862015724182129,4.824316501617432
1696082332196877800,10.1948779296875,-1.0606313943862915,-10.003273963928223,5.827786445617676
1696082332206878000,10.2048779296875,-1.1324573755264282,-10.26663589477539,6.79743766784668
1696082332216877800,10.2148779296875,-0.524330198764801,-10.38155746459961,7.412747859954834
1696082332226878000,10.2248779296875,0.9313444495201111,-10.28818416595459,7.498939037322998
1696082332236877800,10.2348779296875,2.9328970909118652,-10.259453773498535,7.020098686218262
1696082332246878000,10.2448779296875,4.666299343109131,-10.999261856079102,6.768707275390625
1696082332256877800,10.2548779296875,5.617096424102783,-12.196362495422363,6.531681537628174
1696082332266878000,10.2648779296875,6.000168800354004,-12.62971305847168,5.660192012786865
1696082332276877800,10.2748779296875,6.361693382263184,-12.237064361572266,4.460397720336914
1696082332286878000,10.2848779296875,6.605901718139648,-11.743858337402344,3.643975019454956
1696082332296877800,10.2948779296875,4.963479518890381,-11.456554412841797,3.7924153804779053
1696082332306878000,10.3048779296875,1.0199298858642578,-11.952154159545898,4.812345504760742
1696082332316877800,10.3148779296875,-2.786850690841675,-13.27135944366455,6.127061367034912
1696082332326878000,10.3248779296875,-4.817133903503418,-15.26363468170166,6.263530731201172
1696082332336877800,10.3348779296875,-4.32871675491333,-17.389684677124023,4.97545051574707
1696082332346878000,10.3448779296875,-2.6408045291900635,-18.9459171295166,2.911349296569824
1696082332356877800,10.3548779296875,-2.2649147510528564,-19.985000610351562,1.1204863786697388
1696082332366878000,10.3648779296875,-2.717418909072876,-20.535667419433594,0.035913024097681046
1696082332376877800,10.3748779296875,-3.177105665206909,-20.77269172668457,-1.216254472732544
1696082332386878000,10.3848779296875,-3.8355112075805664,-19.635446548461914,-1.6304513216018677
1696082332396877800,10.3948779296875,-5.411195278167725,-17.329830169677734,-1.9776105880737305
1696082332406878000,10.4048779296875,-3.912125587463379,-14.439729690551758,-3.1052796840667725
1696082332416877800,10.4148779296875,0.33997663855552673,-12.275371551513672,-3.071760892868042
1696082332426878000,10.4248779296875,3.6942532062530518,-11.23868179321289,-1.802833914756775
1696082332436877800,10.4348779296875,3.907337188720703,-10.429441452026367,-0.7493851184844971
1696082332446878000,10.4448779296875,1.886630892753601,-9.847650527954102,-0.1604115068912506
1696082332456877800,10.4548779296875,0.3974374830722809,-9.308955192565918,-0.4213795065879822
1696082332466878000,10.4648779296875,-0.2944868206977844,-8.703222274780273,-0.4836287498474121
1696082332476877800,10.4748779296875,-1.6400281190872192,-8.169315338134766,-0.1173158809542656
1696082332486878000,10.4848779296875,-2.3582887649536133,-7.340921878814697,0.17956513166427612
1696082332496877800,10.4948779296875,-2.403778553009033,-6.409577369689941,0.5985504388809204
1696082332506878000,10.5048779296875,-2.008735179901123,-5.629067420959473,0.9672574996948242
1696082332516877800,10.5148779296875,-1.5107412338256836,-5.176563262939453,0.9145850539207458
1696082332526878000,10.5248779296875,-1.070208191871643,-4.956296920776367,0.7206547260284424
1696082332536877800,10.5348779296875,-0.9552865028381348,-5.044882297515869,0.2801215946674347
1696082332546878000,10.5448779296875,-1.1803414821624756,-5.344157695770264,-0.35434186458587646
1696082332556877800,10.5548779296875,-1.6950948238372803,-5.583577632904053,-0.8834604024887085
1696082332566878000,10.5648779296875,-2.0805611610412598,-5.873276233673096,-1.1228805780410767
1696082332576877800,10.5748779296875,-1.9919757843017578,-6.139032363891602,-1.2330138683319092
1696082332586878000,10.5848779296875,-1.8052281141281128,-6.234800338745117,-1.3287819623947144
1696082332596877800,10.5948779296875,-1.8483237028121948,-6.2084641456604,-1.5538369417190552
1696082332606878000,10.6048779296875,-2.1092917919158936,-6.103119373321533,-1.9297266006469727
1696082332616877800,10.6148779296875,-2.33913516998291,-5.904400825500488,-2.425326347351074
1696082332626878000,10.6248779296875,-2.3774423599243164,-5.590760231018066,-3.1435868740081787
1696082332636877800,10.6348779296875,-2.248155355453491,-5.164592266082764,-3.974374771118164
1696082332646878000,10.6448779296875,-1.7405846118927002,-4.596867084503174,-4.786009311676025
1696082332656877800,10.6548779296875,-1.1492167711257935,-3.9887399673461914,-5.262754440307617
1696082332666878000,10.6648779296875,-0.7781155705451965,-3.6320040225982666,-5.06643009185791
1696082332676877800,10.6748779296875,-0.31603461503982544,-4.101267337799072,-3.7469255924224854
1696082332686878000,10.6848779296875,0.569819986820221,-4.961085319519043,-1.3838485479354858
1696082332696877800,10.6948779296875,2.274491548538208,-5.81342077255249,1.1755530834197998
1696082332706878000,10.7048779296875,6.26592493057251,-7.144597053527832,4.019864559173584
1696082332716877800,10.7148779296875,13.917794227600098,-9.510068893432617,8.447042465209961
1696082332726877200,10.724877197265625,16.544532775878906,-12.342409133911133,12.950536727905273
1696082332736877000,10.734876953125,14.06383991241455,-15.29954719543457,16.99942970275879
1696082332746877200,10.744877197265625,10.53478717803955,-18.198925018310547,18.68973731994629
1696082332756877000,10.754876953125,8.32254409790039,-19.568408966064453,18.237232208251953
1696082332766877200,10.764877197265625,8.43507194519043,-18.974647521972656,15.742474555969238
1696082332776877000,10.774876953125,7.755118370056152,-16.228498458862305,9.885957717895508
1696082332786877200,10.784877197265626,5.356128692626953,-12.14369010925293,5.262754440307617
1696082332796877000,10.794876953125,3.1268274784088135,-7.647379398345947,2.2864625453948975
1696082332806877200,10.804877197265625,2.580949544906616,-3.579331636428833,0.33997663855552673
1696082332816877000,10.814876953125,2.832340717315674,-0.8523358106613159,-1.2952631711959839
1696082332826877200,10.824877197265625,1.8698714971542358,-2.7437551021575928,-1.9608511924743652
1696082332836877000,10.834876953125,0.9864110946655273,-8.41112995147705,-1.3742717504501343
1696082332846877200,10.844877197265625,0.8068459630012512,-14.17636775970459,-0.8882488012313843
1696082332856877000,10.854876953125,0.5937620401382446,-17.60276985168457,-0.7015010714530945
1696082332866877200,10.864877197265624,4.417302131652832,-20.46623420715332,1.45806884765625
1696082332876877000,10.874876953125,2.9017724990844727,-20.382436752319336,3.224989652633667
1696082332886877200,10.884877197265626,-3.780444383621216,-16.51101303100586,2.4444799423217773
1696082332896877000,10.894876953125,-7.077559471130371,-12.239458084106445,0.4836287498474121
1696082332906877200,10.904877197265625,-6.2491655349731445,-9.581894874572754,-0.8212111592292786
1696082332916877000,10.914876953125,-4.4723687171936035,-7.228394031524658,-1.7381904125213623
1696082332926877200,10.924877197265625,-3.998316764831543,-5.528511047363281,-2.4468741416931152
1696082332936877000,10.934876953125,-4.288015365600586,-5.499780654907227,-2.7293899059295654
1696082332946877200,10.944877197265624,-4.730942726135254,-6.658574104309082,-3.0310592651367188
1696082332956877000,10.954876953125,-4.8267107009887695,-8.336909294128418,-2.8131868839263916
1696082332966877200,10.964877197265626,-4.424484729766846,-9.974543571472168,-2.4157495498657227
1696082332976877000,10.974876953125,-4.599261283874512,-11.528380393981934,-1.601720929145813
1696082332986877200,10.984877197265625,-5.332186222076416,-12.261006355285645,-0.4884171485900879
1696082332996877000,10.994876953125,-5.516540050506592,-12.186785697937012,0.07900865375995636
1696082333006877200,11.004877197265625,-4.278438568115234,-11.698369026184082,0.45010992884635925
1696082333016877000,11.014876953125,-2.387019157409668,-11.087847709655762,0.9097966551780701
1696082333026878000,11.0248779296875,-0.3758896589279175,-10.247482299804688,1.4867992401123047
1696082333036877800,11.0348779296875,1.6759412288665771,-9.340080261230469,2.097320795059204
1696082333046878000,11.0448779296875,3.2824504375457764,-8.573935508728027,2.655169725418091
1696082333342664400,11.34066455078125,-2.011129379272461,-10.094253540039062,3.9839515686035156
1696082333352664600,11.35066455078125,-3.162740468978882,-10.597036361694336,4.862623691558838
1696082333362664400,11.36066455078125,-3.5386300086975098,-10.980108261108398,5.846940040588379
1696082333372664600,11.37066455078125,-2.784456491470337,-11.04714584350586,6.905177116394043
1696082333382664400,11.38066455078125,-1.1085153818130493,-10.778995513916016,7.63301420211792
1696082333392664600,11.39066455078125,1.2258312702178955,-10.539575576782227,7.573159217834473
1696082333402664400,11.40066455078125,3.3710360527038574,-10.668862342834473,7.355287075042725
1696082333412664600,11.41066455078125,4.558559894561768,-11.300930976867676,7.1996636390686035
1696082333422664400,11.42066455078125,4.642356872558594,-12.205939292907715,6.716034889221191
1696082333432664600,11.43066455078125,4.364629745483398,-12.998420715332031,5.923554420471191
1696082333442664400,11.44066455078125,4.350264549255371,-13.163619995117188,4.730942726135254
1696082333452664600,11.45066455078125,4.417302131652832,-13.122919082641602,3.8738183975219727
1696082333462664700,11.460664794921875,3.6296098232269287,-13.417405128479004,3.737348794937134
1696082333472664600,11.47066455078125,1.7597382068634033,-14.078205108642578,3.5386300086975098
1696082333482664700,11.480664794921875,-0.16998831927776337,-14.715362548828125,2.6001031398773193
1696082333492664600,11.49066455078125,-0.9193734526634216,-15.421651840209961,1.479616641998291
1696082333502664700,11.500664794921875,-0.5770025849342346,-16.285959243774414,-0.17717093229293823
1696082333512664600,11.51066455078125,-0.5530605912208557,-17.42559814453125,-1.968033790588379
1696082333522664700,11.520664794921874,-1.4245500564575195,-18.251598358154297,-2.875436305999756
1696082333532664600,11.53066455078125,-2.9017724990844727,-18.476652145385742,-3.066972494125366
1696082333542664700,11.540664794921875,-4.168305397033691,-17.84697723388672,-2.940079689025879
1696082333552664600,11.55066455078125,-5.119102478027344,-16.015413284301758,-2.7222073078155518
1696082333562664700,11.560664794921875,-4.400542736053467,-13.898639678955078,-2.4468741416931152
1696082333572664600,11.57066455078125,-0.17956513166427612,-12.385504722595215,-2.3127987384796143
1696082333582664700,11.580664794921875,2.1930887699127197,-11.595417976379395,-0.7541735172271729
1696082333592664600,11.59066455078125,2.9544448852539062,-11.126154899597168,0.7829039692878723
1696082333602664700,11.600664794921874,2.2026655673980713,-10.647314071655273,1.3838485479354858
1696082333612664600,11.61066455078125,0.6775590777397156,-10.225934982299805,1.580173134803772
1696082333622664700,11.620664794921876,-0.545877993106842,-9.579500198364258,1.2090718746185303
1696082333632664600,11.63066455078125,-1.359906554222107,-8.88757610321045,0.8427590131759644
1696082333642664700,11.640664794921875,-1.9584569931030273,-8.10706615447998,0.689530074596405
1696082333652664600,11.65066455078125,-1.8339585065841675,-7.257124423980713,0.6177040338516235
1696082333662664700,11.660664794921875,-1.3431471586227417,-6.49098014831543,0.2825157940387726
1696082333672664600,11.67066455078125,-0.8978256583213806,-6.028899192810059,-0.047884032130241394
1696082333682664700,11.680664794921874,-0.7422025203704834,-5.90200662612915,-0.42856210470199585
1696082333692664600,11.69066455078125,-0.9050082564353943,-5.966650009155273,-0.7613561153411865
1696082333702664700,11.700664794921876,-1.192312479019165,-6.057629585266113,-1.1252747774124146
1696082333712664600,11.71066455078125,-1.256955862045288,-6.148609161376953,-1.4724340438842773
1696082333722664700,11.720664794921875,-1.3862427473068237,-6.263530731201172,-1.6376339197158813
1696082333732664600,11.73066455078125,-1.6543933153152466,-6.373664379119873,-1.5897499322891235
1696082333742664700,11.740664794921875,-1.9057846069335938,-6.3880295753479,-1.3479355573654175
1696082333752664600,11.75066455078125,-1.8698714971542358,-6.337751388549805,-1.0342950820922852
1696082333762664700,11.760664794921874,-1.764526605606079,-6.198887348175049,-0.7398083209991455
1696082333772664600,11.77066455078125,-1.800439715385437,-6.019322395324707,-0.6488286852836609
1696082333782664700,11.780664794921876,-1.9081788063049316,-5.686528205871582,-0.9433154463768005
1696082333792664600,11.79066455078125,-2.0661959648132324,-5.286696434020996,-1.482010841369629
1696082333802664700,11.800664794921875,-2.0207061767578125,-4.76924991607666,-2.142810583114624
1696082333812664600,11.81066455078125,-1.7310078144073486,-4.182670593261719,-2.8371291160583496
1696082333822664700,11.820664794921875,-1.2066776752471924,-3.670311212539673,-3.399766445159912
1696082333832664600,11.83066455078125,-0.6727706789970398,-3.2968156337738037,-3.5936968326568604
1696082333842664700,11.840664794921874,-0.08379705995321274,-3.318363666534424,-3.1196448802948
1696082333852664600,11.85066455078125,0.7110779285430908,-3.998316764831543,-1.5945383310317993
1696082333862664700,11.860664794921876,1.7190368175506592,-5.1909284591674805,1.05105459690094
1696082333872664600,11.87066455078125,3.9432501792907715,-6.591536521911621,4.0964789390563965
1696082333882664700,11.880664794921875,8.844480514526367,-8.83011531829834,7.893982410430908
1696082333892664600,11.89066455078125,10.50126838684082,-11.042357444763184,11.667243957519531
1696082333902664700,11.900664794921875,9.794978141784668,-13.403039932250977,14.06383991241455
1696082333912664600,11.91066455078125,10.697592735290527,-15.584457397460938,15.218144416809082
1696082333922664700,11.920664794921874,13.515567779541016,-17.526155471801758,16.738462448120117
1696082333932664600,11.93066455078125,14.044686317443848,-19.029714584350586,17.322647094726562
1696082333942664700,11.940664794921876,11.20276927947998,-18.809446334838867,14.4133939743042
1696082333952664600,11.95066455078125,7.470208644866943,-16.4439754486084,8.023268699645996
1696082333962664700,11.960664794921875,4.874594688415527,-12.526762962341309,3.5218706130981445
1696082333972664600,11.97066455078125,4.077325344085693,-8.372822761535645,1.3742717504501343
1696082333982664700,11.980664794921875,3.2345664501190186,-6.115090370178223,-0.22505496442317963
1696082333992664600,11.99066455078125,2.674323320388794,-6.876446723937988,-1.357512354850769
1696082334002664700,12.000664794921875,2.96162748336792,-9.459790229797363,-2.3535003662109375
1696082334012664600,12.01066455078125,1.292868971824646,-12.102989196777344,-2.5330653190612793
1696082334022664700,12.020664794921874,-1.5849615335464478,-13.745410919189453,-2.2002713680267334
1696082334032664600,12.03066455078125,-1.280897855758667,-15.345037460327148,-0.8427590131759644
1696082334042664700,12.040664794921875,1.8171991109848022,-14.7201509475708,1.1013327836990356
1696082334052664600,12.05066455078125,1.742978811264038,-11.78216552734375,1.2976573705673218
1696082334062664700,12.060664794921875,-1.7381904125213623,-9.115025520324707,0.1628057211637497
1696082334072664600,12.07066455078125,-5.186140060424805,-7.848492622375488,-0.5793967843055725
1696082334082664700,12.080664794921875,-6.203675746917725,-7.764695167541504,-1.113303780555725
1696082334092664600,12.09066455078125,-5.815814971923828,-8.032846450805664,-1.6112977266311646
1696082334102664700,12.100664794921874,-5.617096424102783,-8.571541786193848,-2.1356279850006104
1696082334112664600,12.11066455078125,-5.700893402099609,-9.445425033569336,-2.5689783096313477
1696082334122664700,12.120664794921876,-5.9642558097839355,-10.37916374206543,-2.2625205516815186
1696082334132664600,12.13066455078125,-5.794267177581787,-11.332056045532227,-1.558625340461731
1696082334142664700,12.140664794921875,-5.394435882568359,-12.237064361572266,-0.7493851184844971
1696082334152664600,12.15066455078125,-4.944325923919678,-12.498032569885254,0.033518824726343155
1696082334162664700,12.160664794921875,-3.8307228088378906,-11.913846969604492,0.23702596127986908
1696082334172664600,12.17066455078125,-2.5258827209472656,-10.948983192443848,0.4165911078453064
1696082334182664700,12.180664794921874,-0.9385270476341248,-9.9865140914917,0.9576807022094727
1696082334192664600,12.19066455078125,0.8595184087753296,-9.330503463745117,1.8171991109848022
1696082334202664700,12.200664794921876,2.4444799423217773,-8.801384925842285,2.6384103298187256
1696082334212664600,12.21066455078125,3.6559460163116455,-8.351274490356445,2.8874073028564453
1696082334222664700,12.220664794921875,3.9815573692321777,-8.217199325561523,2.738966703414917
1696082334232664600,12.23066455078125,3.3470940589904785,-8.317755699157715,2.4420857429504395
1696082334242664700,12.240664794921875,2.2457611560821533,-8.538022994995117,2.3343467712402344
1696082334252664600,12.25066455078125,0.9433154463768005,-8.530839920043945,2.1547815799713135
1696082334262664700,12.260664794921874,-0.24660277366638184,-8.430283546447754,1.7525556087493896
1696082334272664600,12.27066455078125,-1.6424223184585571,-8.451830863952637,1.2018892765045166
1696082334282664700,12.280664794921876,-1.1085153818130493,-8.439860343933105,1.6663644313812256
1696082334292664600,12.29066455078125,-0.9026140570640564,-8.487744331359863,1.5729905366897583
1696082334302664700,12.300664794921875,-1.2832920551300049,-8.636184692382812,1.4413094520568848
1696082334312664600,12.31066455078125,-1.6112977266311646,-8.935460090637207,1.4173674583435059
1696082334322664700,12.320664794921875,-1.7717092037200928,-9.007286071777344,1.8195933103561401
1696082334332664600,12.33066455078125,-1.7094600200653076,-9.055170059204102,2.0446481704711914
1696082334342664700,12.340664794921874,-1.0654197931289673,-9.31613826751709,2.319981336593628
1696082334352664600,12.35066455078125,0.4429273009300232,-9.634567260742188,2.5258827209472656
1696082334362664700,12.360664794921876,2.1164743900299072,-9.972148895263672,2.7437551021575928
1696082334372664600,12.37066455078125,3.112462282180786,-10.201992988586426,3.354276657104492
1696082334382664700,12.380664794921875,2.937685489654541,-10.120590209960938,4.153939723968506
1696082334392664600,12.39066455078125,2.0661959648132324,-9.71357536315918,4.587290287017822
1696082334402664700,12.400664794921875,0.8571242094039917,-9.107842445373535,4.158728122711182
1696082334412664600,12.41066455078125,-0.15083470940589905,-8.784625053405762,3.045424461364746
1696082334422664700,12.420664794921874,-0.6224924325942993,-8.935460090637207,1.8770540952682495
1696082334432664600,12.43066455078125,-0.2992752194404602,-9.416694641113281,0.7374141216278076
1696082334442664700,12.440664794921876,0.7206547260284424,-10.027215957641602,-0.17238251864910126
1696082334452664600,12.45066455078125,1.9153614044189453,-10.59464168548584,-0.5602431893348694
1696082334462664700,12.460664794921875,2.9951462745666504,-10.93461799621582,-0.4692635238170624
1696082334472664600,12.47066455078125,3.4955344200134277,-11.08066463470459,0.19632454216480255
1696082334482664700,12.480664794921875,3.0765492916107178,-10.922647476196289,1.0654197931289673
1696082342251838000,20.249837890625,2.80361008644104,0.2849099934101105,9.380781173706055
1696082342261837800,20.259837890625,2.82515811920166,0.31364041566848755,9.325715065002441
1696082342271838000,20.269837890625,2.7437551021575928,0.3280056416988373,9.35205078125
1696082342281838300,20.27983837890625,2.806004285812378,0.2801215946674347,9.44063663482666
1696082342291829200,20.289829345703126,2.9089550971984863,0.3734954595565796,9.541193008422852
1696082342301829400,20.299829345703124,2.5977089405059814,0.31842881441116333,9.514857292175293
1696082342311829200,20.309829345703125,2.719813108444214,0.2059013396501541,9.38317584991455
1696082342321829400,20.319829345703123,2.7533318996429443,0.23702596127986908,8.909123420715332
1696082342331829200,20.329829345703125,2.832340717315674,0.21547815203666687,8.813355445861816
1696082342341829400,20.339829345703127,2.6671407222747803,0.2777273952960968,8.95461368560791
1696082342351829200,20.349829345703125,2.832340717315674,0.3495534360408783,9.397541046142578
1696082342361829400,20.359829345703126,3.1052796840667725,0.26575639843940735,9.706393241882324
1696082342371829200,20.369829345703124,2.9712042808532715,0.2513911724090576,9.773430824279785
1696082342381829400,20.379829345703126,2.9927520751953125,0.3423708379268646,9.577106475830078
1696082342391829200,20.389829345703124,2.7916390895843506,0.38067805767059326,9.3735990524292
1696082342401829400,20.399829345703125,2.8993782997131348,0.3902548849582672,9.016862869262695
1696082342411829200,20.409829345703123,2.6839001178741455,0.2753331959247589,8.930671691894531
1696082342421829400,20.419829345703125,2.9161376953125,0.2082955539226532,8.877999305725098
1696082342431829200,20.429829345703126,2.8850131034851074,0.2513911724090576,8.882787704467773
1696082342441829400,20.439829345703124,3.0166940689086914,0.3208230137825012,8.870816230773926
1696082342451829200,20.449829345703126,2.691082715988159,0.40462008118629456,8.930671691894531
1696082342461829400,20.459829345703124,2.628833532333374,0.4836287498474121,9.198822021484375
1696082342471829500,20.46982958984375,2.734178304672241,0.3663128614425659,9.438241958618164
1696082342481829400,20.479829345703124,3.0813376903533936,0.22026655077934265,9.486125946044922
1696082342491829500,20.48982958984375,2.8658595085144043,0.090979665517807,9.76864242553711
1696082342501829400,20.499829345703127,2.853888511657715,0.07422025501728058,9.617807388305664
1696082342511829500,20.50982958984375,2.8634653091430664,0.16519992053508759,9.31853199005127
1696082342521829400,20.519829345703126,2.7509377002716064,0.36152446269989014,9.371204376220703
1696082342531829500,20.52982958984375,2.8371291160583496,0.47405192255973816,9.35205078125
1696082342541829400,20.539829345703126,2.913743495941162,0.5363011956214905,9.220370292663574
1696082342551829500,20.54982958984375,2.8610711097717285,0.4429273009300232,9.131784439086914
1696082342561829400,20.559829345703125,2.8658595085144043,0.33039984107017517,9.189245223999023
1696082342571829500,20.56982958984375,2.7437551021575928,0.40940847992897034,9.198822021484375
1696082342581829400,20.579829345703125,2.760514497756958,0.6248866319656372,9.404723167419434
1696082342591830300,20.589830322265627,3.0789434909820557,0.5315127968788147,9.737517356872559
1696082342601830400,20.599830322265625,3.117250680923462,0.304063618183136,9.579500198364258
1696082342611830300,20.609830322265626,3.0142998695373535,0.15083470940589905,9.428665161132812
1696082342621830400,20.619830322265624,3.071760892868042,0.26815059781074524,9.320926666259766
1696082342631830300,20.629830322265626,2.942473888397217,0.3926490843296051,9.31613826751709
1696082342641830400,20.639830322265624,2.9017724990844727,0.4572925269603729,9.603442192077637
1696082342651830300,20.649830322265625,2.9065608978271484,0.45250412821769714,9.596260070800781
1696082342661830400,20.659830322265623,3.0166940689086914,0.3878606855869293,9.455001831054688
1696082342671830300,20.669830322265625,2.873042106628418,0.28730419278144836,9.455001831054688
1696082342681830400,20.679830322265627,2.82515811920166,0.22266076505184174,9.423876762390137
1696082342691830300,20.689830322265625,3.00711727142334,0.2849099934101105,9.390357971191406
1696082342701830400,20.699830322265626,3.021482467651367,0.26336219906806946,9.555558204650879
1696082342711830300,20.709830322265624,2.779668092727661,0.2585737705230713,9.737517356872559
1696082342721830400,20.719830322265626,2.628833532333374,0.38307225704193115,9.608230590820312
1696082342731830300,20.729830322265624,2.7557260990142822,0.5315127968788147,9.31853199005127
1696082342741830400,20.739830322265625,2.6455929279327393,0.5530605912208557,9.234735488891602
1696082342751830300,20.749830322265623,2.911349296569824,0.48602294921875,9.38556957244873
1696082342761830100,20.759830078125,3.24414324760437,0.3495534360408783,9.68005657196045
1696082342771830300,20.769830322265626,3.2082302570343018,0.31124621629714966,9.754277229309082
1696082342781830100,20.779830078125,2.9161376953125,0.35673606395721436,9.797372817993164
1696082342791830300,20.789830322265626,2.786850690841675,0.4429273009300232,9.598653793334961
1696082342801830100,20.799830078125,2.894589900970459,0.5434837937355042,9.450213432312012
1696082342811830300,20.809830322265626,3.1459810733795166,0.524330198764801,9.390357971191406
1696082342821830100,20.819830078125,3.023876667022705,0.4429273009300232,9.213187217712402
1696082342831830300,20.829830322265625,2.892195701599121,0.5003881454467773,8.935460090637207
1696082342841830100,20.839830078125,2.7892448902130127,0.5219359993934631,8.966584205627441
1696082342851830300,20.849830322265625,2.7964274883270264,0.5099649429321289,9.088688850402832
1696082342861830100,20.859830078125,2.8802247047424316,0.4118026793003082,9.469367027282715
1696082342871830300,20.869830322265624,2.980781078338623,0.4381389021873474,9.627384185791016
1696082342881830100,20.879830078125,2.913743495941162,0.45489832758903503,9.512462615966797
1696082342891830300,20.889830322265624,3.0142998695373535,0.49799394607543945,9.186851501464844
1696082342901830100,20.899830078125,2.736572504043579,0.5147533416748047,9.04319953918457
1696082342911830300,20.909830322265623,2.829946517944336,0.5315127968788147,9.184456825256348
1696082342921830100,20.919830078125,2.913743495941162,0.545877993106842,9.366415977478027
1696082342931830300,20.929830322265627,3.0095114707946777,0.44532153010368347,9.469367027282715
1696082342941830100,20.939830078125,2.8658595085144043,0.33279404044151306,9.478943824768066
1696082342951830300,20.949830322265626,2.80361008644104,0.48602294921875,9.35205078125
1696082342961830400,20.959830322265624,2.8155810832977295,0.6033388376235962,9.17009162902832
1696082342971830300,20.969830322265626,2.7102363109588623,0.5219359993934631,9.301773071289062
1696082342981830400,20.979830322265624,2.612074136734009,0.4644751250743866,9.239523887634277
1696082342991830300,20.989830322265625,2.741360902786255,0.5027823448181152,9.320926666259766
1696082343001830400,20.999830322265623,2.9927520751953125,0.5722141861915588,9.287407875061035
1696082343011830300,21.009830322265625,2.894589900970459,0.545877993106842,9.330503463745117
1696082343021830400,21.019830322265626,2.8850131034851074,0.5147533416748047,9.47654914855957
1696082343031830300,21.029830322265624,2.7772738933563232,0.5434837937355042,9.507674217224121
1696082343041830400,21.039830322265626,2.832340717315674,0.6416460275650024,9.26107120513916
1696082343051830300,21.049830322265624,2.6575639247894287,0.6057330369949341,8.901941299438477
1696082343061830400,21.059830322265626,2.671929121017456,0.5147533416748047,8.782231330871582
